starttime,task,fbtask,firsttask,withinblocktrial,block,withintasktrial,trial,running,feedback,fbscore,difflevel,n_xes,rt,resp,cor,cresp,conf_press,cj,RTconf,reddots,post1,post2,post3,post4,post5,stoptime,sub,age,gender,handedness,session,
1715588947,xotask,xotask,dotcolour,0,0,0,0,training,positivefb,93,easy,5,2.120341100000587,['n'],1,right,['1'],6,1.5481916999997338,,,,,,,,19,19,Vrouw,Rechts,2,
,xotask,xotask,dotcolour,1,0,1,1,training,positivefb,80,hard,28,1.0684626000002027,['n'],1,right,['1'],6,0.9505543999994188,,,,,,,,19,19,Vrouw,Rechts,2,
,xotask,xotask,dotcolour,2,0,2,2,training,positivefb,85,hard,54,0.9017592999998669,['n'],0,left,['1'],6,0.24978100000043924,,,,,,,,19,19,Vrouw,Rechts,2,
,xotask,xotask,dotcolour,3,0,3,3,training,positivefb,91,hard,53,0.7349309000001085,['c'],1,left,['1'],6,0.4156085999993593,,,,,,,,19,19,Vrouw,Rechts,2,
,xotask,xotask,dotcolour,4,0,4,4,training,positivefb,85,hard,29,0.6024521999997887,['n'],1,right,['1'],6,0.2997906000000512,,,,,,,,19,19,Vrouw,Rechts,2,
,xotask,xotask,dotcolour,5,0,5,5,training,positivefb,87,easy,5,0.6512731999991956,['n'],1,right,['9'],2,0.27583099999992555,,,,,,,,19,19,Vrouw,Rechts,2,
,xotask,xotask,dotcolour,6,0,6,6,training,positivefb,97,hard,27,0.6179330000004484,['n'],1,right,['2'],5,0.6383998000001156,,,,,,,,19,19,Vrouw,Rechts,2,
,xotask,xotask,dotcolour,7,0,7,7,training,positivefb,88,average,61,0.8523792999994839,['c'],1,left,['2'],5,0.312267399999655,,,,,,,,19,19,Vrouw,Rechts,2,
,xotask,xotask,dotcolour,8,0,8,8,training,positivefb,65,average,18,0.6015081000005011,['n'],1,right,['2'],5,0.24164380000001984,,,,,,,,19,19,Vrouw,Rechts,2,
,xotask,xotask,dotcolour,9,0,9,9,training,positivefb,97,average,16,0.6348411999997552,['n'],1,right,['1'],6,0.23685240000031627,,,,,,,,19,19,Vrouw,Rechts,2,
,xotask,xotask,dotcolour,10,0,10,10,training,positivefb,87,easy,71,0.7018807000004017,['c'],1,left,['1'],6,0.33308390000001964,,,,,,,,19,19,Vrouw,Rechts,2,
,xotask,xotask,dotcolour,11,0,11,11,training,positivefb,32,average,64,2.1195976999997583,['n'],0,left,['0'],1,0.6311463000001822,,,,,,,,19,19,Vrouw,Rechts,2,
,xotask,xotask,dotcolour,12,0,12,12,training,positivefb,95,average,60,0.6687352999997529,['n'],0,left,['1'],6,0.20091010000032838,,,,,,,,19,19,Vrouw,Rechts,2,
,xotask,xotask,dotcolour,13,0,13,13,training,positivefb,98,hard,26,0.6173197999996773,['n'],1,right,['1'],6,0.2700291000001016,,,,,,,,19,19,Vrouw,Rechts,2,
,xotask,xotask,dotcolour,14,0,14,14,training,positivefb,97,easy,71,0.6845141999992848,['c'],1,left,['2'],5,0.22901569999976346,,,,,,,,19,19,Vrouw,Rechts,2,
,xotask,xotask,dotcolour,15,0,15,15,training,positivefb,87,easy,73,0.8845424999999523,['c'],1,left,['2'],5,0.25463529999979073,,,,,,,,19,19,Vrouw,Rechts,2,
,xotask,xotask,dotcolour,16,0,16,16,training,positivefb,99,easy,8,0.5680654999996477,['n'],1,right,['2'],5,0.2756306000001132,,,,,,,,19,19,Vrouw,Rechts,2,
,xotask,xotask,dotcolour,17,0,17,17,training,positivefb,75,easy,72,0.7340881999998601,['n'],0,left,['3'],4,0.40903509999952803,,,,,,,,19,19,Vrouw,Rechts,2,
,xotask,xotask,dotcolour,18,0,18,18,training,positivefb,95,easy,74,0.9007301000001462,['c'],1,left,['2'],5,0.26620699999966746,,,,,,,,19,19,Vrouw,Rechts,2,
,xotask,xotask,dotcolour,19,0,19,19,training,positivefb,47,average,64,0.7010900999994192,['n'],0,left,['0'],1,1.1609072999999626,,,,,,,,19,19,Vrouw,Rechts,2,
,xotask,xotask,dotcolour,20,0,20,20,training,positivefb,96,average,15,0.6188388000000486,['n'],1,right,['2'],5,0.2470112999999401,,,,,,,,19,19,Vrouw,Rechts,2,
,xotask,xotask,dotcolour,21,0,21,21,training,positivefb,96,average,60,0.551579999999376,['c'],1,left,['2'],5,0.2610827000007703,,,,,,,,19,19,Vrouw,Rechts,2,
,xotask,xotask,dotcolour,22,0,22,22,training,positivefb,98,easy,73,0.4511410999994041,['c'],1,left,['2'],5,0.27946539999993547,,,,,,,,19,19,Vrouw,Rechts,2,
,xotask,xotask,dotcolour,23,0,23,23,training,positivefb,98,hard,52,1.1180761000005077,['c'],1,left,['2'],5,0.25271470000006957,,,,,,,,19,19,Vrouw,Rechts,2,
,xotask,xotask,dotcolour,24,0,24,24,training,positivefb,88,hard,54,0.8345313999998325,['c'],1,left,['2'],5,0.2708996000001207,,,,,,,,19,19,Vrouw,Rechts,2,
,xotask,xotask,dotcolour,25,0,25,25,training,positivefb,96,average,60,0.8672269999997297,['c'],1,left,['2'],5,0.23046369999974559,,,,,,,,19,19,Vrouw,Rechts,2,
,xotask,xotask,dotcolour,26,0,26,26,training,positivefb,73,average,19,0.7000266999993983,['c'],0,right,['2'],5,0.24726520000058372,,,,,,,,19,19,Vrouw,Rechts,2,
,xotask,xotask,dotcolour,27,0,27,27,training,positivefb,98,easy,8,0.6023844000001191,['n'],1,right,['2'],5,0.20375539999986358,,,,,,,,19,19,Vrouw,Rechts,2,
,xotask,xotask,dotcolour,28,0,28,28,training,positivefb,98,easy,74,0.7024594000004072,['c'],1,left,['2'],5,0.20545180000044638,,,,,,,,19,19,Vrouw,Rechts,2,
,xotask,xotask,dotcolour,29,0,29,29,training,positivefb,97,average,62,0.8016283000006297,['c'],1,left,['2'],5,0.1955420000003869,,,,,,,,19,19,Vrouw,Rechts,2,
,xotask,xotask,dotcolour,30,0,30,30,training,positivefb,91,average,18,0.5849893000004158,['n'],1,right,['2'],5,0.18605460000071616,,,,,,,,19,19,Vrouw,Rechts,2,
,xotask,xotask,dotcolour,31,0,31,31,training,positivefb,94,hard,50,0.517883399999846,['c'],1,left,['2'],5,0.20383330000004207,,,,,,,,19,19,Vrouw,Rechts,2,
,xotask,xotask,dotcolour,32,0,32,32,training,positivefb,97,easy,72,0.5181394999999611,['c'],1,left,['2'],5,0.24440059999960795,,,,,,,,19,19,Vrouw,Rechts,2,
,xotask,xotask,dotcolour,33,0,33,33,training,positivefb,98,hard,27,0.5517589999999473,['n'],1,right,['2'],5,0.17995040000005247,,,,,,,,19,19,Vrouw,Rechts,2,
,xotask,xotask,dotcolour,34,0,34,34,training,positivefb,83,hard,28,1.0015001000001575,['c'],0,right,['2'],5,0.20208650000040507,,,,,,,,19,19,Vrouw,Rechts,2,
,xotask,xotask,dotcolour,35,0,35,35,training,positivefb,97,average,62,0.8841578000001391,['c'],1,left,['2'],5,0.22784309999951802,,,,,,,,19,19,Vrouw,Rechts,2,
,xotask,xotask,dotcolour,36,0,36,36,training,positivefb,96,hard,26,0.784016800000245,['n'],1,right,['1'],6,0.21730910000042059,,,,,,,,19,19,Vrouw,Rechts,2,
,xotask,xotask,dotcolour,37,0,37,37,training,positivefb,84,average,16,0.6357484000000113,['n'],1,right,['2'],5,0.1566769999999451,,,,,,,,19,19,Vrouw,Rechts,2,
,xotask,xotask,dotcolour,38,0,38,38,training,positivefb,99,hard,25,0.6521902999993472,['n'],1,right,['2'],5,0.17915199999970355,,,,,,,,19,19,Vrouw,Rechts,2,
,xotask,xotask,dotcolour,39,0,39,39,training,positivefb,95,hard,52,0.5677817000005234,['n'],0,left,['2'],5,0.2354090000008,,,,,,,,19,19,Vrouw,Rechts,2,
,xotask,xotask,dotcolour,40,0,40,40,training,positivefb,98,easy,8,0.5512289000007513,['n'],1,right,['2'],5,0.1852218999993056,,,,,,,,19,19,Vrouw,Rechts,2,
,xotask,xotask,dotcolour,41,0,41,41,training,positivefb,98,hard,27,0.500838300000396,['n'],1,right,['2'],5,0.14723700000013196,,,,,,,,19,19,Vrouw,Rechts,2,
,xotask,xotask,dotcolour,42,0,42,42,training,positivefb,86,easy,70,0.5680878000002849,['n'],0,left,['2'],5,0.22996950000015204,,,,,,,,19,19,Vrouw,Rechts,2,
,xotask,xotask,dotcolour,43,0,43,43,training,positivefb,94,average,61,0.6509114999998928,['n'],0,left,['2'],5,0.16086820000055013,,,,,,,,19,19,Vrouw,Rechts,2,
,xotask,xotask,dotcolour,44,0,44,44,training,positivefb,92,average,19,0.6016240999997535,['n'],1,right,['2'],5,0.16791199999988748,,,,,,,,19,19,Vrouw,Rechts,2,
,xotask,xotask,dotcolour,45,0,45,45,training,positivefb,94,hard,28,0.4685365000004822,['n'],1,right,['2'],5,0.18119280000064464,,,,,,,,19,19,Vrouw,Rechts,2,
,xotask,xotask,dotcolour,46,0,46,46,training,positivefb,89,hard,53,0.8522367000005033,['c'],1,left,['2'],5,0.216559700000289,,,,,,,,19,19,Vrouw,Rechts,2,
,xotask,xotask,dotcolour,47,0,47,47,training,positivefb,99,easy,9,0.4181213999991087,['n'],1,right,['2'],5,0.17446709999967425,,,,,,,,19,19,Vrouw,Rechts,2,
,xotask,xotask,dotcolour,48,0,48,48,training,positivefb,98,easy,8,0.3838531999999759,['n'],1,right,['2'],5,0.2295613999995112,,,,,,,,19,19,Vrouw,Rechts,2,
,xotask,xotask,dotcolour,49,0,49,49,training,positivefb,98,easy,5,0.3838527999996586,['n'],1,right,['2'],5,0.1074255000003177,,,,,,,,19,19,Vrouw,Rechts,2,
,xotask,xotask,dotcolour,50,0,50,50,training,positivefb,97,hard,50,0.5837249000005613,['n'],0,left,['2'],5,0.13490490000003774,,,,,,,,19,19,Vrouw,Rechts,2,
,xotask,xotask,dotcolour,51,0,51,51,training,positivefb,97,average,15,0.43371010000009846,['n'],1,right,['2'],5,0.11827209999955812,,,,,,,,19,19,Vrouw,Rechts,2,
,xotask,xotask,dotcolour,52,0,52,52,training,positivefb,97,easy,9,0.4344986999994944,['n'],1,right,['2'],5,0.17379049999999552,,,,,,,,19,19,Vrouw,Rechts,2,
,xotask,xotask,dotcolour,53,0,53,53,training,positivefb,98,easy,6,0.41737709999961226,['n'],1,right,['1'],6,0.4604259000007005,,,,,,,,19,19,Vrouw,Rechts,2,
,xotask,xotask,dotcolour,54,0,54,54,training,positivefb,25,easy,72,0.48338820000026317,['n'],0,left,['9'],2,1.180574500000148,,,,,,,,19,19,Vrouw,Rechts,2,
,xotask,xotask,dotcolour,55,0,55,55,training,positivefb,97,average,18,0.6008047000004808,['n'],1,right,['2'],5,0.13055230000009033,,,,,,,,19,19,Vrouw,Rechts,2,
,xotask,xotask,dotcolour,56,0,56,56,training,positivefb,88,hard,51,0.600638899999467,['n'],0,left,['2'],5,0.14774260000012873,,,,,,,,19,19,Vrouw,Rechts,2,
,xotask,xotask,dotcolour,57,0,57,57,training,positivefb,91,hard,53,0.7019246999998359,['c'],1,left,['3'],4,0.3757015000001047,,,,,,,,19,19,Vrouw,Rechts,2,
,xotask,xotask,dotcolour,58,0,58,58,training,positivefb,93,average,18,0.7856535000000804,['n'],1,right,['2'],5,0.13460499999928288,,,,,,,,19,19,Vrouw,Rechts,2,
,xotask,xotask,dotcolour,59,0,59,59,training,positivefb,75,average,61,0.7512245000007169,['n'],0,left,['2'],5,0.1614294000000882,,,,,,,,19,19,Vrouw,Rechts,2,
,xotask,xotask,dotcolour,0,1,60,60,training,positivefb,92,easy,6,0.7353290999999444,['n'],1,right,['2'],5,0.2705782000002728,,,,,,,,19,19,Vrouw,Rechts,2,
,xotask,xotask,dotcolour,1,1,61,61,training,positivefb,76,average,62,0.8692650000002686,['n'],0,left,['2'],5,0.12611370000013267,,,,,,,,19,19,Vrouw,Rechts,2,
,xotask,xotask,dotcolour,2,1,62,62,training,positivefb,91,hard,53,0.7685154999999213,['n'],0,left,['2'],5,0.15257590000055643,,,,,,,,19,19,Vrouw,Rechts,2,
,xotask,xotask,dotcolour,3,1,63,63,training,positivefb,92,hard,50,0.6505439000002298,['n'],0,left,['2'],5,0.18208229999981995,,,,,,,,19,19,Vrouw,Rechts,2,
,xotask,xotask,dotcolour,4,1,64,64,training,positivefb,96,easy,72,0.7504340000004959,['c'],1,left,['2'],5,0.18307670000012877,,,,,,,,19,19,Vrouw,Rechts,2,
,xotask,xotask,dotcolour,5,1,65,65,training,positivefb,92,hard,54,0.8672914999997374,['n'],0,left,['2'],5,0.17763279999962833,,,,,,,,19,19,Vrouw,Rechts,2,
,xotask,xotask,dotcolour,6,1,66,66,training,positivefb,88,average,64,0.6506460000000516,['c'],1,left,['2'],5,0.18354290000024776,,,,,,,,19,19,Vrouw,Rechts,2,
,xotask,xotask,dotcolour,7,1,67,67,training,positivefb,96,average,18,0.702422999999726,['n'],1,right,['2'],5,0.1529923999996754,,,,,,,,19,19,Vrouw,Rechts,2,
,xotask,xotask,dotcolour,8,1,68,68,training,positivefb,93,average,15,0.5342061999999714,['n'],1,right,['2'],5,0.14789859999928012,,,,,,,,19,19,Vrouw,Rechts,2,
,xotask,xotask,dotcolour,9,1,69,69,training,positivefb,82,hard,53,0.9348157000003994,['n'],0,left,['2'],5,0.1262126999999964,,,,,,,,19,19,Vrouw,Rechts,2,
,xotask,xotask,dotcolour,10,1,70,70,training,positivefb,98,easy,5,0.5175590999997439,['n'],1,right,['2'],5,0.15426000000024942,,,,,,,,19,19,Vrouw,Rechts,2,
,xotask,xotask,dotcolour,11,1,71,71,training,positivefb,96,average,17,0.5504837999997108,['n'],1,right,['2'],5,0.12392309999995632,,,,,,,,19,19,Vrouw,Rechts,2,
,xotask,xotask,dotcolour,12,1,72,72,training,positivefb,95,average,15,0.5182399999994232,['n'],1,right,['2'],5,0.09745270000075834,,,,,,,,19,19,Vrouw,Rechts,2,
,xotask,xotask,dotcolour,13,1,73,73,training,positivefb,92,average,64,0.7338684999995166,['c'],1,left,['2'],5,0.20658619999994698,,,,,,,,19,19,Vrouw,Rechts,2,
,xotask,xotask,dotcolour,14,1,74,74,training,positivefb,97,average,19,0.3519512000002578,['n'],1,right,['2'],5,0.1332566000000952,,,,,,,,19,19,Vrouw,Rechts,2,
,xotask,xotask,dotcolour,15,1,75,75,training,positivefb,98,average,19,0.4857027999996717,['c'],0,right,['2'],5,0.23530349999964528,,,,,,,,19,19,Vrouw,Rechts,2,
,xotask,xotask,dotcolour,16,1,76,76,training,positivefb,98,easy,5,0.5002969999995912,['n'],1,right,['2'],5,0.09188339999946038,,,,,,,,19,19,Vrouw,Rechts,2,
,xotask,xotask,dotcolour,17,1,77,77,training,positivefb,97,easy,74,0.6347444000002724,['c'],1,left,['2'],5,0.12432100000023638,,,,,,,,19,19,Vrouw,Rechts,2,
,xotask,xotask,dotcolour,18,1,78,78,training,positivefb,88,average,61,0.8351505999999063,['c'],1,left,['2'],5,0.18037399999957415,,,,,,,,19,19,Vrouw,Rechts,2,
,xotask,xotask,dotcolour,19,1,79,79,training,positivefb,93,easy,71,0.5496597999999722,['c'],1,left,['2'],5,0.22100440000031085,,,,,,,,19,19,Vrouw,Rechts,2,
,xotask,xotask,dotcolour,20,1,80,80,training,positivefb,94,average,64,0.6515215999997963,['c'],1,left,['1'],6,0.17702949999966222,,,,,,,,19,19,Vrouw,Rechts,2,
,xotask,xotask,dotcolour,21,1,81,81,training,positivefb,98,hard,26,0.5341038000005938,['n'],1,right,['2'],5,0.2502764999999272,,,,,,,,19,19,Vrouw,Rechts,2,
,xotask,xotask,dotcolour,22,1,82,82,training,positivefb,39,average,15,0.48394509999980073,['c'],0,right,['8'],3,1.2981939999999668,,,,,,,,19,19,Vrouw,Rechts,2,
,xotask,xotask,dotcolour,23,1,83,83,training,positivefb,96,easy,73,0.7014209000008123,['c'],1,left,['3'],4,0.2400342000000819,,,,,,,,19,19,Vrouw,Rechts,2,
,xotask,xotask,dotcolour,24,1,84,84,training,positivefb,98,average,16,0.7843493999998827,['n'],1,right,['2'],5,0.14794129999972938,,,,,,,,19,19,Vrouw,Rechts,2,
,xotask,xotask,dotcolour,25,1,85,85,training,positivefb,85,hard,29,0.6694833999999901,['n'],1,right,['2'],5,0.24166910000076314,,,,,,,,19,19,Vrouw,Rechts,2,
,xotask,xotask,dotcolour,26,1,86,86,training,positivefb,88,hard,27,0.6352857000001677,['n'],1,right,['2'],5,0.32460319999972853,,,,,,,,19,19,Vrouw,Rechts,2,
,xotask,xotask,dotcolour,27,1,87,87,training,positivefb,99,easy,9,0.43373650000012276,['n'],1,right,['2'],5,0.12473580000005313,,,,,,,,19,19,Vrouw,Rechts,2,
,xotask,xotask,dotcolour,28,1,88,88,training,positivefb,93,hard,52,0.7517149999994217,['n'],0,left,['2'],5,0.1760941999991701,,,,,,,,19,19,Vrouw,Rechts,2,
,xotask,xotask,dotcolour,29,1,89,89,training,positivefb,87,easy,74,0.501155099999778,['c'],1,left,['2'],5,0.21041230000082578,,,,,,,,19,19,Vrouw,Rechts,2,
,xotask,xotask,dotcolour,30,1,90,90,training,positivefb,92,average,60,0.6514024999996764,['n'],0,left,['2'],5,0.13381010000011884,,,,,,,,19,19,Vrouw,Rechts,2,
,xotask,xotask,dotcolour,31,1,91,91,training,positivefb,95,easy,72,0.8182968999999503,['c'],1,left,['2'],5,0.18175809999956982,,,,,,,,19,19,Vrouw,Rechts,2,
,xotask,xotask,dotcolour,32,1,92,92,training,positivefb,77,hard,29,0.9688371000002007,['c'],0,right,['2'],5,0.1737730000004376,,,,,,,,19,19,Vrouw,Rechts,2,
,xotask,xotask,dotcolour,33,1,93,93,training,positivefb,89,easy,9,0.834742300000471,['c'],0,right,['2'],5,0.2747129999997924,,,,,,,,19,19,Vrouw,Rechts,2,
,xotask,xotask,dotcolour,34,1,94,94,training,positivefb,87,average,18,0.9014222000005248,['c'],0,right,['2'],5,0.15447000000040134,,,,,,,,19,19,Vrouw,Rechts,2,
,xotask,xotask,dotcolour,35,1,95,95,training,positivefb,81,hard,26,0.9010459000000992,['c'],0,right,['2'],5,0.18197060000056808,,,,,,,,19,19,Vrouw,Rechts,2,
,xotask,xotask,dotcolour,36,1,96,96,training,positivefb,90,easy,5,0.8175609999998414,['n'],1,right,['2'],5,0.3157714999997552,,,,,,,,19,19,Vrouw,Rechts,2,
,xotask,xotask,dotcolour,37,1,97,97,training,positivefb,86,average,60,1.501956400000381,['n'],0,left,['2'],5,0.11127990000022692,,,,,,,,19,19,Vrouw,Rechts,2,
,xotask,xotask,dotcolour,38,1,98,98,training,positivefb,97,easy,73,0.63448150000022,['c'],1,left,['2'],5,0.15997799999968265,,,,,,,,19,19,Vrouw,Rechts,2,
,xotask,xotask,dotcolour,39,1,99,99,training,positivefb,88,easy,74,0.4346007999993162,['c'],1,left,['2'],5,0.19844860000011977,,,,,,,,19,19,Vrouw,Rechts,2,
,xotask,xotask,dotcolour,40,1,100,100,training,positivefb,97,hard,26,0.7502574000000095,['n'],1,right,['2'],5,0.19874669999990147,,,,,,,,19,19,Vrouw,Rechts,2,
,xotask,xotask,dotcolour,41,1,101,101,training,positivefb,94,hard,53,0.4996054000002914,['c'],1,left,['2'],5,0.1850036000005275,,,,,,,,19,19,Vrouw,Rechts,2,
,xotask,xotask,dotcolour,42,1,102,102,training,positivefb,4,hard,29,0.3665654000005816,['c'],0,right,['0'],1,1.8324816999993345,,,,,,,,19,19,Vrouw,Rechts,2,
,xotask,xotask,dotcolour,43,1,103,103,training,positivefb,92,hard,26,0.9514085999999224,['n'],1,right,['2'],5,0.12514620000001742,,,,,,,,19,19,Vrouw,Rechts,2,
,xotask,xotask,dotcolour,44,1,104,104,training,positivefb,99,easy,8,0.6344745999995212,['n'],1,right,['2'],5,0.11751430000003893,,,,,,,,19,19,Vrouw,Rechts,2,
,xotask,xotask,dotcolour,45,1,105,105,training,positivefb,98,easy,71,0.6172539999997753,['c'],1,left,['2'],5,0.17409179999958724,,,,,,,,19,19,Vrouw,Rechts,2,
,xotask,xotask,dotcolour,46,1,106,106,training,positivefb,96,average,64,0.7349205999998958,['c'],1,left,['2'],5,0.14298989999952028,,,,,,,,19,19,Vrouw,Rechts,2,
,xotask,xotask,dotcolour,47,1,107,107,training,positivefb,98,easy,6,0.6683204000000842,['n'],1,right,['2'],5,0.08521889999974519,,,,,,,,19,19,Vrouw,Rechts,2,
,xotask,xotask,dotcolour,48,1,108,108,training,positivefb,81,easy,70,1.4184632999995301,['c'],1,left,['2'],5,0.17408460000024206,,,,,,,,19,19,Vrouw,Rechts,2,
,xotask,xotask,dotcolour,49,1,109,109,training,positivefb,87,average,17,0.750785199999882,['n'],1,right,['2'],5,0.11044760000004317,,,,,,,,19,19,Vrouw,Rechts,2,
,xotask,xotask,dotcolour,50,1,110,110,training,positivefb,94,average,62,0.7834746999997151,['c'],1,left,['2'],5,0.22525360000054206,,,,,,,,19,19,Vrouw,Rechts,2,
,xotask,xotask,dotcolour,51,1,111,111,training,positivefb,92,hard,54,0.7013218000001871,['c'],1,left,['2'],5,0.1539983000002394,,,,,,,,19,19,Vrouw,Rechts,2,
,xotask,xotask,dotcolour,52,1,112,112,training,positivefb,96,hard,50,0.9179888999997274,['c'],1,left,['2'],5,0.22880759999952716,,,,,,,,19,19,Vrouw,Rechts,2,
,xotask,xotask,dotcolour,53,1,113,113,training,positivefb,98,hard,54,0.5510000999993281,['n'],0,left,['2'],5,0.08325439999953232,,,,,,,,19,19,Vrouw,Rechts,2,
,xotask,xotask,dotcolour,54,1,114,114,training,positivefb,96,hard,27,0.7019411999999647,['n'],1,right,['2'],5,0.09028659999967203,,,,,,,,19,19,Vrouw,Rechts,2,
,xotask,xotask,dotcolour,55,1,115,115,training,positivefb,90,easy,5,0.6338474000003771,['n'],1,right,['2'],5,0.1392667000000074,,,,,,,,19,19,Vrouw,Rechts,2,
,xotask,xotask,dotcolour,56,1,116,116,training,positivefb,93,average,64,0.8187281000000439,['c'],1,left,['2'],5,0.13899340000079974,,,,,,,,19,19,Vrouw,Rechts,2,
,xotask,xotask,dotcolour,57,1,117,117,training,positivefb,90,easy,8,1.101818699999967,['n'],1,right,['2'],5,0.10264319999987492,,,,,,,,19,19,Vrouw,Rechts,2,
,xotask,xotask,dotcolour,58,1,118,118,training,positivefb,96,hard,26,0.6022510999991937,['n'],1,right,['2'],5,0.1518301000005522,,,,,,,,19,19,Vrouw,Rechts,2,
,xotask,xotask,dotcolour,59,1,119,119,training,positivefb,89,hard,51,0.7009398000000147,['c'],1,left,['2'],5,0.14810000000034051,,,,,,,,19,19,Vrouw,Rechts,2,
,dotcolour,xotask,dotcolour,0,2,120,120,main,positivefb,-99,easy,,1.2519499999998516,['c'],1,left,['2'],5,1.1867959000001065,62,,,,,,,19,19,Vrouw,Rechts,2,
,dotcolour,xotask,dotcolour,1,2,121,121,main,positivefb,-99,average,,1.1517786999993405,['c'],1,left,['3'],4,0.4666453999998339,52,,,,,,,19,19,Vrouw,Rechts,2,
,dotcolour,xotask,dotcolour,2,2,122,122,main,positivefb,-99,hard,,1.2366036999992502,['c'],0,right,['3'],4,0.21411840000018856,36,,,,,,,19,19,Vrouw,Rechts,2,
,dotcolour,xotask,dotcolour,3,2,123,123,main,positivefb,-99,easy,,0.801168900000448,['n'],1,right,['3'],4,0.1811985000003915,18,,,,,,,19,19,Vrouw,Rechts,2,
,dotcolour,xotask,dotcolour,4,2,124,124,main,positivefb,-99,average,,0.8023452000006728,['c'],1,left,['2'],5,0.205579200000102,54,,,,,,,19,19,Vrouw,Rechts,2,
,dotcolour,xotask,dotcolour,5,2,125,125,main,positivefb,-99,hard,,0.886059600000408,['n'],1,right,['2'],5,0.16132939999988594,39,,,,,,,19,19,Vrouw,Rechts,2,
,dotcolour,xotask,dotcolour,6,2,126,126,main,positivefb,-99,average,,0.6689339000004111,['n'],1,right,['2'],5,0.3676586000001407,26,,,,,,,19,19,Vrouw,Rechts,2,
,dotcolour,xotask,dotcolour,7,2,127,127,main,positivefb,-99,average,,0.9365397999999914,['n'],1,right,['2'],5,0.18667139999979554,27,,,,,,,19,19,Vrouw,Rechts,2,
,dotcolour,xotask,dotcolour,8,2,128,128,main,positivefb,-99,hard,,0.7521353000001909,['n'],0,left,['3'],4,0.35666589999982534,42,,,,,,,19,19,Vrouw,Rechts,2,
,dotcolour,xotask,dotcolour,9,2,129,129,main,positivefb,-99,easy,,0.7350810999996611,['c'],1,left,['3'],4,0.20079459999942628,63,,,,,,,19,19,Vrouw,Rechts,2,
,dotcolour,xotask,dotcolour,10,2,130,130,main,positivefb,-99,hard,,0.802102499999819,['n'],1,right,['2'],5,0.19913679999990563,35,,,,,,,19,19,Vrouw,Rechts,2,
,dotcolour,xotask,dotcolour,11,2,131,131,main,positivefb,-99,hard,,0.7688396000003195,['n'],0,left,['2'],5,0.22365929999978107,44,,,,,,,19,19,Vrouw,Rechts,2,
,dotcolour,xotask,dotcolour,12,2,132,132,main,positivefb,-99,easy,,0.5178814000000784,['n'],1,right,['2'],5,0.20964480000020558,15,,,,,,,19,19,Vrouw,Rechts,2,
,dotcolour,xotask,dotcolour,13,2,133,133,main,positivefb,-99,easy,,0.651167600000008,['c'],1,left,['3'],4,0.4391058000001067,63,,,,,,,19,19,Vrouw,Rechts,2,
,dotcolour,xotask,dotcolour,14,2,134,134,main,positivefb,-99,hard,,0.6189035000006697,['n'],0,left,['2'],5,0.16440590000001976,41,,,,,,,19,19,Vrouw,Rechts,2,
,dotcolour,xotask,dotcolour,15,2,135,135,main,positivefb,-99,hard,,0.7515006000003268,['n'],0,left,['2'],5,0.22352600000067468,43,,,,,,,19,19,Vrouw,Rechts,2,
,dotcolour,xotask,dotcolour,16,2,136,136,main,positivefb,-99,easy,,0.7512501000001066,['c'],1,left,['3'],4,0.13530730000002222,62,,,,,,,19,19,Vrouw,Rechts,2,
,dotcolour,xotask,dotcolour,17,2,137,137,main,positivefb,-99,average,,0.636045400000512,['n'],1,right,['2'],5,0.16812140000001818,26,,,,,,,19,19,Vrouw,Rechts,2,
,dotcolour,xotask,dotcolour,18,2,138,138,main,positivefb,-99,average,,0.650966199999857,['c'],1,left,['3'],4,0.13500440000007075,54,,,,,,,19,19,Vrouw,Rechts,2,
,dotcolour,xotask,dotcolour,19,2,139,139,main,positivefb,-99,hard,,0.869696899999326,['n'],0,left,['2'],5,0.18232549999993353,41,,,,,,,19,19,Vrouw,Rechts,2,
,dotcolour,xotask,dotcolour,20,2,140,140,main,positivefb,-99,easy,,0.6185333000003084,['n'],1,right,['2'],5,0.19706760000008217,18,,,,,,,19,19,Vrouw,Rechts,2,
,dotcolour,xotask,dotcolour,21,2,141,141,main,positivefb,-99,easy,,0.6181280999999217,['n'],1,right,['2'],5,0.2932496999992509,17,,,,,,,19,19,Vrouw,Rechts,2,
,dotcolour,xotask,dotcolour,22,2,142,142,main,positivefb,-99,easy,,0.6842794999993203,['n'],1,right,['1'],6,0.19763119999970513,18,,,,,,,19,19,Vrouw,Rechts,2,
,dotcolour,xotask,dotcolour,23,2,143,143,main,positivefb,-99,hard,,1.0360811000000467,['n'],1,right,['1'],6,0.20407620000059978,38,,,,,,,19,19,Vrouw,Rechts,2,
,dotcolour,xotask,dotcolour,24,2,144,144,main,positivefb,-99,hard,,1.1193520999995599,['n'],1,right,['1'],6,0.7501797999993869,37,,,,,,,19,19,Vrouw,Rechts,2,
,dotcolour,xotask,dotcolour,25,2,145,145,main,positivefb,-99,average,,0.8851796999997532,['c'],1,left,['3'],4,0.18712680000044202,51,,,,,,,19,19,Vrouw,Rechts,2,
,dotcolour,xotask,dotcolour,26,2,146,146,main,positivefb,-99,easy,,0.8341267000005246,['n'],1,right,['1'],6,0.12093450000065786,17,,,,,,,19,19,Vrouw,Rechts,2,
,dotcolour,xotask,dotcolour,27,2,147,147,main,positivefb,-99,hard,,1.3030861999995977,['c'],1,left,['3'],4,0.15162400000008347,42,,,,,,,19,19,Vrouw,Rechts,2,
,dotcolour,xotask,dotcolour,28,2,148,148,main,positivefb,-99,easy,,0.9698922999996284,['c'],1,left,['1'],6,0.18540260000008857,63,,,,,,,19,19,Vrouw,Rechts,2,
,dotcolour,xotask,dotcolour,29,2,149,149,main,positivefb,-99,average,,0.6180941000002349,['n'],1,right,['1'],6,0.18561229999977513,28,,,,,,,19,19,Vrouw,Rechts,2,
,dotcolour,xotask,dotcolour,30,2,150,150,main,positivefb,-99,average,,0.6855924000001323,['n'],1,right,['1'],6,0.34159249999993335,29,,,,,,,19,19,Vrouw,Rechts,2,
,dotcolour,xotask,dotcolour,31,2,151,151,main,positivefb,-99,average,,1.1865414000003511,['n'],1,right,['1'],6,0.15999860000010813,29,,,,,,,19,19,Vrouw,Rechts,2,
,dotcolour,xotask,dotcolour,32,2,152,152,main,positivefb,-99,easy,,0.6846525999999358,['c'],1,left,['1'],6,0.1897382999995898,64,,,,,,,19,19,Vrouw,Rechts,2,
,dotcolour,xotask,dotcolour,33,2,153,153,main,positivefb,-99,easy,,0.6348921999997401,['n'],1,right,['1'],6,0.10812689999966096,16,,,,,,,19,19,Vrouw,Rechts,2,
,dotcolour,xotask,dotcolour,34,2,154,154,main,positivefb,-99,easy,,0.5180551000003106,['c'],0,right,['0'],1,1.418970800000352,18,,,,,,,19,19,Vrouw,Rechts,2,
,dotcolour,xotask,dotcolour,35,2,155,155,main,positivefb,-99,easy,,1.2527789000005214,['n'],1,right,['1'],6,0.23867499999960273,18,,,,,,,19,19,Vrouw,Rechts,2,
,dotcolour,xotask,dotcolour,36,2,156,156,main,positivefb,-99,average,,1.3536536999999953,['n'],1,right,['1'],6,0.1736659000007421,29,,,,,,,19,19,Vrouw,Rechts,2,
,dotcolour,xotask,dotcolour,37,2,157,157,main,positivefb,-99,hard,,1.9373881000001347,['c'],1,left,['1'],6,0.1677099000007729,43,,,,,,,19,19,Vrouw,Rechts,2,
,dotcolour,xotask,dotcolour,38,2,158,158,main,positivefb,-99,hard,,0.6519173000006049,['n'],1,right,['1'],6,0.37378979999994044,36,,,,,,,19,19,Vrouw,Rechts,2,
,dotcolour,xotask,dotcolour,39,2,159,159,main,positivefb,-99,average,,1.5189782999996169,['c'],1,left,['3'],4,0.14483759999984613,54,,,,,,,19,19,Vrouw,Rechts,2,
,dotcolour,xotask,dotcolour,40,2,160,160,main,positivefb,-99,average,,1.8535816000003251,['n'],1,right,['3'],4,0.327368899999783,28,,,,,,,19,19,Vrouw,Rechts,2,
,dotcolour,xotask,dotcolour,41,2,161,161,main,positivefb,-99,average,,1.38651579999987,['c'],1,left,['3'],4,0.1465924999993149,52,,,,,,,19,19,Vrouw,Rechts,2,
,dotcolour,xotask,dotcolour,42,2,162,162,main,positivefb,-99,hard,,0.7189306999998735,['n'],0,left,['3'],4,0.1038287000001219,41,,,,,,,19,19,Vrouw,Rechts,2,
,dotcolour,xotask,dotcolour,43,2,163,163,main,positivefb,-99,easy,,0.919736599999851,['c'],1,left,['2'],5,0.11017010000068694,65,,,,,,,19,19,Vrouw,Rechts,2,
,dotcolour,xotask,dotcolour,44,2,164,164,main,positivefb,-99,hard,,0.802646499999355,['n'],0,left,['3'],4,0.6975099000001137,42,,,,,,,19,19,Vrouw,Rechts,2,
,dotcolour,xotask,dotcolour,45,2,165,165,main,positivefb,-99,average,,1.2353319000003466,['c'],1,left,['1'],6,0.18719480000072508,54,,,,,,,19,19,Vrouw,Rechts,2,
,dotcolour,xotask,dotcolour,46,2,166,166,main,positivefb,-99,average,,0.8182241999993494,['c'],1,left,['1'],6,0.2422811999995247,52,,,,,,,19,19,Vrouw,Rechts,2,
,dotcolour,xotask,dotcolour,47,2,167,167,main,positivefb,-99,hard,,0.7353446999995867,['n'],1,right,['2'],5,0.2027949000002991,36,,,,,,,19,19,Vrouw,Rechts,2,
,dotcolour,xotask,dotcolour,48,2,168,168,main,positivefb,-99,easy,,0.7011439999996583,['n'],1,right,['2'],5,0.10986630000024888,16,,,,,,,19,19,Vrouw,Rechts,2,
,dotcolour,xotask,dotcolour,49,2,169,169,main,positivefb,-99,easy,,0.8682982000000266,['c'],1,left,['1'],6,0.17408789999990404,61,,,,,,,19,19,Vrouw,Rechts,2,
,dotcolour,xotask,dotcolour,50,2,170,170,main,positivefb,-99,hard,,0.6181599999999889,['c'],1,left,['1'],6,0.18209250000018073,45,,,,,,,19,19,Vrouw,Rechts,2,
,dotcolour,xotask,dotcolour,51,2,171,171,main,positivefb,-99,average,,0.7688688999996884,['n'],1,right,['1'],6,0.1271323000000848,28,,,,,,,19,19,Vrouw,Rechts,2,
,dotcolour,xotask,dotcolour,52,2,172,172,main,positivefb,-99,average,,0.9186998000004678,['c'],1,left,['1'],6,0.19742219999989175,53,,,,,,,19,19,Vrouw,Rechts,2,
,dotcolour,xotask,dotcolour,53,2,173,173,main,positivefb,-99,easy,,0.5515984999992725,['c'],1,left,['1'],6,0.18302779999976337,63,,,,,,,19,19,Vrouw,Rechts,2,
,dotcolour,xotask,dotcolour,54,2,174,174,main,positivefb,-99,hard,,0.6014478999995845,['n'],1,right,['2'],5,0.15057270000033895,35,,,,,,,19,19,Vrouw,Rechts,2,
,dotcolour,xotask,dotcolour,55,2,175,175,main,positivefb,-99,hard,,0.7024646999998367,['n'],1,right,['2'],5,0.14754469999934372,37,,,,,,,19,19,Vrouw,Rechts,2,
,dotcolour,xotask,dotcolour,56,2,176,176,main,positivefb,-99,average,,0.7677354000006744,['c'],1,left,['1'],6,0.16778819999944972,54,,,,,,,19,19,Vrouw,Rechts,2,
,dotcolour,xotask,dotcolour,57,2,177,177,main,positivefb,-99,hard,,0.6687914999993154,['n'],1,right,['2'],5,0.18161529999997583,35,,,,,,,19,19,Vrouw,Rechts,2,
,dotcolour,xotask,dotcolour,58,2,178,178,main,positivefb,-99,average,,0.6173870000002353,['n'],1,right,['2'],5,0.15768019999995886,26,,,,,,,19,19,Vrouw,Rechts,2,
,dotcolour,xotask,dotcolour,59,2,179,179,main,positivefb,-99,easy,,0.6525252000001274,['c'],1,left,['1'],6,0.20532139999977517,65,,,,,,,19,19,Vrouw,Rechts,2,
,dotcolour,xotask,dotcolour,0,3,180,180,main,positivefb,-99,average,,0.8351818000001003,['n'],1,right,['2'],5,0.11833889999979874,28,,,,,,,19,19,Vrouw,Rechts,2,
,dotcolour,xotask,dotcolour,1,3,181,181,main,positivefb,-99,hard,,0.7681930999997348,['c'],1,left,['1'],6,0.20960550000017975,45,,,,,,,19,19,Vrouw,Rechts,2,
,dotcolour,xotask,dotcolour,2,3,182,182,main,positivefb,-99,average,,0.819243899999492,['c'],1,left,['1'],6,0.1769464999997581,55,,,,,,,19,19,Vrouw,Rechts,2,
,dotcolour,xotask,dotcolour,3,3,183,183,main,positivefb,-99,hard,,0.734352299999955,['n'],1,right,['2'],5,0.1075104999999894,38,,,,,,,19,19,Vrouw,Rechts,2,
,dotcolour,xotask,dotcolour,4,3,184,184,main,positivefb,-99,easy,,1.068106099999568,['c'],1,left,['2'],5,0.1890051999998832,65,,,,,,,19,19,Vrouw,Rechts,2,
,dotcolour,xotask,dotcolour,5,3,185,185,main,positivefb,-99,easy,,0.5689063999998325,['c'],1,left,['2'],5,0.17375279999941995,61,,,,,,,19,19,Vrouw,Rechts,2,
,dotcolour,xotask,dotcolour,6,3,186,186,main,positivefb,-99,easy,,0.6187300000001414,['c'],1,left,['2'],5,0.22191130000010162,63,,,,,,,19,19,Vrouw,Rechts,2,
,dotcolour,xotask,dotcolour,7,3,187,187,main,positivefb,-99,average,,0.6514090999999098,['c'],1,left,['2'],5,0.1860778999998729,52,,,,,,,19,19,Vrouw,Rechts,2,
,dotcolour,xotask,dotcolour,8,3,188,188,main,positivefb,-99,hard,,0.9517334000001938,['n'],1,right,['3'],4,0.13177129999985482,35,,,,,,,19,19,Vrouw,Rechts,2,
,dotcolour,xotask,dotcolour,9,3,189,189,main,positivefb,-99,average,,0.7182729000005565,['n'],1,right,['3'],4,0.18539070000042557,29,,,,,,,19,19,Vrouw,Rechts,2,
,dotcolour,xotask,dotcolour,10,3,190,190,main,positivefb,-99,hard,,0.635503499999686,['n'],1,right,['3'],4,0.15191559999948367,35,,,,,,,19,19,Vrouw,Rechts,2,
,dotcolour,xotask,dotcolour,11,3,191,191,main,positivefb,-99,average,,0.6355178000003434,['n'],1,right,['3'],4,0.16711970000051224,29,,,,,,,19,19,Vrouw,Rechts,2,
,dotcolour,xotask,dotcolour,12,3,192,192,main,positivefb,-99,easy,,0.7684642000003805,['c'],1,left,['2'],5,0.14593299999978626,63,,,,,,,19,19,Vrouw,Rechts,2,
,dotcolour,xotask,dotcolour,13,3,193,193,main,positivefb,-99,average,,1.0530915999997887,['n'],0,left,['3'],4,0.11313760000030015,53,,,,,,,19,19,Vrouw,Rechts,2,
,dotcolour,xotask,dotcolour,14,3,194,194,main,positivefb,-99,easy,,0.6010470999999598,['n'],1,right,['3'],4,0.18889219999982743,16,,,,,,,19,19,Vrouw,Rechts,2,
,dotcolour,xotask,dotcolour,15,3,195,195,main,positivefb,-99,easy,,0.45245690000047034,['n'],1,right,['1'],6,0.2350879999994504,16,,,,,,,19,19,Vrouw,Rechts,2,
,dotcolour,xotask,dotcolour,16,3,196,196,main,positivefb,-99,easy,,0.6516089999995529,['c'],1,left,['1'],6,0.18252269999993587,65,,,,,,,19,19,Vrouw,Rechts,2,
,dotcolour,xotask,dotcolour,17,3,197,197,main,positivefb,-99,average,,0.5517231000003449,['n'],1,right,['1'],6,0.3128137000003335,26,,,,,,,19,19,Vrouw,Rechts,2,
,dotcolour,xotask,dotcolour,18,3,198,198,main,positivefb,-99,hard,,0.5176959000000352,['n'],0,left,['1'],6,0.14404100000047038,44,,,,,,,19,19,Vrouw,Rechts,2,
,dotcolour,xotask,dotcolour,19,3,199,199,main,positivefb,-99,easy,,0.6522837000002255,['n'],1,right,['1'],6,0.19957530000010593,17,,,,,,,19,19,Vrouw,Rechts,2,
,dotcolour,xotask,dotcolour,20,3,200,200,main,positivefb,-99,hard,,0.7522260999994614,['n'],0,left,['1'],6,0.09664940000038769,43,,,,,,,19,19,Vrouw,Rechts,2,
,dotcolour,xotask,dotcolour,21,3,201,201,main,positivefb,-99,hard,,0.852312000000893,['n'],0,left,['3'],4,0.202690199999779,41,,,,,,,19,19,Vrouw,Rechts,2,
,dotcolour,xotask,dotcolour,22,3,202,202,main,positivefb,-99,hard,,0.552347899999404,['n'],1,right,['1'],6,0.19593799999984185,35,,,,,,,19,19,Vrouw,Rechts,2,
,dotcolour,xotask,dotcolour,23,3,203,203,main,positivefb,-99,hard,,0.5520255000001271,['n'],1,right,['1'],6,0.18952830000034737,37,,,,,,,19,19,Vrouw,Rechts,2,
,dotcolour,xotask,dotcolour,24,3,204,204,main,positivefb,-99,hard,,0.5350361000000703,['c'],0,right,['9'],2,1.3928223000002617,38,,,,,,,19,19,Vrouw,Rechts,2,
,dotcolour,xotask,dotcolour,25,3,205,205,main,positivefb,-99,easy,,1.2192137000001821,['n'],1,right,['2'],5,0.28654270000060933,18,,,,,,,19,19,Vrouw,Rechts,2,
,dotcolour,xotask,dotcolour,26,3,206,206,main,positivefb,-99,easy,,0.8195923999992374,['c'],1,left,['2'],5,0.1850096999996822,64,,,,,,,19,19,Vrouw,Rechts,2,
,dotcolour,xotask,dotcolour,27,3,207,207,main,positivefb,-99,hard,,0.6844424999999319,['n'],1,right,['2'],5,0.08682630000021163,37,,,,,,,19,19,Vrouw,Rechts,2,
,dotcolour,xotask,dotcolour,28,3,208,208,main,positivefb,-99,average,,0.8851627000003646,['c'],1,left,['2'],5,0.14233389999935753,54,,,,,,,19,19,Vrouw,Rechts,2,
,dotcolour,xotask,dotcolour,29,3,209,209,main,positivefb,-99,average,,0.6348883999999089,['c'],1,left,['2'],5,0.15914450000036595,51,,,,,,,19,19,Vrouw,Rechts,2,
,dotcolour,xotask,dotcolour,30,3,210,210,main,positivefb,-99,easy,,0.7195909000001848,['n'],0,left,['2'],5,0.1321259000005739,63,,,,,,,19,19,Vrouw,Rechts,2,
,dotcolour,xotask,dotcolour,31,3,211,211,main,positivefb,-99,easy,,1.6850907999996707,['n'],1,right,['8'],3,0.3298721999999543,17,,,,,,,19,19,Vrouw,Rechts,2,
,dotcolour,xotask,dotcolour,32,3,212,212,main,positivefb,-99,hard,,1.1845165000004272,['n'],1,right,['2'],5,0.14088030000038998,35,,,,,,,19,19,Vrouw,Rechts,2,
,dotcolour,xotask,dotcolour,33,3,213,213,main,positivefb,-99,hard,,0.8517753000005541,['c'],1,left,['3'],4,0.16525759999967704,43,,,,,,,19,19,Vrouw,Rechts,2,
,dotcolour,xotask,dotcolour,34,3,214,214,main,positivefb,-99,average,,0.683358400000543,['c'],1,left,['3'],4,0.14628179999999702,51,,,,,,,19,19,Vrouw,Rechts,2,
,dotcolour,xotask,dotcolour,35,3,215,215,main,positivefb,-99,hard,,1.035948400000052,['n'],0,left,['2'],5,0.13920500000040192,41,,,,,,,19,19,Vrouw,Rechts,2,
,dotcolour,xotask,dotcolour,36,3,216,216,main,positivefb,-99,average,,1.002801300000101,['n'],0,left,['2'],5,0.16459910000048694,52,,,,,,,19,19,Vrouw,Rechts,2,
,dotcolour,xotask,dotcolour,37,3,217,217,main,positivefb,-99,average,,0.9190994000000501,['c'],1,left,['2'],5,0.1287263999993229,55,,,,,,,19,19,Vrouw,Rechts,2,
,dotcolour,xotask,dotcolour,38,3,218,218,main,positivefb,-99,easy,,0.7856006000001798,['n'],1,right,['3'],4,0.17168579999997746,15,,,,,,,19,19,Vrouw,Rechts,2,
,dotcolour,xotask,dotcolour,39,3,219,219,main,positivefb,-99,average,,2.1021330000003218,['c'],1,left,['3'],4,0.1995853000007628,55,,,,,,,19,19,Vrouw,Rechts,2,
,dotcolour,xotask,dotcolour,40,3,220,220,main,positivefb,-99,easy,,1.4026303000000553,['c'],0,right,['8'],3,0.8137058000002071,15,,,,,,,19,19,Vrouw,Rechts,2,
,dotcolour,xotask,dotcolour,41,3,221,221,main,positivefb,-99,hard,,0.9189571999995678,['n'],1,right,['3'],4,0.7192528999994465,38,,,,,,,19,19,Vrouw,Rechts,2,
,dotcolour,xotask,dotcolour,42,3,222,222,main,positivefb,-99,easy,,0.9689645999997083,['n'],1,right,['1'],6,0.130713100000321,17,,,,,,,19,19,Vrouw,Rechts,2,
,dotcolour,xotask,dotcolour,43,3,223,223,main,positivefb,-99,easy,,0.46914940000078786,['n'],1,right,['1'],6,0.1305209999991348,15,,,,,,,19,19,Vrouw,Rechts,2,
,dotcolour,xotask,dotcolour,44,3,224,224,main,positivefb,-99,easy,,0.6521774999991976,['c'],1,left,['1'],6,0.19507549999980256,65,,,,,,,19,19,Vrouw,Rechts,2,
,dotcolour,xotask,dotcolour,45,3,225,225,main,positivefb,-99,average,,0.5686734999999317,['n'],1,right,['1'],6,0.10123449999991863,26,,,,,,,19,19,Vrouw,Rechts,2,
,dotcolour,xotask,dotcolour,46,3,226,226,main,positivefb,-99,easy,,0.4852797000003193,['c'],1,left,['1'],6,0.19726280000031693,61,,,,,,,19,19,Vrouw,Rechts,2,
,dotcolour,xotask,dotcolour,47,3,227,227,main,positivefb,-99,hard,,0.5847476999997525,['n'],0,left,['1'],6,0.1494118000000526,45,,,,,,,19,19,Vrouw,Rechts,2,
,dotcolour,xotask,dotcolour,48,3,228,228,main,positivefb,-99,hard,,1.0192600000000311,['c'],1,left,['2'],5,0.1903239000002941,43,,,,,,,19,19,Vrouw,Rechts,2,
,dotcolour,xotask,dotcolour,49,3,229,229,main,positivefb,-99,average,,0.6847702000004574,['c'],1,left,['2'],5,0.17107390000001033,51,,,,,,,19,19,Vrouw,Rechts,2,
,dotcolour,xotask,dotcolour,50,3,230,230,main,positivefb,-99,hard,,0.6682835000001432,['n'],0,left,['1'],6,0.10476670000025479,45,,,,,,,19,19,Vrouw,Rechts,2,
,dotcolour,xotask,dotcolour,51,3,231,231,main,positivefb,-99,average,,0.634641399999964,['n'],1,right,['1'],6,0.10673659999974916,28,,,,,,,19,19,Vrouw,Rechts,2,
,dotcolour,xotask,dotcolour,52,3,232,232,main,positivefb,-99,average,,0.5362052000000403,['n'],1,right,['1'],6,0.08061180000004242,27,,,,,,,19,19,Vrouw,Rechts,2,
,dotcolour,xotask,dotcolour,53,3,233,233,main,positivefb,-99,easy,,0.43380769999930635,['n'],1,right,['1'],6,0.10835020000013174,18,,,,,,,19,19,Vrouw,Rechts,2,
,dotcolour,xotask,dotcolour,54,3,234,234,main,positivefb,-99,hard,,1.2525540999995428,['c'],1,left,['3'],4,0.1569509000000835,45,,,,,,,19,19,Vrouw,Rechts,2,
,dotcolour,xotask,dotcolour,55,3,235,235,main,positivefb,-99,easy,,0.6516388999998526,['c'],1,left,['2'],5,0.48492760000044655,63,,,,,,,19,19,Vrouw,Rechts,2,
,dotcolour,xotask,dotcolour,56,3,236,236,main,positivefb,-99,hard,,0.602439599999343,['n'],1,right,['1'],6,0.11271899999974266,39,,,,,,,19,19,Vrouw,Rechts,2,
,dotcolour,xotask,dotcolour,57,3,237,237,main,positivefb,-99,average,,0.5680798000003051,['n'],1,right,['1'],6,0.17357389999961015,29,,,,,,,19,19,Vrouw,Rechts,2,
,dotcolour,xotask,dotcolour,58,3,238,238,main,positivefb,-99,average,,0.4183909000003041,['n'],1,right,['1'],6,0.1732455999999729,29,,,,,,,19,19,Vrouw,Rechts,2,
,dotcolour,xotask,dotcolour,59,3,239,239,main,positivefb,-99,average,,0.33551639999950567,['n'],1,right,['1'],6,0.10480469999947672,26,,,,,,,19,19,Vrouw,Rechts,2,
,dotcolour,xotask,dotcolour,0,4,240,240,main,positivefb,-99,easy,,0.8017546000000948,['c'],0,right,['0'],1,1.1478400999994847,18,,,,,,,19,19,Vrouw,Rechts,2,
,dotcolour,xotask,dotcolour,1,4,241,241,main,positivefb,-99,hard,,0.9352897999997367,['n'],0,left,['2'],5,0.09517450000021199,41,,,,,,,19,19,Vrouw,Rechts,2,
,dotcolour,xotask,dotcolour,2,4,242,242,main,positivefb,-99,easy,,0.6194024000005811,['c'],1,left,['2'],5,0.1627623999993375,65,,,,,,,19,19,Vrouw,Rechts,2,
,dotcolour,xotask,dotcolour,3,4,243,243,main,positivefb,-99,average,,0.6176511999992726,['c'],1,left,['2'],5,0.1555051999994248,55,,,,,,,19,19,Vrouw,Rechts,2,
,dotcolour,xotask,dotcolour,4,4,244,244,main,positivefb,-99,average,,1.1351598000001104,['n'],0,left,['2'],5,0.11104810000051657,52,,,,,,,19,19,Vrouw,Rechts,2,
,dotcolour,xotask,dotcolour,5,4,245,245,main,positivefb,-99,average,,1.0189001999997345,['n'],1,right,['2'],5,0.12074419999953534,26,,,,,,,19,19,Vrouw,Rechts,2,
,dotcolour,xotask,dotcolour,6,4,246,246,main,positivefb,-99,average,,0.7020440000005692,['n'],1,right,['2'],5,0.1359281999993982,29,,,,,,,19,19,Vrouw,Rechts,2,
,dotcolour,xotask,dotcolour,7,4,247,247,main,positivefb,-99,average,,0.719492000000173,['c'],1,left,['2'],5,0.1893365999994785,53,,,,,,,19,19,Vrouw,Rechts,2,
,dotcolour,xotask,dotcolour,8,4,248,248,main,positivefb,-99,easy,,0.6352720999993835,['c'],1,left,['2'],5,0.1396969999996145,65,,,,,,,19,19,Vrouw,Rechts,2,
,dotcolour,xotask,dotcolour,9,4,249,249,main,positivefb,-99,average,,0.6349378000004435,['n'],1,right,['2'],5,0.08480859999963286,29,,,,,,,19,19,Vrouw,Rechts,2,
,dotcolour,xotask,dotcolour,10,4,250,250,main,positivefb,-99,easy,,0.7863192999993771,['c'],1,left,['2'],5,0.16127620000042953,61,,,,,,,19,19,Vrouw,Rechts,2,
,dotcolour,xotask,dotcolour,11,4,251,251,main,positivefb,-99,hard,,0.7516994999996314,['c'],1,left,['2'],5,0.1321750000006432,45,,,,,,,19,19,Vrouw,Rechts,2,
,dotcolour,xotask,dotcolour,12,4,252,252,main,positivefb,-99,easy,,0.8183866999997917,['c'],1,left,['1'],6,0.29375879999952303,63,,,,,,,19,19,Vrouw,Rechts,2,
,dotcolour,xotask,dotcolour,13,4,253,253,main,positivefb,-99,hard,,0.684818599999744,['n'],0,left,['2'],5,0.1656511999999566,41,,,,,,,19,19,Vrouw,Rechts,2,
,dotcolour,xotask,dotcolour,14,4,254,254,main,positivefb,-99,easy,,1.1525299999993877,['n'],1,right,['2'],5,0.17612460000054853,16,,,,,,,19,19,Vrouw,Rechts,2,
,dotcolour,xotask,dotcolour,15,4,255,255,main,positivefb,-99,hard,,0.7014923000006092,['n'],1,right,['2'],5,0.06047989999933634,38,,,,,,,19,19,Vrouw,Rechts,2,
,dotcolour,xotask,dotcolour,16,4,256,256,main,positivefb,-99,easy,,0.7191613000004509,['c'],1,left,['2'],5,0.1332367000004524,61,,,,,,,19,19,Vrouw,Rechts,2,
,dotcolour,xotask,dotcolour,17,4,257,257,main,positivefb,-99,hard,,1.619334600000002,['n'],0,left,['1'],6,0.5738185999998677,45,,,,,,,19,19,Vrouw,Rechts,2,
,dotcolour,xotask,dotcolour,18,4,258,258,main,positivefb,-99,hard,,0.9182328000006237,['n'],1,right,['2'],5,0.24959880000005796,39,,,,,,,19,19,Vrouw,Rechts,2,
,dotcolour,xotask,dotcolour,19,4,259,259,main,positivefb,-99,average,,0.6851093000004767,['n'],1,right,['2'],5,0.07550020000053337,27,,,,,,,19,19,Vrouw,Rechts,2,
,dotcolour,xotask,dotcolour,20,4,260,260,main,positivefb,-99,average,,0.8021782999994684,['c'],1,left,['2'],5,0.1752651999995578,52,,,,,,,19,19,Vrouw,Rechts,2,
,dotcolour,xotask,dotcolour,21,4,261,261,main,positivefb,-99,easy,,0.5183021000002555,['n'],1,right,['2'],5,0.17167940000035742,15,,,,,,,19,19,Vrouw,Rechts,2,
,dotcolour,xotask,dotcolour,22,4,262,262,main,positivefb,-99,hard,,0.6854853999993793,['n'],1,right,['1'],6,0.11309720000008383,36,,,,,,,19,19,Vrouw,Rechts,2,
,dotcolour,xotask,dotcolour,23,4,263,263,main,positivefb,-99,easy,,0.5024267999997392,['n'],1,right,['1'],6,0.16050389999963954,15,,,,,,,19,19,Vrouw,Rechts,2,
,dotcolour,xotask,dotcolour,24,4,264,264,main,positivefb,-99,average,,0.5011134000005768,['n'],1,right,['1'],6,0.17443219999950088,26,,,,,,,19,19,Vrouw,Rechts,2,
,dotcolour,xotask,dotcolour,25,4,265,265,main,positivefb,-99,hard,,0.5680873999999676,['n'],1,right,['1'],6,0.11956069999996544,37,,,,,,,19,19,Vrouw,Rechts,2,
,dotcolour,xotask,dotcolour,26,4,266,266,main,positivefb,-99,hard,,0.652044599999499,['n'],1,right,['2'],5,0.12835309999991296,37,,,,,,,19,19,Vrouw,Rechts,2,
,dotcolour,xotask,dotcolour,27,4,267,267,main,positivefb,-99,average,,0.5844180000003689,['n'],1,right,['2'],5,0.13170609999997396,29,,,,,,,19,19,Vrouw,Rechts,2,
,dotcolour,xotask,dotcolour,28,4,268,268,main,positivefb,-99,average,,0.6678775000000314,['c'],1,left,['2'],5,0.16355980000025738,52,,,,,,,19,19,Vrouw,Rechts,2,
,dotcolour,xotask,dotcolour,29,4,269,269,main,positivefb,-99,average,,0.584837499999594,['n'],1,right,['2'],5,0.15741170000001148,25,,,,,,,19,19,Vrouw,Rechts,2,
,dotcolour,xotask,dotcolour,30,4,270,270,main,positivefb,-99,easy,,0.8023735999995552,['c'],1,left,['2'],5,0.20646010000018578,62,,,,,,,19,19,Vrouw,Rechts,2,
,dotcolour,xotask,dotcolour,31,4,271,271,main,positivefb,-99,average,,0.9197367000006125,['c'],1,left,['1'],6,0.1930465000004915,52,,,,,,,19,19,Vrouw,Rechts,2,
,dotcolour,xotask,dotcolour,32,4,272,272,main,positivefb,-99,hard,,0.7351152000001093,['n'],1,right,['2'],5,0.09941400000025169,36,,,,,,,19,19,Vrouw,Rechts,2,
,dotcolour,xotask,dotcolour,33,4,273,273,main,positivefb,-99,hard,,0.869338799999241,['n'],0,left,['2'],5,0.1324623000000429,45,,,,,,,19,19,Vrouw,Rechts,2,
,dotcolour,xotask,dotcolour,34,4,274,274,main,positivefb,-99,hard,,0.7361541999998735,['n'],1,right,['2'],5,0.1848798999999417,35,,,,,,,19,19,Vrouw,Rechts,2,
,dotcolour,xotask,dotcolour,35,4,275,275,main,positivefb,-99,hard,,0.8847936000001937,['n'],0,left,['2'],5,0.15701759999956266,41,,,,,,,19,19,Vrouw,Rechts,2,
,dotcolour,xotask,dotcolour,36,4,276,276,main,positivefb,-99,hard,,0.618844500000705,['n'],1,right,['2'],5,0.19736209999973653,38,,,,,,,19,19,Vrouw,Rechts,2,
,dotcolour,xotask,dotcolour,37,4,277,277,main,positivefb,-99,average,,0.7858137000002898,['n'],1,right,['2'],5,0.29463359999954264,27,,,,,,,19,19,Vrouw,Rechts,2,
,dotcolour,xotask,dotcolour,38,4,278,278,main,positivefb,-99,easy,,0.6185303000002023,['n'],1,right,['2'],5,0.1768982000003234,16,,,,,,,19,19,Vrouw,Rechts,2,
,dotcolour,xotask,dotcolour,39,4,279,279,main,positivefb,-99,easy,,0.5847519000008106,['n'],1,right,['2'],5,0.10674259999996139,18,,,,,,,19,19,Vrouw,Rechts,2,
,dotcolour,xotask,dotcolour,40,4,280,280,main,positivefb,-99,hard,,1.1353049000008468,['c'],1,left,['2'],5,0.11273110000001907,43,,,,,,,19,19,Vrouw,Rechts,2,
,dotcolour,xotask,dotcolour,41,4,281,281,main,positivefb,-99,hard,,0.7352117000000362,['c'],0,right,['2'],5,0.14993160000085481,35,,,,,,,19,19,Vrouw,Rechts,2,
,dotcolour,xotask,dotcolour,42,4,282,282,main,positivefb,-99,easy,,0.9192082999998092,['c'],1,left,['1'],6,0.21902829999999085,64,,,,,,,19,19,Vrouw,Rechts,2,
,dotcolour,xotask,dotcolour,43,4,283,283,main,positivefb,-99,easy,,0.4365284999994401,['c'],1,left,['1'],6,0.20045049999953335,63,,,,,,,19,19,Vrouw,Rechts,2,
,dotcolour,xotask,dotcolour,44,4,284,284,main,positivefb,-99,hard,,1.5688964000000851,['c'],1,left,['3'],4,0.43183769999996,45,,,,,,,19,19,Vrouw,Rechts,2,
,dotcolour,xotask,dotcolour,45,4,285,285,main,positivefb,-99,easy,,0.8355333999998038,['n'],1,right,['1'],6,0.1639129999994111,15,,,,,,,19,19,Vrouw,Rechts,2,
,dotcolour,xotask,dotcolour,46,4,286,286,main,positivefb,-99,average,,1.3015904000003502,['c'],1,left,['1'],6,0.1281050999996296,51,,,,,,,19,19,Vrouw,Rechts,2,
,dotcolour,xotask,dotcolour,47,4,287,287,main,positivefb,-99,hard,,0.9689914999999019,['c'],0,right,['1'],6,0.2282126000000062,39,,,,,,,19,19,Vrouw,Rechts,2,
,dotcolour,xotask,dotcolour,48,4,288,288,main,positivefb,-99,average,,1.4699082000006456,['n'],0,left,['3'],4,0.14357380000001285,53,,,,,,,19,19,Vrouw,Rechts,2,
,dotcolour,xotask,dotcolour,49,4,289,289,main,positivefb,-99,average,,0.818722600000001,['n'],0,left,['0'],1,0.8336161000006541,52,,,,,,,19,19,Vrouw,Rechts,2,
,dotcolour,xotask,dotcolour,50,4,290,290,main,positivefb,-99,easy,,0.9692101000000548,['n'],1,right,['1'],6,0.16723069999989093,16,,,,,,,19,19,Vrouw,Rechts,2,
,dotcolour,xotask,dotcolour,51,4,291,291,main,positivefb,-99,easy,,1.3029662999997527,['n'],1,right,['1'],6,0.14701530000002094,15,,,,,,,19,19,Vrouw,Rechts,2,
,dotcolour,xotask,dotcolour,52,4,292,292,main,positivefb,-99,hard,,1.1024442999996609,['n'],0,left,['3'],4,0.20051779999994324,45,,,,,,,19,19,Vrouw,Rechts,2,
,dotcolour,xotask,dotcolour,53,4,293,293,main,positivefb,-99,easy,,0.5189190999999482,['n'],1,right,['1'],6,0.2276701000000685,17,,,,,,,19,19,Vrouw,Rechts,2,
,dotcolour,xotask,dotcolour,54,4,294,294,main,positivefb,-99,average,,0.6516357000000426,['n'],1,right,['1'],6,0.09541040000021894,28,,,,,,,19,19,Vrouw,Rechts,2,
,dotcolour,xotask,dotcolour,55,4,295,295,main,positivefb,-99,average,,0.7346628999994209,['n'],1,right,['1'],6,0.1589153000004444,26,,,,,,,19,19,Vrouw,Rechts,2,
,dotcolour,xotask,dotcolour,56,4,296,296,main,positivefb,-99,hard,,1.2030077000008532,['n'],0,left,['1'],6,0.13506500000039523,42,,,,,,,19,19,Vrouw,Rechts,2,
,dotcolour,xotask,dotcolour,57,4,297,297,main,positivefb,-99,easy,,0.8014954999998736,['c'],1,left,['1'],6,0.1857559999998557,61,,,,,,,19,19,Vrouw,Rechts,2,
,dotcolour,xotask,dotcolour,58,4,298,298,main,positivefb,-99,easy,,0.8842494999998962,['c'],1,left,['1'],6,0.16500409999935073,61,,,,,,,19,19,Vrouw,Rechts,2,
,dotcolour,xotask,dotcolour,59,4,299,299,main,positivefb,-99,average,,0.5023813000007067,['c'],1,left,['1'],6,0.20991509999930713,54,,,,,,,19,19,Vrouw,Rechts,2,
,xotask,xotask,dotcolour,0,0,0,300,training,positivefb,92,hard,51,1.8187526000001526,['n'],0,left,['3'],4,0.8054473000001963,,,,,,,,19,19,Vrouw,Rechts,2,
,xotask,xotask,dotcolour,1,0,1,301,training,positivefb,90,easy,73,0.6840704999995069,['c'],1,left,['3'],4,0.19969489999948564,,,,,,,,19,19,Vrouw,Rechts,2,
,xotask,xotask,dotcolour,2,0,2,302,training,positivefb,94,average,18,0.4676252999997814,['n'],1,right,['2'],5,0.13900229999944713,,,,,,,,19,19,Vrouw,Rechts,2,
,xotask,xotask,dotcolour,3,0,3,303,training,positivefb,94,average,17,0.5675191999998788,['n'],1,right,['2'],5,0.10096249999969586,,,,,,,,19,19,Vrouw,Rechts,2,
,xotask,xotask,dotcolour,4,0,4,304,training,positivefb,98,average,17,0.46733920000042417,['n'],1,right,['2'],5,0.05922210000062478,,,,,,,,19,19,Vrouw,Rechts,2,
,xotask,xotask,dotcolour,5,0,5,305,training,positivefb,99,average,15,0.4515384999995149,['n'],1,right,['2'],5,0.0774634999997943,,,,,,,,19,19,Vrouw,Rechts,2,
,xotask,xotask,dotcolour,6,0,6,306,training,positivefb,95,easy,70,0.6834879999996701,['c'],1,left,['2'],5,0.10994529999970837,,,,,,,,19,19,Vrouw,Rechts,2,
,xotask,xotask,dotcolour,7,0,7,307,training,positivefb,99,hard,26,0.733976900000016,['n'],1,right,['2'],5,0.12233699999978853,,,,,,,,19,19,Vrouw,Rechts,2,
,xotask,xotask,dotcolour,8,0,8,308,training,positivefb,96,average,60,0.8006277000004047,['c'],1,left,['2'],5,0.12240149999979621,,,,,,,,19,19,Vrouw,Rechts,2,
,xotask,xotask,dotcolour,9,0,9,309,training,positivefb,99,average,18,0.617463300000054,['n'],1,right,['2'],5,0.09056439999949362,,,,,,,,19,19,Vrouw,Rechts,2,
,xotask,xotask,dotcolour,10,0,10,310,training,positivefb,87,easy,70,0.7011695999999574,['c'],1,left,['2'],5,0.1134143999997832,,,,,,,,19,19,Vrouw,Rechts,2,
,xotask,xotask,dotcolour,11,0,11,311,training,positivefb,93,hard,52,0.734176099999786,['n'],0,left,['2'],5,0.061652200000025914,,,,,,,,19,19,Vrouw,Rechts,2,
,xotask,xotask,dotcolour,12,0,12,312,training,positivefb,97,easy,7,0.5502218000001449,['n'],1,right,['2'],5,0.09160750000046392,,,,,,,,19,19,Vrouw,Rechts,2,
,xotask,xotask,dotcolour,13,0,13,313,training,positivefb,96,easy,72,0.6343513000001622,['c'],1,left,['2'],5,0.14018859999941924,,,,,,,,19,19,Vrouw,Rechts,2,
,xotask,xotask,dotcolour,14,0,14,314,training,positivefb,88,easy,74,0.9016654999995808,['c'],1,left,['2'],5,0.1280879999994795,,,,,,,,19,19,Vrouw,Rechts,2,
,xotask,xotask,dotcolour,15,0,15,315,training,positivefb,94,easy,6,0.5842368000003262,['n'],1,right,['2'],5,0.09856290000061563,,,,,,,,19,19,Vrouw,Rechts,2,
,xotask,xotask,dotcolour,16,0,16,316,training,positivefb,77,hard,52,0.6842268999998851,['c'],1,left,['2'],5,0.1609651999997368,,,,,,,,19,19,Vrouw,Rechts,2,
,xotask,xotask,dotcolour,17,0,17,317,training,positivefb,88,average,62,0.6180819999999585,['c'],1,left,['2'],5,0.152060899999924,,,,,,,,19,19,Vrouw,Rechts,2,
,xotask,xotask,dotcolour,18,0,18,318,training,positivefb,97,hard,28,0.6179720000000088,['n'],1,right,['2'],5,0.0789416000006895,,,,,,,,19,19,Vrouw,Rechts,2,
,xotask,xotask,dotcolour,19,0,19,319,training,positivefb,96,easy,5,0.6017757999998139,['n'],1,right,['2'],5,0.09018809999997757,,,,,,,,19,19,Vrouw,Rechts,2,
,xotask,xotask,dotcolour,20,0,20,320,training,positivefb,88,easy,74,0.567928600000414,['c'],1,left,['2'],5,0.13440710000031686,,,,,,,,19,19,Vrouw,Rechts,2,
,xotask,xotask,dotcolour,21,0,21,321,training,positivefb,96,average,60,0.7346118000004935,['c'],1,left,['2'],5,0.1525659999997515,,,,,,,,19,19,Vrouw,Rechts,2,
,xotask,xotask,dotcolour,22,0,22,322,training,positivefb,93,hard,25,0.6166591000001063,['n'],1,right,['1'],6,0.15221050000036485,,,,,,,,19,19,Vrouw,Rechts,2,
,xotask,xotask,dotcolour,23,0,23,323,training,positivefb,81,average,15,2.1038359000003766,['n'],1,right,['2'],5,0.18581739999990532,,,,,,,,19,19,Vrouw,Rechts,2,
,xotask,xotask,dotcolour,24,0,24,324,training,positivefb,98,easy,70,0.8015404999996463,['c'],1,left,['2'],5,0.14424609999969107,,,,,,,,19,19,Vrouw,Rechts,2,
,xotask,xotask,dotcolour,25,0,25,325,training,positivefb,69,hard,27,0.7340610999999626,['n'],1,right,['2'],5,0.09945079999943118,,,,,,,,19,19,Vrouw,Rechts,2,
,xotask,xotask,dotcolour,26,0,26,326,training,positivefb,89,hard,27,0.9015740000004371,['n'],1,right,['2'],5,0.06436490000032791,,,,,,,,19,19,Vrouw,Rechts,2,
,xotask,xotask,dotcolour,27,0,27,327,training,positivefb,80,average,62,0.9183536000000458,['n'],0,left,['2'],5,0.09518369999932474,,,,,,,,19,19,Vrouw,Rechts,2,
,xotask,xotask,dotcolour,28,0,28,328,training,positivefb,87,hard,25,0.7176560000007157,['n'],1,right,['2'],5,0.10142900000028021,,,,,,,,19,19,Vrouw,Rechts,2,
,xotask,xotask,dotcolour,29,0,29,329,training,positivefb,97,average,61,0.8350342000003366,['c'],1,left,['2'],5,0.20496519999960583,,,,,,,,19,19,Vrouw,Rechts,2,
,xotask,xotask,dotcolour,30,0,30,330,training,positivefb,85,average,64,0.701575000000048,['c'],1,left,['2'],5,0.12650680000024295,,,,,,,,19,19,Vrouw,Rechts,2,
,xotask,xotask,dotcolour,31,0,31,331,training,positivefb,78,hard,53,0.6340857000004689,['n'],0,left,['2'],5,0.08635159999994357,,,,,,,,19,19,Vrouw,Rechts,2,
,xotask,xotask,dotcolour,32,0,32,332,training,positivefb,97,easy,7,0.6181292000001122,['c'],0,right,['2'],5,0.12082420000024285,,,,,,,,19,19,Vrouw,Rechts,2,
,xotask,xotask,dotcolour,33,0,33,333,training,positivefb,87,easy,8,0.66714839999986,['c'],0,right,['2'],5,0.1749059000003399,,,,,,,,19,19,Vrouw,Rechts,2,
,xotask,xotask,dotcolour,34,0,34,334,training,positivefb,89,hard,54,0.7180449000006774,['n'],0,left,['2'],5,0.10465690000000905,,,,,,,,19,19,Vrouw,Rechts,2,
,xotask,xotask,dotcolour,35,0,35,335,training,positivefb,92,hard,26,0.8842162999999346,['c'],0,right,['2'],5,0.1744539999999688,,,,,,,,19,19,Vrouw,Rechts,2,
,xotask,xotask,dotcolour,36,0,36,336,training,positivefb,86,easy,70,0.7017042999996193,['c'],1,left,['2'],5,0.19375330000002577,,,,,,,,19,19,Vrouw,Rechts,2,
,xotask,xotask,dotcolour,37,0,37,337,training,positivefb,96,hard,54,0.7681358999998338,['n'],0,left,['2'],5,0.07301829999960319,,,,,,,,19,19,Vrouw,Rechts,2,
,xotask,xotask,dotcolour,38,0,38,338,training,positivefb,81,easy,6,0.6350250000004962,['c'],0,right,['2'],5,0.21867389999988518,,,,,,,,19,19,Vrouw,Rechts,2,
,xotask,xotask,dotcolour,39,0,39,339,training,positivefb,92,hard,52,0.8188636000004408,['c'],1,left,['2'],5,0.16770739999992657,,,,,,,,19,19,Vrouw,Rechts,2,
,xotask,xotask,dotcolour,40,0,40,340,training,positivefb,97,average,62,0.6017145000005257,['c'],1,left,['2'],5,0.11033689999931084,,,,,,,,19,19,Vrouw,Rechts,2,
,xotask,xotask,dotcolour,41,0,41,341,training,positivefb,94,hard,25,0.635273099999722,['n'],1,right,['2'],5,0.04784879999988334,,,,,,,,19,19,Vrouw,Rechts,2,
,xotask,xotask,dotcolour,42,0,42,342,training,positivefb,95,average,61,0.5860425999999279,['c'],1,left,['2'],5,0.13153030000012222,,,,,,,,19,19,Vrouw,Rechts,2,
,xotask,xotask,dotcolour,43,0,43,343,training,positivefb,98,average,60,0.45020449999992707,['c'],1,left,['2'],5,0.12288819999957923,,,,,,,,19,19,Vrouw,Rechts,2,
,xotask,xotask,dotcolour,44,0,44,344,training,positivefb,88,average,15,0.7350907000000007,['c'],0,right,['2'],5,0.11010720000012952,,,,,,,,19,19,Vrouw,Rechts,2,
,xotask,xotask,dotcolour,45,0,45,345,training,positivefb,98,easy,70,0.5852853999995205,['c'],1,left,['2'],5,0.16862810000020545,,,,,,,,19,19,Vrouw,Rechts,2,
,xotask,xotask,dotcolour,46,0,46,346,training,positivefb,97,easy,6,0.5677120999998806,['n'],1,right,['2'],5,0.1451681999997163,,,,,,,,19,19,Vrouw,Rechts,2,
,xotask,xotask,dotcolour,47,0,47,347,training,positivefb,96,average,15,0.7850700999997571,['n'],1,right,['2'],5,0.06609639999987849,,,,,,,,19,19,Vrouw,Rechts,2,
,xotask,xotask,dotcolour,48,0,48,348,training,positivefb,97,hard,51,0.7013199000002714,['c'],1,left,['2'],5,0.11319170000024315,,,,,,,,19,19,Vrouw,Rechts,2,
,xotask,xotask,dotcolour,49,0,49,349,training,positivefb,98,average,64,0.6180266000001211,['c'],1,left,['2'],5,0.13793919999989157,,,,,,,,19,19,Vrouw,Rechts,2,
,xotask,xotask,dotcolour,50,0,50,350,training,positivefb,94,hard,53,0.5507561000003989,['c'],1,left,['2'],5,0.16398449999996956,,,,,,,,19,19,Vrouw,Rechts,2,
,xotask,xotask,dotcolour,51,0,51,351,training,positivefb,93,average,17,0.8347563999996055,['n'],1,right,['2'],5,0.0900365999996211,,,,,,,,19,19,Vrouw,Rechts,2,
,xotask,xotask,dotcolour,52,0,52,352,training,positivefb,95,easy,6,0.5840907000001607,['n'],1,right,['2'],5,0.11801070000001346,,,,,,,,19,19,Vrouw,Rechts,2,
,xotask,xotask,dotcolour,53,0,53,353,training,positivefb,94,hard,25,0.6515645999998014,['n'],1,right,['2'],5,0.09322169999995822,,,,,,,,19,19,Vrouw,Rechts,2,
,xotask,xotask,dotcolour,54,0,54,354,training,positivefb,98,easy,5,0.46742900000026566,['n'],1,right,['2'],5,0.04521740000018326,,,,,,,,19,19,Vrouw,Rechts,2,
,xotask,xotask,dotcolour,55,0,55,355,training,positivefb,98,easy,9,0.5007677000003241,['n'],1,right,['2'],5,0.0767175999999381,,,,,,,,19,19,Vrouw,Rechts,2,
,xotask,xotask,dotcolour,56,0,56,356,training,positivefb,88,easy,73,1.1347978000003422,['n'],0,left,['2'],5,0.03516289999970468,,,,,,,,19,19,Vrouw,Rechts,2,
,xotask,xotask,dotcolour,57,0,57,357,training,positivefb,99,average,17,0.4507114999996702,['n'],1,right,['2'],5,0.07705210000040097,,,,,,,,19,19,Vrouw,Rechts,2,
,xotask,xotask,dotcolour,58,0,58,358,training,positivefb,86,hard,50,0.46911329999966256,['n'],0,left,['2'],5,0.11024240000006102,,,,,,,,19,19,Vrouw,Rechts,2,
,xotask,xotask,dotcolour,59,0,59,359,training,positivefb,92,hard,29,0.601053100000172,['n'],1,right,['2'],5,0.10325579999971524,,,,,,,,19,19,Vrouw,Rechts,2,
,xotask,xotask,dotcolour,0,1,60,360,training,positivefb,93,average,64,1.0522194000004674,['c'],1,left,['2'],5,0.09676959999978862,,,,,,,,19,19,Vrouw,Rechts,2,
,xotask,xotask,dotcolour,1,1,61,361,training,positivefb,95,hard,29,0.5842579000000114,['n'],1,right,['2'],5,0.01949400000012247,,,,,,,,19,19,Vrouw,Rechts,2,
,xotask,xotask,dotcolour,2,1,62,362,training,positivefb,93,hard,25,0.634834100000262,['n'],1,right,['2'],5,0.06384129999969446,,,,,,,,19,19,Vrouw,Rechts,2,
,xotask,xotask,dotcolour,3,1,63,363,training,positivefb,97,hard,26,0.552198600000338,['n'],1,right,['2'],5,0.1095169000000169,,,,,,,,19,19,Vrouw,Rechts,2,
,xotask,xotask,dotcolour,4,1,64,364,training,positivefb,96,average,15,0.4341371000000436,['n'],1,right,['2'],5,0.0782853000000614,,,,,,,,19,19,Vrouw,Rechts,2,
,xotask,xotask,dotcolour,5,1,65,365,training,positivefb,87,average,61,0.4353718000002118,['n'],0,left,['2'],5,0.12025330000051326,,,,,,,,19,19,Vrouw,Rechts,2,
,xotask,xotask,dotcolour,6,1,66,366,training,positivefb,97,average,17,0.4002454999999827,['n'],1,right,['2'],5,0.08951299999989715,,,,,,,,19,19,Vrouw,Rechts,2,
,xotask,xotask,dotcolour,7,1,67,367,training,positivefb,99,average,19,0.4842391000001953,['n'],1,right,['2'],5,0.0966085000000021,,,,,,,,19,19,Vrouw,Rechts,2,
,xotask,xotask,dotcolour,8,1,68,368,training,positivefb,93,easy,73,0.9020895000003293,['c'],1,left,['2'],5,0.14245780000055674,,,,,,,,19,19,Vrouw,Rechts,2,
,xotask,xotask,dotcolour,9,1,69,369,training,positivefb,98,easy,70,0.6693001000003278,['c'],1,left,['2'],5,0.22023480000007112,,,,,,,,19,19,Vrouw,Rechts,2,
,xotask,xotask,dotcolour,10,1,70,370,training,positivefb,94,easy,9,0.5348358999999618,['n'],1,right,['1'],6,0.42808489999970334,,,,,,,,19,19,Vrouw,Rechts,2,
,xotask,xotask,dotcolour,11,1,71,371,training,positivefb,85,average,60,0.6189198000001852,['n'],0,left,['1'],6,0.08046299999932671,,,,,,,,19,19,Vrouw,Rechts,2,
,xotask,xotask,dotcolour,12,1,72,372,training,positivefb,88,easy,73,0.650808500000494,['c'],1,left,['2'],5,0.11304350000045815,,,,,,,,19,19,Vrouw,Rechts,2,
,xotask,xotask,dotcolour,13,1,73,373,training,positivefb,93,easy,74,0.8186961999999767,['c'],1,left,['2'],5,0.10656029999972816,,,,,,,,19,19,Vrouw,Rechts,2,
,xotask,xotask,dotcolour,14,1,74,374,training,positivefb,98,hard,27,0.8186015999999654,['n'],1,right,['2'],5,0.09889440000006289,,,,,,,,19,19,Vrouw,Rechts,2,
,xotask,xotask,dotcolour,15,1,75,375,training,positivefb,88,easy,72,1.0845441000001301,['c'],1,left,['1'],6,0.16931469999963156,,,,,,,,19,19,Vrouw,Rechts,2,
,xotask,xotask,dotcolour,16,1,76,376,training,positivefb,92,easy,8,0.6517498000002888,['n'],1,right,['2'],5,0.1260455000001457,,,,,,,,19,19,Vrouw,Rechts,2,
,xotask,xotask,dotcolour,17,1,77,377,training,positivefb,98,hard,53,0.8178212000002532,['c'],1,left,['2'],5,0.1268078000002788,,,,,,,,19,19,Vrouw,Rechts,2,
,xotask,xotask,dotcolour,18,1,78,378,training,positivefb,88,hard,54,1.0184709999994084,['n'],0,left,['2'],5,0.014709099999890896,,,,,,,,19,19,Vrouw,Rechts,2,
,xotask,xotask,dotcolour,19,1,79,379,training,positivefb,97,easy,9,0.6846507000000202,['n'],1,right,['1'],6,0.2008259000003818,,,,,,,,19,19,Vrouw,Rechts,2,
,xotask,xotask,dotcolour,20,1,80,380,training,positivefb,72,average,63,1.3357703000001493,['n'],0,left,['2'],5,0.07243930000004184,,,,,,,,19,19,Vrouw,Rechts,2,
,xotask,xotask,dotcolour,21,1,81,381,training,positivefb,89,hard,54,1.10196360000009,['c'],1,left,['3'],4,0.3913226000004215,,,,,,,,19,19,Vrouw,Rechts,2,
,xotask,xotask,dotcolour,22,1,82,382,training,positivefb,97,hard,29,0.9519036000001506,['n'],1,right,['3'],4,0.19042929999977787,,,,,,,,19,19,Vrouw,Rechts,2,
,xotask,xotask,dotcolour,23,1,83,383,training,positivefb,88,easy,8,0.5674445000004198,['n'],1,right,['3'],4,0.1431590000001961,,,,,,,,19,19,Vrouw,Rechts,2,
,xotask,xotask,dotcolour,24,1,84,384,training,positivefb,98,average,17,0.6171872000004441,['n'],1,right,['2'],5,0.15032780000001367,,,,,,,,19,19,Vrouw,Rechts,2,
,xotask,xotask,dotcolour,25,1,85,385,training,positivefb,96,easy,70,0.8508633999999802,['c'],1,left,['2'],5,0.1155720000006113,,,,,,,,19,19,Vrouw,Rechts,2,
,xotask,xotask,dotcolour,26,1,86,386,training,positivefb,85,hard,52,1.001624699999411,['c'],1,left,['2'],5,0.1325912000002063,,,,,,,,19,19,Vrouw,Rechts,2,
,xotask,xotask,dotcolour,27,1,87,387,training,positivefb,92,average,60,0.8516006999998353,['c'],1,left,['2'],5,0.16256520000024466,,,,,,,,19,19,Vrouw,Rechts,2,
,xotask,xotask,dotcolour,28,1,88,388,training,positivefb,88,easy,7,1.0351179000008415,['n'],1,right,['2'],5,0.2168045999997048,,,,,,,,19,19,Vrouw,Rechts,2,
,xotask,xotask,dotcolour,29,1,89,389,training,positivefb,83,average,17,5.039342000000033,['n'],1,right,['2'],5,0.10457959999985178,,,,,,,,19,19,Vrouw,Rechts,2,
,xotask,xotask,dotcolour,30,1,90,390,training,positivefb,90,easy,9,0.833585000000312,['n'],1,right,['2'],5,0.06425850000050559,,,,,,,,19,19,Vrouw,Rechts,2,
,xotask,xotask,dotcolour,31,1,91,391,training,positivefb,99,easy,7,0.5683910999996442,['n'],1,right,['2'],5,0.10955060000014782,,,,,,,,19,19,Vrouw,Rechts,2,
,xotask,xotask,dotcolour,32,1,92,392,training,positivefb,95,average,15,0.6017048000003342,['n'],1,right,['2'],5,0.031175899999652756,,,,,,,,19,19,Vrouw,Rechts,2,
,xotask,xotask,dotcolour,33,1,93,393,training,positivefb,93,hard,54,0.9850728999999774,['n'],0,left,['2'],5,0.10802929999954358,,,,,,,,19,19,Vrouw,Rechts,2,
,xotask,xotask,dotcolour,34,1,94,394,training,positivefb,84,hard,26,0.8189013999999588,['c'],0,right,['2'],5,0.1256524000000354,,,,,,,,19,19,Vrouw,Rechts,2,
,xotask,xotask,dotcolour,35,1,95,395,training,positivefb,94,hard,26,0.48412460000054125,['n'],1,right,['2'],5,0.07483760000013717,,,,,,,,19,19,Vrouw,Rechts,2,
,xotask,xotask,dotcolour,36,1,96,396,training,positivefb,92,average,18,0.5524014000002353,['n'],1,right,['2'],5,0.09586590000071737,,,,,,,,19,19,Vrouw,Rechts,2,
,xotask,xotask,dotcolour,37,1,97,397,training,positivefb,94,average,61,0.7848197000002983,['c'],1,left,['2'],5,0.11500390000037441,,,,,,,,19,19,Vrouw,Rechts,2,
,xotask,xotask,dotcolour,38,1,98,398,training,positivefb,96,easy,7,0.6356579000002966,['n'],1,right,['2'],5,0.13960729999962496,,,,,,,,19,19,Vrouw,Rechts,2,
,xotask,xotask,dotcolour,39,1,99,399,training,positivefb,95,average,19,0.6345746000006329,['n'],1,right,['2'],5,0.10642809999990277,,,,,,,,19,19,Vrouw,Rechts,2,
,xotask,xotask,dotcolour,40,1,100,400,training,positivefb,96,hard,25,0.5335779000006369,['n'],1,right,['2'],5,0.04703369999970164,,,,,,,,19,19,Vrouw,Rechts,2,
,xotask,xotask,dotcolour,41,1,101,401,training,positivefb,92,easy,73,0.7529026000001977,['c'],1,left,['2'],5,0.14932950000002165,,,,,,,,19,19,Vrouw,Rechts,2,
,xotask,xotask,dotcolour,42,1,102,402,training,positivefb,89,average,60,0.7331692999996449,['n'],0,left,['2'],5,0.06335330000001704,,,,,,,,19,19,Vrouw,Rechts,2,
,xotask,xotask,dotcolour,43,1,103,403,training,positivefb,98,hard,54,0.5678449999995792,['n'],0,left,['2'],5,0.09250040000006265,,,,,,,,19,19,Vrouw,Rechts,2,
,xotask,xotask,dotcolour,44,1,104,404,training,positivefb,96,hard,27,0.7343115000003309,['n'],1,right,['2'],5,0.04965269999956945,,,,,,,,19,19,Vrouw,Rechts,2,
,xotask,xotask,dotcolour,45,1,105,405,training,positivefb,96,easy,9,0.5996825000001991,['n'],1,right,['2'],5,0.07003330000043206,,,,,,,,19,19,Vrouw,Rechts,2,
,xotask,xotask,dotcolour,46,1,106,406,training,positivefb,86,hard,51,0.8024735999997574,['n'],0,left,['2'],5,0.10449899999912304,,,,,,,,19,19,Vrouw,Rechts,2,
,xotask,xotask,dotcolour,47,1,107,407,training,positivefb,86,hard,51,0.6842685000001438,['n'],0,left,['2'],5,0.06249379999917437,,,,,,,,19,19,Vrouw,Rechts,2,
,xotask,xotask,dotcolour,48,1,108,408,training,positivefb,88,average,19,0.8847392000006948,['c'],0,right,['2'],5,0.15043909999985772,,,,,,,,19,19,Vrouw,Rechts,2,
,xotask,xotask,dotcolour,49,1,109,409,training,positivefb,97,easy,5,0.6006944999999178,['n'],1,right,['2'],5,0.07043690000045899,,,,,,,,19,19,Vrouw,Rechts,2,
,xotask,xotask,dotcolour,50,1,110,410,training,positivefb,16,easy,71,0.6174484000002849,['n'],0,left,['0'],1,0.6802732000005562,,,,,,,,19,19,Vrouw,Rechts,2,
,xotask,xotask,dotcolour,51,1,111,411,training,positivefb,74,average,62,0.601846999999907,['n'],0,left,['2'],5,0.12383679999948072,,,,,,,,19,19,Vrouw,Rechts,2,
,xotask,xotask,dotcolour,52,1,112,412,training,positivefb,94,hard,51,0.6515180000005785,['n'],0,left,['2'],5,0.06689600000026985,,,,,,,,19,19,Vrouw,Rechts,2,
,xotask,xotask,dotcolour,53,1,113,413,training,positivefb,96,hard,52,0.6355899000000136,['n'],0,left,['2'],5,0.0851332000002003,,,,,,,,19,19,Vrouw,Rechts,2,
,xotask,xotask,dotcolour,54,1,114,414,training,positivefb,91,hard,29,0.6344375999997283,['n'],1,right,['2'],5,0.1491171999996368,,,,,,,,19,19,Vrouw,Rechts,2,
,xotask,xotask,dotcolour,55,1,115,415,training,positivefb,97,average,63,0.9014326999995319,['c'],1,left,['2'],5,0.14441679999981716,,,,,,,,19,19,Vrouw,Rechts,2,
,xotask,xotask,dotcolour,56,1,116,416,training,positivefb,94,average,64,0.8848932999999306,['c'],1,left,['2'],5,0.07737470000029134,,,,,,,,19,19,Vrouw,Rechts,2,
,xotask,xotask,dotcolour,57,1,117,417,training,positivefb,98,easy,71,0.7181565999999293,['c'],1,left,['2'],5,0.2519020999998247,,,,,,,,19,19,Vrouw,Rechts,2,
,xotask,xotask,dotcolour,58,1,118,418,training,positivefb,93,average,17,0.5855700000001889,['n'],1,right,['2'],5,0.06436020000001008,,,,,,,,19,19,Vrouw,Rechts,2,
,xotask,xotask,dotcolour,59,1,119,419,training,positivefb,93,easy,70,0.7845588000000134,['c'],1,left,['2'],5,0.1244712999996409,,,,,,,,19,19,Vrouw,Rechts,2,
,xotask,xotask,dotcolour,0,2,120,420,main,positivefb,-99,hard,54,1.6866394999997283,['n'],0,left,['8'],3,0.8020384000001286,,,,,,,,19,19,Vrouw,Rechts,2,
,xotask,xotask,dotcolour,1,2,121,421,main,positivefb,-99,easy,70,0.7859588999999687,['c'],1,left,['2'],5,0.20913949999976467,,,,,,,,19,19,Vrouw,Rechts,2,
,xotask,xotask,dotcolour,2,2,122,422,main,positivefb,-99,easy,6,0.7523345999998128,['n'],1,right,['1'],6,0.37757590000001073,,,,,,,,19,19,Vrouw,Rechts,2,
,xotask,xotask,dotcolour,3,2,123,423,main,positivefb,-99,average,15,1.319029899999805,['n'],1,right,['2'],5,0.1414663000005021,,,,,,,,19,19,Vrouw,Rechts,2,
,xotask,xotask,dotcolour,4,2,124,424,main,positivefb,-99,hard,27,1.018939099999443,['n'],1,right,['2'],5,0.1262575000000652,,,,,,,,19,19,Vrouw,Rechts,2,
,xotask,xotask,dotcolour,5,2,125,425,main,positivefb,-99,hard,25,0.8513177000004362,['n'],1,right,['2'],5,0.18341380000038043,,,,,,,,19,19,Vrouw,Rechts,2,
,xotask,xotask,dotcolour,6,2,126,426,main,positivefb,-99,average,17,1.3021576000001005,['n'],1,right,['3'],4,0.0903437999995731,,,,,,,,19,19,Vrouw,Rechts,2,
,xotask,xotask,dotcolour,7,2,127,427,main,positivefb,-99,average,62,0.8524294000008013,['n'],0,left,['2'],5,0.15558399999918038,,,,,,,,19,19,Vrouw,Rechts,2,
,xotask,xotask,dotcolour,8,2,128,428,main,positivefb,-99,easy,70,1.0860317000006035,['c'],1,left,['3'],4,0.10587690000011207,,,,,,,,19,19,Vrouw,Rechts,2,
,xotask,xotask,dotcolour,9,2,129,429,main,positivefb,-99,easy,7,0.8012492999996539,['n'],1,right,['2'],5,0.11626439999963623,,,,,,,,19,19,Vrouw,Rechts,2,
,xotask,xotask,dotcolour,10,2,130,430,main,positivefb,-99,average,61,0.8028240000003279,['c'],1,left,['3'],4,0.13545279999925697,,,,,,,,19,19,Vrouw,Rechts,2,
,xotask,xotask,dotcolour,11,2,131,431,main,positivefb,-99,hard,54,0.7195818000000145,['n'],0,left,['2'],5,0.09286629999951401,,,,,,,,19,19,Vrouw,Rechts,2,
,xotask,xotask,dotcolour,12,2,132,432,main,positivefb,-99,easy,73,0.9023496999998315,['c'],1,left,['3'],4,0.11685790000046836,,,,,,,,19,19,Vrouw,Rechts,2,
,xotask,xotask,dotcolour,13,2,133,433,main,positivefb,-99,easy,73,0.7352985000006811,['c'],1,left,['3'],4,0.1770048999997016,,,,,,,,19,19,Vrouw,Rechts,2,
,xotask,xotask,dotcolour,14,2,134,434,main,positivefb,-99,easy,73,0.7355339000005188,['c'],1,left,['3'],4,0.1568651999996291,,,,,,,,19,19,Vrouw,Rechts,2,
,xotask,xotask,dotcolour,15,2,135,435,main,positivefb,-99,easy,71,0.7846623000004911,['c'],1,left,['3'],4,0.14161260000037146,,,,,,,,19,19,Vrouw,Rechts,2,
,xotask,xotask,dotcolour,16,2,136,436,main,positivefb,-99,hard,25,0.6358305000003384,['n'],1,right,['2'],5,0.19957160000012664,,,,,,,,19,19,Vrouw,Rechts,2,
,xotask,xotask,dotcolour,17,2,137,437,main,positivefb,-99,hard,54,0.8858013000008214,['c'],1,left,['3'],4,0.13921359999949345,,,,,,,,19,19,Vrouw,Rechts,2,
,xotask,xotask,dotcolour,18,2,138,438,main,positivefb,-99,hard,27,0.6853198999997403,['c'],0,right,['3'],4,0.1542598000005455,,,,,,,,19,19,Vrouw,Rechts,2,
,xotask,xotask,dotcolour,19,2,139,439,main,positivefb,-99,hard,53,0.6178276000000551,['c'],1,left,['3'],4,0.15478110000003653,,,,,,,,19,19,Vrouw,Rechts,2,
,xotask,xotask,dotcolour,20,2,140,440,main,positivefb,-99,easy,6,0.9528226000002178,['n'],1,right,['2'],5,0.09374750000006316,,,,,,,,19,19,Vrouw,Rechts,2,
,xotask,xotask,dotcolour,21,2,141,441,main,positivefb,-99,average,62,0.7691052000000127,['c'],1,left,['3'],4,0.146255900000142,,,,,,,,19,19,Vrouw,Rechts,2,
,xotask,xotask,dotcolour,22,2,142,442,main,positivefb,-99,hard,50,0.7531166999997367,['c'],1,left,['3'],4,0.12715579999985493,,,,,,,,19,19,Vrouw,Rechts,2,
,xotask,xotask,dotcolour,23,2,143,443,main,positivefb,-99,hard,29,0.7852634000000762,['c'],0,right,['3'],4,0.10582630000044446,,,,,,,,19,19,Vrouw,Rechts,2,
,xotask,xotask,dotcolour,24,2,144,444,main,positivefb,-99,hard,52,0.6185445999999502,['c'],1,left,['3'],4,0.14042849999987084,,,,,,,,19,19,Vrouw,Rechts,2,
,xotask,xotask,dotcolour,25,2,145,445,main,positivefb,-99,average,17,0.8851318999995783,['n'],1,right,['2'],5,0.6997361000003366,,,,,,,,19,19,Vrouw,Rechts,2,
,xotask,xotask,dotcolour,26,2,146,446,main,positivefb,-99,easy,9,0.5684350000001359,['n'],1,right,['2'],5,0.0870271000003413,,,,,,,,19,19,Vrouw,Rechts,2,
,xotask,xotask,dotcolour,27,2,147,447,main,positivefb,-99,easy,7,0.5848210000003746,['n'],1,right,['2'],5,0.02845660000002681,,,,,,,,19,19,Vrouw,Rechts,2,
,xotask,xotask,dotcolour,28,2,148,448,main,positivefb,-99,easy,7,0.5842508000005182,['n'],1,right,['2'],5,0.16367480000008072,,,,,,,,19,19,Vrouw,Rechts,2,
,xotask,xotask,dotcolour,29,2,149,449,main,positivefb,-99,easy,72,1.2023696999995082,['n'],0,left,['2'],5,0.18853320000016538,,,,,,,,19,19,Vrouw,Rechts,2,
,xotask,xotask,dotcolour,30,2,150,450,main,positivefb,-99,average,16,0.5518901000004917,['n'],1,right,['2'],5,0.03794999999990978,,,,,,,,19,19,Vrouw,Rechts,2,
,xotask,xotask,dotcolour,31,2,151,451,main,positivefb,-99,hard,50,0.9524072000003798,['c'],1,left,['2'],5,0.17376440000043658,,,,,,,,19,19,Vrouw,Rechts,2,
,xotask,xotask,dotcolour,32,2,152,452,main,positivefb,-99,hard,26,0.6177761999997529,['n'],1,right,['2'],5,0.0949692000003779,,,,,,,,19,19,Vrouw,Rechts,2,
,xotask,xotask,dotcolour,33,2,153,453,main,positivefb,-99,average,19,0.7693159999998898,['n'],1,right,['2'],5,1.051553199999944,,,,,,,,19,19,Vrouw,Rechts,2,
,xotask,xotask,dotcolour,34,2,154,454,main,positivefb,-99,easy,73,0.7190833000004204,['c'],1,left,['2'],5,0.10783749999973224,,,,,,,,19,19,Vrouw,Rechts,2,
,xotask,xotask,dotcolour,35,2,155,455,main,positivefb,-99,average,17,0.6015464000001884,['n'],1,right,['2'],5,0.078278599999976,,,,,,,,19,19,Vrouw,Rechts,2,
,xotask,xotask,dotcolour,36,2,156,456,main,positivefb,-99,easy,8,0.5685978000001342,['n'],1,right,['2'],5,0.06865700000071229,,,,,,,,19,19,Vrouw,Rechts,2,
,xotask,xotask,dotcolour,37,2,157,457,main,positivefb,-99,average,19,0.467739800000345,['n'],1,right,['2'],5,0.04661450000003242,,,,,,,,19,19,Vrouw,Rechts,2,
,xotask,xotask,dotcolour,38,2,158,458,main,positivefb,-99,hard,27,0.8015787999993336,['c'],0,right,['2'],5,0.10918200000014622,,,,,,,,19,19,Vrouw,Rechts,2,
,xotask,xotask,dotcolour,39,2,159,459,main,positivefb,-99,average,16,0.7530017999997654,['n'],1,right,['2'],5,0.06683179999981803,,,,,,,,19,19,Vrouw,Rechts,2,
,xotask,xotask,dotcolour,40,2,160,460,main,positivefb,-99,easy,8,0.4365386999998009,['c'],0,right,['0'],1,1.7093714000002365,,,,,,,,19,19,Vrouw,Rechts,2,
,xotask,xotask,dotcolour,41,2,161,461,main,positivefb,-99,average,64,1.6525551999993695,['n'],0,left,['2'],5,0.09240700000009383,,,,,,,,19,19,Vrouw,Rechts,2,
,xotask,xotask,dotcolour,42,2,162,462,main,positivefb,-99,average,61,1.435073000000557,['c'],1,left,['2'],5,0.43810389999998733,,,,,,,,19,19,Vrouw,Rechts,2,
,xotask,xotask,dotcolour,43,2,163,463,main,positivefb,-99,average,62,0.8521795999995447,['c'],1,left,['2'],5,0.11384410000027856,,,,,,,,19,19,Vrouw,Rechts,2,
,xotask,xotask,dotcolour,44,2,164,464,main,positivefb,-99,average,60,0.7354249999998501,['c'],1,left,['2'],5,0.12814939999952912,,,,,,,,19,19,Vrouw,Rechts,2,
,xotask,xotask,dotcolour,45,2,165,465,main,positivefb,-99,easy,7,0.7694936000007147,['n'],1,right,['2'],5,0.11611570000059146,,,,,,,,19,19,Vrouw,Rechts,2,
,xotask,xotask,dotcolour,46,2,166,466,main,positivefb,-99,hard,53,0.8018010999994658,['n'],0,left,['2'],5,0.07850439999947412,,,,,,,,19,19,Vrouw,Rechts,2,
,xotask,xotask,dotcolour,47,2,167,467,main,positivefb,-99,hard,50,0.5852957999995851,['c'],1,left,['2'],5,0.132234900000185,,,,,,,,19,19,Vrouw,Rechts,2,
,xotask,xotask,dotcolour,48,2,168,468,main,positivefb,-99,easy,7,0.9527599000002738,['n'],1,right,['1'],6,0.10395269999935408,,,,,,,,19,19,Vrouw,Rechts,2,
,xotask,xotask,dotcolour,49,2,169,469,main,positivefb,-99,easy,74,0.9351040000001376,['c'],1,left,['2'],5,0.15735180000046967,,,,,,,,19,19,Vrouw,Rechts,2,
,xotask,xotask,dotcolour,50,2,170,470,main,positivefb,-99,easy,71,1.0026035999999294,['c'],1,left,['2'],5,0.16703310000048077,,,,,,,,19,19,Vrouw,Rechts,2,
,xotask,xotask,dotcolour,51,2,171,471,main,positivefb,-99,average,61,0.7684332999997423,['n'],0,left,['2'],5,0.0804588999999396,,,,,,,,19,19,Vrouw,Rechts,2,
,xotask,xotask,dotcolour,52,2,172,472,main,positivefb,-99,average,17,0.9186334000005445,['n'],1,right,['3'],4,0.16775909999978467,,,,,,,,19,19,Vrouw,Rechts,2,
,xotask,xotask,dotcolour,53,2,173,473,main,positivefb,-99,hard,26,1.0354966999993849,['n'],1,right,['2'],5,0.12709079999967798,,,,,,,,19,19,Vrouw,Rechts,2,
,xotask,xotask,dotcolour,54,2,174,474,main,positivefb,-99,hard,26,1.218811700000515,['n'],1,right,['3'],4,0.2165260000001581,,,,,,,,19,19,Vrouw,Rechts,2,
,xotask,xotask,dotcolour,55,2,175,475,main,positivefb,-99,hard,25,0.7182580999997299,['n'],1,right,['2'],5,0.40318139999999403,,,,,,,,19,19,Vrouw,Rechts,2,
,xotask,xotask,dotcolour,56,2,176,476,main,positivefb,-99,average,18,0.7026003999999375,['n'],1,right,['2'],5,0.0774836000000505,,,,,,,,19,19,Vrouw,Rechts,2,
,xotask,xotask,dotcolour,57,2,177,477,main,positivefb,-99,average,64,0.8684272000000419,['n'],0,left,['3'],4,0.031833300000471354,,,,,,,,19,19,Vrouw,Rechts,2,
,xotask,xotask,dotcolour,58,2,178,478,main,positivefb,-99,average,62,1.4005482000002303,['n'],0,left,['9'],2,1.3897460000007413,,,,,,,,19,19,Vrouw,Rechts,2,
,xotask,xotask,dotcolour,59,2,179,479,main,positivefb,-99,hard,54,0.8856762999994316,['n'],0,left,['2'],5,0.1528281999999308,,,,,,,,19,19,Vrouw,Rechts,2,
,xotask,xotask,dotcolour,0,3,180,480,main,positivefb,-99,average,64,0.8357230000001437,['c'],1,left,['1'],6,0.18689879999965342,,,,,,,,19,19,Vrouw,Rechts,2,
,xotask,xotask,dotcolour,1,3,181,481,main,positivefb,-99,average,18,0.5190628000000288,['n'],1,right,['1'],6,0.1505261000002065,,,,,,,,19,19,Vrouw,Rechts,2,
,xotask,xotask,dotcolour,2,3,182,482,main,positivefb,-99,hard,29,0.868410699999913,['c'],0,right,['2'],5,0.10875439999927039,,,,,,,,19,19,Vrouw,Rechts,2,
,xotask,xotask,dotcolour,3,3,183,483,main,positivefb,-99,hard,25,0.7024017000003369,['n'],1,right,['2'],5,0.07573049999973591,,,,,,,,19,19,Vrouw,Rechts,2,
,xotask,xotask,dotcolour,4,3,184,484,main,positivefb,-99,average,64,0.8353747999999541,['c'],1,left,['2'],5,0.006821199999649252,,,,,,,,19,19,Vrouw,Rechts,2,
,xotask,xotask,dotcolour,5,3,185,485,main,positivefb,-99,easy,70,1.0697935999996844,['c'],1,left,['2'],5,0.12375909999991563,,,,,,,,19,19,Vrouw,Rechts,2,
,xotask,xotask,dotcolour,6,3,186,486,main,positivefb,-99,average,16,0.5529090999998516,['n'],1,right,['2'],5,0.04841550000037387,,,,,,,,19,19,Vrouw,Rechts,2,
,xotask,xotask,dotcolour,7,3,187,487,main,positivefb,-99,average,18,0.4671474999995553,['n'],1,right,['2'],5,0.052250200000344194,,,,,,,,19,19,Vrouw,Rechts,2,
,xotask,xotask,dotcolour,8,3,188,488,main,positivefb,-99,easy,6,0.41773490000014135,['n'],1,right,['2'],5,0.08106279999992694,,,,,,,,19,19,Vrouw,Rechts,2,
,xotask,xotask,dotcolour,9,3,189,489,main,positivefb,-99,hard,51,0.785077900000033,['n'],0,left,['2'],5,0.03024479999930918,,,,,,,,19,19,Vrouw,Rechts,2,
,xotask,xotask,dotcolour,10,3,190,490,main,positivefb,-99,easy,73,0.5012338999995336,['n'],0,left,['2'],5,0.032621999999719264,,,,,,,,19,19,Vrouw,Rechts,2,
,xotask,xotask,dotcolour,11,3,191,491,main,positivefb,-99,hard,54,0.5514385999995284,['c'],1,left,['2'],5,0.10538509999969392,,,,,,,,19,19,Vrouw,Rechts,2,
,xotask,xotask,dotcolour,12,3,192,492,main,positivefb,-99,hard,50,0.6013428999995085,['c'],1,left,['2'],5,0.14112639999984822,,,,,,,,19,19,Vrouw,Rechts,2,
,xotask,xotask,dotcolour,13,3,193,493,main,positivefb,-99,hard,54,0.7025987000006353,['c'],1,left,['2'],5,0.17872540000007575,,,,,,,,19,19,Vrouw,Rechts,2,
,xotask,xotask,dotcolour,14,3,194,494,main,positivefb,-99,easy,8,0.5509802999995372,['n'],1,right,['2'],5,0.0932505000000674,,,,,,,,19,19,Vrouw,Rechts,2,
,xotask,xotask,dotcolour,15,3,195,495,main,positivefb,-99,hard,29,0.8690600999998424,['c'],0,right,['2'],5,0.15858320000006643,,,,,,,,19,19,Vrouw,Rechts,2,
,xotask,xotask,dotcolour,16,3,196,496,main,positivefb,-99,hard,52,0.6850446999997075,['c'],1,left,['2'],5,0.12425419999999576,,,,,,,,19,19,Vrouw,Rechts,2,
,xotask,xotask,dotcolour,17,3,197,497,main,positivefb,-99,average,63,0.5851888999995936,['c'],1,left,['2'],5,0.1437787999993816,,,,,,,,19,19,Vrouw,Rechts,2,
,xotask,xotask,dotcolour,18,3,198,498,main,positivefb,-99,average,63,0.5025550999998813,['c'],1,left,['2'],5,0.13348669999959384,,,,,,,,19,19,Vrouw,Rechts,2,
,xotask,xotask,dotcolour,19,3,199,499,main,positivefb,-99,average,63,0.635113199999978,['c'],1,left,['2'],5,0.15049750000071072,,,,,,,,19,19,Vrouw,Rechts,2,
,xotask,xotask,dotcolour,20,3,200,500,main,positivefb,-99,average,15,0.7353315000000293,['n'],1,right,['2'],5,0.09789069999987987,,,,,,,,19,19,Vrouw,Rechts,2,
,xotask,xotask,dotcolour,21,3,201,501,main,positivefb,-99,easy,6,0.5178061999995407,['n'],1,right,['2'],5,0.15438930000073015,,,,,,,,19,19,Vrouw,Rechts,2,
,xotask,xotask,dotcolour,22,3,202,502,main,positivefb,-99,average,64,0.7683058000002347,['c'],1,left,['2'],5,0.13969429999997374,,,,,,,,19,19,Vrouw,Rechts,2,
,xotask,xotask,dotcolour,23,3,203,503,main,positivefb,-99,hard,51,0.5853874999993423,['c'],1,left,['2'],5,0.17415389999951003,,,,,,,,19,19,Vrouw,Rechts,2,
,xotask,xotask,dotcolour,24,3,204,504,main,positivefb,-99,hard,51,0.819558500000312,['n'],0,left,['2'],5,0.14283619999969233,,,,,,,,19,19,Vrouw,Rechts,2,
,xotask,xotask,dotcolour,25,3,205,505,main,positivefb,-99,easy,74,0.635906000000432,['c'],1,left,['2'],5,0.103144899999279,,,,,,,,19,19,Vrouw,Rechts,2,
,xotask,xotask,dotcolour,26,3,206,506,main,positivefb,-99,hard,26,0.7528743000002578,['c'],0,right,['2'],5,0.16476060000059078,,,,,,,,19,19,Vrouw,Rechts,2,
,xotask,xotask,dotcolour,27,3,207,507,main,positivefb,-99,hard,25,0.6007521999999881,['c'],0,right,['2'],5,0.24650729999939358,,,,,,,,19,19,Vrouw,Rechts,2,
,xotask,xotask,dotcolour,28,3,208,508,main,positivefb,-99,average,18,0.7026049000005514,['n'],1,right,['2'],5,0.1035329999995156,,,,,,,,19,19,Vrouw,Rechts,2,
,xotask,xotask,dotcolour,29,3,209,509,main,positivefb,-99,hard,28,0.46920090000003256,['n'],1,right,['2'],5,0.11265390000062325,,,,,,,,19,19,Vrouw,Rechts,2,
,xotask,xotask,dotcolour,30,3,210,510,main,positivefb,-99,easy,8,1.269482199999402,['n'],1,right,['2'],5,0.18441830000028858,,,,,,,,19,19,Vrouw,Rechts,2,
,xotask,xotask,dotcolour,31,3,211,511,main,positivefb,-99,hard,26,0.6013536000000386,['n'],1,right,['2'],5,0.08827779999955965,,,,,,,,19,19,Vrouw,Rechts,2,
,xotask,xotask,dotcolour,32,3,212,512,main,positivefb,-99,easy,72,0.7356700999998793,['c'],1,left,['2'],5,0.15125939999961702,,,,,,,,19,19,Vrouw,Rechts,2,
,xotask,xotask,dotcolour,33,3,213,513,main,positivefb,-99,average,16,0.5846731000001455,['c'],0,right,['2'],5,0.32973500000025524,,,,,,,,19,19,Vrouw,Rechts,2,
,xotask,xotask,dotcolour,34,3,214,514,main,positivefb,-99,average,15,0.6688315999999759,['n'],1,right,['2'],5,0.02561340000011114,,,,,,,,19,19,Vrouw,Rechts,2,
,xotask,xotask,dotcolour,35,3,215,515,main,positivefb,-99,easy,6,1.4357458000004044,['n'],1,right,['2'],5,0.07899360000010347,,,,,,,,19,19,Vrouw,Rechts,2,
,xotask,xotask,dotcolour,36,3,216,516,main,positivefb,-99,average,62,0.7344654999997147,['c'],1,left,['2'],5,0.10956370000076276,,,,,,,,19,19,Vrouw,Rechts,2,
,xotask,xotask,dotcolour,37,3,217,517,main,positivefb,-99,easy,73,0.784963200000675,['c'],1,left,['2'],5,0.7610717999996268,,,,,,,,19,19,Vrouw,Rechts,2,
,xotask,xotask,dotcolour,38,3,218,518,main,positivefb,-99,average,64,0.5185154000000693,['c'],1,left,['2'],5,0.15727659999993193,,,,,,,,19,19,Vrouw,Rechts,2,
,xotask,xotask,dotcolour,39,3,219,519,main,positivefb,-99,hard,28,0.6519217000004573,['n'],1,right,['2'],5,0.08508380000057514,,,,,,,,19,19,Vrouw,Rechts,2,
,xotask,xotask,dotcolour,40,3,220,520,main,positivefb,-99,average,15,0.6844668000003367,['n'],1,right,['2'],5,0.07780259999981354,,,,,,,,19,19,Vrouw,Rechts,2,
,xotask,xotask,dotcolour,41,3,221,521,main,positivefb,-99,easy,5,0.5857210000003761,['n'],1,right,['2'],5,0.027265499999884923,,,,,,,,19,19,Vrouw,Rechts,2,
,xotask,xotask,dotcolour,42,3,222,522,main,positivefb,-99,hard,29,0.7006764999996449,['n'],1,right,['1'],6,0.12551640000037878,,,,,,,,19,19,Vrouw,Rechts,2,
,xotask,xotask,dotcolour,43,3,223,523,main,positivefb,-99,hard,52,0.8681964999996126,['c'],1,left,['2'],5,0.053692899999987276,,,,,,,,19,19,Vrouw,Rechts,2,
,xotask,xotask,dotcolour,44,3,224,524,main,positivefb,-99,easy,74,0.7170744000004561,['c'],1,left,['1'],6,0.16637660000014876,,,,,,,,19,19,Vrouw,Rechts,2,
,xotask,xotask,dotcolour,45,3,225,525,main,positivefb,-99,easy,72,0.451672399999552,['c'],1,left,['2'],5,0.18118069999945874,,,,,,,,19,19,Vrouw,Rechts,2,
,xotask,xotask,dotcolour,46,3,226,526,main,positivefb,-99,average,19,0.5513092000001052,['n'],1,right,['2'],5,0.09662459999981365,,,,,,,,19,19,Vrouw,Rechts,2,
,xotask,xotask,dotcolour,47,3,227,527,main,positivefb,-99,easy,72,0.6676986000002216,['c'],1,left,['2'],5,0.15308060000006662,,,,,,,,19,19,Vrouw,Rechts,2,
,xotask,xotask,dotcolour,48,3,228,528,main,positivefb,-99,easy,9,1.001386600000842,['n'],1,right,['2'],5,0.0582948999999644,,,,,,,,19,19,Vrouw,Rechts,2,
,xotask,xotask,dotcolour,49,3,229,529,main,positivefb,-99,easy,7,0.7852190000003247,['n'],1,right,['2'],5,0.1040409000006548,,,,,,,,19,19,Vrouw,Rechts,2,
,xotask,xotask,dotcolour,50,3,230,530,main,positivefb,-99,easy,73,0.869480499999554,['c'],1,left,['2'],5,0.10494879999987461,,,,,,,,19,19,Vrouw,Rechts,2,
,xotask,xotask,dotcolour,51,3,231,531,main,positivefb,-99,easy,9,0.901361199999883,['n'],1,right,['2'],5,0.09551789999932225,,,,,,,,19,19,Vrouw,Rechts,2,
,xotask,xotask,dotcolour,52,3,232,532,main,positivefb,-99,average,17,0.5521642999992764,['n'],1,right,['2'],5,0.15004850000059378,,,,,,,,19,19,Vrouw,Rechts,2,
,xotask,xotask,dotcolour,53,3,233,533,main,positivefb,-99,average,63,0.6186890999997559,['c'],1,left,['2'],5,0.18998650000048656,,,,,,,,19,19,Vrouw,Rechts,2,
,xotask,xotask,dotcolour,54,3,234,534,main,positivefb,-99,easy,6,0.7854828999998062,['n'],1,right,['2'],5,0.1825857999992877,,,,,,,,19,19,Vrouw,Rechts,2,
,xotask,xotask,dotcolour,55,3,235,535,main,positivefb,-99,hard,25,0.5848384000000806,['n'],1,right,['1'],6,0.11196819999986474,,,,,,,,19,19,Vrouw,Rechts,2,
,xotask,xotask,dotcolour,56,3,236,536,main,positivefb,-99,average,61,0.8696050999997169,['c'],1,left,['2'],5,0.1764805000002525,,,,,,,,19,19,Vrouw,Rechts,2,
,xotask,xotask,dotcolour,57,3,237,537,main,positivefb,-99,hard,51,0.7011628000000201,['c'],1,left,['1'],6,0.1410753999998633,,,,,,,,19,19,Vrouw,Rechts,2,
,xotask,xotask,dotcolour,58,3,238,538,main,positivefb,-99,hard,53,0.6847658000006049,['c'],1,left,['2'],5,0.1556405999999697,,,,,,,,19,19,Vrouw,Rechts,2,
,xotask,xotask,dotcolour,59,3,239,539,main,positivefb,-99,easy,71,0.6680951999996978,['c'],1,left,['2'],5,0.13764659999924334,,,,,,,,19,19,Vrouw,Rechts,2,
,xotask,xotask,dotcolour,0,4,240,540,main,positivefb,-99,hard,27,0.8186829000005673,['c'],0,right,['2'],5,0.12093869999989693,,,,,,,,19,19,Vrouw,Rechts,2,
,xotask,xotask,dotcolour,1,4,241,541,main,positivefb,-99,hard,50,0.6181477000000086,['c'],1,left,['2'],5,0.1470300999999381,,,,,,,,19,19,Vrouw,Rechts,2,
,xotask,xotask,dotcolour,2,4,242,542,main,positivefb,-99,easy,5,0.5680142999999589,['n'],1,right,['2'],5,0.14251820000026783,,,,,,,,19,19,Vrouw,Rechts,2,
,xotask,xotask,dotcolour,3,4,243,543,main,positivefb,-99,hard,28,0.4846770000003744,['n'],1,right,['2'],5,0.11775390000002517,,,,,,,,19,19,Vrouw,Rechts,2,
,xotask,xotask,dotcolour,4,4,244,544,main,positivefb,-99,average,63,0.6003060000002733,['c'],1,left,['2'],5,0.13584790000004432,,,,,,,,19,19,Vrouw,Rechts,2,
,xotask,xotask,dotcolour,5,4,245,545,main,positivefb,-99,easy,7,0.7511747999997169,['c'],0,right,['2'],5,0.7405056999996305,,,,,,,,19,19,Vrouw,Rechts,2,
,xotask,xotask,dotcolour,6,4,246,546,main,positivefb,-99,hard,25,0.7183070000000953,['n'],1,right,['2'],5,0.07249529999990045,,,,,,,,19,19,Vrouw,Rechts,2,
,xotask,xotask,dotcolour,7,4,247,547,main,positivefb,-99,easy,72,0.667165699999714,['c'],1,left,['2'],5,0.11479289999988396,,,,,,,,19,19,Vrouw,Rechts,2,
,xotask,xotask,dotcolour,8,4,248,548,main,positivefb,-99,hard,29,0.6846370000002935,['c'],0,right,['2'],5,0.1787056000002849,,,,,,,,19,19,Vrouw,Rechts,2,
,xotask,xotask,dotcolour,9,4,249,549,main,positivefb,-99,easy,74,0.5015431000001627,['c'],1,left,['2'],5,0.1680028000000675,,,,,,,,19,19,Vrouw,Rechts,2,
,xotask,xotask,dotcolour,10,4,250,550,main,positivefb,-99,average,17,0.6336314999998649,['c'],0,right,['2'],5,0.43126159999974334,,,,,,,,19,19,Vrouw,Rechts,2,
,xotask,xotask,dotcolour,11,4,251,551,main,positivefb,-99,easy,8,0.8855278999999427,['n'],1,right,['2'],5,0.07308709999961138,,,,,,,,19,19,Vrouw,Rechts,2,
,xotask,xotask,dotcolour,12,4,252,552,main,positivefb,-99,hard,26,0.8512961999995241,['n'],1,right,['2'],5,1.443663099999867,,,,,,,,19,19,Vrouw,Rechts,2,
,xotask,xotask,dotcolour,13,4,253,553,main,positivefb,-99,easy,71,0.8526727000007668,['n'],0,left,['2'],5,0.006689799999548995,,,,,,,,19,19,Vrouw,Rechts,2,
,xotask,xotask,dotcolour,14,4,254,554,main,positivefb,-99,average,64,0.9019876000002114,['n'],0,left,['2'],5,0.08189589999983582,,,,,,,,19,19,Vrouw,Rechts,2,
,xotask,xotask,dotcolour,15,4,255,555,main,positivefb,-99,average,16,0.6506971999997404,['n'],1,right,['2'],5,0.09229580000010174,,,,,,,,19,19,Vrouw,Rechts,2,
,xotask,xotask,dotcolour,16,4,256,556,main,positivefb,-99,average,61,0.6687611000006655,['c'],1,left,['2'],5,0.08612910000010743,,,,,,,,19,19,Vrouw,Rechts,2,
,xotask,xotask,dotcolour,17,4,257,557,main,positivefb,-99,hard,53,0.8681551999998192,['c'],1,left,['2'],5,0.03001239999957761,,,,,,,,19,19,Vrouw,Rechts,2,
,xotask,xotask,dotcolour,18,4,258,558,main,positivefb,-99,hard,53,0.8346759000005477,['c'],1,left,['2'],5,0.1715831999999864,,,,,,,,19,19,Vrouw,Rechts,2,
,xotask,xotask,dotcolour,19,4,259,559,main,positivefb,-99,easy,7,1.0856710000007297,['n'],1,right,['2'],5,0.13681799999994837,,,,,,,,19,19,Vrouw,Rechts,2,
,xotask,xotask,dotcolour,20,4,260,560,main,positivefb,-99,average,16,0.9350270000004457,['n'],1,right,['2'],5,0.1335722000003443,,,,,,,,19,19,Vrouw,Rechts,2,
,xotask,xotask,dotcolour,21,4,261,561,main,positivefb,-99,average,15,0.5524738000003708,['n'],1,right,['2'],5,0.10521179999977903,,,,,,,,19,19,Vrouw,Rechts,2,
,xotask,xotask,dotcolour,22,4,262,562,main,positivefb,-99,average,60,0.9851724000000104,['c'],1,left,['2'],5,0.004611600000316685,,,,,,,,19,19,Vrouw,Rechts,2,
,xotask,xotask,dotcolour,23,4,263,563,main,positivefb,-99,easy,9,0.8016091999998025,['n'],1,right,['2'],5,0.13942220000080852,,,,,,,,19,19,Vrouw,Rechts,2,
,xotask,xotask,dotcolour,24,4,264,564,main,positivefb,-99,hard,52,1.2016771000007793,['n'],0,left,['2'],5,0.1499562999997579,,,,,,,,19,19,Vrouw,Rechts,2,
,xotask,xotask,dotcolour,25,4,265,565,main,positivefb,-99,easy,73,0.7012260999999853,['c'],1,left,['2'],5,0.458198899999843,,,,,,,,19,19,Vrouw,Rechts,2,
,xotask,xotask,dotcolour,26,4,266,566,main,positivefb,-99,average,62,1.184460699999363,['c'],1,left,['2'],5,0.1286270999999033,,,,,,,,19,19,Vrouw,Rechts,2,
,xotask,xotask,dotcolour,27,4,267,567,main,positivefb,-99,average,64,0.7354670000004262,['c'],1,left,['3'],4,0.14980849999938073,,,,,,,,19,19,Vrouw,Rechts,2,
,xotask,xotask,dotcolour,28,4,268,568,main,positivefb,-99,average,60,0.7016148000002431,['c'],1,left,['3'],4,0.13905020000038348,,,,,,,,19,19,Vrouw,Rechts,2,
,xotask,xotask,dotcolour,29,4,269,569,main,positivefb,-99,easy,5,0.8860695000003034,['n'],1,right,['2'],5,0.09706139999980223,,,,,,,,19,19,Vrouw,Rechts,2,
,xotask,xotask,dotcolour,30,4,270,570,main,positivefb,-99,average,18,0.4680050000006304,['n'],1,right,['1'],6,0.3628559000007954,,,,,,,,19,19,Vrouw,Rechts,2,
,xotask,xotask,dotcolour,31,4,271,571,main,positivefb,-99,hard,28,0.6178116999999475,['n'],1,right,['1'],6,0.14694969999982277,,,,,,,,19,19,Vrouw,Rechts,2,
,xotask,xotask,dotcolour,32,4,272,572,main,positivefb,-99,easy,74,0.6354641000007177,['c'],1,left,['1'],6,0.18730059999961668,,,,,,,,19,19,Vrouw,Rechts,2,
,xotask,xotask,dotcolour,33,4,273,573,main,positivefb,-99,average,62,0.6684514999997191,['c'],1,left,['1'],6,0.17646890000014537,,,,,,,,19,19,Vrouw,Rechts,2,
,xotask,xotask,dotcolour,34,4,274,574,main,positivefb,-99,hard,53,1.4027069000003394,['c'],1,left,['2'],5,0.13686520000010205,,,,,,,,19,19,Vrouw,Rechts,2,
,xotask,xotask,dotcolour,35,4,275,575,main,positivefb,-99,average,15,0.7186705000003712,['n'],1,right,['2'],5,0.10168389999944338,,,,,,,,19,19,Vrouw,Rechts,2,
,xotask,xotask,dotcolour,36,4,276,576,main,positivefb,-99,hard,52,1.2687439000001177,['c'],1,left,['2'],5,0.2306235000005472,,,,,,,,19,19,Vrouw,Rechts,2,
,xotask,xotask,dotcolour,37,4,277,577,main,positivefb,-99,easy,70,0.8854387000001225,['c'],1,left,['2'],5,0.12177389999942534,,,,,,,,19,19,Vrouw,Rechts,2,
,xotask,xotask,dotcolour,38,4,278,578,main,positivefb,-99,easy,71,0.6026735000004919,['c'],1,left,['2'],5,0.11685859999943204,,,,,,,,19,19,Vrouw,Rechts,2,
,xotask,xotask,dotcolour,39,4,279,579,main,positivefb,-99,hard,27,0.7692485999996279,['n'],1,right,['2'],5,0.10437910000018746,,,,,,,,19,19,Vrouw,Rechts,2,
,xotask,xotask,dotcolour,40,4,280,580,main,positivefb,-99,easy,5,0.8185119999998278,['n'],1,right,['2'],5,0.12328940000043076,,,,,,,,19,19,Vrouw,Rechts,2,
,xotask,xotask,dotcolour,41,4,281,581,main,positivefb,-99,average,16,1.152212199999667,['n'],1,right,['2'],5,0.11010669999996026,,,,,,,,19,19,Vrouw,Rechts,2,
,xotask,xotask,dotcolour,42,4,282,582,main,positivefb,-99,hard,50,0.7689073000001372,['n'],0,left,['2'],5,0.0671914000004108,,,,,,,,19,19,Vrouw,Rechts,2,
,xotask,xotask,dotcolour,43,4,283,583,main,positivefb,-99,hard,52,0.9018688999994993,['c'],1,left,['2'],5,0.1321658999995634,,,,,,,,19,19,Vrouw,Rechts,2,
,xotask,xotask,dotcolour,44,4,284,584,main,positivefb,-99,hard,25,0.7023269999999684,['n'],1,right,['2'],5,0.08174679999956425,,,,,,,,19,19,Vrouw,Rechts,2,
,xotask,xotask,dotcolour,45,4,285,585,main,positivefb,-99,hard,50,0.7006116000002294,['n'],0,left,['2'],5,0.12176620000082039,,,,,,,,19,19,Vrouw,Rechts,2,
,xotask,xotask,dotcolour,46,4,286,586,main,positivefb,-99,easy,70,1.7205776000000697,['c'],1,left,['2'],5,0.03019309999945108,,,,,,,,19,19,Vrouw,Rechts,2,
,xotask,xotask,dotcolour,47,4,287,587,main,positivefb,-99,easy,9,0.7519719000001714,['n'],1,right,['2'],5,0.05504629999995814,,,,,,,,19,19,Vrouw,Rechts,2,
,xotask,xotask,dotcolour,48,4,288,588,main,positivefb,-99,easy,72,0.7348393000002034,['c'],1,left,['2'],5,0.12810850000005303,,,,,,,,19,19,Vrouw,Rechts,2,
,xotask,xotask,dotcolour,49,4,289,589,main,positivefb,-99,easy,9,0.801555100000769,['c'],0,right,['9'],2,1.3699471999998423,,,,,,,,19,19,Vrouw,Rechts,2,
,xotask,xotask,dotcolour,50,4,290,590,main,positivefb,-99,hard,28,0.6515130000007048,['n'],1,right,['2'],5,0.0797534999992422,,,,,,,,19,19,Vrouw,Rechts,2,
,xotask,xotask,dotcolour,51,4,291,591,main,positivefb,-99,average,16,1.0847020999999586,['n'],1,right,['2'],5,0.07283120000010967,,,,,,,,19,19,Vrouw,Rechts,2,
,xotask,xotask,dotcolour,52,4,292,592,main,positivefb,-99,easy,70,0.818653300000733,['c'],1,left,['2'],5,0.11663649999991321,,,,,,,,19,19,Vrouw,Rechts,2,
,xotask,xotask,dotcolour,53,4,293,593,main,positivefb,-99,average,15,0.6012786999999662,['n'],1,right,['2'],5,0.127157800000532,,,,,,,,19,19,Vrouw,Rechts,2,
,xotask,xotask,dotcolour,54,4,294,594,main,positivefb,-99,average,18,0.968843000000561,['n'],1,right,['2'],5,0.13915329999963433,,,,,,,,19,19,Vrouw,Rechts,2,
,xotask,xotask,dotcolour,55,4,295,595,main,positivefb,-99,hard,50,0.7861763999999312,['c'],1,left,['2'],5,0.10186659999999392,,,,,,,,19,19,Vrouw,Rechts,2,
,xotask,xotask,dotcolour,56,4,296,596,main,positivefb,-99,average,64,0.8016274000001431,['c'],1,left,['2'],5,0.13665100000071106,,,,,,,,19,19,Vrouw,Rechts,2,
,xotask,xotask,dotcolour,57,4,297,597,main,positivefb,-99,easy,8,0.751567199999954,['n'],1,right,['2'],5,0.10026770000058605,,,,,,,,19,19,Vrouw,Rechts,2,
,xotask,xotask,dotcolour,58,4,298,598,main,positivefb,-99,hard,28,0.8858508999992409,['n'],1,right,['8'],3,0.9959139000002324,,,,,,,,19,19,Vrouw,Rechts,2,
,xotask,xotask,dotcolour,59,4,299,599,main,positivefb,-99,average,64,0.9687043000003541,['c'],1,left,['2'],5,0.10833030000048893,,,,,,,,19,19,Vrouw,Rechts,2,
,xotask,xotask,dotcolour,0,0,0,600,training,positivefb,93,easy,74,1.1855690000002141,['c'],1,left,['2'],5,0.7335468999999648,,,,,,,,19,19,Vrouw,Rechts,2,
,xotask,xotask,dotcolour,1,0,1,601,training,positivefb,98,average,60,0.7846583999998984,['c'],1,left,['2'],5,0.13376590000007127,,,,,,,,19,19,Vrouw,Rechts,2,
,xotask,xotask,dotcolour,2,0,2,602,training,positivefb,98,easy,8,0.4847592000005534,['n'],1,right,['2'],5,0.09911420000025828,,,,,,,,19,19,Vrouw,Rechts,2,
,xotask,xotask,dotcolour,3,0,3,603,training,positivefb,91,hard,51,0.6846924999999828,['c'],1,left,['2'],5,0.08911350000016682,,,,,,,,19,19,Vrouw,Rechts,2,
,xotask,xotask,dotcolour,4,0,4,604,training,positivefb,96,easy,5,0.5681207999996332,['n'],1,right,['2'],5,0.01284490000034566,,,,,,,,19,19,Vrouw,Rechts,2,
,xotask,xotask,dotcolour,5,0,5,605,training,positivefb,86,average,15,0.9523653999995076,['n'],1,right,['2'],5,0.020660499999394233,,,,,,,,19,19,Vrouw,Rechts,2,
,xotask,xotask,dotcolour,6,0,6,606,training,positivefb,96,hard,27,0.5346134000001257,['n'],1,right,['2'],5,0.08480930000041553,,,,,,,,19,19,Vrouw,Rechts,2,
,xotask,xotask,dotcolour,7,0,7,607,training,positivefb,89,hard,27,0.568402299999434,['n'],1,right,['2'],5,0.08037700000022596,,,,,,,,19,19,Vrouw,Rechts,2,
,xotask,xotask,dotcolour,8,0,8,608,training,positivefb,95,hard,27,0.5676550999996834,['n'],1,right,['2'],5,0.06871229999978823,,,,,,,,19,19,Vrouw,Rechts,2,
,xotask,xotask,dotcolour,9,0,9,609,training,positivefb,97,hard,26,0.5177228000002287,['n'],1,right,['2'],5,0.07461160000002565,,,,,,,,19,19,Vrouw,Rechts,2,
,xotask,xotask,dotcolour,10,0,10,610,training,positivefb,98,average,16,0.40140940000037517,['n'],1,right,['2'],5,0.06255809999947815,,,,,,,,19,19,Vrouw,Rechts,2,
,xotask,xotask,dotcolour,11,0,11,611,training,positivefb,95,hard,54,0.40092920000006416,['n'],0,left,['2'],5,0.050666500000261294,,,,,,,,19,19,Vrouw,Rechts,2,
,xotask,xotask,dotcolour,12,0,12,612,training,positivefb,98,average,16,0.8510733000002801,['n'],1,right,['2'],5,0.13230790000034176,,,,,,,,19,19,Vrouw,Rechts,2,
,xotask,xotask,dotcolour,13,0,13,613,training,positivefb,96,easy,71,0.7342467999997098,['c'],1,left,['2'],5,0.10317750000012893,,,,,,,,19,19,Vrouw,Rechts,2,
,xotask,xotask,dotcolour,14,0,14,614,training,positivefb,98,easy,8,0.5835613999997804,['n'],1,right,['2'],5,0.06513429999995424,,,,,,,,19,19,Vrouw,Rechts,2,
,xotask,xotask,dotcolour,15,0,15,615,training,positivefb,99,easy,72,0.501310800000283,['c'],1,left,['2'],5,0.20883859999958077,,,,,,,,19,19,Vrouw,Rechts,2,
,xotask,xotask,dotcolour,16,0,16,616,training,positivefb,97,hard,51,0.7018256000001202,['n'],0,left,['2'],5,0.09819119999974646,,,,,,,,19,19,Vrouw,Rechts,2,
,xotask,xotask,dotcolour,17,0,17,617,training,positivefb,95,easy,7,0.6347040999999081,['n'],1,right,['2'],5,0.07500619999973424,,,,,,,,19,19,Vrouw,Rechts,2,
,xotask,xotask,dotcolour,18,0,18,618,training,positivefb,87,average,19,0.6826836999998704,['n'],1,right,['2'],5,0.13887390000036248,,,,,,,,19,19,Vrouw,Rechts,2,
,xotask,xotask,dotcolour,19,0,19,619,training,positivefb,92,average,19,0.7181868999996368,['n'],1,right,['2'],5,0.054268599999886646,,,,,,,,19,19,Vrouw,Rechts,2,
,xotask,xotask,dotcolour,20,0,20,620,training,positivefb,87,hard,54,0.9020204999997077,['c'],1,left,['2'],5,0.1893380999999863,,,,,,,,19,19,Vrouw,Rechts,2,
,xotask,xotask,dotcolour,21,0,21,621,training,positivefb,95,hard,51,1.0009860000000117,['c'],1,left,['2'],5,0.11488119999921764,,,,,,,,19,19,Vrouw,Rechts,2,
,xotask,xotask,dotcolour,22,0,22,622,training,positivefb,94,hard,27,0.9182550999994419,['n'],1,right,['2'],5,0.08804280000003928,,,,,,,,19,19,Vrouw,Rechts,2,
,xotask,xotask,dotcolour,23,0,23,623,training,positivefb,91,average,63,0.6667128999997658,['c'],1,left,['2'],5,0.10376559999986057,,,,,,,,19,19,Vrouw,Rechts,2,
,xotask,xotask,dotcolour,24,0,24,624,training,positivefb,89,easy,72,0.8343082999999751,['c'],1,left,['2'],5,0.17502180000064982,,,,,,,,19,19,Vrouw,Rechts,2,
,xotask,xotask,dotcolour,25,0,25,625,training,positivefb,89,hard,51,0.920185500000116,['c'],1,left,['2'],5,0.12133369999992283,,,,,,,,19,19,Vrouw,Rechts,2,
,xotask,xotask,dotcolour,26,0,26,626,training,positivefb,98,average,15,0.6840608000002248,['n'],1,right,['2'],5,0.10345580000011978,,,,,,,,19,19,Vrouw,Rechts,2,
,xotask,xotask,dotcolour,27,0,27,627,training,positivefb,91,average,18,1.053000300000349,['n'],1,right,['2'],5,0.031039700000292214,,,,,,,,19,19,Vrouw,Rechts,2,
,xotask,xotask,dotcolour,28,0,28,628,training,positivefb,93,easy,5,0.7513658999996551,['n'],1,right,['2'],5,0.05325970000012603,,,,,,,,19,19,Vrouw,Rechts,2,
,xotask,xotask,dotcolour,29,0,29,629,training,positivefb,85,average,63,0.9013295000004291,['n'],0,left,['2'],5,0.08554619999995339,,,,,,,,19,19,Vrouw,Rechts,2,
,xotask,xotask,dotcolour,30,0,30,630,training,positivefb,98,easy,70,0.8183890000000247,['c'],1,left,['2'],5,0.14267579999977897,,,,,,,,19,19,Vrouw,Rechts,2,
,xotask,xotask,dotcolour,31,0,31,631,training,positivefb,98,easy,8,0.6684591999992335,['n'],1,right,['2'],5,0.13215579999996407,,,,,,,,19,19,Vrouw,Rechts,2,
,xotask,xotask,dotcolour,32,0,32,632,training,positivefb,86,easy,5,1.4345573999999033,['n'],1,right,['2'],5,0.1151958000000377,,,,,,,,19,19,Vrouw,Rechts,2,
