starttime,task,fbtask,firsttask,withinblocktrial,block,withintasktrial,trial,running,feedback,fbscore,difflevel,reddots,rt,resp,cor,cresp,conf_press,cj,RTconf,n_xes,stoptime,sub,age,gender,handedness,session,
1715070662,dotcolour,dotcolour,xotask,0,0,0,0,training,positivefb,0,easy,65,9.066849199999524,['n'],0,left,['8'],4,13.645226999999977,,,28,18,Vrouw,Rechts,1,
,dotcolour,dotcolour,xotask,1,0,1,1,training,positivefb,97,average,52,8.350710699999581,['c'],1,left,['9'],5,3.513967799999591,,,28,18,Vrouw,Rechts,1,
,dotcolour,dotcolour,xotask,2,0,2,2,training,positivefb,86,hard,43,3.051007099999879,['c'],1,left,['2'],2,3.3613883999996688,,,28,18,Vrouw,Rechts,1,
,dotcolour,dotcolour,xotask,3,0,3,3,training,positivefb,5,easy,65,6.533501799999613,['n'],0,left,['2'],2,3.029344200000196,,,28,18,Vrouw,Rechts,1,
,dotcolour,dotcolour,xotask,4,0,4,4,training,positivefb,95,average,52,2.3161291000005804,['c'],1,left,['0'],6,1.6875892999996722,,,28,18,Vrouw,Rechts,1,
,dotcolour,dotcolour,xotask,5,0,5,5,training,positivefb,97,easy,63,3.300395999999637,['c'],1,left,['0'],6,2.0316021999997247,,,28,18,Vrouw,Rechts,1,
,dotcolour,dotcolour,xotask,6,0,6,6,training,positivefb,16,hard,43,2.967129300000124,['n'],0,left,['8'],4,3.4151362000002337,,,28,18,Vrouw,Rechts,1,
,dotcolour,dotcolour,xotask,7,0,7,7,training,positivefb,91,easy,16,7.851462700000411,['n'],1,right,['3'],3,2.3634576000004017,,,28,18,Vrouw,Rechts,1,
,dotcolour,dotcolour,xotask,8,0,8,8,training,positivefb,36,hard,38,3.866726000000199,['c'],0,right,['9'],5,5.545602800000779,,,28,18,Vrouw,Rechts,1,
,dotcolour,dotcolour,xotask,9,0,9,9,training,positivefb,25,average,55,6.533085299999584,['n'],0,left,['9'],5,3.022143799999867,,,28,18,Vrouw,Rechts,1,
,dotcolour,dotcolour,xotask,10,0,10,10,training,positivefb,39,average,51,2.150760900000023,['n'],0,left,['9'],5,1.5586192999999184,,,28,18,Vrouw,Rechts,1,
,dotcolour,dotcolour,xotask,11,0,11,11,training,positivefb,98,easy,65,1.9840694000004078,['c'],1,left,['0'],6,1.8244181999998546,,,28,18,Vrouw,Rechts,1,
,dotcolour,dotcolour,xotask,12,0,12,12,training,positivefb,72,average,26,1.8000529000000824,['c'],0,right,['9'],5,1.318952999999965,,,28,18,Vrouw,Rechts,1,
,dotcolour,dotcolour,xotask,13,0,13,13,training,positivefb,62,hard,36,1.5839608999995107,['c'],0,right,['0'],6,1.443435999999565,,,28,18,Vrouw,Rechts,1,
,dotcolour,dotcolour,xotask,14,0,14,14,training,positivefb,94,average,29,2.5179877999999007,['n'],1,right,['8'],4,2.2851950000003853,,,28,18,Vrouw,Rechts,1,
,dotcolour,dotcolour,xotask,15,0,15,15,training,positivefb,94,easy,61,1.8174889000001713,['c'],1,left,['0'],6,0.696038199999748,,,28,18,Vrouw,Rechts,1,
,dotcolour,dotcolour,xotask,16,0,16,16,training,positivefb,86,hard,42,2.0008544000002075,['c'],1,left,['9'],5,0.35670329999993555,,,28,18,Vrouw,Rechts,1,
,dotcolour,dotcolour,xotask,17,0,17,17,training,positivefb,85,hard,43,1.4333287999997992,['c'],1,left,['0'],6,1.1098197999999684,,,28,18,Vrouw,Rechts,1,
,dotcolour,dotcolour,xotask,18,0,18,18,training,positivefb,95,easy,62,1.700724999999693,['c'],1,left,['9'],5,0.8056597999993755,,,28,18,Vrouw,Rechts,1,
,dotcolour,dotcolour,xotask,19,0,19,19,training,positivefb,95,average,28,3.1169126000004326,['n'],1,right,['2'],2,1.9610149999998612,,,28,18,Vrouw,Rechts,1,
,dotcolour,dotcolour,xotask,20,0,20,20,training,positivefb,91,easy,15,1.8505967000000965,['n'],1,right,['0'],6,0.872212799999943,,,28,18,Vrouw,Rechts,1,
,dotcolour,dotcolour,xotask,21,0,21,21,training,positivefb,81,average,53,1.1999598000002152,['c'],1,left,['0'],6,0.5424978999999439,,,28,18,Vrouw,Rechts,1,
,dotcolour,dotcolour,xotask,22,0,22,22,training,positivefb,5,hard,35,3.3179191999997784,['c'],0,right,['3'],3,1.6681307999997443,,,28,18,Vrouw,Rechts,1,
,dotcolour,dotcolour,xotask,23,0,23,23,training,positivefb,100,easy,61,1.2506487000000561,['c'],1,left,['0'],6,1.342557900000429,,,28,18,Vrouw,Rechts,1,
,dotcolour,dotcolour,xotask,24,0,24,24,training,positivefb,63,average,29,1.1165091000002576,['c'],0,right,['0'],6,0.4529004999994868,,,28,18,Vrouw,Rechts,1,
,dotcolour,dotcolour,xotask,25,0,25,25,training,positivefb,80,easy,18,2.016731300000174,['n'],1,right,['0'],6,0.314265200000591,,,28,18,Vrouw,Rechts,1,
,dotcolour,dotcolour,xotask,26,0,26,26,training,positivefb,84,hard,37,1.5004987000002075,['c'],0,right,['0'],6,0.37778830000024755,,,28,18,Vrouw,Rechts,1,
,dotcolour,dotcolour,xotask,27,0,27,27,training,positivefb,39,hard,44,1.7672222000001057,['n'],0,left,['9'],5,3.8439478000000236,,,28,18,Vrouw,Rechts,1,
,dotcolour,dotcolour,xotask,28,0,28,28,training,positivefb,52,average,53,1.0168913000006796,['c'],1,left,['0'],6,0.4171622000003481,,,28,18,Vrouw,Rechts,1,
,dotcolour,dotcolour,xotask,29,0,29,29,training,positivefb,49,hard,37,1.8167652000001908,['n'],1,right,['8'],4,1.127409699999589,,,28,18,Vrouw,Rechts,1,
,dotcolour,dotcolour,xotask,30,0,30,30,training,positivefb,71,hard,43,1.266549899999518,['n'],0,left,['9'],5,1.4808104000003368,,,28,18,Vrouw,Rechts,1,
,dotcolour,dotcolour,xotask,31,0,31,31,training,positivefb,57,hard,45,2.984135000000606,['c'],1,left,['2'],2,1.758193000000574,,,28,18,Vrouw,Rechts,1,
,dotcolour,dotcolour,xotask,32,0,32,32,training,positivefb,99,easy,15,1.3511915999997655,['n'],1,right,['0'],6,1.993282200000067,,,28,18,Vrouw,Rechts,1,
,dotcolour,dotcolour,xotask,33,0,33,33,training,positivefb,89,average,27,1.4673265999999785,['n'],1,right,['0'],6,0.47070239999993646,,,28,18,Vrouw,Rechts,1,
,dotcolour,dotcolour,xotask,34,0,34,34,training,positivefb,97,average,54,1.1994652000003043,['c'],1,left,['0'],6,0.6518985000002431,,,28,18,Vrouw,Rechts,1,
,dotcolour,dotcolour,xotask,35,0,35,35,training,positivefb,84,easy,15,1.8332878000001074,['n'],1,right,['0'],6,0.3525990999996793,,,28,18,Vrouw,Rechts,1,
,dotcolour,dotcolour,xotask,36,0,36,36,training,positivefb,76,average,55,1.2989386999997805,['c'],1,left,['1'],1,0.4943069999999352,,,28,18,Vrouw,Rechts,1,
,dotcolour,dotcolour,xotask,37,0,37,37,training,positivefb,95,easy,65,1.3337946999999986,['c'],1,left,['0'],6,0.46231100000022707,,,28,18,Vrouw,Rechts,1,
,dotcolour,dotcolour,xotask,38,0,38,38,training,positivefb,95,easy,19,1.733294599999681,['n'],1,right,['0'],6,0.35845080000035523,,,28,18,Vrouw,Rechts,1,
,dotcolour,dotcolour,xotask,39,0,39,39,training,positivefb,99,easy,18,1.2337039999993067,['n'],1,right,['0'],6,0.3273068999997122,,,28,18,Vrouw,Rechts,1,
,dotcolour,dotcolour,xotask,40,0,40,40,training,positivefb,95,hard,45,2.2165721000001213,['c'],1,left,['0'],6,1.538785600000665,,,28,18,Vrouw,Rechts,1,
,dotcolour,dotcolour,xotask,41,0,41,41,training,positivefb,89,hard,39,2.332867900000565,['n'],1,right,['8'],4,0.7275624000003518,,,28,18,Vrouw,Rechts,1,
,dotcolour,dotcolour,xotask,42,0,42,42,training,positivefb,92,average,26,1.7165643999996973,['n'],1,right,['8'],4,0.38138700000035897,,,28,18,Vrouw,Rechts,1,
,dotcolour,dotcolour,xotask,43,0,43,43,training,positivefb,91,easy,65,1.2993492000005062,['c'],1,left,['0'],6,0.20233290000032866,,,28,18,Vrouw,Rechts,1,
,dotcolour,dotcolour,xotask,44,0,44,44,training,positivefb,95,average,29,1.066904500000419,['n'],1,right,['0'],6,0.27982479999991483,,,28,18,Vrouw,Rechts,1,
,dotcolour,dotcolour,xotask,45,0,45,45,training,positivefb,76,hard,38,2.00081339999997,['n'],1,right,['8'],4,0.42913380000027246,,,28,18,Vrouw,Rechts,1,
,dotcolour,dotcolour,xotask,46,0,46,46,training,positivefb,96,hard,42,1.6828734999999142,['c'],1,left,['9'],5,1.5289013999999952,,,28,18,Vrouw,Rechts,1,
,dotcolour,dotcolour,xotask,47,0,47,47,training,positivefb,84,average,29,1.4667921000000206,['c'],0,right,['0'],6,0.45756100000016886,,,28,18,Vrouw,Rechts,1,
,dotcolour,dotcolour,xotask,48,0,48,48,training,positivefb,91,easy,18,1.816700800000035,['n'],1,right,['0'],6,0.28687619999982417,,,28,18,Vrouw,Rechts,1,
,dotcolour,dotcolour,xotask,49,0,49,49,training,positivefb,84,hard,44,2.0664050000004863,['c'],1,left,['0'],6,0.3281094000003577,,,28,18,Vrouw,Rechts,1,
,dotcolour,dotcolour,xotask,50,0,50,50,training,positivefb,87,hard,35,2.9839216999998825,['n'],1,right,['8'],4,0.6842839999999342,,,28,18,Vrouw,Rechts,1,
,dotcolour,dotcolour,xotask,51,0,51,51,training,positivefb,89,easy,64,1.4005004999999073,['c'],1,left,['0'],6,0.24962969999978668,,,28,18,Vrouw,Rechts,1,
,dotcolour,dotcolour,xotask,52,0,52,52,training,positivefb,83,easy,16,2.1331269000002067,['n'],1,right,['0'],6,0.48174380000000383,,,28,18,Vrouw,Rechts,1,
,dotcolour,dotcolour,xotask,53,0,53,53,training,positivefb,92,easy,17,1.0489016999999876,['n'],1,right,['0'],6,0.5169074000004912,,,28,18,Vrouw,Rechts,1,
,dotcolour,dotcolour,xotask,54,0,54,54,training,positivefb,83,average,29,1.2837963000001764,['n'],1,right,['0'],6,0.3891469000000143,,,28,18,Vrouw,Rechts,1,
,dotcolour,dotcolour,xotask,55,0,55,55,training,positivefb,84,average,55,0.917171000000053,['c'],1,left,['0'],6,0.4163978999995379,,,28,18,Vrouw,Rechts,1,
,dotcolour,dotcolour,xotask,56,0,56,56,training,positivefb,94,hard,39,2.1162874000001466,['n'],1,right,['8'],4,0.5072527000002083,,,28,18,Vrouw,Rechts,1,
,dotcolour,dotcolour,xotask,57,0,57,57,training,positivefb,75,average,55,1.1679848000003403,['c'],1,left,['0'],6,0.2969536999999036,,,28,18,Vrouw,Rechts,1,
,dotcolour,dotcolour,xotask,58,0,58,58,training,positivefb,88,hard,38,2.3001205999999,['n'],1,right,['9'],5,0.9217312000000675,,,28,18,Vrouw,Rechts,1,
,dotcolour,dotcolour,xotask,59,0,59,59,training,positivefb,90,average,27,1.584589799999776,['n'],1,right,['9'],5,0.45349549999991723,,,28,18,Vrouw,Rechts,1,
,dotcolour,dotcolour,xotask,0,1,60,60,training,positivefb,87,easy,15,5.617980499999248,['n'],1,right,['2'],2,1.8111367000001337,,,28,18,Vrouw,Rechts,1,
,dotcolour,dotcolour,xotask,1,1,61,61,training,positivefb,88,hard,42,1.5327022999999826,['c'],1,left,['9'],5,1.3569328000003225,,,28,18,Vrouw,Rechts,1,
,dotcolour,dotcolour,xotask,2,1,62,62,training,positivefb,99,easy,64,1.2656950000000506,['c'],1,left,['9'],5,1.3566609999998036,,,28,18,Vrouw,Rechts,1,
,dotcolour,dotcolour,xotask,3,1,63,63,training,positivefb,97,average,54,1.383079700000053,['c'],1,left,['9'],5,0.3197552000001451,,,28,18,Vrouw,Rechts,1,
,dotcolour,dotcolour,xotask,4,1,64,64,training,positivefb,94,average,52,1.5667616000000635,['c'],1,left,['0'],6,0.3168796999998449,,,28,18,Vrouw,Rechts,1,
,dotcolour,dotcolour,xotask,5,1,65,65,training,positivefb,43,average,28,1.2665251999997054,['n'],1,right,['0'],6,0.4931952999995701,,,28,18,Vrouw,Rechts,1,
,dotcolour,dotcolour,xotask,6,1,66,66,training,positivefb,95,average,29,1.1001446999998734,['n'],1,right,['0'],6,0.35740420000001905,,,28,18,Vrouw,Rechts,1,
,dotcolour,dotcolour,xotask,7,1,67,67,training,positivefb,58,average,26,2.283300600000075,['c'],0,right,['3'],3,1.676390900000115,,,28,18,Vrouw,Rechts,1,
,dotcolour,dotcolour,xotask,8,1,68,68,training,positivefb,89,hard,42,1.6172788999992918,['n'],0,left,['8'],4,0.6483702999994421,,,28,18,Vrouw,Rechts,1,
,dotcolour,dotcolour,xotask,9,1,69,69,training,positivefb,67,hard,39,1.5002111000003424,['n'],1,right,['9'],5,0.738329399999202,,,28,18,Vrouw,Rechts,1,
,dotcolour,dotcolour,xotask,10,1,70,70,training,positivefb,99,hard,44,1.4161215000003722,['c'],1,left,['3'],3,3.1966139999994994,,,28,18,Vrouw,Rechts,1,
,dotcolour,dotcolour,xotask,11,1,71,71,training,positivefb,97,easy,19,1.2842688999999154,['n'],1,right,['0'],6,0.6331466999999975,,,28,18,Vrouw,Rechts,1,
,dotcolour,dotcolour,xotask,12,1,72,72,training,positivefb,99,easy,61,1.2843960000000152,['c'],1,left,['0'],6,2.300337500000751,,,28,18,Vrouw,Rechts,1,
,dotcolour,dotcolour,xotask,13,1,73,73,training,positivefb,24,easy,18,1.1999474999993254,['c'],0,right,['9'],5,1.776003099999798,,,28,18,Vrouw,Rechts,1,
,dotcolour,dotcolour,xotask,14,1,74,74,training,positivefb,48,easy,64,0.9341174000001047,['c'],1,left,['0'],6,1.5234261000005063,,,28,18,Vrouw,Rechts,1,
,dotcolour,dotcolour,xotask,15,1,75,75,training,positivefb,88,hard,39,1.516654600000038,['c'],0,right,['8'],4,0.7533860000003187,,,28,18,Vrouw,Rechts,1,
,dotcolour,dotcolour,xotask,16,1,76,76,training,positivefb,91,average,55,1.0671621999999843,['c'],1,left,['8'],4,0.98483909999959,,,28,18,Vrouw,Rechts,1,
,dotcolour,dotcolour,xotask,17,1,77,77,training,positivefb,83,hard,38,1.300072099999852,['c'],0,right,['8'],4,0.45398459999978513,,,28,18,Vrouw,Rechts,1,
,dotcolour,dotcolour,xotask,18,1,78,78,training,positivefb,75,easy,19,2.183200499999657,['n'],1,right,['0'],6,0.7157962000001135,,,28,18,Vrouw,Rechts,1,
,dotcolour,dotcolour,xotask,19,1,79,79,training,positivefb,61,average,53,2.017314499999884,['n'],0,left,['8'],4,1.1113636000000042,,,28,18,Vrouw,Rechts,1,
,dotcolour,dotcolour,xotask,20,1,80,80,training,positivefb,100,easy,19,1.334225200000219,['n'],1,right,['9'],5,0.6854153000003862,,,28,18,Vrouw,Rechts,1,
,dotcolour,dotcolour,xotask,21,1,81,81,training,positivefb,85,hard,36,2.250329800000145,['n'],1,right,['9'],5,0.8886186999998245,,,28,18,Vrouw,Rechts,1,
,dotcolour,dotcolour,xotask,22,1,82,82,training,positivefb,62,hard,42,1.699475800000073,['n'],0,left,['8'],4,0.7929370000001654,,,28,18,Vrouw,Rechts,1,
,dotcolour,dotcolour,xotask,23,1,83,83,training,positivefb,85,hard,41,1.3350854999998774,['n'],0,left,['8'],4,0.7718957000006412,,,28,18,Vrouw,Rechts,1,
,dotcolour,dotcolour,xotask,24,1,84,84,training,positivefb,94,hard,45,1.532799999999952,['c'],1,left,['8'],4,0.5371082000001479,,,28,18,Vrouw,Rechts,1,
,dotcolour,dotcolour,xotask,25,1,85,85,training,positivefb,94,average,28,1.4333351000004768,['n'],1,right,['8'],4,0.4974096999994799,,,28,18,Vrouw,Rechts,1,
,dotcolour,dotcolour,xotask,26,1,86,86,training,positivefb,96,easy,64,1.316374399999404,['c'],1,left,['0'],6,1.569515500000307,,,28,18,Vrouw,Rechts,1,
,dotcolour,dotcolour,xotask,27,1,87,87,training,positivefb,89,easy,17,1.4508227000005718,['n'],1,right,['0'],6,0.41592639999998937,,,28,18,Vrouw,Rechts,1,
,dotcolour,dotcolour,xotask,28,1,88,88,training,positivefb,98,easy,64,1.6501171999998405,['c'],1,left,['0'],6,0.6059631999996782,,,28,18,Vrouw,Rechts,1,
,dotcolour,dotcolour,xotask,29,1,89,89,training,positivefb,67,hard,35,2.166849100000036,['n'],1,right,['8'],4,0.3266730999994252,,,28,18,Vrouw,Rechts,1,
,dotcolour,dotcolour,xotask,30,1,90,90,training,positivefb,97,average,55,0.9004104999994524,['c'],1,left,['0'],6,0.4543055000003733,,,28,18,Vrouw,Rechts,1,
,dotcolour,dotcolour,xotask,31,1,91,91,training,positivefb,89,average,29,1.5338025999999445,['n'],1,right,['8'],4,0.41434079999999085,,,28,18,Vrouw,Rechts,1,
,dotcolour,dotcolour,xotask,32,1,92,92,training,positivefb,86,easy,16,1.9163958999997703,['n'],1,right,['0'],6,0.361804299999676,,,28,18,Vrouw,Rechts,1,
,dotcolour,dotcolour,xotask,33,1,93,93,training,positivefb,98,easy,61,1.1996339999996053,['c'],1,left,['0'],6,0.40348899999935384,,,28,18,Vrouw,Rechts,1,
,dotcolour,dotcolour,xotask,34,1,94,94,training,positivefb,86,average,53,0.966273000000001,['c'],1,left,['0'],6,0.35670219999974506,,,28,18,Vrouw,Rechts,1,
,dotcolour,dotcolour,xotask,35,1,95,95,training,positivefb,77,hard,44,2.1988326000000598,['n'],0,left,['8'],4,0.39099850000002334,,,28,18,Vrouw,Rechts,1,
,dotcolour,dotcolour,xotask,36,1,96,96,training,positivefb,69,hard,42,2.800276599999961,['c'],1,left,['8'],4,0.36796099999992293,,,28,18,Vrouw,Rechts,1,
,dotcolour,dotcolour,xotask,37,1,97,97,training,positivefb,92,easy,15,1.9346071999998458,['n'],1,right,['0'],6,0.44441310000001977,,,28,18,Vrouw,Rechts,1,
,dotcolour,dotcolour,xotask,38,1,98,98,training,positivefb,98,average,26,1.8339011999996728,['n'],1,right,['0'],6,0.7366357999999309,,,28,18,Vrouw,Rechts,1,
,dotcolour,dotcolour,xotask,39,1,99,99,training,positivefb,37,easy,15,2.4001732000006086,['c'],0,right,['8'],4,0.5722750000004453,,,28,18,Vrouw,Rechts,1,
,dotcolour,dotcolour,xotask,40,1,100,100,training,positivefb,79,hard,37,1.550682200000665,['c'],0,right,['8'],4,0.7107881000001726,,,28,18,Vrouw,Rechts,1,
,dotcolour,dotcolour,xotask,41,1,101,101,training,positivefb,95,easy,61,1.1676992000002429,['c'],1,left,['0'],6,0.6609500000004118,,,28,18,Vrouw,Rechts,1,
,dotcolour,dotcolour,xotask,42,1,102,102,training,positivefb,75,hard,35,1.7007241000001159,['n'],1,right,['8'],4,0.6061651999998503,,,28,18,Vrouw,Rechts,1,
,dotcolour,dotcolour,xotask,43,1,103,103,training,positivefb,94,average,52,2.0172921000003043,['c'],1,left,['0'],6,0.8704275000000052,,,28,18,Vrouw,Rechts,1,
,dotcolour,dotcolour,xotask,44,1,104,104,training,positivefb,84,hard,39,2.550477100000535,['n'],1,right,['0'],6,0.3012816999998904,,,28,18,Vrouw,Rechts,1,
,dotcolour,dotcolour,xotask,45,1,105,105,training,positivefb,88,average,26,1.4167517000005319,['n'],1,right,['0'],6,0.42405300000064017,,,28,18,Vrouw,Rechts,1,
,dotcolour,dotcolour,xotask,46,1,106,106,training,positivefb,94,average,54,1.0828323000005184,['c'],1,left,['0'],6,0.5162153000001126,,,28,18,Vrouw,Rechts,1,
,dotcolour,dotcolour,xotask,47,1,107,107,training,positivefb,97,average,28,1.7833456999996997,['n'],1,right,['8'],4,1.096472399999584,,,28,18,Vrouw,Rechts,1,
,dotcolour,dotcolour,xotask,48,1,108,108,training,positivefb,87,easy,65,1.183706799999527,['c'],1,left,['0'],6,0.4464007999995374,,,28,18,Vrouw,Rechts,1,
,dotcolour,dotcolour,xotask,49,1,109,109,training,positivefb,94,hard,36,2.4828353000002608,['n'],1,right,['8'],4,0.5536552000003212,,,28,18,Vrouw,Rechts,1,
,dotcolour,dotcolour,xotask,50,1,110,110,training,positivefb,87,average,53,2.1502151999993657,['c'],1,left,['8'],4,0.3661943999995856,,,28,18,Vrouw,Rechts,1,
,dotcolour,dotcolour,xotask,51,1,111,111,training,positivefb,43,average,55,1.666425700000218,['c'],1,left,['9'],5,0.3803996999995434,,,28,18,Vrouw,Rechts,1,
,dotcolour,dotcolour,xotask,52,1,112,112,training,positivefb,92,easy,63,3.5832705000002534,['c'],1,left,['0'],6,0.5030356999996002,,,28,18,Vrouw,Rechts,1,
,dotcolour,dotcolour,xotask,53,1,113,113,training,positivefb,72,hard,35,6.184065200000077,['n'],1,right,['8'],4,0.3868207000004986,,,28,18,Vrouw,Rechts,1,
,dotcolour,dotcolour,xotask,54,1,114,114,training,positivefb,91,easy,15,2.4506325000002107,['n'],1,right,['0'],6,0.5460567999998602,,,28,18,Vrouw,Rechts,1,
,dotcolour,dotcolour,xotask,55,1,115,115,training,positivefb,50,hard,43,2.1500087000003987,['n'],0,left,['8'],4,0.5825564000006125,,,28,18,Vrouw,Rechts,1,
,dotcolour,dotcolour,xotask,56,1,116,116,training,positivefb,99,easy,63,1.8329865000005157,['c'],1,left,['0'],6,1.7505473999999595,,,28,18,Vrouw,Rechts,1,
,dotcolour,dotcolour,xotask,57,1,117,117,training,positivefb,15,hard,45,3.050601199999619,['n'],0,left,['3'],3,3.2618436000002475,,,28,18,Vrouw,Rechts,1,
,dotcolour,dotcolour,xotask,58,1,118,118,training,positivefb,87,average,25,1.666730899999493,['n'],1,right,['0'],6,0.3682036000000153,,,28,18,Vrouw,Rechts,1,
,dotcolour,dotcolour,xotask,59,1,119,119,training,positivefb,95,average,28,1.6176206000000093,['n'],1,right,['9'],5,0.5522793999998612,,,28,18,Vrouw,Rechts,1,
,xotask,dotcolour,xotask,0,2,120,120,main,positivefb,-99,easy,,4.751039700000547,['c'],0,right,['3'],3,1.3582703000001857,8,,28,18,Vrouw,Rechts,1,
,xotask,dotcolour,xotask,1,2,121,121,main,positivefb,-99,average,,2.9002700000000914,['n'],1,right,['0'],6,0.3494495000004463,19,,28,18,Vrouw,Rechts,1,
,xotask,dotcolour,xotask,2,2,122,122,main,positivefb,-99,average,,2.634009700000206,['c'],1,left,['3'],3,0.34299689999988914,60,,28,18,Vrouw,Rechts,1,
,xotask,dotcolour,xotask,3,2,123,123,main,positivefb,-99,average,,2.3674466999991637,['n'],0,left,['3'],3,0.7868296000006012,61,,28,18,Vrouw,Rechts,1,
,xotask,dotcolour,xotask,4,2,124,124,main,positivefb,-99,easy,,3.1674588000005315,['c'],1,left,['9'],5,1.0302170999993905,70,,28,18,Vrouw,Rechts,1,
,xotask,dotcolour,xotask,5,2,125,125,main,positivefb,-99,average,,1.800549200000205,['n'],1,right,['9'],5,0.8300959999996849,16,,28,18,Vrouw,Rechts,1,
,xotask,dotcolour,xotask,6,2,126,126,main,positivefb,-99,average,,3.1341966999998476,['n'],1,right,['9'],5,0.38533989999996265,18,,28,18,Vrouw,Rechts,1,
,xotask,dotcolour,xotask,7,2,127,127,main,positivefb,-99,average,,2.0510377000000517,['c'],0,right,['3'],3,0.4086431999994602,15,,28,18,Vrouw,Rechts,1,
,xotask,dotcolour,xotask,8,2,128,128,main,positivefb,-99,easy,,2.6013895000005505,['n'],1,right,['8'],4,0.41680259999975533,5,,28,18,Vrouw,Rechts,1,
,xotask,dotcolour,xotask,9,2,129,129,main,positivefb,-99,hard,,4.951368000000002,['c'],0,right,['8'],4,0.8752582999995866,27,,28,18,Vrouw,Rechts,1,
,xotask,dotcolour,xotask,10,2,130,130,main,positivefb,-99,hard,,2.650928799999747,['n'],0,left,['8'],4,0.6064445000001797,53,,28,18,Vrouw,Rechts,1,
,xotask,dotcolour,xotask,11,2,131,131,main,positivefb,-99,average,,2.1005182999997487,['c'],1,left,['2'],2,2.2125177999996595,62,,28,18,Vrouw,Rechts,1,
,xotask,dotcolour,xotask,12,2,132,132,main,positivefb,-99,easy,,5.4679290000003675,['c'],0,right,['1'],1,0.7935946000006879,7,,28,18,Vrouw,Rechts,1,
,xotask,dotcolour,xotask,13,2,133,133,main,positivefb,-99,average,,2.0669666000003417,['c'],1,left,['1'],1,0.46391850000054546,60,,28,18,Vrouw,Rechts,1,
,xotask,dotcolour,xotask,14,2,134,134,main,positivefb,-99,easy,,1.9827505999992354,['n'],0,left,['8'],4,0.5269521999998688,70,,28,18,Vrouw,Rechts,1,
,xotask,dotcolour,xotask,15,2,135,135,main,positivefb,-99,easy,,2.0180208000001585,['n'],1,right,['8'],4,0.37035829999967973,7,,28,18,Vrouw,Rechts,1,
,xotask,dotcolour,xotask,16,2,136,136,main,positivefb,-99,easy,,3.183910400000059,['n'],1,right,['9'],5,0.4534026000001177,6,,28,18,Vrouw,Rechts,1,
,xotask,dotcolour,xotask,17,2,137,137,main,positivefb,-99,hard,,2.7002973999997266,['c'],0,right,['2'],2,0.8239767999994001,25,,28,18,Vrouw,Rechts,1,
,xotask,dotcolour,xotask,18,2,138,138,main,positivefb,-99,hard,,3.750375300000087,['n'],1,right,['0'],6,0.34574350000002596,26,,28,18,Vrouw,Rechts,1,
,xotask,dotcolour,xotask,19,2,139,139,main,positivefb,-99,hard,,3.284128899999814,['n'],1,right,['9'],5,1.4577849999996033,29,,28,18,Vrouw,Rechts,1,
,xotask,dotcolour,xotask,20,2,140,140,main,positivefb,-99,easy,,2.750736100000722,['c'],1,left,['0'],6,1.4671089000003121,74,,28,18,Vrouw,Rechts,1,
,xotask,dotcolour,xotask,21,2,141,141,main,positivefb,-99,average,,1.668363899999349,['c'],1,left,['9'],5,1.0461294999995516,63,,28,18,Vrouw,Rechts,1,
,xotask,dotcolour,xotask,22,2,142,142,main,positivefb,-99,average,,1.1509667000000263,['c'],1,left,['9'],5,0.783169899999848,60,,28,18,Vrouw,Rechts,1,
,xotask,dotcolour,xotask,23,2,143,143,main,positivefb,-99,average,,3.068662399999994,['n'],1,right,['9'],5,1.0222426999998788,19,,28,18,Vrouw,Rechts,1,
,xotask,dotcolour,xotask,24,2,144,144,main,positivefb,-99,hard,,1.8679926000004343,['n'],0,left,['8'],4,0.6990749000005962,54,,28,18,Vrouw,Rechts,1,
,xotask,dotcolour,xotask,25,2,145,145,main,positivefb,-99,easy,,2.1507484000003387,['n'],1,right,['0'],6,1.954327600000397,8,,28,18,Vrouw,Rechts,1,
,xotask,dotcolour,xotask,26,2,146,146,main,positivefb,-99,hard,,1.7848269999994955,['c'],1,left,['0'],6,0.8219476000003851,51,,28,18,Vrouw,Rechts,1,
,xotask,dotcolour,xotask,27,2,147,147,main,positivefb,-99,hard,,2.7673703999998907,['c'],1,left,['9'],5,2.8556852000001527,51,,28,18,Vrouw,Rechts,1,
,xotask,dotcolour,xotask,28,2,148,148,main,positivefb,-99,easy,,1.7508217000004151,['c'],1,left,['0'],6,0.7997507999998561,74,,28,18,Vrouw,Rechts,1,
,xotask,dotcolour,xotask,29,2,149,149,main,positivefb,-99,easy,,1.2513361000001169,['c'],1,left,['0'],6,1.062054299999545,71,,28,18,Vrouw,Rechts,1,
,xotask,dotcolour,xotask,30,2,150,150,main,positivefb,-99,hard,,4.651159500000176,['n'],1,right,['0'],6,1.6992214000001695,27,,28,18,Vrouw,Rechts,1,
,xotask,dotcolour,xotask,31,2,151,151,main,positivefb,-99,hard,,1.7017445000001317,['n'],1,right,['0'],6,0.48343629999999393,28,,28,18,Vrouw,Rechts,1,
,xotask,dotcolour,xotask,32,2,152,152,main,positivefb,-99,average,,1.6514290999994046,['n'],1,right,['8'],4,0.3356795999998212,18,,28,18,Vrouw,Rechts,1,
,xotask,dotcolour,xotask,33,2,153,153,main,positivefb,-99,average,,2.167349899999863,['c'],1,left,['9'],5,1.0356224000006478,61,,28,18,Vrouw,Rechts,1,
,xotask,dotcolour,xotask,34,2,154,154,main,positivefb,-99,easy,,1.9175343999995675,['c'],1,left,['0'],6,0.31912409999949887,74,,28,18,Vrouw,Rechts,1,
,xotask,dotcolour,xotask,35,2,155,155,main,positivefb,-99,hard,,3.684540399999605,['c'],1,left,['9'],5,0.919458599999416,53,,28,18,Vrouw,Rechts,1,
,xotask,dotcolour,xotask,36,2,156,156,main,positivefb,-99,hard,,1.7493945999995049,['c'],1,left,['0'],6,1.1897317000002658,50,,28,18,Vrouw,Rechts,1,
,xotask,dotcolour,xotask,37,2,157,157,main,positivefb,-99,easy,,1.734374900000148,['n'],1,right,['0'],6,0.3536090999996304,9,,28,18,Vrouw,Rechts,1,
,xotask,dotcolour,xotask,38,2,158,158,main,positivefb,-99,hard,,3.5678734000002805,['c'],1,left,['3'],3,1.26963220000016,51,,28,18,Vrouw,Rechts,1,
,xotask,dotcolour,xotask,39,2,159,159,main,positivefb,-99,average,,2.1501199000003908,['n'],1,right,['0'],6,1.0133282999995572,17,,28,18,Vrouw,Rechts,1,
,xotask,dotcolour,xotask,40,2,160,160,main,positivefb,-99,easy,,1.1667465000000448,['n'],1,right,['0'],6,0.5996012999994491,7,,28,18,Vrouw,Rechts,1,
,xotask,dotcolour,xotask,41,2,161,161,main,positivefb,-99,average,,1.4510496000002604,['c'],1,left,['2'],2,1.0218770999999833,64,,28,18,Vrouw,Rechts,1,
,xotask,dotcolour,xotask,42,2,162,162,main,positivefb,-99,easy,,3.150241199999982,['n'],1,right,['0'],6,0.944032899999911,9,,28,18,Vrouw,Rechts,1,
,xotask,dotcolour,xotask,43,2,163,163,main,positivefb,-99,hard,,1.1659067000000505,['n'],1,right,['9'],5,0.6296830999999656,26,,28,18,Vrouw,Rechts,1,
,xotask,dotcolour,xotask,44,2,164,164,main,positivefb,-99,hard,,3.0348631000006208,['c'],0,right,['9'],5,0.6442205000003014,29,,28,18,Vrouw,Rechts,1,
,xotask,dotcolour,xotask,45,2,165,165,main,positivefb,-99,hard,,2.21784099999968,['c'],0,right,['9'],5,0.40201559999968595,29,,28,18,Vrouw,Rechts,1,
,xotask,dotcolour,xotask,46,2,166,166,main,positivefb,-99,easy,,1.3846821999995882,['c'],1,left,['0'],6,1.0595524000000296,70,,28,18,Vrouw,Rechts,1,
,xotask,dotcolour,xotask,47,2,167,167,main,positivefb,-99,easy,,2.0675634999997783,['n'],1,right,['0'],6,0.9440683000002537,7,,28,18,Vrouw,Rechts,1,
,xotask,dotcolour,xotask,48,2,168,168,main,positivefb,-99,average,,2.2334003000005396,['n'],1,right,['0'],6,0.4900915999996869,15,,28,18,Vrouw,Rechts,1,
,xotask,dotcolour,xotask,49,2,169,169,main,positivefb,-99,hard,,1.6851520999998684,['c'],1,left,['2'],2,1.004172899999503,52,,28,18,Vrouw,Rechts,1,
,xotask,dotcolour,xotask,50,2,170,170,main,positivefb,-99,average,,3.934110399999554,['c'],1,left,['0'],6,1.2960209999992003,62,,28,18,Vrouw,Rechts,1,
,xotask,dotcolour,xotask,51,2,171,171,main,positivefb,-99,hard,,2.417616500000804,['c'],1,left,['0'],6,0.6196101000005001,53,,28,18,Vrouw,Rechts,1,
,xotask,dotcolour,xotask,52,2,172,172,main,positivefb,-99,average,,1.8844578999996884,['n'],1,right,['0'],6,1.096460599999773,17,,28,18,Vrouw,Rechts,1,
,xotask,dotcolour,xotask,53,2,173,173,main,positivefb,-99,easy,,3.0175912000004246,['c'],1,left,['0'],6,0.8856384000000617,74,,28,18,Vrouw,Rechts,1,
,xotask,dotcolour,xotask,54,2,174,174,main,positivefb,-99,hard,,1.5347800999998071,['c'],1,left,['9'],5,0.7732473000005484,51,,28,18,Vrouw,Rechts,1,
,xotask,dotcolour,xotask,55,2,175,175,main,positivefb,-99,average,,0.9677061000002141,['c'],1,left,['9'],5,0.7451365000006263,60,,28,18,Vrouw,Rechts,1,
,xotask,dotcolour,xotask,56,2,176,176,main,positivefb,-99,easy,,1.1338068999993993,['c'],1,left,['0'],6,0.6388978000004499,73,,28,18,Vrouw,Rechts,1,
,xotask,dotcolour,xotask,57,2,177,177,main,positivefb,-99,average,,2.200966700000208,['n'],1,right,['0'],6,0.5749149000002944,15,,28,18,Vrouw,Rechts,1,
,xotask,dotcolour,xotask,58,2,178,178,main,positivefb,-99,easy,,1.9673484999993889,['c'],1,left,['9'],5,2.0977314999990995,74,,28,18,Vrouw,Rechts,1,
,xotask,dotcolour,xotask,59,2,179,179,main,positivefb,-99,hard,,1.5850270999999339,['c'],0,right,['9'],5,0.45521199999984674,26,,28,18,Vrouw,Rechts,1,
,xotask,dotcolour,xotask,0,3,180,180,main,positivefb,-99,hard,,4.23456460000034,['c'],0,right,['0'],6,0.8846064999997907,29,,28,18,Vrouw,Rechts,1,
,xotask,dotcolour,xotask,1,3,181,181,main,positivefb,-99,easy,,1.6504479999994146,['n'],1,right,['0'],6,0.44023939999988215,8,,28,18,Vrouw,Rechts,1,
,xotask,dotcolour,xotask,2,3,182,182,main,positivefb,-99,easy,,2.683191799999804,['c'],1,left,['2'],2,0.48414339999999356,74,,28,18,Vrouw,Rechts,1,
,xotask,dotcolour,xotask,3,3,183,183,main,positivefb,-99,average,,3.6678663000002416,['n'],1,right,['0'],6,1.1030062999998336,15,,28,18,Vrouw,Rechts,1,
,xotask,dotcolour,xotask,4,3,184,184,main,positivefb,-99,easy,,5.401302199999918,['n'],0,left,['0'],6,0.7476470000001427,73,,28,18,Vrouw,Rechts,1,
,xotask,dotcolour,xotask,5,3,185,185,main,positivefb,-99,average,,2.6169678999995085,['c'],1,left,['9'],5,0.6379628999993656,64,,28,18,Vrouw,Rechts,1,
,xotask,dotcolour,xotask,6,3,186,186,main,positivefb,-99,hard,,3.2347545000002356,['n'],1,right,['8'],4,0.836185099999966,29,,28,18,Vrouw,Rechts,1,
,xotask,dotcolour,xotask,7,3,187,187,main,positivefb,-99,easy,,4.350083700000141,['n'],1,right,['0'],6,0.7981331999999384,5,,28,18,Vrouw,Rechts,1,
,xotask,dotcolour,xotask,8,3,188,188,main,positivefb,-99,average,,2.751427000000149,['c'],1,left,['2'],2,1.3040172999999413,64,,28,18,Vrouw,Rechts,1,
,xotask,dotcolour,xotask,9,3,189,189,main,positivefb,-99,easy,,6.318506300000081,['c'],0,right,['1'],1,0.5447292999997444,8,,28,18,Vrouw,Rechts,1,
,xotask,dotcolour,xotask,10,3,190,190,main,positivefb,-99,average,,7.384103099999265,['c'],1,left,['8'],4,1.7331822999994984,63,,28,18,Vrouw,Rechts,1,
,xotask,dotcolour,xotask,11,3,191,191,main,positivefb,-99,average,,2.051286099999743,['n'],1,right,['0'],6,0.6544919999996637,17,,28,18,Vrouw,Rechts,1,
,xotask,dotcolour,xotask,12,3,192,192,main,positivefb,-99,average,,2.3176251000004413,['c'],0,right,['9'],5,0.9122824000005494,17,,28,18,Vrouw,Rechts,1,
,xotask,dotcolour,xotask,13,3,193,193,main,positivefb,-99,hard,,3.1681534999997893,['n'],0,left,['9'],5,1.6058806000000914,50,,28,18,Vrouw,Rechts,1,
,xotask,dotcolour,xotask,14,3,194,194,main,positivefb,-99,hard,,1.616601499999888,['n'],0,left,['9'],5,0.6854327999999441,54,,28,18,Vrouw,Rechts,1,
,xotask,dotcolour,xotask,15,3,195,195,main,positivefb,-99,average,,1.7346854000006715,['n'],1,right,['0'],6,1.8696821000003183,17,,28,18,Vrouw,Rechts,1,
,xotask,dotcolour,xotask,16,3,196,196,main,positivefb,-99,easy,,1.9685427999993408,['n'],1,right,['0'],6,0.3732393999998749,6,,28,18,Vrouw,Rechts,1,
,xotask,dotcolour,xotask,17,3,197,197,main,positivefb,-99,easy,,2.6173124999995707,['c'],1,left,['0'],6,1.4708388999997624,70,,28,18,Vrouw,Rechts,1,
,xotask,dotcolour,xotask,18,3,198,198,main,positivefb,-99,average,,2.0844082000003255,['n'],1,right,['0'],6,0.45722529999966355,15,,28,18,Vrouw,Rechts,1,
,xotask,dotcolour,xotask,19,3,199,199,main,positivefb,-99,hard,,1.5171786000000793,['n'],1,right,['0'],6,0.9076624999997875,25,,28,18,Vrouw,Rechts,1,
,xotask,dotcolour,xotask,20,3,200,200,main,positivefb,-99,hard,,1.617666800000734,['c'],1,left,['0'],6,0.5511554999993677,53,,28,18,Vrouw,Rechts,1,
,xotask,dotcolour,xotask,21,3,201,201,main,positivefb,-99,easy,,1.8847584000004645,['n'],1,right,['0'],6,0.29492209999989427,8,,28,18,Vrouw,Rechts,1,
,xotask,dotcolour,xotask,22,3,202,202,main,positivefb,-99,easy,,1.8171836999999869,['c'],1,left,['0'],6,1.2433727000006911,71,,28,18,Vrouw,Rechts,1,
,xotask,dotcolour,xotask,23,3,203,203,main,positivefb,-99,easy,,1.3334727999999814,['c'],1,left,['0'],6,0.5978263999995761,73,,28,18,Vrouw,Rechts,1,
,xotask,dotcolour,xotask,24,3,204,204,main,positivefb,-99,easy,,1.5171341000004759,['c'],1,left,['0'],6,0.369996500000525,71,,28,18,Vrouw,Rechts,1,
,xotask,dotcolour,xotask,25,3,205,205,main,positivefb,-99,hard,,1.5503580999993574,['c'],1,left,['0'],6,0.37346530000013445,54,,28,18,Vrouw,Rechts,1,
,xotask,dotcolour,xotask,26,3,206,206,main,positivefb,-99,easy,,1.5847854999992705,['n'],1,right,['0'],6,0.3604236999999557,6,,28,18,Vrouw,Rechts,1,
,xotask,dotcolour,xotask,27,3,207,207,main,positivefb,-99,hard,,1.1673534000001382,['c'],1,left,['0'],6,0.8608333000001949,54,,28,18,Vrouw,Rechts,1,
,xotask,dotcolour,xotask,28,3,208,208,main,positivefb,-99,hard,,1.8008161999996446,['n'],0,left,['0'],6,2.491775100000268,50,,28,18,Vrouw,Rechts,1,
,xotask,dotcolour,xotask,29,3,209,209,main,positivefb,-99,hard,,3.8178537000003416,['n'],1,right,['0'],6,0.6796825000001263,27,,28,18,Vrouw,Rechts,1,
,xotask,dotcolour,xotask,30,3,210,210,main,positivefb,-99,hard,,1.8502762000007351,['n'],1,right,['8'],4,0.7158170000002428,27,,28,18,Vrouw,Rechts,1,
,xotask,dotcolour,xotask,31,3,211,211,main,positivefb,-99,average,,1.368091899999854,['c'],1,left,['9'],5,0.7694985999996788,60,,28,18,Vrouw,Rechts,1,
,xotask,dotcolour,xotask,32,3,212,212,main,positivefb,-99,hard,,1.167332400000305,['c'],0,right,['9'],5,0.4047099999997954,28,,28,18,Vrouw,Rechts,1,
,xotask,dotcolour,xotask,33,3,213,213,main,positivefb,-99,average,,2.7845956999999544,['c'],1,left,['9'],5,0.5100626000003103,62,,28,18,Vrouw,Rechts,1,
,xotask,dotcolour,xotask,34,3,214,214,main,positivefb,-99,hard,,2.5847132999997484,['c'],1,left,['0'],6,0.6751813999999285,50,,28,18,Vrouw,Rechts,1,
,xotask,dotcolour,xotask,35,3,215,215,main,positivefb,-99,easy,,1.2015042000002722,['c'],1,left,['0'],6,0.28977409999970405,74,,28,18,Vrouw,Rechts,1,
,xotask,dotcolour,xotask,36,3,216,216,main,positivefb,-99,average,,1.1348738999995476,['c'],1,left,['0'],6,0.32124669999939215,60,,28,18,Vrouw,Rechts,1,
,xotask,dotcolour,xotask,37,3,217,217,main,positivefb,-99,easy,,0.9836471999997229,['c'],1,left,['9'],5,0.3585542999999234,73,,28,18,Vrouw,Rechts,1,
,xotask,dotcolour,xotask,38,3,218,218,main,positivefb,-99,average,,2.267858299999716,['n'],1,right,['9'],5,0.6546074999996563,18,,28,18,Vrouw,Rechts,1,
,xotask,dotcolour,xotask,39,3,219,219,main,positivefb,-99,hard,,1.33508509999956,['n'],1,right,['9'],5,0.27115860000048997,29,,28,18,Vrouw,Rechts,1,
,xotask,dotcolour,xotask,40,3,220,220,main,positivefb,-99,easy,,2.2004251999996995,['n'],1,right,['0'],6,0.4532497999998668,5,,28,18,Vrouw,Rechts,1,
,xotask,dotcolour,xotask,41,3,221,221,main,positivefb,-99,easy,,1.717746199999965,['c'],1,left,['0'],6,0.3356715999998414,74,,28,18,Vrouw,Rechts,1,
,xotask,dotcolour,xotask,42,3,222,222,main,positivefb,-99,easy,,1.4505275000001348,['n'],1,right,['0'],6,0.3453198999995948,7,,28,18,Vrouw,Rechts,1,
,xotask,dotcolour,xotask,43,3,223,223,main,positivefb,-99,hard,,1.3845307999999932,['c'],0,right,['0'],6,0.3730820999999196,29,,28,18,Vrouw,Rechts,1,
,xotask,dotcolour,xotask,44,3,224,224,main,positivefb,-99,average,,1.950388600000224,['n'],1,right,['9'],5,0.8176793000002363,15,,28,18,Vrouw,Rechts,1,
,xotask,dotcolour,xotask,45,3,225,225,main,positivefb,-99,hard,,2.101097800000389,['c'],1,left,['1'],1,0.5892125999998825,53,,28,18,Vrouw,Rechts,1,
,xotask,dotcolour,xotask,46,3,226,226,main,positivefb,-99,easy,,2.401020199999948,['c'],1,left,['0'],6,0.5431840999999622,72,,28,18,Vrouw,Rechts,1,
,xotask,dotcolour,xotask,47,3,227,227,main,positivefb,-99,hard,,3.8671465999996144,['c'],0,right,['3'],3,2.6872569999995903,28,,28,18,Vrouw,Rechts,1,
,xotask,dotcolour,xotask,48,3,228,228,main,positivefb,-99,average,,4.2012612999997145,['c'],0,right,['8'],4,0.884601400000065,18,,28,18,Vrouw,Rechts,1,
,xotask,dotcolour,xotask,49,3,229,229,main,positivefb,-99,average,,1.967731300000196,['n'],1,right,['9'],5,1.0838088000000425,18,,28,18,Vrouw,Rechts,1,
,xotask,dotcolour,xotask,50,3,230,230,main,positivefb,-99,average,,2.2349224999998114,['c'],1,left,['0'],6,0.5273999999999432,62,,28,18,Vrouw,Rechts,1,
,xotask,dotcolour,xotask,51,3,231,231,main,positivefb,-99,hard,,5.334114399999635,['c'],1,left,['9'],5,0.7182580000007874,52,,28,18,Vrouw,Rechts,1,
,xotask,dotcolour,xotask,52,3,232,232,main,positivefb,-99,hard,,1.7506301999992502,['n'],0,left,['9'],5,0.45997259999967355,54,,28,18,Vrouw,Rechts,1,
,xotask,dotcolour,xotask,53,3,233,233,main,positivefb,-99,average,,1.784233100000165,['c'],1,left,['9'],5,0.8196243000002141,62,,28,18,Vrouw,Rechts,1,
,xotask,dotcolour,xotask,54,3,234,234,main,positivefb,-99,hard,,5.017951099999664,['c'],0,right,['9'],5,0.515002099999947,27,,28,18,Vrouw,Rechts,1,
,xotask,dotcolour,xotask,55,3,235,235,main,positivefb,-99,easy,,4.034465799999452,['c'],0,right,['8'],4,0.7740808999997171,5,,28,18,Vrouw,Rechts,1,
,xotask,dotcolour,xotask,56,3,236,236,main,positivefb,-99,easy,,2.001193400000375,['n'],1,right,['9'],5,1.8391504000001078,6,,28,18,Vrouw,Rechts,1,
,xotask,dotcolour,xotask,57,3,237,237,main,positivefb,-99,average,,2.1336758999996164,['c'],1,left,['9'],5,1.8415529000003517,60,,28,18,Vrouw,Rechts,1,
,xotask,dotcolour,xotask,58,3,238,238,main,positivefb,-99,average,,2.0181587999995827,['n'],1,right,['0'],6,0.9527250999999524,16,,28,18,Vrouw,Rechts,1,
,xotask,dotcolour,xotask,59,3,239,239,main,positivefb,-99,average,,2.300037500000144,['c'],1,left,['0'],6,0.6233204000000114,64,,28,18,Vrouw,Rechts,1,
,xotask,dotcolour,xotask,0,4,240,240,main,positivefb,-99,easy,,2.233296899999914,['n'],1,right,['0'],6,0.390699599999607,7,,28,18,Vrouw,Rechts,1,
,xotask,dotcolour,xotask,1,4,241,241,main,positivefb,-99,hard,,2.3849808000004487,['n'],0,left,['8'],4,0.5129493000004004,50,,28,18,Vrouw,Rechts,1,
,xotask,dotcolour,xotask,2,4,242,242,main,positivefb,-99,average,,1.5346929999996064,['c'],1,left,['9'],5,0.9357394999997268,64,,28,18,Vrouw,Rechts,1,
,xotask,dotcolour,xotask,3,4,243,243,main,positivefb,-99,easy,,1.9015965999997206,['n'],1,right,['0'],6,0.3360601000003953,7,,28,18,Vrouw,Rechts,1,
,xotask,dotcolour,xotask,4,4,244,244,main,positivefb,-99,average,,2.03456610000012,['n'],1,right,['9'],5,0.8891125000000102,16,,28,18,Vrouw,Rechts,1,
,xotask,dotcolour,xotask,5,4,245,245,main,positivefb,-99,easy,,1.0500716999995348,['n'],1,right,['9'],5,0.5168404000005467,9,,28,18,Vrouw,Rechts,1,
,xotask,dotcolour,xotask,6,4,246,246,main,positivefb,-99,hard,,2.0685328000008667,['n'],0,left,['9'],5,0.4217940999997154,52,,28,18,Vrouw,Rechts,1,
,xotask,dotcolour,xotask,7,4,247,247,main,positivefb,-99,average,,2.000660799999423,['n'],0,left,['9'],5,0.44585170000027574,61,,28,18,Vrouw,Rechts,1,
,xotask,dotcolour,xotask,8,4,248,248,main,positivefb,-99,hard,,2.6843345000006593,['n'],1,right,['9'],5,0.4739761999999246,26,,28,18,Vrouw,Rechts,1,
,xotask,dotcolour,xotask,9,4,249,249,main,positivefb,-99,easy,,1.4179355000005671,['n'],1,right,['9'],5,0.27194670000062615,8,,28,18,Vrouw,Rechts,1,
,xotask,dotcolour,xotask,10,4,250,250,main,positivefb,-99,average,,2.034817799999473,['c'],1,left,['9'],5,0.811812199999622,64,,28,18,Vrouw,Rechts,1,
,xotask,dotcolour,xotask,11,4,251,251,main,positivefb,-99,average,,1.0517128000001321,['n'],1,right,['9'],5,0.3634632999992391,18,,28,18,Vrouw,Rechts,1,
,xotask,dotcolour,xotask,12,4,252,252,main,positivefb,-99,average,,0.8342340999997759,['n'],0,left,['9'],5,0.3080786000000444,63,,28,18,Vrouw,Rechts,1,
,xotask,dotcolour,xotask,13,4,253,253,main,positivefb,-99,hard,,0.9677866000001814,['n'],0,left,['9'],5,0.2744260999998005,54,,28,18,Vrouw,Rechts,1,
,xotask,dotcolour,xotask,14,4,254,254,main,positivefb,-99,average,,1.1686462999996365,['n'],1,right,['9'],5,0.29782819999945787,16,,28,18,Vrouw,Rechts,1,
,xotask,dotcolour,xotask,15,4,255,255,main,positivefb,-99,easy,,2.818120199999612,['n'],1,right,['0'],6,0.3738932999995086,5,,28,18,Vrouw,Rechts,1,
,xotask,dotcolour,xotask,16,4,256,256,main,positivefb,-99,average,,2.9347999999999956,['c'],1,left,['0'],6,0.6342417999994723,62,,28,18,Vrouw,Rechts,1,
,xotask,dotcolour,xotask,17,4,257,257,main,positivefb,-99,easy,,1.6175617999997485,['n'],1,right,['0'],6,0.2652512000004208,5,,28,18,Vrouw,Rechts,1,
,xotask,dotcolour,xotask,18,4,258,258,main,positivefb,-99,hard,,1.217065900000307,['n'],0,left,['9'],5,0.23824440000043978,53,,28,18,Vrouw,Rechts,1,
,xotask,dotcolour,xotask,19,4,259,259,main,positivefb,-99,average,,0.9351038000004337,['n'],1,right,['0'],6,0.6962532999996256,15,,28,18,Vrouw,Rechts,1,
,xotask,dotcolour,xotask,20,4,260,260,main,positivefb,-99,hard,,1.001376799999889,['n'],1,right,['0'],6,0.25440569999955187,27,,28,18,Vrouw,Rechts,1,
,xotask,dotcolour,xotask,21,4,261,261,main,positivefb,-99,easy,,1.2167830999997022,['c'],1,left,['0'],6,0.4441643000000113,71,,28,18,Vrouw,Rechts,1,
,xotask,dotcolour,xotask,22,4,262,262,main,positivefb,-99,easy,,1.3666277000002083,['c'],1,left,['0'],6,0.2447900999995909,70,,28,18,Vrouw,Rechts,1,
,xotask,dotcolour,xotask,23,4,263,263,main,positivefb,-99,easy,,2.101701300000059,['n'],1,right,['0'],6,0.26346099999955186,8,,28,18,Vrouw,Rechts,1,
,xotask,dotcolour,xotask,24,4,264,264,main,positivefb,-99,average,,6.684520599999814,['c'],0,right,['0'],6,2.059496100000615,17,,28,18,Vrouw,Rechts,1,
,xotask,dotcolour,xotask,25,4,265,265,main,positivefb,-99,easy,,3.717884299999241,['c'],1,left,['0'],6,2.020947900000465,72,,28,18,Vrouw,Rechts,1,
,xotask,dotcolour,xotask,26,4,266,266,main,positivefb,-99,hard,,4.368485699999837,['c'],0,right,['3'],3,1.086673100000553,26,,28,18,Vrouw,Rechts,1,
,xotask,dotcolour,xotask,27,4,267,267,main,positivefb,-99,average,,5.351011300000209,['c'],1,left,['2'],2,1.64610889999949,64,,28,18,Vrouw,Rechts,1,
,xotask,dotcolour,xotask,28,4,268,268,main,positivefb,-99,easy,,1.7014791000001424,['c'],1,left,['0'],6,0.6181532000000516,70,,28,18,Vrouw,Rechts,1,
,xotask,dotcolour,xotask,29,4,269,269,main,positivefb,-99,hard,,2.468116000000009,['c'],0,right,['0'],6,0.31058260000008886,27,,28,18,Vrouw,Rechts,1,
,xotask,dotcolour,xotask,30,4,270,270,main,positivefb,-99,hard,,2.766822300000058,['n'],1,right,['0'],6,0.5726144000000204,26,,28,18,Vrouw,Rechts,1,
,xotask,dotcolour,xotask,31,4,271,271,main,positivefb,-99,average,,0.6342788000001747,['n'],1,right,['0'],6,0.27762650000022404,19,,28,18,Vrouw,Rechts,1,
,xotask,dotcolour,xotask,32,4,272,272,main,positivefb,-99,average,,0.9169539000004079,['n'],1,right,['9'],5,0.3273187000004327,19,,28,18,Vrouw,Rechts,1,
,xotask,dotcolour,xotask,33,4,273,273,main,positivefb,-99,average,,1.2003756000003705,['n'],1,right,['9'],5,0.5159438000000591,16,,28,18,Vrouw,Rechts,1,
,xotask,dotcolour,xotask,34,4,274,274,main,positivefb,-99,hard,,0.717735499999435,['n'],0,left,['9'],5,0.23476449999998295,50,,28,18,Vrouw,Rechts,1,
,xotask,dotcolour,xotask,35,4,275,275,main,positivefb,-99,hard,,0.7002137999998013,['n'],1,right,['9'],5,0.3499424999999974,28,,28,18,Vrouw,Rechts,1,
,xotask,dotcolour,xotask,36,4,276,276,main,positivefb,-99,average,,0.7835503999995126,['n'],1,right,['9'],5,0.5208324999994147,15,,28,18,Vrouw,Rechts,1,
,xotask,dotcolour,xotask,37,4,277,277,main,positivefb,-99,easy,,1.3501083999999537,['n'],1,right,['9'],5,0.4553613999996742,7,,28,18,Vrouw,Rechts,1,
,xotask,dotcolour,xotask,38,4,278,278,main,positivefb,-99,easy,,1.7018668999999136,['c'],1,left,['9'],5,3.7783464000003733,71,,28,18,Vrouw,Rechts,1,
,xotask,dotcolour,xotask,39,4,279,279,main,positivefb,-99,easy,,0.868504999999459,['c'],1,left,['9'],5,0.25749180000002525,73,,28,18,Vrouw,Rechts,1,
,xotask,dotcolour,xotask,40,4,280,280,main,positivefb,-99,hard,,1.534175900000264,['n'],1,right,['9'],5,0.47447470000042813,26,,28,18,Vrouw,Rechts,1,
,xotask,dotcolour,xotask,41,4,281,281,main,positivefb,-99,hard,,2.1675965000004,['c'],1,left,['9'],5,0.594474600000467,51,,28,18,Vrouw,Rechts,1,
,xotask,dotcolour,xotask,42,4,282,282,main,positivefb,-99,easy,,4.267207399999279,['c'],1,left,['2'],2,0.4166568999999072,71,,28,18,Vrouw,Rechts,1,
,xotask,dotcolour,xotask,43,4,283,283,main,positivefb,-99,easy,,1.7348738000000594,['c'],1,left,['0'],6,1.1316108999999415,70,,28,18,Vrouw,Rechts,1,
,xotask,dotcolour,xotask,44,4,284,284,main,positivefb,-99,hard,,2.5342148999998244,['c'],1,left,['0'],6,0.5293363000000681,51,,28,18,Vrouw,Rechts,1,
,xotask,dotcolour,xotask,45,4,285,285,main,positivefb,-99,easy,,3.5835908999997628,['c'],1,left,['0'],6,0.5817871999997806,74,,28,18,Vrouw,Rechts,1,
,xotask,dotcolour,xotask,46,4,286,286,main,positivefb,-99,average,,2.2516630000000077,['n'],1,right,['9'],5,1.4463364000002912,17,,28,18,Vrouw,Rechts,1,
,xotask,dotcolour,xotask,47,4,287,287,main,positivefb,-99,average,,6.50087639999947,['c'],1,left,['9'],5,0.9368973000000551,62,,28,18,Vrouw,Rechts,1,
,xotask,dotcolour,xotask,48,4,288,288,main,positivefb,-99,hard,,2.40139309999995,['c'],1,left,['9'],5,1.0126854000000094,52,,28,18,Vrouw,Rechts,1,
,xotask,dotcolour,xotask,49,4,289,289,main,positivefb,-99,hard,,1.8672464000001128,['c'],0,right,['9'],5,0.7141429000002972,29,,28,18,Vrouw,Rechts,1,
,xotask,dotcolour,xotask,50,4,290,290,main,positivefb,-99,average,,1.934389099999862,['c'],1,left,['0'],6,0.8096193999999741,60,,28,18,Vrouw,Rechts,1,
,xotask,dotcolour,xotask,51,4,291,291,main,positivefb,-99,hard,,1.2501833000005718,['c'],1,left,['0'],6,0.9519097000002148,51,,28,18,Vrouw,Rechts,1,
,xotask,dotcolour,xotask,52,4,292,292,main,positivefb,-99,hard,,1.5338271999999051,['c'],0,right,['0'],6,0.365660299999945,25,,28,18,Vrouw,Rechts,1,
,xotask,dotcolour,xotask,53,4,293,293,main,positivefb,-99,hard,,1.1673284999997122,['c'],1,left,['9'],5,0.9449363000003359,54,,28,18,Vrouw,Rechts,1,
,xotask,dotcolour,xotask,54,4,294,294,main,positivefb,-99,easy,,1.9672756999998455,['n'],1,right,['9'],5,0.7094412999995257,7,,28,18,Vrouw,Rechts,1,
,xotask,dotcolour,xotask,55,4,295,295,main,positivefb,-99,easy,,1.2669714000003296,['c'],1,left,['0'],6,2.9362560999998095,73,,28,18,Vrouw,Rechts,1,
,xotask,dotcolour,xotask,56,4,296,296,main,positivefb,-99,hard,,2.417741400000523,['n'],1,right,['0'],6,1.8748853999995845,26,,28,18,Vrouw,Rechts,1,
,xotask,dotcolour,xotask,57,4,297,297,main,positivefb,-99,average,,5.400831300000391,['c'],1,left,['0'],6,0.5682815000000119,63,,28,18,Vrouw,Rechts,1,
,xotask,dotcolour,xotask,58,4,298,298,main,positivefb,-99,average,,1.1510375000007116,['c'],1,left,['0'],6,0.9887915999997858,62,,28,18,Vrouw,Rechts,1,
,xotask,dotcolour,xotask,59,4,299,299,main,positivefb,-99,easy,,1.6009206999997332,['n'],1,right,['0'],6,0.42957250000017666,6,,28,18,Vrouw,Rechts,1,
,dotcolour,dotcolour,xotask,0,0,0,300,training,positivefb,95,average,29,1.0831945999998425,['n'],1,right,['0'],6,0.7476399000006495,,,28,18,Vrouw,Rechts,1,
,dotcolour,dotcolour,xotask,1,0,1,301,training,positivefb,67,hard,44,0.8671437000002697,['n'],0,left,['9'],5,0.49947119999978895,,,28,18,Vrouw,Rechts,1,
,dotcolour,dotcolour,xotask,2,0,2,302,training,positivefb,83,average,25,0.9657909999996264,['n'],1,right,['9'],5,0.7613218999995297,,,28,18,Vrouw,Rechts,1,
,dotcolour,dotcolour,xotask,3,0,3,303,training,positivefb,96,hard,45,1.3502975999999762,['n'],0,left,['9'],5,0.42875139999978273,,,28,18,Vrouw,Rechts,1,
,dotcolour,dotcolour,xotask,4,0,4,304,training,positivefb,79,easy,64,1.1668915000000197,['c'],1,left,['9'],5,0.6941471999998612,,,28,18,Vrouw,Rechts,1,
,dotcolour,dotcolour,xotask,5,0,5,305,training,positivefb,65,hard,43,1.3668485999996847,['c'],1,left,['9'],5,1.155124099999739,,,28,18,Vrouw,Rechts,1,
,dotcolour,dotcolour,xotask,6,0,6,306,training,positivefb,25,average,29,1.4172146999999313,['c'],0,right,['9'],5,0.6041691000000355,,,28,18,Vrouw,Rechts,1,
,dotcolour,dotcolour,xotask,7,0,7,307,training,positivefb,72,average,27,6.083591900000101,['n'],1,right,['0'],6,0.4740817000001698,,,28,18,Vrouw,Rechts,1,
,dotcolour,dotcolour,xotask,8,0,8,308,training,positivefb,97,average,29,0.9167534000007436,['n'],1,right,['9'],5,1.0345959000005678,,,28,18,Vrouw,Rechts,1,
,dotcolour,dotcolour,xotask,9,0,9,309,training,positivefb,76,hard,44,1.0832113999995272,['n'],0,left,['8'],4,0.6536855000003925,,,28,18,Vrouw,Rechts,1,
,dotcolour,dotcolour,xotask,10,0,10,310,training,positivefb,98,easy,63,1.0173314000003302,['c'],1,left,['0'],6,1.8190340999999535,,,28,18,Vrouw,Rechts,1,
,dotcolour,dotcolour,xotask,11,0,11,311,training,positivefb,90,easy,63,0.8332208000001629,['c'],1,left,['0'],6,0.37646500000028027,,,28,18,Vrouw,Rechts,1,
,dotcolour,dotcolour,xotask,12,0,12,312,training,positivefb,91,hard,36,3.2664962999997442,['n'],1,right,['9'],5,1.2958381000007648,,,28,18,Vrouw,Rechts,1,
,dotcolour,dotcolour,xotask,13,0,13,313,training,positivefb,94,easy,63,1.5330705000005764,['c'],1,left,['0'],6,2.078741700000137,,,28,18,Vrouw,Rechts,1,
,dotcolour,dotcolour,xotask,14,0,14,314,training,positivefb,99,easy,18,1.2178401000001031,['n'],1,right,['0'],6,0.8186206000000311,,,28,18,Vrouw,Rechts,1,
,dotcolour,dotcolour,xotask,15,0,15,315,training,positivefb,88,hard,45,1.2832076000004236,['n'],0,left,['8'],4,0.27852209999946353,,,28,18,Vrouw,Rechts,1,
,dotcolour,dotcolour,xotask,16,0,16,316,training,positivefb,99,average,29,1.099827400000322,['n'],1,right,['9'],5,1.0878797000004852,,,28,18,Vrouw,Rechts,1,
,dotcolour,dotcolour,xotask,17,0,17,317,training,positivefb,92,easy,64,3.484011200000168,['c'],1,left,['0'],6,0.913505499999701,,,28,18,Vrouw,Rechts,1,
,dotcolour,dotcolour,xotask,18,0,18,318,training,positivefb,99,easy,61,1.5848918000001504,['c'],1,left,['0'],6,1.4140649999999368,,,28,18,Vrouw,Rechts,1,
,dotcolour,dotcolour,xotask,19,0,19,319,training,positivefb,55,hard,42,1.0512765000003128,['n'],0,left,['8'],4,1.2282101000000694,,,28,18,Vrouw,Rechts,1,
,dotcolour,dotcolour,xotask,20,0,20,320,training,positivefb,98,easy,64,1.350487599999724,['c'],1,left,['8'],4,0.6213393999996697,,,28,18,Vrouw,Rechts,1,
,dotcolour,dotcolour,xotask,21,0,21,321,training,positivefb,97,easy,18,1.6343994999997449,['n'],1,right,['0'],6,0.3801763999999821,,,28,18,Vrouw,Rechts,1,
,dotcolour,dotcolour,xotask,22,0,22,322,training,positivefb,94,hard,39,1.450693499999943,['n'],1,right,['9'],5,1.4748317000003226,,,28,18,Vrouw,Rechts,1,
,dotcolour,dotcolour,xotask,23,0,23,323,training,positivefb,90,easy,18,1.3335220999997546,['n'],1,right,['9'],5,0.4740452000005462,,,28,18,Vrouw,Rechts,1,
,dotcolour,dotcolour,xotask,24,0,24,324,training,positivefb,74,easy,65,2.449231900000086,['c'],1,left,['0'],6,0.9656312999995862,,,28,18,Vrouw,Rechts,1,
,dotcolour,dotcolour,xotask,25,0,25,325,training,positivefb,72,hard,39,1.2004929000004267,['n'],1,right,['8'],4,0.3032539000005272,,,28,18,Vrouw,Rechts,1,
,dotcolour,dotcolour,xotask,26,0,26,326,training,positivefb,95,easy,19,1.584456899999168,['n'],1,right,['8'],4,0.6439071000004333,,,28,18,Vrouw,Rechts,1,
,dotcolour,dotcolour,xotask,27,0,27,327,training,positivefb,94,average,54,1.0174059000000852,['c'],1,left,['0'],6,0.37012700000013865,,,28,18,Vrouw,Rechts,1,
,dotcolour,dotcolour,xotask,28,0,28,328,training,positivefb,89,average,53,1.3332158000002892,['c'],1,left,['0'],6,0.30963770000016666,,,28,18,Vrouw,Rechts,1,
,dotcolour,dotcolour,xotask,29,0,29,329,training,positivefb,92,easy,19,1.5334983999991891,['n'],1,right,['0'],6,0.3973507000000609,,,28,18,Vrouw,Rechts,1,
,dotcolour,dotcolour,xotask,30,0,30,330,training,positivefb,88,average,29,2.8167288999993616,['n'],1,right,['9'],5,1.2368186999992759,,,28,18,Vrouw,Rechts,1,
,dotcolour,dotcolour,xotask,31,0,31,331,training,positivefb,97,easy,19,1.767860799999653,['n'],1,right,['9'],5,0.9487017999999807,,,28,18,Vrouw,Rechts,1,
,dotcolour,dotcolour,xotask,32,0,32,332,training,positivefb,97,average,28,1.0174323000001095,['n'],1,right,['0'],6,0.25440880000041943,,,28,18,Vrouw,Rechts,1,
,dotcolour,dotcolour,xotask,33,0,33,333,training,positivefb,83,hard,38,1.3162474000000657,['n'],1,right,['9'],5,0.5196942000002309,,,28,18,Vrouw,Rechts,1,
,dotcolour,dotcolour,xotask,34,0,34,334,training,positivefb,63,hard,38,1.18391900000006,['n'],1,right,['9'],5,0.9635491999997612,,,28,18,Vrouw,Rechts,1,
,dotcolour,dotcolour,xotask,35,0,35,335,training,positivefb,97,average,53,0.8162457999997059,['c'],1,left,['0'],6,0.8609864000000016,,,28,18,Vrouw,Rechts,1,
,dotcolour,dotcolour,xotask,36,0,36,336,training,positivefb,38,hard,36,3.7345017999996344,['c'],0,right,['9'],5,1.0451766000005591,,,28,18,Vrouw,Rechts,1,
,dotcolour,dotcolour,xotask,37,0,37,337,training,positivefb,100,easy,17,2.10040410000056,['n'],1,right,['0'],6,1.0324485999999524,,,28,18,Vrouw,Rechts,1,
,dotcolour,dotcolour,xotask,38,0,38,338,training,positivefb,75,hard,35,1.416369499999746,['n'],1,right,['9'],5,0.8944244000003891,,,28,18,Vrouw,Rechts,1,
,dotcolour,dotcolour,xotask,39,0,39,339,training,positivefb,100,average,55,1.8825379999998404,['c'],1,left,['0'],6,3.8642212000004292,,,28,18,Vrouw,Rechts,1,
,dotcolour,dotcolour,xotask,40,0,40,340,training,positivefb,59,hard,36,1.033437999999478,['c'],0,right,['0'],6,0.5884171000006972,,,28,18,Vrouw,Rechts,1,
,dotcolour,dotcolour,xotask,41,0,41,341,training,positivefb,85,easy,19,2.2336998999999196,['n'],1,right,['0'],6,0.7233661999998731,,,28,18,Vrouw,Rechts,1,
,dotcolour,dotcolour,xotask,42,0,42,342,training,positivefb,96,average,53,0.8012809000001653,['c'],1,left,['9'],5,0.6783777000000555,,,28,18,Vrouw,Rechts,1,
,dotcolour,dotcolour,xotask,43,0,43,343,training,positivefb,96,average,51,0.6659459000002244,['c'],1,left,['9'],5,0.44893820000015694,,,28,18,Vrouw,Rechts,1,
,dotcolour,dotcolour,xotask,44,0,44,344,training,positivefb,98,hard,45,0.9006702999995468,['c'],1,left,['9'],5,0.4112123999993855,,,28,18,Vrouw,Rechts,1,
,dotcolour,dotcolour,xotask,45,0,45,345,training,positivefb,95,hard,36,1.2003238000006604,['c'],0,right,['8'],4,0.7320759000003818,,,28,18,Vrouw,Rechts,1,
,dotcolour,dotcolour,xotask,46,0,46,346,training,positivefb,99,easy,62,0.9504775999994308,['c'],1,left,['9'],5,0.6476935000000594,,,28,18,Vrouw,Rechts,1,
,dotcolour,dotcolour,xotask,47,0,47,347,training,positivefb,56,average,26,1.166471399999864,['n'],1,right,['9'],5,1.7272185000001627,,,28,18,Vrouw,Rechts,1,
,dotcolour,dotcolour,xotask,48,0,48,348,training,positivefb,81,easy,15,1.0494506999993973,['n'],1,right,['9'],5,0.4477652000005037,,,28,18,Vrouw,Rechts,1,
,dotcolour,dotcolour,xotask,49,0,49,349,training,positivefb,70,average,53,0.9836112000002686,['c'],1,left,['0'],6,5.543053999999756,,,28,18,Vrouw,Rechts,1,
,dotcolour,dotcolour,xotask,50,0,50,350,training,positivefb,87,hard,39,1.7998598000003767,['n'],1,right,['9'],5,0.8405805000002147,,,28,18,Vrouw,Rechts,1,
,dotcolour,dotcolour,xotask,51,0,51,351,training,positivefb,90,hard,44,1.3664491999998063,['c'],1,left,['9'],5,0.6318275000003268,,,28,18,Vrouw,Rechts,1,
,dotcolour,dotcolour,xotask,52,0,52,352,training,positivefb,93,hard,43,1.0337706000000253,['c'],1,left,['9'],5,0.9577152000001661,,,28,18,Vrouw,Rechts,1,
,dotcolour,dotcolour,xotask,53,0,53,353,training,positivefb,98,average,55,1.049152999999933,['c'],1,left,['0'],6,1.8858235999996396,,,28,18,Vrouw,Rechts,1,
,dotcolour,dotcolour,xotask,54,0,54,354,training,positivefb,100,average,27,1.034395499999846,['n'],1,right,['0'],6,0.8412970999997924,,,28,18,Vrouw,Rechts,1,
,dotcolour,dotcolour,xotask,55,0,55,355,training,positivefb,97,easy,62,1.0167671999997765,['c'],1,left,['9'],5,0.8708299999998417,,,28,18,Vrouw,Rechts,1,
,dotcolour,dotcolour,xotask,56,0,56,356,training,positivefb,84,average,54,3.7498482999999396,['c'],1,left,['8'],4,1.3574048000000403,,,28,18,Vrouw,Rechts,1,
,dotcolour,dotcolour,xotask,57,0,57,357,training,positivefb,71,hard,43,1.349679599999945,['n'],0,left,['0'],6,0.7860891000000265,,,28,18,Vrouw,Rechts,1,
,dotcolour,dotcolour,xotask,58,0,58,358,training,positivefb,32,easy,15,1.2672709999997096,['c'],0,right,['0'],6,1.192210399999567,,,28,18,Vrouw,Rechts,1,
,dotcolour,dotcolour,xotask,59,0,59,359,training,positivefb,97,average,51,1.0836207000002105,['c'],1,left,['0'],6,0.5894644999998491,,,28,18,Vrouw,Rechts,1,
,dotcolour,dotcolour,xotask,0,1,60,360,training,positivefb,58,average,28,6.934489700000086,['c'],0,right,['8'],4,2.7201852999996845,,,28,18,Vrouw,Rechts,1,
,dotcolour,dotcolour,xotask,1,1,61,361,training,positivefb,98,hard,45,1.1003743999999642,['n'],0,left,['8'],4,0.2946486000000732,,,28,18,Vrouw,Rechts,1,
,dotcolour,dotcolour,xotask,2,1,62,362,training,positivefb,62,hard,44,1.816296500000135,['n'],0,left,['8'],4,0.8266101999997773,,,28,18,Vrouw,Rechts,1,
,dotcolour,dotcolour,xotask,3,1,63,363,training,positivefb,48,hard,39,4.583888699999989,['c'],0,right,['9'],5,0.5785920999996961,,,28,18,Vrouw,Rechts,1,
,dotcolour,dotcolour,xotask,4,1,64,364,training,positivefb,96,hard,37,1.9999483999999939,['n'],1,right,['9'],5,0.4119218000005276,,,28,18,Vrouw,Rechts,1,
,dotcolour,dotcolour,xotask,5,1,65,365,training,positivefb,99,easy,62,1.5005792000001748,['c'],1,left,['0'],6,1.1195668000000296,,,28,18,Vrouw,Rechts,1,
,dotcolour,dotcolour,xotask,6,1,66,366,training,positivefb,96,hard,44,1.250171799999407,['n'],0,left,['8'],4,0.2571465000000899,,,28,18,Vrouw,Rechts,1,
,dotcolour,dotcolour,xotask,7,1,67,367,training,positivefb,66,average,55,0.9166291000001365,['n'],0,left,['8'],4,0.6582772000001569,,,28,18,Vrouw,Rechts,1,
,dotcolour,dotcolour,xotask,8,1,68,368,training,positivefb,62,average,51,5.166813699999693,['c'],1,left,['2'],2,1.0898183999997855,,,28,18,Vrouw,Rechts,1,
,dotcolour,dotcolour,xotask,9,1,69,369,training,positivefb,89,hard,38,1.8831388999997216,['n'],1,right,['8'],4,0.8758336000000781,,,28,18,Vrouw,Rechts,1,
,dotcolour,dotcolour,xotask,10,1,70,370,training,positivefb,86,easy,19,1.983001200000217,['n'],1,right,['9'],5,1.2570396000000983,,,28,18,Vrouw,Rechts,1,
,dotcolour,dotcolour,xotask,11,1,71,371,training,positivefb,98,average,55,4.501031699999658,['c'],1,left,['9'],5,2.2512628000004042,,,28,18,Vrouw,Rechts,1,
,dotcolour,dotcolour,xotask,12,1,72,372,training,positivefb,95,average,27,1.9497191999998904,['n'],1,right,['9'],5,3.4749683999998524,,,28,18,Vrouw,Rechts,1,
,dotcolour,dotcolour,xotask,13,1,73,373,training,positivefb,97,easy,64,2.301302400000168,['c'],1,left,['0'],6,0.9718754999994417,,,28,18,Vrouw,Rechts,1,
,dotcolour,dotcolour,xotask,14,1,74,374,training,positivefb,99,average,26,1.2502069000001939,['n'],1,right,['0'],6,1.7307066000003033,,,28,18,Vrouw,Rechts,1,
,dotcolour,dotcolour,xotask,15,1,75,375,training,positivefb,99,hard,36,0.7997544999998354,['n'],1,right,['9'],5,0.7170967000001838,,,28,18,Vrouw,Rechts,1,
,dotcolour,dotcolour,xotask,16,1,76,376,training,positivefb,92,hard,43,0.9166279000000941,['c'],1,left,['8'],4,0.8765023000005385,,,28,18,Vrouw,Rechts,1,
,dotcolour,dotcolour,xotask,17,1,77,377,training,positivefb,96,average,26,3.4007656999992832,['n'],1,right,['0'],6,1.2088614999993297,,,28,18,Vrouw,Rechts,1,
,dotcolour,dotcolour,xotask,18,1,78,378,training,positivefb,69,average,27,1.3672876000000542,['n'],1,right,['9'],5,0.81069479999951,,,28,18,Vrouw,Rechts,1,
,dotcolour,dotcolour,xotask,19,1,79,379,training,positivefb,99,easy,61,1.23412080000071,['c'],1,left,['0'],6,1.985069399999702,,,28,18,Vrouw,Rechts,1,
,dotcolour,dotcolour,xotask,20,1,80,380,training,positivefb,67,easy,65,5.416632699999354,['n'],0,left,['8'],4,0.6642327999998088,,,28,18,Vrouw,Rechts,1,
,dotcolour,dotcolour,xotask,21,1,81,381,training,positivefb,89,easy,17,0.8840517999997246,['n'],1,right,['0'],6,0.4268452999995134,,,28,18,Vrouw,Rechts,1,
,dotcolour,dotcolour,xotask,22,1,82,382,training,positivefb,94,hard,35,0.8178508999999394,['n'],1,right,['0'],6,0.37773379999998724,,,28,18,Vrouw,Rechts,1,
,dotcolour,dotcolour,xotask,23,1,83,383,training,positivefb,93,hard,43,1.4178603999998813,['n'],0,left,['8'],4,0.274757099999988,,,28,18,Vrouw,Rechts,1,
,dotcolour,dotcolour,xotask,24,1,84,384,training,positivefb,90,easy,15,3.700724799999989,['n'],1,right,['0'],6,0.9393302999997104,,,28,18,Vrouw,Rechts,1,
,dotcolour,dotcolour,xotask,25,1,85,385,training,positivefb,99,easy,18,1.3996503000007579,['n'],1,right,['0'],6,0.7267443999999159,,,28,18,Vrouw,Rechts,1,
,dotcolour,dotcolour,xotask,26,1,86,386,training,positivefb,79,hard,41,1.3008453000002191,['n'],0,left,['0'],6,0.7013245999996798,,,28,18,Vrouw,Rechts,1,
,dotcolour,dotcolour,xotask,27,1,87,387,training,positivefb,9,hard,44,1.3505213999997068,['n'],0,left,['0'],6,2.819586299999173,,,28,18,Vrouw,Rechts,1,
,dotcolour,dotcolour,xotask,28,1,88,388,training,positivefb,84,hard,37,5.849878700000772,['n'],1,right,['0'],6,0.6327234000000317,,,28,18,Vrouw,Rechts,1,
,dotcolour,dotcolour,xotask,29,1,89,389,training,positivefb,55,average,53,1.3992602999996961,['n'],0,left,['8'],4,1.5112890999998854,,,28,18,Vrouw,Rechts,1,
,dotcolour,dotcolour,xotask,30,1,90,390,training,positivefb,98,easy,19,1.7499048999998195,['n'],1,right,['0'],6,1.1493303999995987,,,28,18,Vrouw,Rechts,1,
,dotcolour,dotcolour,xotask,31,1,91,391,training,positivefb,88,average,27,0.8671847000005073,['n'],1,right,['0'],6,0.30046000000038475,,,28,18,Vrouw,Rechts,1,
,dotcolour,dotcolour,xotask,32,1,92,392,training,positivefb,97,easy,15,0.5331248000002233,['n'],1,right,['0'],6,0.2987420999997994,,,28,18,Vrouw,Rechts,1,
,dotcolour,dotcolour,xotask,33,1,93,393,training,positivefb,97,easy,63,1.4167895000000499,['c'],1,left,['0'],6,0.5899005000001125,,,28,18,Vrouw,Rechts,1,
,dotcolour,dotcolour,xotask,34,1,94,394,training,positivefb,88,average,28,1.5176238999993075,['n'],1,right,['0'],6,0.2499574000003122,,,28,18,Vrouw,Rechts,1,
,dotcolour,dotcolour,xotask,35,1,95,395,training,positivefb,94,average,53,2.5661952000000383,['c'],1,left,['9'],5,0.9531291000002966,,,28,18,Vrouw,Rechts,1,
,dotcolour,dotcolour,xotask,36,1,96,396,training,positivefb,96,hard,39,0.9675637999998798,['n'],1,right,['8'],4,0.4448631999994177,,,28,18,Vrouw,Rechts,1,
,dotcolour,dotcolour,xotask,37,1,97,397,training,positivefb,65,hard,39,3.717321300000549,['c'],0,right,['3'],3,0.30265289999988454,,,28,18,Vrouw,Rechts,1,
,dotcolour,dotcolour,xotask,38,1,98,398,training,positivefb,58,easy,17,7.166969899999458,['c'],0,right,['0'],6,0.39619110000057844,,,28,18,Vrouw,Rechts,1,
,dotcolour,dotcolour,xotask,39,1,99,399,training,positivefb,91,easy,17,0.9503919999997379,['n'],1,right,['0'],6,0.34286729999985255,,,28,18,Vrouw,Rechts,1,
,dotcolour,dotcolour,xotask,40,1,100,400,training,positivefb,90,hard,44,1.1505073999996966,['n'],0,left,['0'],6,0.339967599999909,,,28,18,Vrouw,Rechts,1,
,dotcolour,dotcolour,xotask,41,1,101,401,training,positivefb,76,easy,19,0.749917799999821,['n'],1,right,['0'],6,0.2566380999996909,,,28,18,Vrouw,Rechts,1,
,dotcolour,dotcolour,xotask,42,1,102,402,training,positivefb,90,easy,62,1.2833856999995987,['c'],1,left,['0'],6,0.40347709999969084,,,28,18,Vrouw,Rechts,1,
,dotcolour,dotcolour,xotask,43,1,103,403,training,positivefb,85,average,53,1.0336580000002868,['n'],0,left,['0'],6,0.2656940000006216,,,28,18,Vrouw,Rechts,1,
,dotcolour,dotcolour,xotask,44,1,104,404,training,positivefb,80,average,26,0.9998912000000928,['n'],1,right,['0'],6,0.39939830000002985,,,28,18,Vrouw,Rechts,1,
,dotcolour,dotcolour,xotask,45,1,105,405,training,positivefb,67,easy,61,1.182782099999713,['n'],0,left,['0'],6,0.28074560000004567,,,28,18,Vrouw,Rechts,1,
,dotcolour,dotcolour,xotask,46,1,106,406,training,positivefb,82,average,51,1.0496523000001616,['c'],1,left,['0'],6,0.3074667999999292,,,28,18,Vrouw,Rechts,1,
,dotcolour,dotcolour,xotask,47,1,107,407,training,positivefb,98,easy,16,0.7668419999999969,['n'],1,right,['0'],6,0.1929108999993332,,,28,18,Vrouw,Rechts,1,
,dotcolour,dotcolour,xotask,48,1,108,408,training,positivefb,95,average,53,0.3503206000004866,['c'],1,left,['9'],5,0.4834136999998009,,,28,18,Vrouw,Rechts,1,
,dotcolour,dotcolour,xotask,49,1,109,409,training,positivefb,93,easy,62,1.5998602999998184,['n'],0,left,['0'],6,0.28844630000003235,,,28,18,Vrouw,Rechts,1,
,dotcolour,dotcolour,xotask,50,1,110,410,training,positivefb,92,easy,61,1.0676179000001866,['c'],1,left,['0'],6,0.21014199999990524,,,28,18,Vrouw,Rechts,1,
,dotcolour,dotcolour,xotask,51,1,111,411,training,positivefb,47,hard,41,0.9014000999995915,['n'],0,left,['0'],6,0.38975850000042556,,,28,18,Vrouw,Rechts,1,
,dotcolour,dotcolour,xotask,52,1,112,412,training,positivefb,95,average,55,0.9997823000003336,['c'],1,left,['0'],6,1.1825779000000693,,,28,18,Vrouw,Rechts,1,
,dotcolour,dotcolour,xotask,53,1,113,413,training,positivefb,94,average,25,3.26655909999954,['n'],1,right,['0'],6,0.9007486999998946,,,28,18,Vrouw,Rechts,1,
,dotcolour,dotcolour,xotask,54,1,114,414,training,positivefb,76,hard,35,8.78283190000002,['n'],1,right,['0'],6,0.5540469999996276,,,28,18,Vrouw,Rechts,1,
,dotcolour,dotcolour,xotask,55,1,115,415,training,positivefb,99,average,25,2.9162593999999444,['n'],1,right,['0'],6,1.471053700000084,,,28,18,Vrouw,Rechts,1,
,dotcolour,dotcolour,xotask,56,1,116,416,training,positivefb,93,hard,45,1.1322506999995312,['c'],1,left,['0'],6,0.3906734000001961,,,28,18,Vrouw,Rechts,1,
,dotcolour,dotcolour,xotask,57,1,117,417,training,positivefb,90,easy,63,1.1496813000003385,['c'],1,left,['0'],6,0.9848834999993414,,,28,18,Vrouw,Rechts,1,
,dotcolour,dotcolour,xotask,58,1,118,418,training,positivefb,97,hard,36,1.2506287999995038,['n'],1,right,['0'],6,0.4403412000001481,,,28,18,Vrouw,Rechts,1,
,dotcolour,dotcolour,xotask,59,1,119,419,training,positivefb,53,average,54,0.8337024999991627,['n'],0,left,['9'],5,0.5090337999999974,,,28,18,Vrouw,Rechts,1,
,dotcolour,dotcolour,xotask,0,2,120,420,main,positivefb,-99,average,54,1.6845610999998826,['c'],1,left,['0'],6,0.25507590000052005,,,28,18,Vrouw,Rechts,1,
,dotcolour,dotcolour,xotask,1,2,121,421,main,positivefb,-99,easy,19,0.8341984000007869,['n'],1,right,['0'],6,0.5964503000004697,,,28,18,Vrouw,Rechts,1,
,dotcolour,dotcolour,xotask,2,2,122,422,main,positivefb,-99,easy,15,0.8014046999996935,['n'],1,right,['0'],6,0.27797409999948286,,,28,18,Vrouw,Rechts,1,
,dotcolour,dotcolour,xotask,3,2,123,423,main,positivefb,-99,average,27,0.5837226000003284,['n'],1,right,['0'],6,0.2365919000003487,,,28,18,Vrouw,Rechts,1,
,dotcolour,dotcolour,xotask,4,2,124,424,main,positivefb,-99,average,26,0.5837528000001839,['n'],1,right,['0'],6,0.3244626000005155,,,28,18,Vrouw,Rechts,1,
,dotcolour,dotcolour,xotask,5,2,125,425,main,positivefb,-99,average,54,1.6515589999999065,['n'],0,left,['9'],5,0.3276169000000664,,,28,18,Vrouw,Rechts,1,
,dotcolour,dotcolour,xotask,6,2,126,426,main,positivefb,-99,easy,19,1.1172765999999683,['n'],1,right,['0'],6,0.2702171000000817,,,28,18,Vrouw,Rechts,1,
,dotcolour,dotcolour,xotask,7,2,127,427,main,positivefb,-99,average,52,1.0175682999997662,['c'],1,left,['1'],1,0.3484197999996468,,,28,18,Vrouw,Rechts,1,
,dotcolour,dotcolour,xotask,8,2,128,428,main,positivefb,-99,hard,45,1.1350022000005993,['c'],1,left,['0'],6,0.36081169999943086,,,28,18,Vrouw,Rechts,1,
,dotcolour,dotcolour,xotask,9,2,129,429,main,positivefb,-99,easy,62,2.651806900000338,['c'],1,left,['0'],6,0.4581029999999373,,,28,18,Vrouw,Rechts,1,
,dotcolour,dotcolour,xotask,10,2,130,430,main,positivefb,-99,easy,17,0.9172062999996342,['n'],1,right,['0'],6,0.29186250000020664,,,28,18,Vrouw,Rechts,1,
,dotcolour,dotcolour,xotask,11,2,131,431,main,positivefb,-99,hard,38,0.9505134000000908,['n'],1,right,['0'],6,0.2350894999999582,,,28,18,Vrouw,Rechts,1,
,dotcolour,dotcolour,xotask,12,2,132,432,main,positivefb,-99,hard,38,0.6005856000001586,['n'],1,right,['0'],6,0.2827255000001969,,,28,18,Vrouw,Rechts,1,
,dotcolour,dotcolour,xotask,13,2,133,433,main,positivefb,-99,easy,17,0.6510550000002695,['n'],1,right,['0'],6,0.34195290000025125,,,28,18,Vrouw,Rechts,1,
,dotcolour,dotcolour,xotask,14,2,134,434,main,positivefb,-99,easy,15,0.9511808000006567,['n'],1,right,['0'],6,0.47490079999988666,,,28,18,Vrouw,Rechts,1,
,dotcolour,dotcolour,xotask,15,2,135,435,main,positivefb,-99,average,26,0.850913500000388,['n'],1,right,['0'],6,1.2707288000001427,,,28,18,Vrouw,Rechts,1,
,dotcolour,dotcolour,xotask,16,2,136,436,main,positivefb,-99,average,26,4.184437999999318,['n'],1,right,['0'],6,0.4779402999993181,,,28,18,Vrouw,Rechts,1,
,dotcolour,dotcolour,xotask,17,2,137,437,main,positivefb,-99,hard,41,3.517254200000025,['n'],0,left,['0'],6,0.39102009999987786,,,28,18,Vrouw,Rechts,1,
,dotcolour,dotcolour,xotask,18,2,138,438,main,positivefb,-99,average,54,1.2497649000006277,['c'],1,left,['0'],6,1.206395999999586,,,28,18,Vrouw,Rechts,1,
,dotcolour,dotcolour,xotask,19,2,139,439,main,positivefb,-99,hard,44,0.9513253000004624,['c'],1,left,['0'],6,2.9134273999998186,,,28,18,Vrouw,Rechts,1,
,dotcolour,dotcolour,xotask,20,2,140,440,main,positivefb,-99,easy,17,1.9174542000000656,['n'],1,right,['9'],5,0.6016438999995444,,,28,18,Vrouw,Rechts,1,
,dotcolour,dotcolour,xotask,21,2,141,441,main,positivefb,-99,easy,15,0.7674637999998595,['n'],1,right,['0'],6,0.22755490000054124,,,28,18,Vrouw,Rechts,1,
,dotcolour,dotcolour,xotask,22,2,142,442,main,positivefb,-99,average,54,1.2509298000004492,['c'],1,left,['8'],4,1.2659001000001808,,,28,18,Vrouw,Rechts,1,
,dotcolour,dotcolour,xotask,23,2,143,443,main,positivefb,-99,easy,62,1.3846598999998605,['c'],1,left,['0'],6,0.7601793000003454,,,28,18,Vrouw,Rechts,1,
,dotcolour,dotcolour,xotask,24,2,144,444,main,positivefb,-99,hard,42,1.1669647999997323,['c'],1,left,['0'],6,0.42054189999998925,,,28,18,Vrouw,Rechts,1,
,dotcolour,dotcolour,xotask,25,2,145,445,main,positivefb,-99,easy,62,0.7186117999999624,['c'],1,left,['0'],6,0.639667699999336,,,28,18,Vrouw,Rechts,1,
,dotcolour,dotcolour,xotask,26,2,146,446,main,positivefb,-99,easy,17,1.2842335999994248,['n'],1,right,['0'],6,0.2912028000000646,,,28,18,Vrouw,Rechts,1,
,dotcolour,dotcolour,xotask,27,2,147,447,main,positivefb,-99,average,28,1.1676603000005343,['n'],1,right,['0'],6,1.0504104000001462,,,28,18,Vrouw,Rechts,1,
,dotcolour,dotcolour,xotask,28,2,148,448,main,positivefb,-99,easy,61,0.8839846000000762,['c'],1,left,['0'],6,0.41425820000040403,,,28,18,Vrouw,Rechts,1,
,dotcolour,dotcolour,xotask,29,2,149,449,main,positivefb,-99,hard,43,1.2680558000001838,['n'],0,left,['0'],6,0.3236304000001837,,,28,18,Vrouw,Rechts,1,
,dotcolour,dotcolour,xotask,30,2,150,450,main,positivefb,-99,average,53,0.8348099999993792,['c'],1,left,['0'],6,0.4949901999998474,,,28,18,Vrouw,Rechts,1,
,dotcolour,dotcolour,xotask,31,2,151,451,main,positivefb,-99,average,26,1.4503678000000946,['n'],1,right,['0'],6,0.3537277000004906,,,28,18,Vrouw,Rechts,1,
,dotcolour,dotcolour,xotask,32,2,152,452,main,positivefb,-99,easy,61,1.0000270999998975,['c'],1,left,['0'],6,0.8684647000000041,,,28,18,Vrouw,Rechts,1,
,dotcolour,dotcolour,xotask,33,2,153,453,main,positivefb,-99,average,51,1.2837514000002557,['c'],1,left,['0'],6,0.31145740000010846,,,28,18,Vrouw,Rechts,1,
,dotcolour,dotcolour,xotask,34,2,154,454,main,positivefb,-99,average,28,0.9331958000002487,['n'],1,right,['0'],6,0.262553200000184,,,28,18,Vrouw,Rechts,1,
,dotcolour,dotcolour,xotask,35,2,155,455,main,positivefb,-99,hard,42,1.2513606000002255,['n'],0,left,['0'],6,0.27561250000053406,,,28,18,Vrouw,Rechts,1,
,dotcolour,dotcolour,xotask,36,2,156,456,main,positivefb,-99,hard,39,2.1021216999997705,['c'],0,right,['8'],4,4.269500600000356,,,28,18,Vrouw,Rechts,1,
,dotcolour,dotcolour,xotask,37,2,157,457,main,positivefb,-99,hard,39,3.4009388000004037,['n'],1,right,['0'],6,0.34744270000010147,,,28,18,Vrouw,Rechts,1,
,dotcolour,dotcolour,xotask,38,2,158,458,main,positivefb,-99,easy,19,2.483493400000043,['c'],0,right,['0'],6,0.7229465999998865,,,28,18,Vrouw,Rechts,1,
,dotcolour,dotcolour,xotask,39,2,159,459,main,positivefb,-99,hard,35,0.9341794000001755,['n'],1,right,['0'],6,0.26648380000006,,,28,18,Vrouw,Rechts,1,
,dotcolour,dotcolour,xotask,40,2,160,460,main,positivefb,-99,hard,43,0.5173342999996748,['n'],0,left,['9'],5,0.29101710000031744,,,28,18,Vrouw,Rechts,1,
,dotcolour,dotcolour,xotask,41,2,161,461,main,positivefb,-99,easy,61,0.9516369000002669,['n'],0,left,['9'],5,0.43476559999999154,,,28,18,Vrouw,Rechts,1,
,dotcolour,dotcolour,xotask,42,2,162,462,main,positivefb,-99,average,25,0.7660834000007526,['n'],1,right,['0'],6,0.3160618000001705,,,28,18,Vrouw,Rechts,1,
,dotcolour,dotcolour,xotask,43,2,163,463,main,positivefb,-99,easy,62,4.25012869999955,['c'],1,left,['3'],3,3.4536050999995496,,,28,18,Vrouw,Rechts,1,
,dotcolour,dotcolour,xotask,44,2,164,464,main,positivefb,-99,hard,35,1.6348619999998846,['n'],1,right,['8'],4,0.8592671999995218,,,28,18,Vrouw,Rechts,1,
,dotcolour,dotcolour,xotask,45,2,165,465,main,positivefb,-99,average,55,1.034407399999509,['n'],0,left,['8'],4,1.0723948000004384,,,28,18,Vrouw,Rechts,1,
,dotcolour,dotcolour,xotask,46,2,166,466,main,positivefb,-99,average,29,2.8510769000004075,['n'],1,right,['0'],6,5.388569799999459,,,28,18,Vrouw,Rechts,1,
,dotcolour,dotcolour,xotask,47,2,167,467,main,positivefb,-99,hard,39,1.034332799999902,['n'],1,right,['9'],5,0.30055300000003626,,,28,18,Vrouw,Rechts,1,
,dotcolour,dotcolour,xotask,48,2,168,468,main,positivefb,-99,average,26,0.8842439000000013,['n'],1,right,['9'],5,0.3577256999997189,,,28,18,Vrouw,Rechts,1,
,dotcolour,dotcolour,xotask,49,2,169,469,main,positivefb,-99,easy,63,1.3676973000001453,['c'],1,left,['0'],6,0.6817962999994052,,,28,18,Vrouw,Rechts,1,
,dotcolour,dotcolour,xotask,50,2,170,470,main,positivefb,-99,hard,42,3.7182301000002553,['n'],0,left,['0'],6,1.4667938000002323,,,28,18,Vrouw,Rechts,1,
,dotcolour,dotcolour,xotask,51,2,171,471,main,positivefb,-99,easy,61,1.3674035999993066,['c'],1,left,['0'],6,0.2899365000002945,,,28,18,Vrouw,Rechts,1,
,dotcolour,dotcolour,xotask,52,2,172,472,main,positivefb,-99,easy,61,1.017359800000122,['c'],1,left,['0'],6,0.7106880999999703,,,28,18,Vrouw,Rechts,1,
,dotcolour,dotcolour,xotask,53,2,173,473,main,positivefb,-99,average,54,5.818052699999498,['n'],0,left,['0'],6,0.4587215000001379,,,28,18,Vrouw,Rechts,1,
,dotcolour,dotcolour,xotask,54,2,174,474,main,positivefb,-99,hard,42,3.901346800000283,['n'],0,left,['0'],6,0.4775430999998207,,,28,18,Vrouw,Rechts,1,
,dotcolour,dotcolour,xotask,55,2,175,475,main,positivefb,-99,hard,42,1.3021930999993856,['n'],0,left,['9'],5,2.079740299999685,,,28,18,Vrouw,Rechts,1,
,dotcolour,dotcolour,xotask,56,2,176,476,main,positivefb,-99,hard,39,1.0510287000006429,['n'],1,right,['0'],6,5.051212399999713,,,28,18,Vrouw,Rechts,1,
,dotcolour,dotcolour,xotask,57,2,177,477,main,positivefb,-99,hard,38,2.8169590999996217,['n'],1,right,['0'],6,0.8095728999996936,,,28,18,Vrouw,Rechts,1,
,dotcolour,dotcolour,xotask,58,2,178,478,main,positivefb,-99,average,53,1.400698299999931,['n'],0,left,['8'],4,6.578065400000014,,,28,18,Vrouw,Rechts,1,
,dotcolour,dotcolour,xotask,59,2,179,479,main,positivefb,-99,hard,36,1.4010733999994045,['c'],0,right,['0'],6,5.420841799999835,,,28,18,Vrouw,Rechts,1,
,dotcolour,dotcolour,xotask,0,3,180,480,main,positivefb,-99,hard,36,2.0179151000002093,['n'],1,right,['0'],6,0.2448106000001644,,,28,18,Vrouw,Rechts,1,
,dotcolour,dotcolour,xotask,1,3,181,481,main,positivefb,-99,average,27,0.5843587999997908,['n'],1,right,['0'],6,0.2203748000001724,,,28,18,Vrouw,Rechts,1,
,dotcolour,dotcolour,xotask,2,3,182,482,main,positivefb,-99,average,51,0.9495057000003726,['c'],1,left,['9'],5,0.6303619000000253,,,28,18,Vrouw,Rechts,1,
,dotcolour,dotcolour,xotask,3,3,183,483,main,positivefb,-99,easy,16,0.6996884999998656,['n'],1,right,['0'],6,0.40338789999987057,,,28,18,Vrouw,Rechts,1,
,dotcolour,dotcolour,xotask,4,3,184,484,main,positivefb,-99,easy,15,0.5352977000002284,['n'],1,right,['0'],6,0.2453493000002709,,,28,18,Vrouw,Rechts,1,
,dotcolour,dotcolour,xotask,5,3,185,485,main,positivefb,-99,hard,45,1.0514493000000584,['n'],0,left,['8'],4,0.3149476999997205,,,28,18,Vrouw,Rechts,1,
,dotcolour,dotcolour,xotask,6,3,186,486,main,positivefb,-99,hard,36,1.0179101000003357,['n'],1,right,['8'],4,0.2629793999994945,,,28,18,Vrouw,Rechts,1,
,dotcolour,dotcolour,xotask,7,3,187,487,main,positivefb,-99,easy,62,0.7009118999994826,['c'],1,left,['0'],6,0.6653673999999228,,,28,18,Vrouw,Rechts,1,
,dotcolour,dotcolour,xotask,8,3,188,488,main,positivefb,-99,hard,41,0.8501556999999593,['c'],1,left,['0'],6,0.5091173999999228,,,28,18,Vrouw,Rechts,1,
,dotcolour,dotcolour,xotask,9,3,189,489,main,positivefb,-99,hard,41,0.751611500000763,['c'],1,left,['0'],6,0.2599492999997892,,,28,18,Vrouw,Rechts,1,
,dotcolour,dotcolour,xotask,10,3,190,490,main,positivefb,-99,average,29,0.9510985999995683,['n'],1,right,['0'],6,0.20499890000064624,,,28,18,Vrouw,Rechts,1,
,dotcolour,dotcolour,xotask,11,3,191,491,main,positivefb,-99,hard,36,0.583382700000584,['n'],1,right,['9'],5,0.5097386999996161,,,28,18,Vrouw,Rechts,1,
,dotcolour,dotcolour,xotask,12,3,192,492,main,positivefb,-99,hard,36,0.5006714999999531,['n'],1,right,['9'],5,0.3108484000003955,,,28,18,Vrouw,Rechts,1,
,dotcolour,dotcolour,xotask,13,3,193,493,main,positivefb,-99,easy,61,0.6504242000000886,['n'],0,left,['9'],5,0.3455198999999993,,,28,18,Vrouw,Rechts,1,
,dotcolour,dotcolour,xotask,14,3,194,494,main,positivefb,-99,hard,42,1.1844785000002958,['n'],0,left,['9'],5,0.27710430000024644,,,28,18,Vrouw,Rechts,1,
,dotcolour,dotcolour,xotask,15,3,195,495,main,positivefb,-99,easy,17,0.7849816000007195,['n'],1,right,['0'],6,0.3325125000001208,,,28,18,Vrouw,Rechts,1,
,dotcolour,dotcolour,xotask,16,3,196,496,main,positivefb,-99,average,27,0.46734980000019277,['n'],1,right,['0'],6,0.4128747000004296,,,28,18,Vrouw,Rechts,1,
,dotcolour,dotcolour,xotask,17,3,197,497,main,positivefb,-99,easy,61,0.9008826999997837,['c'],1,left,['0'],6,0.6414946999993845,,,28,18,Vrouw,Rechts,1,
,dotcolour,dotcolour,xotask,18,3,198,498,main,positivefb,-99,average,27,1.5337980000003881,['c'],0,right,['8'],4,0.5390671000004659,,,28,18,Vrouw,Rechts,1,
,dotcolour,dotcolour,xotask,19,3,199,499,main,positivefb,-99,average,25,0.8351505999999063,['c'],0,right,['8'],4,0.6454641999998785,,,28,18,Vrouw,Rechts,1,
,dotcolour,dotcolour,xotask,20,3,200,500,main,positivefb,-99,average,55,1.0179975000000923,['c'],1,left,['8'],4,0.3080297000005885,,,28,18,Vrouw,Rechts,1,
,dotcolour,dotcolour,xotask,21,3,201,501,main,positivefb,-99,average,51,0.9015387999997984,['c'],1,left,['8'],4,0.3328766999993604,,,28,18,Vrouw,Rechts,1,
,dotcolour,dotcolour,xotask,22,3,202,502,main,positivefb,-99,average,54,0.9007113999996363,['c'],1,left,['8'],4,0.30835859999933746,,,28,18,Vrouw,Rechts,1,
,dotcolour,dotcolour,xotask,23,3,203,503,main,positivefb,-99,hard,39,1.5000029999991966,['c'],0,right,['8'],4,0.4211312999996153,,,28,18,Vrouw,Rechts,1,
,dotcolour,dotcolour,xotask,24,3,204,504,main,positivefb,-99,average,52,1.5180084000003262,['c'],1,left,['8'],4,0.43234469999970315,,,28,18,Vrouw,Rechts,1,
,dotcolour,dotcolour,xotask,25,3,205,505,main,positivefb,-99,hard,38,3.4841345000004367,['n'],1,right,['0'],6,0.9960387000000992,,,28,18,Vrouw,Rechts,1,
,dotcolour,dotcolour,xotask,26,3,206,506,main,positivefb,-99,average,53,0.9511345999999321,['c'],1,left,['0'],6,0.39151270000002114,,,28,18,Vrouw,Rechts,1,
,dotcolour,dotcolour,xotask,27,3,207,507,main,positivefb,-99,hard,45,0.8515416000000187,['c'],1,left,['9'],5,0.3909817000003386,,,28,18,Vrouw,Rechts,1,
,dotcolour,dotcolour,xotask,28,3,208,508,main,positivefb,-99,hard,42,0.6831763000000137,['c'],1,left,['9'],5,0.30972709999969084,,,28,18,Vrouw,Rechts,1,
,dotcolour,dotcolour,xotask,29,3,209,509,main,positivefb,-99,easy,18,1.6017886999998154,['n'],1,right,['9'],5,0.38540699999975914,,,28,18,Vrouw,Rechts,1,
,dotcolour,dotcolour,xotask,30,3,210,510,main,positivefb,-99,easy,65,1.0012712000007014,['c'],1,left,['9'],5,0.31542090000039025,,,28,18,Vrouw,Rechts,1,
,dotcolour,dotcolour,xotask,31,3,211,511,main,positivefb,-99,hard,45,0.8009956000005332,['c'],1,left,['9'],5,0.2313125000000582,,,28,18,Vrouw,Rechts,1,
,dotcolour,dotcolour,xotask,32,3,212,512,main,positivefb,-99,easy,63,1.3353720000004614,['c'],1,left,['9'],5,0.2728121000000101,,,28,18,Vrouw,Rechts,1,
,dotcolour,dotcolour,xotask,33,3,213,513,main,positivefb,-99,easy,16,7.8839460999997755,['n'],1,right,['1'],1,0.7402305999994496,,,28,18,Vrouw,Rechts,1,
,dotcolour,dotcolour,xotask,34,3,214,514,main,positivefb,-99,hard,43,1.333824999999706,['c'],1,left,['0'],6,0.6976574999998775,,,28,18,Vrouw,Rechts,1,
,dotcolour,dotcolour,xotask,35,3,215,515,main,positivefb,-99,easy,15,0.8180251000003409,['n'],1,right,['0'],6,0.28567019999991317,,,28,18,Vrouw,Rechts,1,
,dotcolour,dotcolour,xotask,36,3,216,516,main,positivefb,-99,average,28,0.8843307000006462,['n'],1,right,['0'],6,0.18403739999939717,,,28,18,Vrouw,Rechts,1,
,dotcolour,dotcolour,xotask,37,3,217,517,main,positivefb,-99,easy,62,0.7671120999993946,['n'],0,left,['9'],5,0.45881890000055137,,,28,18,Vrouw,Rechts,1,
,dotcolour,dotcolour,xotask,38,3,218,518,main,positivefb,-99,hard,45,1.2840994000007413,['n'],0,left,['0'],6,1.1577897999995912,,,28,18,Vrouw,Rechts,1,
,dotcolour,dotcolour,xotask,39,3,219,519,main,positivefb,-99,average,52,4.300225500000124,['c'],1,left,['0'],6,0.5892156999998406,,,28,18,Vrouw,Rechts,1,
,dotcolour,dotcolour,xotask,40,3,220,520,main,positivefb,-99,hard,44,1.551013199999943,['c'],1,left,['0'],6,0.4080755000004501,,,28,18,Vrouw,Rechts,1,
,dotcolour,dotcolour,xotask,41,3,221,521,main,positivefb,-99,easy,65,0.7332533999997395,['c'],1,left,['0'],6,0.2761418000000049,,,28,18,Vrouw,Rechts,1,
,dotcolour,dotcolour,xotask,42,3,222,522,main,positivefb,-99,easy,15,1.2841037999996843,['n'],1,right,['0'],6,0.34239440000055765,,,28,18,Vrouw,Rechts,1,
,dotcolour,dotcolour,xotask,43,3,223,523,main,positivefb,-99,average,29,1.568136500000037,['n'],1,right,['0'],6,0.2265661999999793,,,28,18,Vrouw,Rechts,1,
,dotcolour,dotcolour,xotask,44,3,224,524,main,positivefb,-99,easy,64,5.25091059999977,['n'],0,left,['0'],6,0.33709540000018023,,,28,18,Vrouw,Rechts,1,
,dotcolour,dotcolour,xotask,45,3,225,525,main,positivefb,-99,easy,17,0.783830699999271,['n'],1,right,['0'],6,0.2769760999999562,,,28,18,Vrouw,Rechts,1,
,dotcolour,dotcolour,xotask,46,3,226,526,main,positivefb,-99,hard,37,1.3011880000003657,['n'],1,right,['0'],6,0.42294089999995776,,,28,18,Vrouw,Rechts,1,
,dotcolour,dotcolour,xotask,47,3,227,527,main,positivefb,-99,hard,36,1.317905900000369,['n'],1,right,['9'],5,0.4991030999999566,,,28,18,Vrouw,Rechts,1,
,dotcolour,dotcolour,xotask,48,3,228,528,main,positivefb,-99,easy,61,0.8344866000006732,['c'],1,left,['9'],5,0.4936835999997129,,,28,18,Vrouw,Rechts,1,
,dotcolour,dotcolour,xotask,49,3,229,529,main,positivefb,-99,easy,62,0.9170105000002877,['c'],1,left,['9'],5,0.3424803999996584,,,28,18,Vrouw,Rechts,1,
,dotcolour,dotcolour,xotask,50,3,230,530,main,positivefb,-99,average,54,1.7341861000004428,['c'],1,left,['9'],5,0.4694243000003553,,,28,18,Vrouw,Rechts,1,
,dotcolour,dotcolour,xotask,51,3,231,531,main,positivefb,-99,average,27,0.9679199999991397,['n'],1,right,['0'],6,0.2519394999999349,,,28,18,Vrouw,Rechts,1,
,dotcolour,dotcolour,xotask,52,3,232,532,main,positivefb,-99,hard,35,1.1018202000004749,['n'],1,right,['0'],6,0.5501436000004105,,,28,18,Vrouw,Rechts,1,
,dotcolour,dotcolour,xotask,53,3,233,533,main,positivefb,-99,average,55,2.833917400000246,['n'],0,left,['0'],6,0.21566299999994953,,,28,18,Vrouw,Rechts,1,
,dotcolour,dotcolour,xotask,54,3,234,534,main,positivefb,-99,average,28,0.7007579999999507,['n'],1,right,['9'],5,0.49204400000053283,,,28,18,Vrouw,Rechts,1,
,dotcolour,dotcolour,xotask,55,3,235,535,main,positivefb,-99,hard,35,1.9174542999999176,['n'],1,right,['9'],5,0.6126993999996557,,,28,18,Vrouw,Rechts,1,
,dotcolour,dotcolour,xotask,56,3,236,536,main,positivefb,-99,average,29,0.6174957000002905,['n'],1,right,['9'],5,0.34113950000028126,,,28,18,Vrouw,Rechts,1,
,dotcolour,dotcolour,xotask,57,3,237,537,main,positivefb,-99,easy,18,0.5009565999998813,['n'],1,right,['9'],5,0.32452639999974053,,,28,18,Vrouw,Rechts,1,
,dotcolour,dotcolour,xotask,58,3,238,538,main,positivefb,-99,easy,18,1.0677746999999727,['n'],1,right,['9'],5,0.4935222000003705,,,28,18,Vrouw,Rechts,1,
,dotcolour,dotcolour,xotask,59,3,239,539,main,positivefb,-99,average,54,1.501442699999643,['c'],1,left,['9'],5,0.3347736999994595,,,28,18,Vrouw,Rechts,1,
,dotcolour,dotcolour,xotask,0,4,240,540,main,positivefb,-99,average,55,3.934646500000781,['n'],0,left,['0'],6,0.2894408999991356,,,28,18,Vrouw,Rechts,1,
,dotcolour,dotcolour,xotask,1,4,241,541,main,positivefb,-99,easy,16,0.5840414000003875,['n'],1,right,['9'],5,0.2800978999994186,,,28,18,Vrouw,Rechts,1,
,dotcolour,dotcolour,xotask,2,4,242,542,main,positivefb,-99,hard,45,0.6677682999998069,['c'],1,left,['9'],5,0.37060360000032233,,,28,18,Vrouw,Rechts,1,
,dotcolour,dotcolour,xotask,3,4,243,543,main,positivefb,-99,hard,35,0.8172479999993811,['n'],1,right,['9'],5,0.25984059999973397,,,28,18,Vrouw,Rechts,1,
,dotcolour,dotcolour,xotask,4,4,244,544,main,positivefb,-99,average,28,0.6516360999994504,['n'],1,right,['9'],5,0.27309239999976853,,,28,18,Vrouw,Rechts,1,
,dotcolour,dotcolour,xotask,5,4,245,545,main,positivefb,-99,average,53,0.867139799999677,['c'],1,left,['9'],5,0.2923417000001791,,,28,18,Vrouw,Rechts,1,
,dotcolour,dotcolour,xotask,6,4,246,546,main,positivefb,-99,average,54,0.6844421999994665,['c'],1,left,['9'],5,0.35045399999944493,,,28,18,Vrouw,Rechts,1,
,dotcolour,dotcolour,xotask,7,4,247,547,main,positivefb,-99,easy,62,0.41766780000034487,['c'],1,left,['9'],5,0.3925171999999293,,,28,18,Vrouw,Rechts,1,
,dotcolour,dotcolour,xotask,8,4,248,548,main,positivefb,-99,easy,63,0.6340684999995574,['c'],1,left,['9'],5,0.3600940000005721,,,28,18,Vrouw,Rechts,1,
,dotcolour,dotcolour,xotask,9,4,249,549,main,positivefb,-99,easy,15,4.302138400000331,['n'],1,right,['0'],6,0.7827790000001187,,,28,18,Vrouw,Rechts,1,
,dotcolour,dotcolour,xotask,10,4,250,550,main,positivefb,-99,hard,38,0.9844094000000041,['n'],1,right,['0'],6,0.18476169999939884,,,28,18,Vrouw,Rechts,1,
,dotcolour,dotcolour,xotask,11,4,251,551,main,positivefb,-99,easy,15,0.7178776999999172,['n'],1,right,['0'],6,0.21423260000028677,,,28,18,Vrouw,Rechts,1,
,dotcolour,dotcolour,xotask,12,4,252,552,main,positivefb,-99,average,27,0.5672494999998889,['n'],1,right,['9'],5,0.2718169999998281,,,28,18,Vrouw,Rechts,1,
,dotcolour,dotcolour,xotask,13,4,253,553,main,positivefb,-99,easy,16,0.4680757000005542,['n'],1,right,['9'],5,0.3720535000002201,,,28,18,Vrouw,Rechts,1,
,dotcolour,dotcolour,xotask,14,4,254,554,main,positivefb,-99,easy,61,3.1851377000002685,['n'],0,left,['8'],4,1.4220639999994091,,,28,18,Vrouw,Rechts,1,
,dotcolour,dotcolour,xotask,15,4,255,555,main,positivefb,-99,average,29,4.784636999999748,['n'],1,right,['0'],6,0.9183026000000609,,,28,18,Vrouw,Rechts,1,
,dotcolour,dotcolour,xotask,16,4,256,556,main,positivefb,-99,easy,18,0.8011832000001959,['n'],1,right,['0'],6,0.21073059999980615,,,28,18,Vrouw,Rechts,1,
,dotcolour,dotcolour,xotask,17,4,257,557,main,positivefb,-99,average,54,0.9675157000001491,['c'],1,left,['9'],5,0.6774068000004263,,,28,18,Vrouw,Rechts,1,
,dotcolour,dotcolour,xotask,18,4,258,558,main,positivefb,-99,average,54,0.9342413000003944,['c'],1,left,['9'],5,0.8610247000005984,,,28,18,Vrouw,Rechts,1,
,dotcolour,dotcolour,xotask,19,4,259,559,main,positivefb,-99,hard,37,3.5002283000003445,['n'],1,right,['0'],6,0.624633299999914,,,28,18,Vrouw,Rechts,1,
,dotcolour,dotcolour,xotask,20,4,260,560,main,positivefb,-99,hard,37,1.3853491999998369,['n'],1,right,['0'],6,0.20888919999924838,,,28,18,Vrouw,Rechts,1,
,dotcolour,dotcolour,xotask,21,4,261,561,main,positivefb,-99,easy,17,0.5688617000005252,['n'],1,right,['0'],6,0.2663720000000467,,,28,18,Vrouw,Rechts,1,
,dotcolour,dotcolour,xotask,22,4,262,562,main,positivefb,-99,hard,41,1.1841058999998495,['n'],0,left,['0'],6,0.29741720000038185,,,28,18,Vrouw,Rechts,1,
,dotcolour,dotcolour,xotask,23,4,263,563,main,positivefb,-99,hard,37,0.7011772000005294,['n'],1,right,['0'],6,0.4262791000001016,,,28,18,Vrouw,Rechts,1,
,dotcolour,dotcolour,xotask,24,4,264,564,main,positivefb,-99,hard,41,0.8848692000001392,['n'],0,left,['9'],5,0.5112836999996944,,,28,18,Vrouw,Rechts,1,
,dotcolour,dotcolour,xotask,25,4,265,565,main,positivefb,-99,hard,44,0.9665259000003061,['c'],1,left,['9'],5,0.30092789999980596,,,28,18,Vrouw,Rechts,1,
,dotcolour,dotcolour,xotask,26,4,266,566,main,positivefb,-99,hard,39,1.0012612000000445,['c'],0,right,['9'],5,0.3215056999997614,,,28,18,Vrouw,Rechts,1,
,dotcolour,dotcolour,xotask,27,4,267,567,main,positivefb,-99,easy,65,0.8514213999997082,['c'],1,left,['9'],5,0.6439768999998705,,,28,18,Vrouw,Rechts,1,
,dotcolour,dotcolour,xotask,28,4,268,568,main,positivefb,-99,average,53,0.9670635000002221,['c'],1,left,['9'],5,0.25267389999953593,,,28,18,Vrouw,Rechts,1,
,dotcolour,dotcolour,xotask,29,4,269,569,main,positivefb,-99,hard,36,0.9832147999995868,['c'],0,right,['0'],6,0.2043057000000772,,,28,18,Vrouw,Rechts,1,
,dotcolour,dotcolour,xotask,30,4,270,570,main,positivefb,-99,average,26,2.4505662000001394,['n'],1,right,['0'],6,0.23465099999975791,,,28,18,Vrouw,Rechts,1,
,dotcolour,dotcolour,xotask,31,4,271,571,main,positivefb,-99,easy,19,1.5343033999997715,['n'],1,right,['0'],6,0.2923774000000776,,,28,18,Vrouw,Rechts,1,
,dotcolour,dotcolour,xotask,32,4,272,572,main,positivefb,-99,hard,45,1.167750600000545,['c'],1,left,['0'],6,0.30680110000048444,,,28,18,Vrouw,Rechts,1,
,dotcolour,dotcolour,xotask,33,4,273,573,main,positivefb,-99,average,55,0.6512845000006564,['c'],1,left,['0'],6,0.20605820000037056,,,28,18,Vrouw,Rechts,1,
,dotcolour,dotcolour,xotask,34,4,274,574,main,positivefb,-99,easy,62,0.6683859999993729,['c'],1,left,['0'],6,0.21976059999997233,,,28,18,Vrouw,Rechts,1,
,dotcolour,dotcolour,xotask,35,4,275,575,main,positivefb,-99,easy,61,0.5508086999998341,['c'],1,left,['9'],5,0.35778469999968365,,,28,18,Vrouw,Rechts,1,
,dotcolour,dotcolour,xotask,36,4,276,576,main,positivefb,-99,hard,42,0.48407919999954174,['c'],1,left,['0'],6,0.2779201000003013,,,28,18,Vrouw,Rechts,1,
,dotcolour,dotcolour,xotask,37,4,277,577,main,positivefb,-99,easy,62,0.9348233000000619,['c'],1,left,['9'],5,0.3656272000007448,,,28,18,Vrouw,Rechts,1,
,dotcolour,dotcolour,xotask,38,4,278,578,main,positivefb,-99,average,25,2.2504158000001553,['c'],0,right,['9'],5,0.43818780000037805,,,28,18,Vrouw,Rechts,1,
,dotcolour,dotcolour,xotask,39,4,279,579,main,positivefb,-99,average,27,1.1678910000000542,['c'],0,right,['9'],5,0.16611859999920853,,,28,18,Vrouw,Rechts,1,
,dotcolour,dotcolour,xotask,40,4,280,580,main,positivefb,-99,hard,41,0.7504257999999027,['c'],1,left,['9'],5,0.37057649999951536,,,28,18,Vrouw,Rechts,1,
,dotcolour,dotcolour,xotask,41,4,281,581,main,positivefb,-99,easy,64,0.43449650000002293,['c'],1,left,['0'],6,0.578957900000205,,,28,18,Vrouw,Rechts,1,
,dotcolour,dotcolour,xotask,42,4,282,582,main,positivefb,-99,average,28,0.9171565999995437,['n'],1,right,['9'],5,0.3283852999993542,,,28,18,Vrouw,Rechts,1,
,dotcolour,dotcolour,xotask,43,4,283,583,main,positivefb,-99,average,54,0.6350500999997166,['n'],0,left,['9'],5,0.41964290000032634,,,28,18,Vrouw,Rechts,1,
,dotcolour,dotcolour,xotask,44,4,284,584,main,positivefb,-99,hard,38,0.45102479999968637,['n'],1,right,['9'],5,0.2730037999999695,,,28,18,Vrouw,Rechts,1,
,dotcolour,dotcolour,xotask,45,4,285,585,main,positivefb,-99,hard,35,0.5513688000000911,['n'],1,right,['9'],5,0.3374013999991803,,,28,18,Vrouw,Rechts,1,
,dotcolour,dotcolour,xotask,46,4,286,586,main,positivefb,-99,hard,45,3.167296499999793,['n'],0,left,['9'],5,0.3820861000003788,,,28,18,Vrouw,Rechts,1,
,dotcolour,dotcolour,xotask,47,4,287,587,main,positivefb,-99,hard,41,1.0009068999997908,['n'],0,left,['9'],5,0.2712791999992987,,,28,18,Vrouw,Rechts,1,
,dotcolour,dotcolour,xotask,48,4,288,588,main,positivefb,-99,easy,64,0.7833846000003177,['c'],1,left,['9'],5,0.2627075000000332,,,28,18,Vrouw,Rechts,1,
,dotcolour,dotcolour,xotask,49,4,289,589,main,positivefb,-99,average,54,0.717430499999864,['n'],0,left,['9'],5,0.280698399999892,,,28,18,Vrouw,Rechts,1,
,dotcolour,dotcolour,xotask,50,4,290,590,main,positivefb,-99,average,51,0.5674979000004896,['c'],1,left,['9'],5,0.2794170999995913,,,28,18,Vrouw,Rechts,1,
,dotcolour,dotcolour,xotask,51,4,291,591,main,positivefb,-99,hard,37,2.5509108000005654,['n'],1,right,['0'],6,0.29577379999955156,,,28,18,Vrouw,Rechts,1,
,dotcolour,dotcolour,xotask,52,4,292,592,main,positivefb,-99,easy,17,7.051750699999502,['c'],0,right,['9'],5,1.1545987999998033,,,28,18,Vrouw,Rechts,1,
,dotcolour,dotcolour,xotask,53,4,293,593,main,positivefb,-99,easy,17,2.451004400000784,['c'],0,right,['8'],4,0.64380170000004,,,28,18,Vrouw,Rechts,1,
,dotcolour,dotcolour,xotask,54,4,294,594,main,positivefb,-99,average,25,0.8176094000000376,['n'],1,right,['0'],6,0.3464780000003884,,,28,18,Vrouw,Rechts,1,
,dotcolour,dotcolour,xotask,55,4,295,595,main,positivefb,-99,hard,45,1.1835935999997673,['n'],0,left,['8'],4,0.2863808000001882,,,28,18,Vrouw,Rechts,1,
,dotcolour,dotcolour,xotask,56,4,296,596,main,positivefb,-99,average,28,0.5850749999999607,['n'],1,right,['8'],4,0.34064479999960895,,,28,18,Vrouw,Rechts,1,
,dotcolour,dotcolour,xotask,57,4,297,597,main,positivefb,-99,easy,18,2.4836319999994885,['n'],1,right,['8'],4,1.964927699999862,,,28,18,Vrouw,Rechts,1,
,dotcolour,dotcolour,xotask,58,4,298,598,main,positivefb,-99,average,27,1.9014288999997007,['n'],1,right,['0'],6,0.45099840000057156,,,28,18,Vrouw,Rechts,1,
,dotcolour,dotcolour,xotask,59,4,299,599,main,positivefb,-99,easy,62,3.117696299999807,['c'],1,left,['9'],5,1.0522829999999885,,,28,18,Vrouw,Rechts,1,
,dotcolour,dotcolour,xotask,0,0,0,600,training,positivefb,85,average,29,4.30112839999947,['n'],1,right,['9'],5,0.7848608000003878,,,28,18,Vrouw,Rechts,1,
,dotcolour,dotcolour,xotask,1,0,1,601,training,positivefb,89,easy,65,0.849620999999388,['c'],1,left,['0'],6,0.7752680000003238,,,28,18,Vrouw,Rechts,1,
,dotcolour,dotcolour,xotask,2,0,2,602,training,positivefb,95,easy,61,0.7505639999999403,['c'],1,left,['0'],6,0.33087630000045465,,,28,18,Vrouw,Rechts,1,
,dotcolour,dotcolour,xotask,3,0,3,603,training,positivefb,92,easy,61,0.5511728999999832,['c'],1,left,['0'],6,0.2631899000007252,,,28,18,Vrouw,Rechts,1,
,dotcolour,dotcolour,xotask,4,0,4,604,training,positivefb,86,hard,45,0.8178642000002583,['c'],1,left,['0'],6,0.29342369999994844,,,28,18,Vrouw,Rechts,1,
,dotcolour,dotcolour,xotask,5,0,5,605,training,positivefb,98,average,25,0.8001196999994136,['n'],1,right,['8'],4,0.361079599999357,,,28,18,Vrouw,Rechts,1,
,dotcolour,dotcolour,xotask,6,0,6,606,training,positivefb,95,hard,35,0.9656883999996353,['n'],1,right,['8'],4,0.6764546000003975,,,28,18,Vrouw,Rechts,1,
,dotcolour,dotcolour,xotask,7,0,7,607,training,positivefb,92,easy,18,1.1660883000004105,['n'],1,right,['9'],5,1.8679276000002574,,,28,18,Vrouw,Rechts,1,
,dotcolour,dotcolour,xotask,8,0,8,608,training,positivefb,81,easy,19,1.6825459000001501,['n'],1,right,['9'],5,0.5658041999995476,,,28,18,Vrouw,Rechts,1,
,dotcolour,dotcolour,xotask,9,0,9,609,training,positivefb,91,easy,18,0.6171100999999908,['n'],1,right,['9'],5,0.3102608999997756,,,28,18,Vrouw,Rechts,1,
,dotcolour,dotcolour,xotask,10,0,10,610,training,positivefb,95,hard,37,0.7165513999998439,['n'],1,right,['9'],5,0.2531890000000203,,,28,18,Vrouw,Rechts,1,
,dotcolour,dotcolour,xotask,11,0,11,611,training,positivefb,91,hard,43,0.8000019999999495,['n'],0,left,['9'],5,0.21925680000003922,,,28,18,Vrouw,Rechts,1,
,dotcolour,dotcolour,xotask,12,0,12,612,training,positivefb,91,hard,42,1.3000361999993402,['n'],0,left,['9'],5,0.2706919000002017,,,28,18,Vrouw,Rechts,1,
,dotcolour,dotcolour,xotask,13,0,13,613,training,positivefb,89,hard,39,5.13402380000025,['c'],0,right,['0'],6,1.1744135999997525,,,28,18,Vrouw,Rechts,1,
,dotcolour,dotcolour,xotask,14,0,14,614,training,positivefb,84,easy,63,1.0847463000000062,['c'],1,left,['0'],6,0.30067550000057963,,,28,18,Vrouw,Rechts,1,
,dotcolour,dotcolour,xotask,15,0,15,615,training,positivefb,90,average,28,1.2004342000000179,['n'],1,right,['0'],6,0.41686589999972057,,,28,18,Vrouw,Rechts,1,
,dotcolour,dotcolour,xotask,16,0,16,616,training,positivefb,99,easy,16,0.8843290000004345,['n'],1,right,['0'],6,0.9568082999994658,,,28,18,Vrouw,Rechts,1,
,dotcolour,dotcolour,xotask,17,0,17,617,training,positivefb,97,average,29,1.1499509999994189,['n'],1,right,['0'],6,0.1772075999997469,,,28,18,Vrouw,Rechts,1,
,dotcolour,dotcolour,xotask,18,0,18,618,training,positivefb,95,average,51,0.832906899999216,['c'],1,left,['0'],6,0.2652187999992748,,,28,18,Vrouw,Rechts,1,
,dotcolour,dotcolour,xotask,19,0,19,619,training,positivefb,97,easy,17,1.0499135999998543,['n'],1,right,['0'],6,0.1561239000002388,,,28,18,Vrouw,Rechts,1,
,dotcolour,dotcolour,xotask,20,0,20,620,training,positivefb,100,easy,17,0.7338355000001684,['n'],1,right,['0'],6,0.7929345000002286,,,28,18,Vrouw,Rechts,1,
,dotcolour,dotcolour,xotask,21,0,21,621,training,positivefb,97,average,29,0.7511936999999307,['n'],1,right,['0'],6,0.21925610000016604,,,28,18,Vrouw,Rechts,1,
,dotcolour,dotcolour,xotask,22,0,22,622,training,positivefb,62,average,27,1.4159259000007296,['c'],0,right,['0'],6,0.25008489999981975,,,28,18,Vrouw,Rechts,1,
,dotcolour,dotcolour,xotask,23,0,23,623,training,positivefb,86,easy,64,1.7674229999993258,['c'],1,left,['0'],6,0.4019823999997243,,,28,18,Vrouw,Rechts,1,
,dotcolour,dotcolour,xotask,24,0,24,624,training,positivefb,68,hard,38,5.817422400000396,['n'],1,right,['9'],5,0.9295554000000266,,,28,18,Vrouw,Rechts,1,
,dotcolour,dotcolour,xotask,25,0,25,625,training,positivefb,99,average,29,0.7492833999995128,['n'],1,right,['0'],6,1.1911669000000984,,,28,18,Vrouw,Rechts,1,
,dotcolour,dotcolour,xotask,26,0,26,626,training,positivefb,94,average,55,1.5495470000005298,['c'],1,left,['0'],6,0.3852661999999327,,,28,18,Vrouw,Rechts,1,
,dotcolour,dotcolour,xotask,27,0,27,627,training,positivefb,72,hard,38,0.8996001999994405,['c'],0,right,['0'],6,0.23758259999976872,,,28,18,Vrouw,Rechts,1,
,dotcolour,dotcolour,xotask,28,0,28,628,training,positivefb,70,average,29,0.9668839999994816,['n'],1,right,['9'],5,0.2936079000000973,,,28,18,Vrouw,Rechts,1,
,dotcolour,dotcolour,xotask,29,0,29,629,training,positivefb,95,average,27,1.1835133000004134,['n'],1,right,['9'],5,0.29938510000010865,,,28,18,Vrouw,Rechts,1,
,dotcolour,dotcolour,xotask,30,0,30,630,training,positivefb,83,average,55,3.467464100000143,['n'],0,left,['0'],6,0.7169263999994655,,,28,18,Vrouw,Rechts,1,
,dotcolour,dotcolour,xotask,31,0,31,631,training,positivefb,90,hard,37,1.3830658000006224,['n'],1,right,['0'],6,0.2968535999998494,,,28,18,Vrouw,Rechts,1,
,dotcolour,dotcolour,xotask,32,0,32,632,training,positivefb,46,average,28,0.7496854999999414,['c'],0,right,['0'],6,0.23157850000006874,,,28,18,Vrouw,Rechts,1,
,dotcolour,dotcolour,xotask,33,0,33,633,training,positivefb,83,easy,61,1.0329366999994818,['n'],0,left,['0'],6,0.4452191000000312,,,28,18,Vrouw,Rechts,1,
,dotcolour,dotcolour,xotask,34,0,34,634,training,positivefb,88,average,54,1.2999403999992865,['c'],1,left,['0'],6,0.40745740000056685,,,28,18,Vrouw,Rechts,1,
,dotcolour,dotcolour,xotask,35,0,35,635,training,positivefb,93,hard,44,1.0170380999998088,['c'],1,left,['0'],6,0.34300100000018574,,,28,18,Vrouw,Rechts,1,
,dotcolour,dotcolour,xotask,36,0,36,636,training,positivefb,79,hard,43,0.750457600000118,['n'],0,left,['0'],6,0.26697820000026695,,,28,18,Vrouw,Rechts,1,
,dotcolour,dotcolour,xotask,37,0,37,637,training,positivefb,76,average,51,3.7998141999996733,['c'],1,left,['0'],6,0.8005796999996164,,,28,18,Vrouw,Rechts,1,
,dotcolour,dotcolour,xotask,38,0,38,638,training,positivefb,93,hard,38,1.2335431999999855,['n'],1,right,['0'],6,0.27194669999971666,,,28,18,Vrouw,Rechts,1,
,dotcolour,dotcolour,xotask,39,0,39,639,training,positivefb,61,average,51,0.8997622000006231,['c'],1,left,['9'],5,0.43294090000017604,,,28,18,Vrouw,Rechts,1,
,dotcolour,dotcolour,xotask,40,0,40,640,training,positivefb,65,hard,38,9.232958500000677,['n'],1,right,['0'],6,0.5033133999995698,,,28,18,Vrouw,Rechts,1,
,dotcolour,dotcolour,xotask,41,0,41,641,training,positivefb,93,average,55,0.9665026000002399,['c'],1,left,['9'],5,0.5638484999999491,,,28,18,Vrouw,Rechts,1,
,dotcolour,dotcolour,xotask,42,0,42,642,training,positivefb,98,easy,16,0.9001858999999968,['n'],1,right,['0'],6,0.36199949999991077,,,28,18,Vrouw,Rechts,1,
,dotcolour,dotcolour,xotask,43,0,43,643,training,positivefb,93,hard,44,0.7996939999993629,['c'],1,left,['0'],6,0.4279284000003827,,,28,18,Vrouw,Rechts,1,
,dotcolour,dotcolour,xotask,44,0,44,644,training,positivefb,89,easy,16,2.200283500000296,['n'],1,right,['0'],6,0.20350880000023608,,,28,18,Vrouw,Rechts,1,
,dotcolour,dotcolour,xotask,45,0,45,645,training,positivefb,52,easy,17,2.933018099999572,['c'],0,right,['0'],6,0.3177148999993733,,,28,18,Vrouw,Rechts,1,
,dotcolour,dotcolour,xotask,46,0,46,646,training,positivefb,94,easy,62,0.7010589999999866,['c'],1,left,['0'],6,0.6615146999993158,,,28,18,Vrouw,Rechts,1,
,dotcolour,dotcolour,xotask,47,0,47,647,training,positivefb,85,hard,37,1.0340562000001228,['c'],0,right,['0'],6,0.4418371000001571,,,28,18,Vrouw,Rechts,1,
,dotcolour,dotcolour,xotask,48,0,48,648,training,positivefb,75,easy,64,6.200576799999908,['c'],1,left,['0'],6,1.3125860000000102,,,28,18,Vrouw,Rechts,1,
,dotcolour,dotcolour,xotask,49,0,49,649,training,positivefb,83,easy,18,5.81758439999976,['n'],1,right,['0'],6,0.3318781999996645,,,28,18,Vrouw,Rechts,1,
,dotcolour,dotcolour,xotask,50,0,50,650,training,positivefb,83,hard,39,0.8171486000001096,['n'],1,right,['0'],6,0.2543648000000758,,,28,18,Vrouw,Rechts,1,
,dotcolour,dotcolour,xotask,51,0,51,651,training,positivefb,95,average,51,1.0500701000000845,['c'],1,left,['0'],6,0.5381059999999707,,,28,18,Vrouw,Rechts,1,
