starttime,task,fbtask,firsttask,withinblocktrial,block,withintasktrial,trial,running,feedback,fbscore,difflevel,reddots,rt,resp,cor,cresp,conf_press,cj,RTconf,n_xes,stoptime,sub,age,gender,handedness,session,
1714724531,dotcolour,dotcolour,xotask,0,0,0,0,training,negativefb,36,average,52,0.9347889000000578,['n'],0,left,['9'],2,1.3647778999993534,,,6,18,Man,Rechts,1,
,dotcolour,dotcolour,xotask,1,0,1,1,training,negativefb,14,average,25,1.5162231000003885,['c'],0,right,['3'],4,0.44856309999977384,,,6,18,Man,Rechts,1,
,dotcolour,dotcolour,xotask,2,0,2,2,training,negativefb,83,easy,18,0.5831917000004978,['n'],1,right,['8'],3,0.3429604000002655,,,6,18,Man,Rechts,1,
,dotcolour,dotcolour,xotask,3,0,3,3,training,negativefb,53,hard,43,0.7495183999999426,['c'],1,left,['3'],4,0.3318460000000414,,,6,18,Man,Rechts,1,
,dotcolour,dotcolour,xotask,4,0,4,4,training,negativefb,37,hard,44,0.9335000999999465,['n'],0,left,['8'],3,0.2088725000003251,,,6,18,Man,Rechts,1,
,dotcolour,dotcolour,xotask,5,0,5,5,training,negativefb,55,average,25,0.800063699999555,['n'],1,right,['3'],4,0.352890699999989,,,6,18,Man,Rechts,1,
,dotcolour,dotcolour,xotask,6,0,6,6,training,negativefb,53,easy,63,1.6832379999996192,['c'],1,left,['3'],4,0.23977900000045338,,,6,18,Man,Rechts,1,
,dotcolour,dotcolour,xotask,7,0,7,7,training,negativefb,52,average,55,4.116907999999967,['c'],1,left,['9'],2,0.2098225999998249,,,6,18,Man,Rechts,1,
,dotcolour,dotcolour,xotask,8,0,8,8,training,negativefb,91,average,55,1.2510763999998744,['c'],1,left,['9'],2,0.504254100000253,,,6,18,Man,Rechts,1,
,dotcolour,dotcolour,xotask,9,0,9,9,training,negativefb,82,easy,16,0.866536399999859,['n'],1,right,['9'],2,0.40954539999984263,,,6,18,Man,Rechts,1,
,dotcolour,dotcolour,xotask,10,0,10,10,training,negativefb,69,hard,43,0.8836294999991878,['c'],1,left,['9'],2,0.35023650000039197,,,6,18,Man,Rechts,1,
,dotcolour,dotcolour,xotask,11,0,11,11,training,negativefb,50,hard,38,1.5673736999997345,['c'],0,right,['0'],1,0.32967980000012176,,,6,18,Man,Rechts,1,
,dotcolour,dotcolour,xotask,12,0,12,12,training,negativefb,72,average,26,0.9156962999995812,['n'],1,right,['9'],2,0.4642739000000802,,,6,18,Man,Rechts,1,
,dotcolour,dotcolour,xotask,13,0,13,13,training,negativefb,43,hard,43,0.7504860999997618,['c'],1,left,['9'],2,0.35924080000040703,,,6,18,Man,Rechts,1,
,dotcolour,dotcolour,xotask,14,0,14,14,training,negativefb,74,average,54,0.6836605999997118,['c'],1,left,['9'],2,0.41479330000038317,,,6,18,Man,Rechts,1,
,dotcolour,dotcolour,xotask,15,0,15,15,training,negativefb,55,easy,15,0.7504600000002029,['n'],1,right,['0'],1,0.31143730000076175,,,6,18,Man,Rechts,1,
,dotcolour,dotcolour,xotask,16,0,16,16,training,negativefb,28,hard,38,0.6680661999998847,['n'],1,right,['9'],2,0.28076490000057674,,,6,18,Man,Rechts,1,
,dotcolour,dotcolour,xotask,17,0,17,17,training,negativefb,68,hard,36,1.0832933000001503,['c'],0,right,['9'],2,0.31480909999936557,,,6,18,Man,Rechts,1,
,dotcolour,dotcolour,xotask,18,0,18,18,training,negativefb,90,easy,19,0.6163503999996465,['n'],1,right,['9'],2,0.38183440000011615,,,6,18,Man,Rechts,1,
,dotcolour,dotcolour,xotask,19,0,19,19,training,negativefb,22,hard,42,0.5499634999996488,['c'],1,left,['9'],2,0.28884889999972074,,,6,18,Man,Rechts,1,
,dotcolour,dotcolour,xotask,20,0,20,20,training,negativefb,87,hard,41,1.0172933000003468,['c'],1,left,['3'],4,0.37257169999975304,,,6,18,Man,Rechts,1,
,dotcolour,dotcolour,xotask,21,0,21,21,training,negativefb,58,average,27,0.6328609000001961,['n'],1,right,['9'],2,0.30826859999979206,,,6,18,Man,Rechts,1,
,dotcolour,dotcolour,xotask,22,0,22,22,training,negativefb,79,easy,62,0.7008112000003166,['c'],1,left,['3'],4,0.40457640000022366,,,6,18,Man,Rechts,1,
,dotcolour,dotcolour,xotask,23,0,23,23,training,negativefb,83,easy,63,0.7344395999998596,['c'],1,left,['3'],4,0.2551849999999831,,,6,18,Man,Rechts,1,
,dotcolour,dotcolour,xotask,24,0,24,24,training,negativefb,98,easy,15,0.6167283999993742,['n'],1,right,['3'],4,0.32459749999998166,,,6,18,Man,Rechts,1,
,dotcolour,dotcolour,xotask,25,0,25,25,training,negativefb,15,easy,62,1.3000323000005665,['n'],0,left,['3'],4,0.17170100000021193,,,6,18,Man,Rechts,1,
,dotcolour,dotcolour,xotask,26,0,26,26,training,negativefb,80,hard,36,0.7667179999998552,['n'],1,right,['3'],4,0.31041259999983595,,,6,18,Man,Rechts,1,
,dotcolour,dotcolour,xotask,27,0,27,27,training,negativefb,51,average,25,0.5498853999997664,['n'],1,right,['3'],4,0.23677189999943948,,,6,18,Man,Rechts,1,
,dotcolour,dotcolour,xotask,28,0,28,28,training,negativefb,52,easy,62,0.899693300000763,['n'],0,left,['3'],4,0.2950742999992144,,,6,18,Man,Rechts,1,
,dotcolour,dotcolour,xotask,29,0,29,29,training,negativefb,61,average,26,0.7164926000004925,['n'],1,right,['9'],2,0.27879140000004554,,,6,18,Man,Rechts,1,
,dotcolour,dotcolour,xotask,30,0,30,30,training,negativefb,30,easy,63,0.7833319000001211,['c'],1,left,['3'],4,0.27717239999947196,,,6,18,Man,Rechts,1,
,dotcolour,dotcolour,xotask,31,0,31,31,training,negativefb,74,hard,36,0.783988600000157,['n'],1,right,['9'],2,0.4193855999992593,,,6,18,Man,Rechts,1,
,dotcolour,dotcolour,xotask,32,0,32,32,training,negativefb,84,average,52,0.7831051000002844,['c'],1,left,['8'],3,0.37939319999986765,,,6,18,Man,Rechts,1,
,dotcolour,dotcolour,xotask,33,0,33,33,training,negativefb,25,average,25,0.6338801000001695,['n'],1,right,['8'],3,0.2592016999997213,,,6,18,Man,Rechts,1,
,dotcolour,dotcolour,xotask,34,0,34,34,training,negativefb,62,hard,35,0.9175038000003042,['n'],1,right,['8'],3,0.1811755999997331,,,6,18,Man,Rechts,1,
,dotcolour,dotcolour,xotask,35,0,35,35,training,negativefb,54,hard,38,0.6501997999994273,['c'],0,right,['8'],3,0.2364406999995481,,,6,18,Man,Rechts,1,
,dotcolour,dotcolour,xotask,36,0,36,36,training,negativefb,86,easy,15,0.5994118999997227,['n'],1,right,['8'],3,0.21852280000075552,,,6,18,Man,Rechts,1,
,dotcolour,dotcolour,xotask,37,0,37,37,training,negativefb,94,easy,17,0.5836521999999604,['n'],1,right,['8'],3,0.24300810000022466,,,6,18,Man,Rechts,1,
,dotcolour,dotcolour,xotask,38,0,38,38,training,negativefb,32,easy,17,0.6674693000004481,['n'],1,right,['8'],3,0.2951405000003433,,,6,18,Man,Rechts,1,
,dotcolour,dotcolour,xotask,39,0,39,39,training,negativefb,39,average,29,0.5512307999997574,['n'],1,right,['3'],4,0.19816919999993843,,,6,18,Man,Rechts,1,
,dotcolour,dotcolour,xotask,40,0,40,40,training,negativefb,55,average,54,0.9840126999997665,['c'],1,left,['3'],4,0.30224960000032297,,,6,18,Man,Rechts,1,
,dotcolour,dotcolour,xotask,41,0,41,41,training,negativefb,85,hard,45,0.5005572999998549,['c'],1,left,['8'],3,9.566493000000264,,,6,18,Man,Rechts,1,
,dotcolour,dotcolour,xotask,42,0,42,42,training,negativefb,60,average,26,2.2997202000005927,['n'],1,right,['8'],3,0.4012597000000824,,,6,18,Man,Rechts,1,
,dotcolour,dotcolour,xotask,43,0,43,43,training,negativefb,77,average,51,0.7161997999992309,['c'],1,left,['3'],4,0.41230259999974805,,,6,18,Man,Rechts,1,
,dotcolour,dotcolour,xotask,44,0,44,44,training,negativefb,78,hard,36,0.7165555000001405,['n'],1,right,['3'],4,0.2882569000003059,,,6,18,Man,Rechts,1,
,dotcolour,dotcolour,xotask,45,0,45,45,training,negativefb,78,easy,19,0.6164527000000817,['n'],1,right,['3'],4,0.2594235000005938,,,6,18,Man,Rechts,1,
,dotcolour,dotcolour,xotask,46,0,46,46,training,negativefb,68,average,53,1.0160601999996288,['c'],1,left,['1'],6,0.24917509999977483,,,6,18,Man,Rechts,1,
,dotcolour,dotcolour,xotask,47,0,47,47,training,negativefb,53,easy,61,0.5506882999998197,['c'],1,left,['1'],6,0.24091829999997572,,,6,18,Man,Rechts,1,
,dotcolour,dotcolour,xotask,48,0,48,48,training,negativefb,54,average,55,0.749905800000306,['c'],1,left,['2'],5,0.49767460000020947,,,6,18,Man,Rechts,1,
,dotcolour,dotcolour,xotask,49,0,49,49,training,negativefb,63,easy,63,1.301125900000443,['c'],1,left,['3'],4,0.3063446999994994,,,6,18,Man,Rechts,1,
,dotcolour,dotcolour,xotask,50,0,50,50,training,negativefb,67,easy,16,0.5672092999993765,['n'],1,right,['3'],4,0.19900739999957295,,,6,18,Man,Rechts,1,
,dotcolour,dotcolour,xotask,51,0,51,51,training,negativefb,85,easy,62,0.8343861999992441,['c'],1,left,['1'],6,0.19753270000001066,,,6,18,Man,Rechts,1,
,dotcolour,dotcolour,xotask,52,0,52,52,training,negativefb,36,hard,45,0.6331997000006595,['n'],0,left,['0'],1,0.6046763000003921,,,6,18,Man,Rechts,1,
,dotcolour,dotcolour,xotask,53,0,53,53,training,negativefb,66,easy,62,0.7500945000001593,['c'],1,left,['3'],4,0.4074377999995704,,,6,18,Man,Rechts,1,
,dotcolour,dotcolour,xotask,54,0,54,54,training,negativefb,71,hard,37,0.6498801000007006,['n'],1,right,['1'],6,0.22847040000033303,,,6,18,Man,Rechts,1,
,dotcolour,dotcolour,xotask,55,0,55,55,training,negativefb,63,hard,42,0.7667472000002817,['n'],0,left,['1'],6,0.23696150000068883,,,6,18,Man,Rechts,1,
,dotcolour,dotcolour,xotask,56,0,56,56,training,negativefb,70,hard,42,0.7172216999997545,['n'],0,left,['9'],2,0.16664739999941958,,,6,18,Man,Rechts,1,
,dotcolour,dotcolour,xotask,57,0,57,57,training,negativefb,66,average,51,0.7488242999997965,['c'],1,left,['1'],6,0.2673170999996728,,,6,18,Man,Rechts,1,
,dotcolour,dotcolour,xotask,58,0,58,58,training,negativefb,76,average,26,0.5176664999999048,['n'],1,right,['1'],6,0.18763839999974152,,,6,18,Man,Rechts,1,
,dotcolour,dotcolour,xotask,59,0,59,59,training,negativefb,48,hard,37,0.8331059999991339,['c'],0,right,['1'],6,0.1863551999995252,,,6,18,Man,Rechts,1,
,dotcolour,dotcolour,xotask,0,1,60,60,training,negativefb,38,average,27,0.7175490999998146,['n'],1,right,['1'],6,0.2545554999996966,,,6,18,Man,Rechts,1,
,dotcolour,dotcolour,xotask,1,1,61,61,training,negativefb,63,average,26,0.7666582000001654,['n'],1,right,['9'],2,0.1493719999998575,,,6,18,Man,Rechts,1,
,dotcolour,dotcolour,xotask,2,1,62,62,training,negativefb,80,average,52,1.0003718999996636,['c'],1,left,['8'],3,0.2872990000005302,,,6,18,Man,Rechts,1,
,dotcolour,dotcolour,xotask,3,1,63,63,training,negativefb,75,hard,36,0.6176586000001407,['n'],1,right,['8'],3,0.12358709999989514,,,6,18,Man,Rechts,1,
,dotcolour,dotcolour,xotask,4,1,64,64,training,negativefb,29,hard,41,0.8005620999992971,['c'],1,left,['1'],6,0.22297559999969963,,,6,18,Man,Rechts,1,
,dotcolour,dotcolour,xotask,5,1,65,65,training,negativefb,75,easy,18,0.6164739999994708,['n'],1,right,['1'],6,0.237853499999801,,,6,18,Man,Rechts,1,
,dotcolour,dotcolour,xotask,6,1,66,66,training,negativefb,48,average,51,0.6495823000004748,['c'],1,left,['1'],6,0.1544715999998516,,,6,18,Man,Rechts,1,
,dotcolour,dotcolour,xotask,7,1,67,67,training,negativefb,30,average,51,0.6178152999991653,['n'],0,left,['8'],3,0.5398506000001362,,,6,18,Man,Rechts,1,
,dotcolour,dotcolour,xotask,8,1,68,68,training,negativefb,76,hard,37,0.5998255999993489,['n'],1,right,['3'],4,0.342413100000158,,,6,18,Man,Rechts,1,
,dotcolour,dotcolour,xotask,9,1,69,69,training,negativefb,56,average,27,0.633107700000437,['n'],1,right,['3'],4,0.18408719999933965,,,6,18,Man,Rechts,1,
,dotcolour,dotcolour,xotask,10,1,70,70,training,negativefb,77,easy,61,0.7833768000000418,['c'],1,left,['1'],6,0.19345239999984187,,,6,18,Man,Rechts,1,
,dotcolour,dotcolour,xotask,11,1,71,71,training,negativefb,90,easy,65,0.7166674999998577,['c'],1,left,['1'],6,1.2850001999995584,,,6,18,Man,Rechts,1,
,dotcolour,dotcolour,xotask,12,1,72,72,training,negativefb,57,hard,43,0.6333520999996836,['n'],0,left,['2'],5,0.7446823000000222,,,6,18,Man,Rechts,1,
,dotcolour,dotcolour,xotask,13,1,73,73,training,negativefb,85,average,27,0.616721299999881,['n'],1,right,['9'],2,0.12977150000006077,,,6,18,Man,Rechts,1,
,dotcolour,dotcolour,xotask,14,1,74,74,training,negativefb,55,easy,15,0.6347992999999406,['n'],1,right,['8'],3,0.2047578000001522,,,6,18,Man,Rechts,1,
,dotcolour,dotcolour,xotask,15,1,75,75,training,negativefb,40,average,52,0.633690800000295,['n'],0,left,['0'],1,0.09968620000017836,,,6,18,Man,Rechts,1,
,dotcolour,dotcolour,xotask,16,1,76,76,training,negativefb,75,easy,63,0.7669884000006277,['c'],1,left,['1'],6,0.12831069999992906,,,6,18,Man,Rechts,1,
,dotcolour,dotcolour,xotask,17,1,77,77,training,negativefb,54,hard,44,0.9328310999999303,['n'],0,left,['9'],2,0.07067219999953522,,,6,18,Man,Rechts,1,
,dotcolour,dotcolour,xotask,18,1,78,78,training,negativefb,87,average,54,0.7508477000001221,['c'],1,left,['1'],6,0.11820259999967675,,,6,18,Man,Rechts,1,
,dotcolour,dotcolour,xotask,19,1,79,79,training,negativefb,65,hard,36,0.53352249999989,['n'],1,right,['1'],6,0.1238180000000284,,,6,18,Man,Rechts,1,
,dotcolour,dotcolour,xotask,20,1,80,80,training,negativefb,49,hard,36,0.5830453000007765,['n'],1,right,['1'],6,0.15230049999991024,,,6,18,Man,Rechts,1,
,dotcolour,dotcolour,xotask,21,1,81,81,training,negativefb,36,hard,36,0.8326670000005834,['n'],1,right,['9'],2,0.057092199999715376,,,6,18,Man,Rechts,1,
,dotcolour,dotcolour,xotask,22,1,82,82,training,negativefb,34,easy,18,0.6003654999994978,['n'],1,right,['1'],6,0.24629539999932604,,,6,18,Man,Rechts,1,
,dotcolour,dotcolour,xotask,23,1,83,83,training,negativefb,96,hard,38,0.6342480000002979,['n'],1,right,['0'],1,0.21157709999988583,,,6,18,Man,Rechts,1,
,dotcolour,dotcolour,xotask,24,1,84,84,training,negativefb,82,easy,18,0.5506295999994109,['n'],1,right,['0'],1,0.09413789999962319,,,6,18,Man,Rechts,1,
,dotcolour,dotcolour,xotask,25,1,85,85,training,negativefb,47,easy,19,0.683194100000037,['n'],1,right,['1'],6,0.11091269999997166,,,6,18,Man,Rechts,1,
,dotcolour,dotcolour,xotask,26,1,86,86,training,negativefb,62,average,27,0.6333458999997674,['n'],1,right,['3'],4,0.11363260000052833,,,6,18,Man,Rechts,1,
,dotcolour,dotcolour,xotask,27,1,87,87,training,negativefb,4,easy,64,0.366525499999625,['n'],0,left,['0'],1,1.7431409999999232,,,6,18,Man,Rechts,1,
,dotcolour,dotcolour,xotask,28,1,88,88,training,negativefb,60,average,28,1.4502038999999058,['n'],1,right,['9'],2,0.09586330000001908,,,6,18,Man,Rechts,1,
,dotcolour,dotcolour,xotask,29,1,89,89,training,negativefb,96,easy,63,0.9673232000004646,['c'],1,left,['1'],6,0.7657359000004362,,,6,18,Man,Rechts,1,
,dotcolour,dotcolour,xotask,30,1,90,90,training,negativefb,46,hard,43,0.8838736999996399,['n'],0,left,['9'],2,0.1157666999997673,,,6,18,Man,Rechts,1,
,dotcolour,dotcolour,xotask,31,1,91,91,training,negativefb,52,hard,41,0.7340899000000718,['n'],0,left,['1'],6,0.16152129999954923,,,6,18,Man,Rechts,1,
,dotcolour,dotcolour,xotask,32,1,92,92,training,negativefb,68,hard,41,0.6011722000002919,['c'],1,left,['1'],6,0.17111370000020543,,,6,18,Man,Rechts,1,
,dotcolour,dotcolour,xotask,33,1,93,93,training,negativefb,61,hard,41,1.0164476999998442,['n'],0,left,['9'],2,0.10072109999964596,,,6,18,Man,Rechts,1,
,dotcolour,dotcolour,xotask,34,1,94,94,training,negativefb,56,average,27,1.0159512000000177,['n'],1,right,['1'],6,0.104215700000168,,,6,18,Man,Rechts,1,
,dotcolour,dotcolour,xotask,35,1,95,95,training,negativefb,57,average,26,0.6006415000001653,['n'],1,right,['1'],6,0.7632296000001588,,,6,18,Man,Rechts,1,
,dotcolour,dotcolour,xotask,36,1,96,96,training,negativefb,70,easy,18,0.5828562999995484,['n'],1,right,['1'],6,0.13463159999992058,,,6,18,Man,Rechts,1,
,dotcolour,dotcolour,xotask,37,1,97,97,training,negativefb,58,hard,44,0.8335722000001624,['n'],0,left,['0'],1,0.08720219999941037,,,6,18,Man,Rechts,1,
,dotcolour,dotcolour,xotask,38,1,98,98,training,negativefb,45,easy,19,0.8332404000002498,['n'],1,right,['1'],6,0.1149040000000241,,,6,18,Man,Rechts,1,
,dotcolour,dotcolour,xotask,39,1,99,99,training,negativefb,72,average,26,0.5671829000002617,['n'],1,right,['1'],6,0.0952556000002005,,,6,18,Man,Rechts,1,
,dotcolour,dotcolour,xotask,40,1,100,100,training,negativefb,63,hard,44,0.534748000000036,['n'],0,left,['1'],6,0.1270502999996097,,,6,18,Man,Rechts,1,
,dotcolour,dotcolour,xotask,41,1,101,101,training,negativefb,73,average,52,0.6820296000005328,['c'],1,left,['1'],6,0.1271266999992804,,,6,18,Man,Rechts,1,
,dotcolour,dotcolour,xotask,42,1,102,102,training,negativefb,85,easy,65,0.550683399999798,['c'],1,left,['1'],6,0.29243490000044403,,,6,18,Man,Rechts,1,
,dotcolour,dotcolour,xotask,43,1,103,103,training,negativefb,83,hard,35,0.8497131000003719,['n'],1,right,['0'],1,0.09564060000047903,,,6,18,Man,Rechts,1,
,dotcolour,dotcolour,xotask,44,1,104,104,training,negativefb,51,average,55,0.7667776999996931,['c'],1,left,['1'],6,0.11709700000028533,,,6,18,Man,Rechts,1,
,dotcolour,dotcolour,xotask,45,1,105,105,training,negativefb,74,easy,64,0.5829360000007,['c'],1,left,['1'],6,0.10556840000026568,,,6,18,Man,Rechts,1,
,dotcolour,dotcolour,xotask,46,1,106,106,training,negativefb,81,average,28,0.7174243999997998,['c'],0,right,['1'],6,0.1525880999997753,,,6,18,Man,Rechts,1,
,dotcolour,dotcolour,xotask,47,1,107,107,training,negativefb,51,hard,39,0.649426200000562,['n'],1,right,['0'],1,0.2246709999999439,,,6,18,Man,Rechts,1,
,dotcolour,dotcolour,xotask,48,1,108,108,training,negativefb,61,hard,41,0.5671456999998554,['n'],0,left,['9'],2,0.11354870000013761,,,6,18,Man,Rechts,1,
,dotcolour,dotcolour,xotask,49,1,109,109,training,negativefb,63,hard,38,0.9987466000002314,['n'],1,right,['1'],6,0.1495046000000002,,,6,18,Man,Rechts,1,
,dotcolour,dotcolour,xotask,50,1,110,110,training,negativefb,78,easy,16,0.8164894999999888,['n'],1,right,['3'],4,0.5986149000000296,,,6,18,Man,Rechts,1,
,dotcolour,dotcolour,xotask,51,1,111,111,training,negativefb,44,easy,61,0.6168346999993446,['n'],0,left,['1'],6,0.19729699999970762,,,6,18,Man,Rechts,1,
,dotcolour,dotcolour,xotask,52,1,112,112,training,negativefb,77,easy,62,0.6674167000001034,['c'],1,left,['1'],6,0.13135020000026998,,,6,18,Man,Rechts,1,
,dotcolour,dotcolour,xotask,53,1,113,113,training,negativefb,71,hard,35,0.783775599999899,['n'],1,right,['1'],6,0.10248570000021573,,,6,18,Man,Rechts,1,
,dotcolour,dotcolour,xotask,54,1,114,114,training,negativefb,66,average,54,0.8502408000003925,['c'],1,left,['1'],6,0.12113890000000538,,,6,18,Man,Rechts,1,
,dotcolour,dotcolour,xotask,55,1,115,115,training,negativefb,80,easy,18,0.5179749000008087,['n'],1,right,['1'],6,0.10351170000012644,,,6,18,Man,Rechts,1,
,dotcolour,dotcolour,xotask,56,1,116,116,training,negativefb,59,average,53,1.050281200000427,['c'],1,left,['9'],2,0.017989299999499053,,,6,18,Man,Rechts,1,
,dotcolour,dotcolour,xotask,57,1,117,117,training,negativefb,57,easy,65,0.8329208000004655,['c'],1,left,['1'],6,0.09512679999988904,,,6,18,Man,Rechts,1,
,dotcolour,dotcolour,xotask,58,1,118,118,training,negativefb,64,average,52,0.8831852000002982,['c'],1,left,['9'],2,0.10473670000010316,,,6,18,Man,Rechts,1,
,dotcolour,dotcolour,xotask,59,1,119,119,training,negativefb,60,easy,18,0.6837648999999146,['n'],1,right,['1'],6,0.12914719999935187,,,6,18,Man,Rechts,1,
,xotask,dotcolour,xotask,0,2,120,120,main,negativefb,-99,average,,1.8843577000006917,['n'],0,left,['3'],4,0.21047679999992397,63,,6,18,Man,Rechts,1,
,xotask,dotcolour,xotask,1,2,121,121,main,negativefb,-99,easy,,0.9006295999997747,['n'],1,right,['2'],5,0.08713979999993171,5,,6,18,Man,Rechts,1,
,xotask,dotcolour,xotask,2,2,122,122,main,negativefb,-99,hard,,3.5679933000001256,['c'],1,left,['3'],4,0.26983600000039587,51,,6,18,Man,Rechts,1,
,xotask,dotcolour,xotask,3,2,123,123,main,negativefb,-99,easy,,1.4346614999994927,['n'],1,right,['9'],2,0.24257049999960145,6,,6,18,Man,Rechts,1,
,xotask,dotcolour,xotask,4,2,124,124,main,negativefb,-99,easy,,1.9177285000005213,['n'],1,right,['9'],2,0.23725550000017392,8,,6,18,Man,Rechts,1,
,xotask,dotcolour,xotask,5,2,125,125,main,negativefb,-99,average,,1.9500417000008383,['c'],0,right,['3'],4,0.5586040000007415,18,,6,18,Man,Rechts,1,
,xotask,dotcolour,xotask,6,2,126,126,main,negativefb,-99,hard,,1.8341005000002042,['n'],1,right,['3'],4,5.120290699999714,28,,6,18,Man,Rechts,1,
,xotask,dotcolour,xotask,7,2,127,127,main,negativefb,-99,hard,,1.9176931000001787,['c'],1,left,['2'],5,1.2312595000003057,50,,6,18,Man,Rechts,1,
,xotask,dotcolour,xotask,8,2,128,128,main,negativefb,-99,easy,,1.384231600000021,['c'],1,left,['3'],4,0.3919443000004321,70,,6,18,Man,Rechts,1,
,xotask,dotcolour,xotask,9,2,129,129,main,negativefb,-99,easy,,1.5999762999999803,['n'],0,left,['9'],2,0.36146910000024945,73,,6,18,Man,Rechts,1,
,xotask,dotcolour,xotask,10,2,130,130,main,negativefb,-99,easy,,3.7163361000002624,['n'],0,left,['0'],1,0.43928149999919697,72,,6,18,Man,Rechts,1,
,xotask,dotcolour,xotask,11,2,131,131,main,negativefb,-99,average,,1.6343894999999975,['n'],1,right,['9'],2,0.30150489999959973,16,,6,18,Man,Rechts,1,
,xotask,dotcolour,xotask,12,2,132,132,main,negativefb,-99,hard,,1.217333200000212,['c'],0,right,['3'],4,0.3297880999998597,26,,6,18,Man,Rechts,1,
,xotask,dotcolour,xotask,13,2,133,133,main,negativefb,-99,hard,,2.0174715000002834,['n'],1,right,['0'],1,0.2606527999996615,26,,6,18,Man,Rechts,1,
,xotask,dotcolour,xotask,14,2,134,134,main,negativefb,-99,hard,,1.849748499999805,['c'],1,left,['2'],5,0.9215267999998105,53,,6,18,Man,Rechts,1,
,xotask,dotcolour,xotask,15,2,135,135,main,negativefb,-99,average,,3.784139700000196,['n'],0,left,['9'],2,0.18162680000023101,62,,6,18,Man,Rechts,1,
,xotask,dotcolour,xotask,16,2,136,136,main,negativefb,-99,average,,1.6330808000002435,['c'],1,left,['3'],4,0.26962860000003275,61,,6,18,Man,Rechts,1,
,xotask,dotcolour,xotask,17,2,137,137,main,negativefb,-99,easy,,1.7011743999992177,['n'],1,right,['3'],4,0.30372279999937746,9,,6,18,Man,Rechts,1,
,xotask,dotcolour,xotask,18,2,138,138,main,negativefb,-99,hard,,3.8348045000002458,['c'],1,left,['3'],4,0.1955587000002197,52,,6,18,Man,Rechts,1,
,xotask,dotcolour,xotask,19,2,139,139,main,negativefb,-99,average,,1.733861299999262,['n'],1,right,['9'],2,0.09563940000043658,15,,6,18,Man,Rechts,1,
,xotask,dotcolour,xotask,20,2,140,140,main,negativefb,-99,average,,1.46783300000061,['n'],0,left,['2'],5,0.25768969999990077,62,,6,18,Man,Rechts,1,
,xotask,dotcolour,xotask,21,2,141,141,main,negativefb,-99,average,,2.0014413999997487,['c'],1,left,['2'],5,0.1924681000000419,62,,6,18,Man,Rechts,1,
,xotask,dotcolour,xotask,22,2,142,142,main,negativefb,-99,easy,,1.0340983000005508,['c'],1,left,['3'],4,0.35249039999962406,73,,6,18,Man,Rechts,1,
,xotask,dotcolour,xotask,23,2,143,143,main,negativefb,-99,easy,,1.4012974999996004,['c'],1,left,['3'],4,0.16359509999983857,72,,6,18,Man,Rechts,1,
,xotask,dotcolour,xotask,24,2,144,144,main,negativefb,-99,hard,,1.117366200000106,['n'],1,right,['9'],2,0.11394530000052328,26,,6,18,Man,Rechts,1,
,xotask,dotcolour,xotask,25,2,145,145,main,negativefb,-99,easy,,1.1510782999994262,['n'],0,left,['8'],3,0.11211790000015753,71,,6,18,Man,Rechts,1,
,xotask,dotcolour,xotask,26,2,146,146,main,negativefb,-99,hard,,1.1677762999997867,['c'],1,left,['3'],4,0.11800510000011855,50,,6,18,Man,Rechts,1,
,xotask,dotcolour,xotask,27,2,147,147,main,negativefb,-99,average,,1.317968500000461,['c'],0,right,['1'],6,0.12604300000020885,19,,6,18,Man,Rechts,1,
,xotask,dotcolour,xotask,28,2,148,148,main,negativefb,-99,easy,,1.150492600000689,['n'],1,right,['0'],1,0.11546170000019629,6,,6,18,Man,Rechts,1,
,xotask,dotcolour,xotask,29,2,149,149,main,negativefb,-99,average,,1.9338863000002675,['n'],1,right,['3'],4,0.2022306999997454,18,,6,18,Man,Rechts,1,
,xotask,dotcolour,xotask,30,2,150,150,main,negativefb,-99,average,,1.9847478000001502,['c'],1,left,['3'],4,2.259846199999629,64,,6,18,Man,Rechts,1,
,xotask,dotcolour,xotask,31,2,151,151,main,negativefb,-99,easy,,1.1509530000002997,['c'],1,left,['1'],6,0.20430630000009842,73,,6,18,Man,Rechts,1,
,xotask,dotcolour,xotask,32,2,152,152,main,negativefb,-99,hard,,1.134700900000098,['c'],1,left,['3'],4,0.19918710000001738,54,,6,18,Man,Rechts,1,
,xotask,dotcolour,xotask,33,2,153,153,main,negativefb,-99,hard,,1.185028699999748,['n'],1,right,['8'],3,0.3927813000000242,27,,6,18,Man,Rechts,1,
,xotask,dotcolour,xotask,34,2,154,154,main,negativefb,-99,average,,2.13451139999961,['c'],1,left,['3'],4,0.6927458999998635,64,,6,18,Man,Rechts,1,
,xotask,dotcolour,xotask,35,2,155,155,main,negativefb,-99,average,,1.3847298000000592,['n'],1,right,['1'],6,0.37891140000010637,18,,6,18,Man,Rechts,1,
,xotask,dotcolour,xotask,36,2,156,156,main,negativefb,-99,hard,,5.966776699999173,['c'],1,left,['2'],5,1.4060472999999547,51,,6,18,Man,Rechts,1,
,xotask,dotcolour,xotask,37,2,157,157,main,negativefb,-99,hard,,1.2510951000003843,['n'],0,left,['3'],4,0.301232799999525,52,,6,18,Man,Rechts,1,
,xotask,dotcolour,xotask,38,2,158,158,main,negativefb,-99,hard,,1.1502479999999196,['n'],1,right,['2'],5,1.2356833000003462,27,,6,18,Man,Rechts,1,
,xotask,dotcolour,xotask,39,2,159,159,main,negativefb,-99,average,,0.8842318999995769,['n'],0,left,['2'],5,0.16792050000003655,64,,6,18,Man,Rechts,1,
,xotask,dotcolour,xotask,40,2,160,160,main,negativefb,-99,average,,0.8845285000006697,['c'],1,left,['1'],6,0.23863989999972546,63,,6,18,Man,Rechts,1,
,xotask,dotcolour,xotask,41,2,161,161,main,negativefb,-99,hard,,0.834919799999625,['n'],1,right,['8'],3,0.21184979999998177,27,,6,18,Man,Rechts,1,
,xotask,dotcolour,xotask,42,2,162,162,main,negativefb,-99,easy,,1.050267100000383,['c'],0,right,['3'],4,0.1867117000001599,7,,6,18,Man,Rechts,1,
,xotask,dotcolour,xotask,43,2,163,163,main,negativefb,-99,average,,1.16814340000019,['n'],1,right,['3'],4,0.26213129999996454,19,,6,18,Man,Rechts,1,
,xotask,dotcolour,xotask,44,2,164,164,main,negativefb,-99,average,,1.6506020000006174,['n'],1,right,['8'],3,0.2020089999996344,17,,6,18,Man,Rechts,1,
,xotask,dotcolour,xotask,45,2,165,165,main,negativefb,-99,hard,,1.1182934000007663,['c'],0,right,['3'],4,0.20630419999997684,26,,6,18,Man,Rechts,1,
,xotask,dotcolour,xotask,46,2,166,166,main,negativefb,-99,easy,,2.0343972999999096,['c'],1,left,['3'],4,0.13406859999940934,72,,6,18,Man,Rechts,1,
,xotask,dotcolour,xotask,47,2,167,167,main,negativefb,-99,easy,,0.9841752000002089,['n'],1,right,['1'],6,0.17833689999952185,6,,6,18,Man,Rechts,1,
,xotask,dotcolour,xotask,48,2,168,168,main,negativefb,-99,average,,0.951208499999666,['n'],1,right,['1'],6,0.2219505000002755,16,,6,18,Man,Rechts,1,
,xotask,dotcolour,xotask,49,2,169,169,main,negativefb,-99,easy,,1.3346154999999271,['n'],1,right,['2'],5,0.3121971999999005,6,,6,18,Man,Rechts,1,
,xotask,dotcolour,xotask,50,2,170,170,main,negativefb,-99,easy,,1.3009171000003334,['n'],1,right,['2'],5,0.21754619999956049,8,,6,18,Man,Rechts,1,
,xotask,dotcolour,xotask,51,2,171,171,main,negativefb,-99,hard,,1.400909899999533,['c'],1,left,['1'],6,0.20929960000012215,51,,6,18,Man,Rechts,1,
,xotask,dotcolour,xotask,52,2,172,172,main,negativefb,-99,average,,1.4002445000005537,['n'],1,right,['8'],3,0.14647059999970224,19,,6,18,Man,Rechts,1,
,xotask,dotcolour,xotask,53,2,173,173,main,negativefb,-99,average,,2.3674882999994225,['c'],1,left,['0'],1,0.4704434000004767,61,,6,18,Man,Rechts,1,
,xotask,dotcolour,xotask,54,2,174,174,main,negativefb,-99,easy,,1.7672299000005296,['n'],1,right,['9'],2,0.10200949999943987,9,,6,18,Man,Rechts,1,
,xotask,dotcolour,xotask,55,2,175,175,main,negativefb,-99,hard,,0.8168624999998428,['n'],1,right,['1'],6,0.121900099999948,29,,6,18,Man,Rechts,1,
,xotask,dotcolour,xotask,56,2,176,176,main,negativefb,-99,hard,,1.2667848000000959,['c'],1,left,['1'],6,0.15493700000024546,54,,6,18,Man,Rechts,1,
,xotask,dotcolour,xotask,57,2,177,177,main,negativefb,-99,easy,,1.4830289000001358,['c'],1,left,['3'],4,0.12266840000029333,73,,6,18,Man,Rechts,1,
,xotask,dotcolour,xotask,58,2,178,178,main,negativefb,-99,hard,,1.0015157999996518,['n'],1,right,['2'],5,0.2946016000005329,25,,6,18,Man,Rechts,1,
,xotask,dotcolour,xotask,59,2,179,179,main,negativefb,-99,easy,,1.2502050000002782,['n'],0,left,['2'],5,0.13785029999962717,72,,6,18,Man,Rechts,1,
,xotask,dotcolour,xotask,0,3,180,180,main,negativefb,-99,average,,1.351525699999911,['c'],1,left,['3'],4,0.21234350000031554,63,,6,18,Man,Rechts,1,
,xotask,dotcolour,xotask,1,3,181,181,main,negativefb,-99,easy,,1.8337478999992527,['n'],1,right,['8'],3,0.1641726000007111,6,,6,18,Man,Rechts,1,
,xotask,dotcolour,xotask,2,3,182,182,main,negativefb,-99,easy,,2.016934599999331,['n'],1,right,['8'],3,0.16618169999946986,8,,6,18,Man,Rechts,1,
,xotask,dotcolour,xotask,3,3,183,183,main,negativefb,-99,average,,1.5509842999999819,['n'],1,right,['2'],5,0.3864498000002641,17,,6,18,Man,Rechts,1,
,xotask,dotcolour,xotask,4,3,184,184,main,negativefb,-99,hard,,1.5511451000002126,['c'],1,left,['1'],6,0.21354609999980312,50,,6,18,Man,Rechts,1,
,xotask,dotcolour,xotask,5,3,185,185,main,negativefb,-99,hard,,1.1848055000000386,['n'],1,right,['2'],5,0.14317169999958423,29,,6,18,Man,Rechts,1,
,xotask,dotcolour,xotask,6,3,186,186,main,negativefb,-99,hard,,1.1341983000002074,['n'],1,right,['8'],3,0.14897410000048694,27,,6,18,Man,Rechts,1,
,xotask,dotcolour,xotask,7,3,187,187,main,negativefb,-99,easy,,1.1188340999997308,['c'],1,left,['1'],6,0.2025255999997171,70,,6,18,Man,Rechts,1,
,xotask,dotcolour,xotask,8,3,188,188,main,negativefb,-99,hard,,1.2675879000007626,['n'],1,right,['2'],5,0.2886846000001242,25,,6,18,Man,Rechts,1,
,xotask,dotcolour,xotask,9,3,189,189,main,negativefb,-99,easy,,0.8997313999998369,['c'],1,left,['1'],6,0.21047449999969103,74,,6,18,Man,Rechts,1,
,xotask,dotcolour,xotask,10,3,190,190,main,negativefb,-99,hard,,1.1181323000000702,['n'],1,right,['8'],3,0.1899745000000621,29,,6,18,Man,Rechts,1,
,xotask,dotcolour,xotask,11,3,191,191,main,negativefb,-99,hard,,1.2512434000000212,['c'],1,left,['8'],3,0.14134479999938776,52,,6,18,Man,Rechts,1,
,xotask,dotcolour,xotask,12,3,192,192,main,negativefb,-99,average,,1.1003797000003033,['n'],1,right,['1'],6,0.17304880000028788,16,,6,18,Man,Rechts,1,
,xotask,dotcolour,xotask,13,3,193,193,main,negativefb,-99,easy,,1.1176814000000377,['c'],1,left,['2'],5,0.3380269999997836,70,,6,18,Man,Rechts,1,
,xotask,dotcolour,xotask,14,3,194,194,main,negativefb,-99,hard,,1.0837965999999142,['n'],1,right,['1'],6,0.15402429999994638,27,,6,18,Man,Rechts,1,
,xotask,dotcolour,xotask,15,3,195,195,main,negativefb,-99,easy,,0.9336159000004045,['n'],1,right,['1'],6,0.11940210000011575,5,,6,18,Man,Rechts,1,
,xotask,dotcolour,xotask,16,3,196,196,main,negativefb,-99,easy,,1.2504784000002473,['c'],1,left,['2'],5,0.42584509999960574,73,,6,18,Man,Rechts,1,
,xotask,dotcolour,xotask,17,3,197,197,main,negativefb,-99,average,,1.0839876000000004,['c'],1,left,['1'],6,0.16638389999934589,64,,6,18,Man,Rechts,1,
,xotask,dotcolour,xotask,18,3,198,198,main,negativefb,-99,average,,1.2001892999996926,['n'],0,left,['3'],4,0.2088010999996186,61,,6,18,Man,Rechts,1,
,xotask,dotcolour,xotask,19,3,199,199,main,negativefb,-99,average,,0.9834939000002123,['n'],1,right,['3'],4,0.17750940000041737,16,,6,18,Man,Rechts,1,
,xotask,dotcolour,xotask,20,3,200,200,main,negativefb,-99,hard,,1.2843796999995902,['n'],1,right,['1'],6,0.1687738000000536,28,,6,18,Man,Rechts,1,
,xotask,dotcolour,xotask,21,3,201,201,main,negativefb,-99,hard,,1.7334373000003325,['n'],1,right,['9'],2,0.2051806999998007,29,,6,18,Man,Rechts,1,
,xotask,dotcolour,xotask,22,3,202,202,main,negativefb,-99,hard,,1.200949799999762,['c'],1,left,['2'],5,0.16595159999997122,53,,6,18,Man,Rechts,1,
,xotask,dotcolour,xotask,23,3,203,203,main,negativefb,-99,easy,,0.9510642000004736,['n'],1,right,['1'],6,0.1617257999996582,6,,6,18,Man,Rechts,1,
,xotask,dotcolour,xotask,24,3,204,204,main,negativefb,-99,hard,,1.1504641000001357,['n'],0,left,['1'],6,0.17475009999998292,54,,6,18,Man,Rechts,1,
,xotask,dotcolour,xotask,25,3,205,205,main,negativefb,-99,average,,0.7337842999995701,['n'],1,right,['1'],6,0.17907730000024458,15,,6,18,Man,Rechts,1,
,xotask,dotcolour,xotask,26,3,206,206,main,negativefb,-99,easy,,0.6343896999997014,['c'],1,left,['1'],6,0.1803377999995064,71,,6,18,Man,Rechts,1,
,xotask,dotcolour,xotask,27,3,207,207,main,negativefb,-99,average,,0.9176574000002802,['c'],1,left,['1'],6,0.13732770000024175,60,,6,18,Man,Rechts,1,
,xotask,dotcolour,xotask,28,3,208,208,main,negativefb,-99,average,,0.8340904000006049,['n'],1,right,['1'],6,0.12293940000017756,18,,6,18,Man,Rechts,1,
,xotask,dotcolour,xotask,29,3,209,209,main,negativefb,-99,average,,0.8664940000007846,['c'],1,left,['1'],6,0.15712020000046323,61,,6,18,Man,Rechts,1,
,xotask,dotcolour,xotask,30,3,210,210,main,negativefb,-99,hard,,1.100264500000776,['n'],0,left,['9'],2,0.11512820000007196,50,,6,18,Man,Rechts,1,
,xotask,dotcolour,xotask,31,3,211,211,main,negativefb,-99,easy,,1.285067899999376,['c'],0,right,['8'],3,0.1400857000007818,8,,6,18,Man,Rechts,1,
,xotask,dotcolour,xotask,32,3,212,212,main,negativefb,-99,easy,,1.01754179999989,['n'],1,right,['1'],6,0.1908106000000771,8,,6,18,Man,Rechts,1,
,xotask,dotcolour,xotask,33,3,213,213,main,negativefb,-99,easy,,0.7514137000007395,['n'],1,right,['1'],6,0.17004669999914768,6,,6,18,Man,Rechts,1,
,xotask,dotcolour,xotask,34,3,214,214,main,negativefb,-99,hard,,0.8005554000001212,['c'],1,left,['1'],6,0.17196379999950295,54,,6,18,Man,Rechts,1,
,xotask,dotcolour,xotask,35,3,215,215,main,negativefb,-99,easy,,0.8848883000000569,['c'],1,left,['1'],6,0.5464861999998902,74,,6,18,Man,Rechts,1,
,xotask,dotcolour,xotask,36,3,216,216,main,negativefb,-99,easy,,0.700616699999955,['n'],1,right,['1'],6,0.12998849999985396,9,,6,18,Man,Rechts,1,
,xotask,dotcolour,xotask,37,3,217,217,main,negativefb,-99,hard,,0.7517577999997229,['n'],1,right,['1'],6,0.14472419999947306,26,,6,18,Man,Rechts,1,
,xotask,dotcolour,xotask,38,3,218,218,main,negativefb,-99,average,,1.3839618000001792,['c'],0,right,['8'],3,0.12420130000009522,16,,6,18,Man,Rechts,1,
,xotask,dotcolour,xotask,39,3,219,219,main,negativefb,-99,hard,,0.7169573999999557,['n'],0,left,['1'],6,0.11602949999996781,53,,6,18,Man,Rechts,1,
,xotask,dotcolour,xotask,40,3,220,220,main,negativefb,-99,average,,0.7168863999995665,['n'],1,right,['1'],6,0.186404300000504,16,,6,18,Man,Rechts,1,
,xotask,dotcolour,xotask,41,3,221,221,main,negativefb,-99,average,,0.9837186000004294,['c'],0,right,['3'],4,0.18930379999983415,19,,6,18,Man,Rechts,1,
,xotask,dotcolour,xotask,42,3,222,222,main,negativefb,-99,hard,,0.6009435999994821,['c'],1,left,['2'],5,0.14211679999971238,52,,6,18,Man,Rechts,1,
,xotask,dotcolour,xotask,43,3,223,223,main,negativefb,-99,average,,0.700664400000278,['n'],0,left,['1'],6,0.17380139999931998,63,,6,18,Man,Rechts,1,
,xotask,dotcolour,xotask,44,3,224,224,main,negativefb,-99,easy,,0.9344792000001689,['n'],1,right,['1'],6,0.17772529999911058,8,,6,18,Man,Rechts,1,
,xotask,dotcolour,xotask,45,3,225,225,main,negativefb,-99,hard,,0.8845636999994895,['n'],1,right,['1'],6,0.13679789999969216,26,,6,18,Man,Rechts,1,
,xotask,dotcolour,xotask,46,3,226,226,main,negativefb,-99,hard,,0.7836994999997842,['n'],0,left,['1'],6,0.13251800000034564,53,,6,18,Man,Rechts,1,
,xotask,dotcolour,xotask,47,3,227,227,main,negativefb,-99,easy,,0.7994363999996494,['c'],1,left,['1'],6,0.2160812000001897,72,,6,18,Man,Rechts,1,
,xotask,dotcolour,xotask,48,3,228,228,main,negativefb,-99,average,,0.667686899999353,['n'],1,right,['1'],6,0.16584289999991597,15,,6,18,Man,Rechts,1,
,xotask,dotcolour,xotask,49,3,229,229,main,negativefb,-99,average,,1.5512022000002617,['n'],1,right,['8'],3,0.10538050000013754,16,,6,18,Man,Rechts,1,
,xotask,dotcolour,xotask,50,3,230,230,main,negativefb,-99,average,,1.068241400000261,['c'],1,left,['8'],3,0.13967930000035267,63,,6,18,Man,Rechts,1,
,xotask,dotcolour,xotask,51,3,231,231,main,negativefb,-99,easy,,0.6839715999994951,['n'],1,right,['1'],6,0.12369359999956941,5,,6,18,Man,Rechts,1,
,xotask,dotcolour,xotask,52,3,232,232,main,negativefb,-99,hard,,1.033322400000543,['c'],1,left,['1'],6,0.15886200000022654,54,,6,18,Man,Rechts,1,
,xotask,dotcolour,xotask,53,3,233,233,main,negativefb,-99,average,,1.1171345000002475,['n'],0,left,['9'],2,0.9801237000001493,64,,6,18,Man,Rechts,1,
,xotask,dotcolour,xotask,54,3,234,234,main,negativefb,-99,easy,,0.8501820000001317,['c'],1,left,['2'],5,0.1883947000005719,70,,6,18,Man,Rechts,1,
,xotask,dotcolour,xotask,55,3,235,235,main,negativefb,-99,average,,0.8168105999993713,['n'],0,left,['2'],5,0.2535816999998133,64,,6,18,Man,Rechts,1,
,xotask,dotcolour,xotask,56,3,236,236,main,negativefb,-99,easy,,1.0348241000001508,['c'],1,left,['2'],5,0.1701044000001275,72,,6,18,Man,Rechts,1,
,xotask,dotcolour,xotask,57,3,237,237,main,negativefb,-99,hard,,0.6683747000006406,['n'],1,right,['1'],6,0.1696414999996705,25,,6,18,Man,Rechts,1,
,xotask,dotcolour,xotask,58,3,238,238,main,negativefb,-99,average,,1.01803370000016,['c'],1,left,['1'],6,0.14719009999953414,62,,6,18,Man,Rechts,1,
,xotask,dotcolour,xotask,59,3,239,239,main,negativefb,-99,easy,,0.7180699999998978,['c'],1,left,['1'],6,0.12163090000012744,73,,6,18,Man,Rechts,1,
,xotask,dotcolour,xotask,0,4,240,240,main,negativefb,-99,average,,1.367435399999522,['n'],1,right,['1'],6,0.20307390000016312,17,,6,18,Man,Rechts,1,
,xotask,dotcolour,xotask,1,4,241,241,main,negativefb,-99,average,,0.7682039999999688,['n'],1,right,['1'],6,0.1960401999995156,15,,6,18,Man,Rechts,1,
,xotask,dotcolour,xotask,2,4,242,242,main,negativefb,-99,hard,,0.6514630000001489,['c'],1,left,['1'],6,0.1960282999998526,54,,6,18,Man,Rechts,1,
,xotask,dotcolour,xotask,3,4,243,243,main,negativefb,-99,hard,,0.7007849000001443,['n'],1,right,['1'],6,0.15328950000002806,28,,6,18,Man,Rechts,1,
,xotask,dotcolour,xotask,4,4,244,244,main,negativefb,-99,hard,,1.3005247000000963,['c'],1,left,['8'],3,0.13591550000001007,54,,6,18,Man,Rechts,1,
,xotask,dotcolour,xotask,5,4,245,245,main,negativefb,-99,average,,0.8344657999996343,['n'],1,right,['1'],6,0.1461821000002601,15,,6,18,Man,Rechts,1,
,xotask,dotcolour,xotask,6,4,246,246,main,negativefb,-99,easy,,1.4673650000004272,['n'],1,right,['3'],4,0.138896599999498,6,,6,18,Man,Rechts,1,
,xotask,dotcolour,xotask,7,4,247,247,main,negativefb,-99,easy,,2.2014619999999923,['c'],1,left,['2'],5,0.11024540000016714,72,,6,18,Man,Rechts,1,
,xotask,dotcolour,xotask,8,4,248,248,main,negativefb,-99,easy,,0.7342969000001176,['n'],1,right,['1'],6,0.15687010000056034,8,,6,18,Man,Rechts,1,
,xotask,dotcolour,xotask,9,4,249,249,main,negativefb,-99,hard,,0.6345477999993818,['n'],1,right,['1'],6,0.1349739999996018,26,,6,18,Man,Rechts,1,
,xotask,dotcolour,xotask,10,4,250,250,main,negativefb,-99,easy,,0.6999807000001965,['c'],1,left,['1'],6,0.1743747999998959,73,,6,18,Man,Rechts,1,
,xotask,dotcolour,xotask,11,4,251,251,main,negativefb,-99,hard,,1.1177353000002768,['n'],0,left,['1'],6,0.07540580000022601,54,,6,18,Man,Rechts,1,
,xotask,dotcolour,xotask,12,4,252,252,main,negativefb,-99,hard,,0.9013537000000724,['n'],1,right,['8'],3,0.1569629999994504,26,,6,18,Man,Rechts,1,
,xotask,dotcolour,xotask,13,4,253,253,main,negativefb,-99,hard,,1.518685000000005,['c'],0,right,['8'],3,0.1076178000002983,26,,6,18,Man,Rechts,1,
,xotask,dotcolour,xotask,14,4,254,254,main,negativefb,-99,easy,,0.6673088000006828,['c'],1,left,['1'],6,0.13333810000040103,73,,6,18,Man,Rechts,1,
,xotask,dotcolour,xotask,15,4,255,255,main,negativefb,-99,hard,,1.6837676000004649,['c'],1,left,['1'],6,0.05407290000039211,50,,6,18,Man,Rechts,1,
,xotask,dotcolour,xotask,16,4,256,256,main,negativefb,-99,hard,,0.6672979999993913,['n'],1,right,['1'],6,0.08111370000005991,29,,6,18,Man,Rechts,1,
,xotask,dotcolour,xotask,17,4,257,257,main,negativefb,-99,hard,,0.6846463000001677,['n'],0,left,['1'],6,0.8837972999999693,54,,6,18,Man,Rechts,1,
,xotask,dotcolour,xotask,18,4,258,258,main,negativefb,-99,hard,,0.7009374999997817,['c'],1,left,['1'],6,0.11698849999993399,50,,6,18,Man,Rechts,1,
,xotask,dotcolour,xotask,19,4,259,259,main,negativefb,-99,hard,,0.884208899999976,['n'],1,right,['1'],6,0.0779382999999143,26,,6,18,Man,Rechts,1,
,xotask,dotcolour,xotask,20,4,260,260,main,negativefb,-99,easy,,0.8345575000003009,['n'],1,right,['1'],6,0.09026650000032532,7,,6,18,Man,Rechts,1,
,xotask,dotcolour,xotask,21,4,261,261,main,negativefb,-99,average,,0.8667452999998204,['c'],1,left,['1'],6,0.12477429999944434,62,,6,18,Man,Rechts,1,
,xotask,dotcolour,xotask,22,4,262,262,main,negativefb,-99,hard,,1.283954900000026,['c'],1,left,['1'],6,0.08551629999965371,54,,6,18,Man,Rechts,1,
,xotask,dotcolour,xotask,23,4,263,263,main,negativefb,-99,hard,,0.8666661999995995,['n'],1,right,['3'],4,0.1523656999997911,29,,6,18,Man,Rechts,1,
,xotask,dotcolour,xotask,24,4,264,264,main,negativefb,-99,average,,1.1837203000004592,['n'],0,left,['2'],5,0.12315849999959028,64,,6,18,Man,Rechts,1,
,xotask,dotcolour,xotask,25,4,265,265,main,negativefb,-99,easy,,0.6846078999997189,['n'],1,right,['1'],6,0.14017010000043229,5,,6,18,Man,Rechts,1,
,xotask,dotcolour,xotask,26,4,266,266,main,negativefb,-99,easy,,0.7340580000000045,['c'],1,left,['1'],6,0.10633950000010373,74,,6,18,Man,Rechts,1,
,xotask,dotcolour,xotask,27,4,267,267,main,negativefb,-99,average,,0.7841364999994767,['c'],1,left,['1'],6,0.11969150000004447,64,,6,18,Man,Rechts,1,
,xotask,dotcolour,xotask,28,4,268,268,main,negativefb,-99,average,,1.4516297000000122,['n'],0,left,['8'],3,0.09767980000015086,60,,6,18,Man,Rechts,1,
,xotask,dotcolour,xotask,29,4,269,269,main,negativefb,-99,average,,1.100897399999667,['c'],1,left,['8'],3,0.13031969999974535,61,,6,18,Man,Rechts,1,
,xotask,dotcolour,xotask,30,4,270,270,main,negativefb,-99,hard,,1.501131300000452,['n'],1,right,['1'],6,0.1305618999995204,29,,6,18,Man,Rechts,1,
,xotask,dotcolour,xotask,31,4,271,271,main,negativefb,-99,average,,1.2184699999997974,['c'],1,left,['8'],3,0.16577150000011898,62,,6,18,Man,Rechts,1,
,xotask,dotcolour,xotask,32,4,272,272,main,negativefb,-99,average,,1.034415000000081,['n'],1,right,['1'],6,0.19851159999961965,17,,6,18,Man,Rechts,1,
,xotask,dotcolour,xotask,33,4,273,273,main,negativefb,-99,hard,,0.7178629000000001,['n'],1,right,['1'],6,0.1619869000005565,28,,6,18,Man,Rechts,1,
,xotask,dotcolour,xotask,34,4,274,274,main,negativefb,-99,average,,0.7013351000005059,['n'],1,right,['1'],6,0.1770662999997512,15,,6,18,Man,Rechts,1,
,xotask,dotcolour,xotask,35,4,275,275,main,negativefb,-99,average,,0.7337406000006013,['n'],1,right,['1'],6,0.2062329000000318,19,,6,18,Man,Rechts,1,
,xotask,dotcolour,xotask,36,4,276,276,main,negativefb,-99,easy,,0.9343335999992632,['c'],1,left,['2'],5,0.160572100000536,72,,6,18,Man,Rechts,1,
,xotask,dotcolour,xotask,37,4,277,277,main,negativefb,-99,easy,,0.6685109000000011,['c'],1,left,['2'],5,0.1287040999995952,74,,6,18,Man,Rechts,1,
,xotask,dotcolour,xotask,38,4,278,278,main,negativefb,-99,easy,,0.8007443000005878,['n'],1,right,['1'],6,0.14133479999964038,9,,6,18,Man,Rechts,1,
,xotask,dotcolour,xotask,39,4,279,279,main,negativefb,-99,easy,,0.6840291999997135,['n'],1,right,['1'],6,0.21295419999933074,8,,6,18,Man,Rechts,1,
,xotask,dotcolour,xotask,40,4,280,280,main,negativefb,-99,average,,1.1004683000001023,['n'],1,right,['1'],6,0.08176949999960925,15,,6,18,Man,Rechts,1,
,xotask,dotcolour,xotask,41,4,281,281,main,negativefb,-99,easy,,0.7165327000002435,['n'],1,right,['1'],6,0.162575299999844,9,,6,18,Man,Rechts,1,
,xotask,dotcolour,xotask,42,4,282,282,main,negativefb,-99,easy,,0.5672296999991886,['c'],1,left,['1'],6,0.1746035000005577,73,,6,18,Man,Rechts,1,
,xotask,dotcolour,xotask,43,4,283,283,main,negativefb,-99,average,,0.4676638000000821,['n'],1,right,['1'],6,0.20616740000059508,19,,6,18,Man,Rechts,1,
,xotask,dotcolour,xotask,44,4,284,284,main,negativefb,-99,hard,,1.0181422000005114,['c'],0,right,['8'],3,0.14123710000058054,28,,6,18,Man,Rechts,1,
,xotask,dotcolour,xotask,45,4,285,285,main,negativefb,-99,average,,0.9513679000001503,['c'],1,left,['8'],3,0.1546996000006402,63,,6,18,Man,Rechts,1,
,xotask,dotcolour,xotask,46,4,286,286,main,negativefb,-99,average,,1.4178819999997359,['n'],1,right,['1'],6,0.08523090000016964,18,,6,18,Man,Rechts,1,
,xotask,dotcolour,xotask,47,4,287,287,main,negativefb,-99,easy,,0.7172425999997358,['n'],1,right,['1'],6,0.1978970999998637,5,,6,18,Man,Rechts,1,
,xotask,dotcolour,xotask,48,4,288,288,main,negativefb,-99,easy,,0.7681672999997318,['c'],1,left,['1'],6,0.18442030000005616,74,,6,18,Man,Rechts,1,
,xotask,dotcolour,xotask,49,4,289,289,main,negativefb,-99,hard,,1.0018640999996933,['c'],1,left,['3'],4,0.13730699999996432,54,,6,18,Man,Rechts,1,
,xotask,dotcolour,xotask,50,4,290,290,main,negativefb,-99,average,,0.9175162000001365,['n'],1,right,['1'],6,0.15205710000009276,15,,6,18,Man,Rechts,1,
,xotask,dotcolour,xotask,51,4,291,291,main,negativefb,-99,easy,,0.6842763999993622,['c'],1,left,['1'],6,0.19186550000085845,73,,6,18,Man,Rechts,1,
,xotask,dotcolour,xotask,52,4,292,292,main,negativefb,-99,easy,,0.6836579000000711,['n'],1,right,['1'],6,0.21331190000000788,5,,6,18,Man,Rechts,1,
,xotask,dotcolour,xotask,53,4,293,293,main,negativefb,-99,average,,1.0008867999995346,['c'],1,left,['3'],4,0.13464720000047237,61,,6,18,Man,Rechts,1,
,xotask,dotcolour,xotask,54,4,294,294,main,negativefb,-99,hard,,0.7839326000002984,['n'],0,left,['3'],4,0.13785029999962717,52,,6,18,Man,Rechts,1,
,xotask,dotcolour,xotask,55,4,295,295,main,negativefb,-99,average,,1.0503074999996898,['c'],1,left,['1'],6,0.09938830000010057,61,,6,18,Man,Rechts,1,
,xotask,dotcolour,xotask,56,4,296,296,main,negativefb,-99,easy,,0.7170877000007749,['n'],1,right,['1'],6,0.22715640000023996,7,,6,18,Man,Rechts,1,
,xotask,dotcolour,xotask,57,4,297,297,main,negativefb,-99,hard,,1.200864299999921,['c'],1,left,['3'],4,0.5312833999996656,52,,6,18,Man,Rechts,1,
,xotask,dotcolour,xotask,58,4,298,298,main,negativefb,-99,easy,,1.1019688000005772,['c'],1,left,['2'],5,0.21108010000079958,74,,6,18,Man,Rechts,1,
,xotask,dotcolour,xotask,59,4,299,299,main,negativefb,-99,average,,0.9343206999992617,['n'],0,left,['2'],5,0.5179754000000685,64,,6,18,Man,Rechts,1,
,dotcolour,dotcolour,xotask,0,0,0,300,training,negativefb,71,average,25,1.0511571999995795,['n'],1,right,['1'],6,0.09417899999971269,,,6,18,Man,Rechts,1,
,dotcolour,dotcolour,xotask,1,0,1,301,training,negativefb,54,hard,42,0.6995732999994289,['c'],1,left,['1'],6,0.11034670000026381,,,6,18,Man,Rechts,1,
,dotcolour,dotcolour,xotask,2,0,2,302,training,negativefb,88,easy,64,0.8834025999994992,['c'],1,left,['1'],6,0.7435920000007172,,,6,18,Man,Rechts,1,
,dotcolour,dotcolour,xotask,3,0,3,303,training,negativefb,48,easy,19,0.7004993000000468,['n'],1,right,['1'],6,0.11008110000057059,,,6,18,Man,Rechts,1,
,dotcolour,dotcolour,xotask,4,0,4,304,training,negativefb,60,hard,39,0.9335570000002917,['n'],1,right,['8'],3,0.2047178000002532,,,6,18,Man,Rechts,1,
,dotcolour,dotcolour,xotask,5,0,5,305,training,negativefb,56,hard,38,0.8670233000002554,['n'],1,right,['8'],3,0.14551829999982147,,,6,18,Man,Rechts,1,
,dotcolour,dotcolour,xotask,6,0,6,306,training,negativefb,68,average,29,0.9327825999998822,['n'],1,right,['1'],6,0.10336980000010954,,,6,18,Man,Rechts,1,
,dotcolour,dotcolour,xotask,7,0,7,307,training,negativefb,70,hard,38,0.7839856999999029,['c'],0,right,['3'],4,0.4039983000002394,,,6,18,Man,Rechts,1,
,dotcolour,dotcolour,xotask,8,0,8,308,training,negativefb,18,easy,62,0.7335192999998981,['c'],1,left,['1'],6,0.1985741999997117,,,6,18,Man,Rechts,1,
,dotcolour,dotcolour,xotask,9,0,9,309,training,negativefb,57,average,52,0.8497980000001917,['c'],1,left,['1'],6,0.1809787000001961,,,6,18,Man,Rechts,1,
,dotcolour,dotcolour,xotask,10,0,10,310,training,negativefb,65,easy,61,0.7846737999998368,['c'],1,left,['1'],6,0.1579771000006076,,,6,18,Man,Rechts,1,
,dotcolour,dotcolour,xotask,11,0,11,311,training,negativefb,63,easy,62,0.7835886000002574,['c'],1,left,['1'],6,0.14528160000008938,,,6,18,Man,Rechts,1,
,dotcolour,dotcolour,xotask,12,0,12,312,training,negativefb,41,hard,41,0.9837441999998191,['n'],0,left,['3'],4,0.10760069999923871,,,6,18,Man,Rechts,1,
,dotcolour,dotcolour,xotask,13,0,13,313,training,negativefb,75,easy,18,0.7838346999997157,['n'],1,right,['1'],6,0.13697299999967072,,,6,18,Man,Rechts,1,
,dotcolour,dotcolour,xotask,14,0,14,314,training,negativefb,71,average,26,1.0005252000000837,['n'],1,right,['2'],5,0.1874311999999918,,,6,18,Man,Rechts,1,
,dotcolour,dotcolour,xotask,15,0,15,315,training,negativefb,66,hard,43,1.216773000000103,['n'],0,left,['3'],4,0.12294560000009369,,,6,18,Man,Rechts,1,
,dotcolour,dotcolour,xotask,16,0,16,316,training,negativefb,55,average,26,0.8342343000003893,['n'],1,right,['1'],6,0.16596260000005714,,,6,18,Man,Rechts,1,
,dotcolour,dotcolour,xotask,17,0,17,317,training,negativefb,92,easy,63,0.6334965000005468,['c'],1,left,['1'],6,0.15734299999985524,,,6,18,Man,Rechts,1,
,dotcolour,dotcolour,xotask,18,0,18,318,training,negativefb,73,hard,45,0.9001262000001589,['n'],0,left,['3'],4,0.11521600000014587,,,6,18,Man,Rechts,1,
,dotcolour,dotcolour,xotask,19,0,19,319,training,negativefb,70,hard,42,0.7333435999998983,['n'],0,left,['3'],4,0.11332789999960369,,,6,18,Man,Rechts,1,
,dotcolour,dotcolour,xotask,20,0,20,320,training,negativefb,87,average,26,0.9011417000001529,['n'],1,right,['1'],6,0.1535943999997471,,,6,18,Man,Rechts,1,
,dotcolour,dotcolour,xotask,21,0,21,321,training,negativefb,43,hard,41,1.1336741999994047,['n'],0,left,['8'],3,0.08603149999999005,,,6,18,Man,Rechts,1,
,dotcolour,dotcolour,xotask,22,0,22,322,training,negativefb,30,average,55,0.7489709999999832,['c'],1,left,['1'],6,0.13273079999999027,,,6,18,Man,Rechts,1,
,dotcolour,dotcolour,xotask,23,0,23,323,training,negativefb,65,hard,35,1.1825190999998085,['n'],1,right,['3'],4,0.11239209999985178,,,6,18,Man,Rechts,1,
,dotcolour,dotcolour,xotask,24,0,24,324,training,negativefb,72,average,54,1.233067099999971,['c'],1,left,['1'],6,0.11548450000009325,,,6,18,Man,Rechts,1,
,dotcolour,dotcolour,xotask,25,0,25,325,training,negativefb,54,easy,18,0.7002791000004436,['n'],1,right,['1'],6,0.07453839999925549,,,6,18,Man,Rechts,1,
,dotcolour,dotcolour,xotask,26,0,26,326,training,negativefb,77,hard,41,1.1003405000001294,['n'],0,left,['3'],4,0.09987499999988358,,,6,18,Man,Rechts,1,
,dotcolour,dotcolour,xotask,27,0,27,327,training,negativefb,62,easy,63,0.933871199999885,['c'],1,left,['2'],5,0.11483019999923272,,,6,18,Man,Rechts,1,
,dotcolour,dotcolour,xotask,28,0,28,328,training,negativefb,74,easy,62,0.9005895000000237,['c'],1,left,['2'],5,0.12196579999999813,,,6,18,Man,Rechts,1,
,dotcolour,dotcolour,xotask,29,0,29,329,training,negativefb,49,hard,38,0.6832598000000871,['n'],1,right,['1'],6,0.05856750000020838,,,6,18,Man,Rechts,1,
,dotcolour,dotcolour,xotask,30,0,30,330,training,negativefb,70,easy,63,1.0344084999996994,['c'],1,left,['2'],5,0.07806500000060623,,,6,18,Man,Rechts,1,
,dotcolour,dotcolour,xotask,31,0,31,331,training,negativefb,32,average,28,0.7005288000000292,['n'],1,right,['1'],6,0.08815690000028553,,,6,18,Man,Rechts,1,
,dotcolour,dotcolour,xotask,32,0,32,332,training,negativefb,67,average,29,0.6660671999998158,['n'],1,right,['8'],3,0.08986740000000282,,,6,18,Man,Rechts,1,
,dotcolour,dotcolour,xotask,33,0,33,333,training,negativefb,44,easy,17,0.7327686000007816,['n'],1,right,['1'],6,0.1935206999996808,,,6,18,Man,Rechts,1,
,dotcolour,dotcolour,xotask,34,0,34,334,training,negativefb,75,hard,44,0.733191700000134,['c'],1,left,['1'],6,0.10829160000048432,,,6,18,Man,Rechts,1,
,dotcolour,dotcolour,xotask,35,0,35,335,training,negativefb,77,average,26,0.5503845000002912,['n'],1,right,['1'],6,0.0823037000000113,,,6,18,Man,Rechts,1,
,dotcolour,dotcolour,xotask,36,0,36,336,training,negativefb,66,hard,38,1.0842574999996941,['n'],1,right,['8'],3,0.07643689999986236,,,6,18,Man,Rechts,1,
,dotcolour,dotcolour,xotask,37,0,37,337,training,negativefb,55,easy,64,0.899956199999906,['c'],1,left,['1'],6,0.6054254000000583,,,6,18,Man,Rechts,1,
,dotcolour,dotcolour,xotask,38,0,38,338,training,negativefb,61,easy,19,0.7000264999996944,['n'],1,right,['3'],4,0.15309400000023743,,,6,18,Man,Rechts,1,
,dotcolour,dotcolour,xotask,39,0,39,339,training,negativefb,52,average,55,0.7838094999997338,['c'],1,left,['1'],6,0.09208130000024539,,,6,18,Man,Rechts,1,
,dotcolour,dotcolour,xotask,40,0,40,340,training,negativefb,60,hard,44,0.9669889999995576,['n'],0,left,['8'],3,0.057997599999907834,,,6,18,Man,Rechts,1,
,dotcolour,dotcolour,xotask,41,0,41,341,training,negativefb,53,easy,19,0.7500665999996272,['n'],1,right,['1'],6,0.08185369999955583,,,6,18,Man,Rechts,1,
,dotcolour,dotcolour,xotask,42,0,42,342,training,negativefb,82,easy,15,0.5332167000005938,['n'],1,right,['1'],6,0.12140499999986787,,,6,18,Man,Rechts,1,
,dotcolour,dotcolour,xotask,43,0,43,343,training,negativefb,79,easy,18,0.5496869999997216,['n'],1,right,['1'],6,0.11110389999976178,,,6,18,Man,Rechts,1,
,dotcolour,dotcolour,xotask,44,0,44,344,training,negativefb,83,easy,18,0.48342719999982364,['n'],1,right,['1'],6,0.07945400000062364,,,6,18,Man,Rechts,1,
,dotcolour,dotcolour,xotask,45,0,45,345,training,negativefb,57,average,55,0.567506900000808,['c'],1,left,['1'],6,0.08629980000023352,,,6,18,Man,Rechts,1,
,dotcolour,dotcolour,xotask,46,0,46,346,training,negativefb,82,easy,65,0.4835819999998421,['c'],1,left,['1'],6,0.07976159999998345,,,6,18,Man,Rechts,1,
,dotcolour,dotcolour,xotask,47,0,47,347,training,negativefb,29,hard,35,0.48292289999972127,['n'],1,right,['2'],5,0.12208860000009736,,,6,18,Man,Rechts,1,
,dotcolour,dotcolour,xotask,48,0,48,348,training,negativefb,27,easy,17,0.883795700000519,['n'],1,right,['2'],5,0.21792910000021948,,,6,18,Man,Rechts,1,
,dotcolour,dotcolour,xotask,49,0,49,349,training,negativefb,81,hard,44,2.2676298000005772,['n'],0,left,['9'],2,1.1261807999999291,,,6,18,Man,Rechts,1,
,dotcolour,dotcolour,xotask,50,0,50,350,training,negativefb,32,hard,35,0.8334895000007236,['n'],1,right,['8'],3,0.0965926999997464,,,6,18,Man,Rechts,1,
,dotcolour,dotcolour,xotask,51,0,51,351,training,negativefb,66,average,51,0.8322321999994529,['c'],1,left,['2'],5,0.13985419999971782,,,6,18,Man,Rechts,1,
,dotcolour,dotcolour,xotask,52,0,52,352,training,negativefb,49,average,53,0.5997055999996519,['c'],1,left,['1'],6,0.08649810000042635,,,6,18,Man,Rechts,1,
,dotcolour,dotcolour,xotask,53,0,53,353,training,negativefb,62,hard,35,0.7002008999997997,['n'],1,right,['3'],4,0.12698999999975058,,,6,18,Man,Rechts,1,
,dotcolour,dotcolour,xotask,54,0,54,354,training,negativefb,74,average,55,0.6837488000001031,['n'],0,left,['3'],4,0.15075069999966217,,,6,18,Man,Rechts,1,
,dotcolour,dotcolour,xotask,55,0,55,355,training,negativefb,64,hard,38,2.0001392999993186,['c'],0,right,['2'],5,0.10550220000004629,,,6,18,Man,Rechts,1,
,dotcolour,dotcolour,xotask,56,0,56,356,training,negativefb,43,average,25,0.716901400000097,['n'],1,right,['1'],6,0.2004218000001856,,,6,18,Man,Rechts,1,
,dotcolour,dotcolour,xotask,57,0,57,357,training,negativefb,54,average,27,1.0172293000005084,['n'],1,right,['8'],3,0.06430860000000393,,,6,18,Man,Rechts,1,
,dotcolour,dotcolour,xotask,58,0,58,358,training,negativefb,71,average,51,0.7496443999998519,['c'],1,left,['1'],6,0.07168120000005729,,,6,18,Man,Rechts,1,
,dotcolour,dotcolour,xotask,59,0,59,359,training,negativefb,43,average,54,0.5678849000005357,['n'],0,left,['1'],6,0.11056029999963357,,,6,18,Man,Rechts,1,
,dotcolour,dotcolour,xotask,0,1,60,360,training,negativefb,55,average,55,1.4180347999999867,['c'],1,left,['2'],5,0.48808850000023085,,,6,18,Man,Rechts,1,
,dotcolour,dotcolour,xotask,1,1,61,361,training,negativefb,46,hard,44,2.367913000000044,['n'],0,left,['3'],4,0.06223680000039167,,,6,18,Man,Rechts,1,
,dotcolour,dotcolour,xotask,2,1,62,362,training,negativefb,51,average,27,0.6002454999998008,['n'],1,right,['1'],6,0.09982870000021649,,,6,18,Man,Rechts,1,
,dotcolour,dotcolour,xotask,3,1,63,363,training,negativefb,58,average,25,0.46583339999961026,['n'],1,right,['1'],6,0.09369340000012016,,,6,18,Man,Rechts,1,
,dotcolour,dotcolour,xotask,4,1,64,364,training,negativefb,58,easy,17,0.5008247000005213,['n'],1,right,['1'],6,0.11037010000018199,,,6,18,Man,Rechts,1,
,dotcolour,dotcolour,xotask,5,1,65,365,training,negativefb,52,hard,43,1.6001232999997228,['n'],0,left,['3'],4,0.0817021000002569,,,6,18,Man,Rechts,1,
,dotcolour,dotcolour,xotask,6,1,66,366,training,negativefb,48,hard,36,0.783891400000357,['n'],1,right,['1'],6,0.07989140000063344,,,6,18,Man,Rechts,1,
,dotcolour,dotcolour,xotask,7,1,67,367,training,negativefb,65,hard,41,1.0006862999998702,['c'],1,left,['2'],5,0.10089269999934913,,,6,18,Man,Rechts,1,
,dotcolour,dotcolour,xotask,8,1,68,368,training,negativefb,73,hard,43,0.7984429999996792,['c'],1,left,['2'],5,0.08892950000063138,,,6,18,Man,Rechts,1,
,dotcolour,dotcolour,xotask,9,1,69,369,training,negativefb,53,hard,43,1.1173793000007208,['n'],0,left,['3'],4,0.12082319999990432,,,6,18,Man,Rechts,1,
,dotcolour,dotcolour,xotask,10,1,70,370,training,negativefb,60,hard,35,0.6001504999994722,['n'],1,right,['3'],4,0.11641520000011951,,,6,18,Man,Rechts,1,
,dotcolour,dotcolour,xotask,11,1,71,371,training,negativefb,35,easy,61,1.533599299999878,['c'],1,left,['1'],6,0.4428171999998085,,,6,18,Man,Rechts,1,
,dotcolour,dotcolour,xotask,12,1,72,372,training,negativefb,52,hard,42,0.9162977000005412,['n'],0,left,['8'],3,0.06064479999986361,,,6,18,Man,Rechts,1,
,dotcolour,dotcolour,xotask,13,1,73,373,training,negativefb,72,average,27,0.8171312000004036,['n'],1,right,['1'],6,0.04183469999952649,,,6,18,Man,Rechts,1,
,dotcolour,dotcolour,xotask,14,1,74,374,training,negativefb,43,hard,36,0.5999331000002712,['n'],1,right,['1'],6,0.0803249999999025,,,6,18,Man,Rechts,1,
,dotcolour,dotcolour,xotask,15,1,75,375,training,negativefb,42,average,54,0.49989909999931115,['c'],1,left,['2'],5,0.10589549999986048,,,6,18,Man,Rechts,1,
,dotcolour,dotcolour,xotask,16,1,76,376,training,negativefb,70,easy,64,0.7337625000000116,['c'],1,left,['1'],6,0.064312799999243,,,6,18,Man,Rechts,1,
,dotcolour,dotcolour,xotask,17,1,77,377,training,negativefb,51,average,52,2.1839718000001085,['c'],1,left,['8'],3,0.02289440000004106,,,6,18,Man,Rechts,1,
,dotcolour,dotcolour,xotask,18,1,78,378,training,negativefb,57,easy,15,1.015827100000024,['n'],1,right,['3'],4,0.005371799999920768,,,6,18,Man,Rechts,1,
,dotcolour,dotcolour,xotask,19,1,79,379,training,negativefb,43,average,29,0.616547200000241,['n'],1,right,['1'],6,0.10859979999986535,,,6,18,Man,Rechts,1,
,dotcolour,dotcolour,xotask,20,1,80,380,training,negativefb,52,easy,18,0.6500205000002097,['n'],1,right,['1'],6,0.07872459999998682,,,6,18,Man,Rechts,1,
,dotcolour,dotcolour,xotask,21,1,81,381,training,negativefb,44,average,25,1.1996822999999495,['c'],0,right,['2'],5,0.09209139999984473,,,6,18,Man,Rechts,1,
,dotcolour,dotcolour,xotask,22,1,82,382,training,negativefb,32,easy,15,0.5840238999999201,['n'],1,right,['1'],6,0.1056202999998277,,,6,18,Man,Rechts,1,
,dotcolour,dotcolour,xotask,23,1,83,383,training,negativefb,42,easy,18,0.7166804999997112,['n'],1,right,['1'],6,0.11286699999982375,,,6,18,Man,Rechts,1,
,dotcolour,dotcolour,xotask,24,1,84,384,training,negativefb,67,hard,39,0.9671048999998675,['c'],0,right,['1'],6,0.09416180000062013,,,6,18,Man,Rechts,1,
,dotcolour,dotcolour,xotask,25,1,85,385,training,negativefb,69,easy,65,0.7840747000000192,['c'],1,left,['1'],6,0.1156713000000309,,,6,18,Man,Rechts,1,
,dotcolour,dotcolour,xotask,26,1,86,386,training,negativefb,77,easy,16,0.5835754999998244,['n'],1,right,['1'],6,0.09589490000053047,,,6,18,Man,Rechts,1,
,dotcolour,dotcolour,xotask,27,1,87,387,training,negativefb,41,easy,63,0.6333611999998539,['c'],1,left,['1'],6,0.09874550000040472,,,6,18,Man,Rechts,1,
,dotcolour,dotcolour,xotask,28,1,88,388,training,negativefb,75,average,54,0.7661459000000832,['c'],1,left,['1'],6,0.0883029999995415,,,6,18,Man,Rechts,1,
,dotcolour,dotcolour,xotask,29,1,89,389,training,negativefb,56,hard,43,0.8008396999994147,['c'],1,left,['2'],5,0.07760050000069896,,,6,18,Man,Rechts,1,
,dotcolour,dotcolour,xotask,30,1,90,390,training,negativefb,58,easy,62,0.6001842999994551,['c'],1,left,['1'],6,0.09857259999989765,,,6,18,Man,Rechts,1,
,dotcolour,dotcolour,xotask,31,1,91,391,training,negativefb,70,easy,19,0.46784979999938514,['n'],1,right,['1'],6,0.46717090000038297,,,6,18,Man,Rechts,1,
,dotcolour,dotcolour,xotask,32,1,92,392,training,negativefb,53,hard,37,1.2001242999995156,['n'],1,right,['8'],3,0.056582900000648806,,,6,18,Man,Rechts,1,
,dotcolour,dotcolour,xotask,33,1,93,393,training,negativefb,53,average,53,0.9329450000004726,['c'],1,left,['2'],5,0.08973009999954229,,,6,18,Man,Rechts,1,
,dotcolour,dotcolour,xotask,34,1,94,394,training,negativefb,52,hard,41,0.9992629999997007,['c'],1,left,['8'],3,0.05432759999985137,,,6,18,Man,Rechts,1,
,dotcolour,dotcolour,xotask,35,1,95,395,training,negativefb,53,average,53,1.5831610999994155,['c'],1,left,['2'],5,0.0450700000001234,,,6,18,Man,Rechts,1,
,dotcolour,dotcolour,xotask,36,1,96,396,training,negativefb,59,easy,19,0.6002097999999023,['n'],1,right,['1'],6,0.09999570000036329,,,6,18,Man,Rechts,1,
,dotcolour,dotcolour,xotask,37,1,97,397,training,negativefb,56,average,28,0.5675653000007514,['n'],1,right,['1'],6,0.16118080000069313,,,6,18,Man,Rechts,1,
,dotcolour,dotcolour,xotask,38,1,98,398,training,negativefb,42,average,26,0.700682599999709,['n'],1,right,['3'],4,0.11891670000022714,,,6,18,Man,Rechts,1,
,dotcolour,dotcolour,xotask,39,1,99,399,training,negativefb,72,hard,39,1.1672419999995327,['c'],0,right,['0'],1,0.11551280000003317,,,6,18,Man,Rechts,1,
,dotcolour,dotcolour,xotask,40,1,100,400,training,negativefb,66,average,25,1.1011058000003686,['n'],1,right,['3'],4,0.05928929999936372,,,6,18,Man,Rechts,1,
,dotcolour,dotcolour,xotask,41,1,101,401,training,negativefb,73,easy,63,0.8676421000000119,['c'],1,left,['1'],6,0.0941687999993519,,,6,18,Man,Rechts,1,
,dotcolour,dotcolour,xotask,42,1,102,402,training,negativefb,77,hard,35,0.9172272999994675,['n'],1,right,['3'],4,0.1744104999997944,,,6,18,Man,Rechts,1,
,dotcolour,dotcolour,xotask,43,1,103,403,training,negativefb,69,average,53,0.6494821999995111,['c'],1,left,['2'],5,0.08564949999981764,,,6,18,Man,Rechts,1,
,dotcolour,dotcolour,xotask,44,1,104,404,training,negativefb,56,hard,44,1.6345111999999062,['n'],0,left,['3'],4,0.04076030000032915,,,6,18,Man,Rechts,1,
,dotcolour,dotcolour,xotask,45,1,105,405,training,negativefb,69,average,28,0.8171718999992663,['n'],1,right,['2'],5,0.08652709999932995,,,6,18,Man,Rechts,1,
,dotcolour,dotcolour,xotask,46,1,106,406,training,negativefb,72,average,54,0.6497305000002598,['c'],1,left,['2'],5,0.08201399999961723,,,6,18,Man,Rechts,1,
,dotcolour,dotcolour,xotask,47,1,107,407,training,negativefb,88,average,55,0.7158681000000797,['c'],1,left,['2'],5,0.08155540000007022,,,6,18,Man,Rechts,1,
,dotcolour,dotcolour,xotask,48,1,108,408,training,negativefb,68,easy,62,0.6168737999996665,['c'],1,left,['2'],5,0.5581024000002799,,,6,18,Man,Rechts,1,
,dotcolour,dotcolour,xotask,49,1,109,409,training,negativefb,53,easy,63,0.8340699000000313,['c'],1,left,['1'],6,0.04663700000037352,,,6,18,Man,Rechts,1,
,dotcolour,dotcolour,xotask,50,1,110,410,training,negativefb,52,hard,38,0.5838807999998608,['n'],1,right,['3'],4,0.08594510000057198,,,6,18,Man,Rechts,1,
,dotcolour,dotcolour,xotask,51,1,111,411,training,negativefb,62,average,55,0.6502324000002773,['c'],1,left,['1'],6,0.10442779999993945,,,6,18,Man,Rechts,1,
,dotcolour,dotcolour,xotask,52,1,112,412,training,negativefb,61,easy,63,0.5171527000002243,['c'],1,left,['1'],6,0.0961330000000089,,,6,18,Man,Rechts,1,
,dotcolour,dotcolour,xotask,53,1,113,413,training,negativefb,66,easy,16,0.601477100000011,['n'],1,right,['1'],6,0.10861370000020543,,,6,18,Man,Rechts,1,
,dotcolour,dotcolour,xotask,54,1,114,414,training,negativefb,77,easy,61,0.6491988999996465,['c'],1,left,['2'],5,0.06281460000082006,,,6,18,Man,Rechts,1,
,dotcolour,dotcolour,xotask,55,1,115,415,training,negativefb,49,hard,36,0.9342290000004141,['n'],1,right,['8'],3,0.11097530000006373,,,6,18,Man,Rechts,1,
,dotcolour,dotcolour,xotask,56,1,116,416,training,negativefb,72,easy,18,0.7325638000002073,['n'],1,right,['1'],6,0.0779075999998895,,,6,18,Man,Rechts,1,
,dotcolour,dotcolour,xotask,57,1,117,417,training,negativefb,58,hard,44,1.1160545000002458,['n'],0,left,['8'],3,0.014839999999821885,,,6,18,Man,Rechts,1,
,dotcolour,dotcolour,xotask,58,1,118,418,training,negativefb,49,hard,39,0.5508670999997776,['n'],1,right,['8'],3,0.06477149999955145,,,6,18,Man,Rechts,1,
,dotcolour,dotcolour,xotask,59,1,119,419,training,negativefb,22,average,27,0.7665066999998089,['n'],1,right,['1'],6,0.4634083999999348,,,6,18,Man,Rechts,1,
,dotcolour,dotcolour,xotask,0,2,120,420,main,negativefb,-99,hard,37,1.4680714000005537,['n'],1,right,['3'],4,0.10037040000042907,,,6,18,Man,Rechts,1,
,dotcolour,dotcolour,xotask,1,2,121,421,main,negativefb,-99,average,55,1.3511624000002485,['c'],1,left,['1'],6,0.12296499999956723,,,6,18,Man,Rechts,1,
,dotcolour,dotcolour,xotask,2,2,122,422,main,negativefb,-99,easy,16,0.6342316999998729,['n'],1,right,['1'],6,0.2220777000002272,,,6,18,Man,Rechts,1,
,dotcolour,dotcolour,xotask,3,2,123,423,main,negativefb,-99,hard,35,0.7847074999999677,['n'],1,right,['3'],4,0.10227620000023308,,,6,18,Man,Rechts,1,
,dotcolour,dotcolour,xotask,4,2,124,424,main,negativefb,-99,easy,19,1.017789300000004,['n'],1,right,['1'],6,0.33808700000008685,,,6,18,Man,Rechts,1,
,dotcolour,dotcolour,xotask,5,2,125,425,main,negativefb,-99,easy,15,0.5850259999997434,['n'],1,right,['1'],6,0.14279910000004747,,,6,18,Man,Rechts,1,
,dotcolour,dotcolour,xotask,6,2,126,426,main,negativefb,-99,average,54,0.6500912999999855,['c'],1,left,['1'],6,0.11148789999970177,,,6,18,Man,Rechts,1,
,dotcolour,dotcolour,xotask,7,2,127,427,main,negativefb,-99,easy,63,0.7847690999997212,['c'],1,left,['1'],6,0.10932669999965583,,,6,18,Man,Rechts,1,
,dotcolour,dotcolour,xotask,8,2,128,428,main,negativefb,-99,easy,63,0.767203100000188,['c'],1,left,['1'],6,0.13958650000040507,,,6,18,Man,Rechts,1,
,dotcolour,dotcolour,xotask,9,2,129,429,main,negativefb,-99,hard,45,1.1345634999997856,['n'],0,left,['3'],4,0.08933149999938905,,,6,18,Man,Rechts,1,
,dotcolour,dotcolour,xotask,10,2,130,430,main,negativefb,-99,hard,43,0.7011993000005532,['c'],1,left,['1'],6,0.13814349999938713,,,6,18,Man,Rechts,1,
,dotcolour,dotcolour,xotask,11,2,131,431,main,negativefb,-99,hard,39,1.549743500000659,['n'],1,right,['3'],4,0.06434629999967001,,,6,18,Man,Rechts,1,
,dotcolour,dotcolour,xotask,12,2,132,432,main,negativefb,-99,easy,16,0.7506890000004205,['n'],1,right,['1'],6,0.15207550000013725,,,6,18,Man,Rechts,1,
,dotcolour,dotcolour,xotask,13,2,133,433,main,negativefb,-99,easy,19,0.5167123000001084,['n'],1,right,['1'],6,0.14958480000041163,,,6,18,Man,Rechts,1,
,dotcolour,dotcolour,xotask,14,2,134,434,main,negativefb,-99,easy,18,0.6004858000005697,['n'],1,right,['1'],6,0.15266309999969963,,,6,18,Man,Rechts,1,
,dotcolour,dotcolour,xotask,15,2,135,435,main,negativefb,-99,average,27,0.900285000000622,['n'],1,right,['1'],6,0.10333010000067588,,,6,18,Man,Rechts,1,
,dotcolour,dotcolour,xotask,16,2,136,436,main,negativefb,-99,average,55,0.5997416000000158,['c'],1,left,['1'],6,0.12389439999969909,,,6,18,Man,Rechts,1,
,dotcolour,dotcolour,xotask,17,2,137,437,main,negativefb,-99,easy,63,0.6840946000002077,['c'],1,left,['1'],6,0.1407152000001588,,,6,18,Man,Rechts,1,
,dotcolour,dotcolour,xotask,18,2,138,438,main,negativefb,-99,easy,16,0.6338168000002042,['n'],1,right,['1'],6,0.13496910000048956,,,6,18,Man,Rechts,1,
,dotcolour,dotcolour,xotask,19,2,139,439,main,negativefb,-99,hard,35,1.0678133000001253,['n'],1,right,['3'],4,0.1675284000002648,,,6,18,Man,Rechts,1,
,dotcolour,dotcolour,xotask,20,2,140,440,main,negativefb,-99,hard,45,0.7338129999998273,['c'],1,left,['3'],4,0.20449680000001536,,,6,18,Man,Rechts,1,
,dotcolour,dotcolour,xotask,21,2,141,441,main,negativefb,-99,hard,36,0.734014899999238,['n'],1,right,['2'],5,0.28773980000005395,,,6,18,Man,Rechts,1,
,dotcolour,dotcolour,xotask,22,2,142,442,main,negativefb,-99,easy,61,1.268255599999975,['c'],1,left,['1'],6,0.10636299999987386,,,6,18,Man,Rechts,1,
,dotcolour,dotcolour,xotask,23,2,143,443,main,negativefb,-99,hard,45,0.7005590999997366,['c'],1,left,['1'],6,0.1305885000001581,,,6,18,Man,Rechts,1,
,dotcolour,dotcolour,xotask,24,2,144,444,main,negativefb,-99,average,51,0.8013780999999653,['c'],1,left,['1'],6,0.14228710000043066,,,6,18,Man,Rechts,1,
,dotcolour,dotcolour,xotask,25,2,145,445,main,negativefb,-99,easy,62,0.8342491000003065,['c'],1,left,['1'],6,0.21633700000074896,,,6,18,Man,Rechts,1,
,dotcolour,dotcolour,xotask,26,2,146,446,main,negativefb,-99,easy,19,0.533812300000136,['n'],1,right,['1'],6,0.16255739999996877,,,6,18,Man,Rechts,1,
,dotcolour,dotcolour,xotask,27,2,147,447,main,negativefb,-99,easy,61,0.616905200000474,['c'],1,left,['1'],6,0.17247220000081143,,,6,18,Man,Rechts,1,
,dotcolour,dotcolour,xotask,28,2,148,448,main,negativefb,-99,hard,38,1.399810300000354,['c'],0,right,['2'],5,0.6866570000001957,,,6,18,Man,Rechts,1,
,dotcolour,dotcolour,xotask,29,2,149,449,main,negativefb,-99,hard,42,0.7680116000001362,['n'],0,left,['2'],5,0.17352140000002692,,,6,18,Man,Rechts,1,
,dotcolour,dotcolour,xotask,30,2,150,450,main,negativefb,-99,easy,18,0.5508939999999711,['n'],1,right,['2'],5,0.7138199000000895,,,6,18,Man,Rechts,1,
,dotcolour,dotcolour,xotask,31,2,151,451,main,negativefb,-99,hard,42,1.3678375999998025,['c'],1,left,['8'],3,0.07918699999936507,,,6,18,Man,Rechts,1,
,dotcolour,dotcolour,xotask,32,2,152,452,main,negativefb,-99,average,54,0.7507164999997258,['c'],1,left,['1'],6,0.11915460000000166,,,6,18,Man,Rechts,1,
,dotcolour,dotcolour,xotask,33,2,153,453,main,negativefb,-99,hard,37,2.1337296000001515,['n'],1,right,['8'],3,0.04678879999937635,,,6,18,Man,Rechts,1,
,dotcolour,dotcolour,xotask,34,2,154,454,main,negativefb,-99,average,25,0.7505627999998978,['n'],1,right,['1'],6,0.12703380000039033,,,6,18,Man,Rechts,1,
,dotcolour,dotcolour,xotask,35,2,155,455,main,negativefb,-99,easy,65,0.6327679999994871,['c'],1,left,['1'],6,0.13812380000035773,,,6,18,Man,Rechts,1,
,dotcolour,dotcolour,xotask,36,2,156,456,main,negativefb,-99,easy,64,0.5842044999999416,['n'],0,left,['0'],1,1.6791942999998355,,,6,18,Man,Rechts,1,
,dotcolour,dotcolour,xotask,37,2,157,457,main,negativefb,-99,average,28,1.2844617999999173,['n'],1,right,['1'],6,0.12080520000017714,,,6,18,Man,Rechts,1,
,dotcolour,dotcolour,xotask,38,2,158,458,main,negativefb,-99,hard,45,1.133001900000636,['c'],1,left,['2'],5,0.10421790000054898,,,6,18,Man,Rechts,1,
,dotcolour,dotcolour,xotask,39,2,159,459,main,negativefb,-99,average,53,0.8016600000000835,['c'],1,left,['2'],5,0.308314099999734,,,6,18,Man,Rechts,1,
,dotcolour,dotcolour,xotask,40,2,160,460,main,negativefb,-99,average,29,1.134322599999905,['n'],1,right,['2'],5,0.12298920000012004,,,6,18,Man,Rechts,1,
,dotcolour,dotcolour,xotask,41,2,161,461,main,negativefb,-99,hard,44,0.8500155000001541,['c'],1,left,['2'],5,0.10988230000020849,,,6,18,Man,Rechts,1,
,dotcolour,dotcolour,xotask,42,2,162,462,main,negativefb,-99,average,26,0.9336622999999236,['n'],1,right,['1'],6,0.14872409999952652,,,6,18,Man,Rechts,1,
,dotcolour,dotcolour,xotask,43,2,163,463,main,negativefb,-99,average,26,0.8339291000002049,['n'],1,right,['1'],6,0.23788620000050287,,,6,18,Man,Rechts,1,
,dotcolour,dotcolour,xotask,44,2,164,464,main,negativefb,-99,hard,44,1.051265500000227,['c'],1,left,['2'],5,0.16382169999997132,,,6,18,Man,Rechts,1,
,dotcolour,dotcolour,xotask,45,2,165,465,main,negativefb,-99,average,25,0.684010599999965,['n'],1,right,['2'],5,0.1467782999998235,,,6,18,Man,Rechts,1,
,dotcolour,dotcolour,xotask,46,2,166,466,main,negativefb,-99,hard,37,2.0332853999998406,['c'],0,right,['2'],5,0.13315590000001976,,,6,18,Man,Rechts,1,
,dotcolour,dotcolour,xotask,47,2,167,467,main,negativefb,-99,hard,42,1.4511043000002246,['c'],1,left,['2'],5,0.07073610000043118,,,6,18,Man,Rechts,1,
,dotcolour,dotcolour,xotask,48,2,168,468,main,negativefb,-99,easy,62,0.8509593999997378,['c'],1,left,['1'],6,0.17039849999946455,,,6,18,Man,Rechts,1,
,dotcolour,dotcolour,xotask,49,2,169,469,main,negativefb,-99,hard,35,1.001087099999495,['c'],0,right,['1'],6,0.212424700000156,,,6,18,Man,Rechts,1,
,dotcolour,dotcolour,xotask,50,2,170,470,main,negativefb,-99,average,28,0.6833074999995006,['c'],0,right,['2'],5,0.11430480000035459,,,6,18,Man,Rechts,1,
,dotcolour,dotcolour,xotask,51,2,171,471,main,negativefb,-99,average,54,0.833525500000178,['c'],1,left,['1'],6,0.13376840000000811,,,6,18,Man,Rechts,1,
,dotcolour,dotcolour,xotask,52,2,172,472,main,negativefb,-99,average,27,0.8009922999999617,['n'],1,right,['1'],6,0.09677130000000034,,,6,18,Man,Rechts,1,
,dotcolour,dotcolour,xotask,53,2,173,473,main,negativefb,-99,average,53,0.8519905000002836,['c'],1,left,['1'],6,0.3481861000000208,,,6,18,Man,Rechts,1,
,dotcolour,dotcolour,xotask,54,2,174,474,main,negativefb,-99,average,25,0.6847420999993119,['n'],1,right,['2'],5,0.3233614000000671,,,6,18,Man,Rechts,1,
,dotcolour,dotcolour,xotask,55,2,175,475,main,negativefb,-99,hard,35,2.4507401999999274,['n'],1,right,['3'],4,0.04583679999996093,,,6,18,Man,Rechts,1,
,dotcolour,dotcolour,xotask,56,2,176,476,main,negativefb,-99,average,53,0.7669597000003705,['c'],1,left,['1'],6,0.3101827000000412,,,6,18,Man,Rechts,1,
,dotcolour,dotcolour,xotask,57,2,177,477,main,negativefb,-99,average,51,1.333453099999133,['c'],1,left,['3'],4,0.10955679999915446,,,6,18,Man,Rechts,1,
,dotcolour,dotcolour,xotask,58,2,178,478,main,negativefb,-99,easy,65,0.7845887999992556,['c'],1,left,['1'],6,0.2102995999994164,,,6,18,Man,Rechts,1,
,dotcolour,dotcolour,xotask,59,2,179,479,main,negativefb,-99,easy,16,0.6844681000002311,['n'],1,right,['1'],6,0.24837010000010196,,,6,18,Man,Rechts,1,
,dotcolour,dotcolour,xotask,0,3,180,480,main,negativefb,-99,average,25,0.6342814999998154,['n'],1,right,['1'],6,0.16545700000006036,,,6,18,Man,Rechts,1,
,dotcolour,dotcolour,xotask,1,3,181,481,main,negativefb,-99,average,27,0.6004061000003276,['n'],1,right,['2'],5,0.23907490000055986,,,6,18,Man,Rechts,1,
,dotcolour,dotcolour,xotask,2,3,182,482,main,negativefb,-99,easy,64,1.2338900999993712,['c'],1,left,['1'],6,0.16545140000016545,,,6,18,Man,Rechts,1,
,dotcolour,dotcolour,xotask,3,3,183,483,main,negativefb,-99,hard,35,0.7179828999996971,['n'],1,right,['1'],6,0.1632915000000139,,,6,18,Man,Rechts,1,
,dotcolour,dotcolour,xotask,4,3,184,484,main,negativefb,-99,easy,62,1.0004188000002614,['c'],1,left,['1'],6,0.14907409999977972,,,6,18,Man,Rechts,1,
,dotcolour,dotcolour,xotask,5,3,185,485,main,negativefb,-99,easy,16,0.6829591000005166,['n'],1,right,['1'],6,0.4209406999998464,,,6,18,Man,Rechts,1,
,dotcolour,dotcolour,xotask,6,3,186,486,main,negativefb,-99,hard,36,1.250469200000225,['c'],0,right,['1'],6,0.13883420000001934,,,6,18,Man,Rechts,1,
,dotcolour,dotcolour,xotask,7,3,187,487,main,negativefb,-99,average,55,1.1002448999997796,['c'],1,left,['2'],5,0.17858040000010078,,,6,18,Man,Rechts,1,
,dotcolour,dotcolour,xotask,8,3,188,488,main,negativefb,-99,hard,35,1.5504232000002958,['n'],1,right,['2'],5,0.13419380000050296,,,6,18,Man,Rechts,1,
,dotcolour,dotcolour,xotask,9,3,189,489,main,negativefb,-99,average,54,0.7666237000003093,['c'],1,left,['1'],6,0.3473522000003868,,,6,18,Man,Rechts,1,
,dotcolour,dotcolour,xotask,10,3,190,490,main,negativefb,-99,average,52,1.1005140000006577,['c'],1,left,['1'],6,0.2264977999993789,,,6,18,Man,Rechts,1,
,dotcolour,dotcolour,xotask,11,3,191,491,main,negativefb,-99,easy,63,0.7337588999998843,['c'],1,left,['1'],6,0.23657670000011422,,,6,18,Man,Rechts,1,
,dotcolour,dotcolour,xotask,12,3,192,492,main,negativefb,-99,hard,43,1.8838974000000235,['c'],1,left,['2'],5,0.11337439999988419,,,6,18,Man,Rechts,1,
,dotcolour,dotcolour,xotask,13,3,193,493,main,negativefb,-99,hard,43,1.1849794999998267,['c'],1,left,['1'],6,0.246521500000199,,,6,18,Man,Rechts,1,
,dotcolour,dotcolour,xotask,14,3,194,494,main,negativefb,-99,hard,37,2.500332100000378,['n'],1,right,['2'],5,0.22544509999988804,,,6,18,Man,Rechts,1,
,dotcolour,dotcolour,xotask,15,3,195,495,main,negativefb,-99,easy,18,0.7340249999997468,['n'],1,right,['2'],5,0.3249556999999186,,,6,18,Man,Rechts,1,
,dotcolour,dotcolour,xotask,16,3,196,496,main,negativefb,-99,easy,62,0.701342399999703,['c'],1,left,['1'],6,0.31657650000033755,,,6,18,Man,Rechts,1,
,dotcolour,dotcolour,xotask,17,3,197,497,main,negativefb,-99,hard,36,1.434037800000624,['n'],1,right,['8'],3,0.07113399999980174,,,6,18,Man,Rechts,1,
,dotcolour,dotcolour,xotask,18,3,198,498,main,negativefb,-99,average,27,0.9668143999997483,['n'],1,right,['1'],6,0.19818209999993996,,,6,18,Man,Rechts,1,
,dotcolour,dotcolour,xotask,19,3,199,499,main,negativefb,-99,average,53,1.9843548999997438,['n'],0,left,['3'],4,0.11153680000006716,,,6,18,Man,Rechts,1,
,dotcolour,dotcolour,xotask,20,3,200,500,main,negativefb,-99,hard,42,0.9012532000006104,['n'],0,left,['3'],4,0.13672050000059244,,,6,18,Man,Rechts,1,
,dotcolour,dotcolour,xotask,21,3,201,501,main,negativefb,-99,easy,65,0.7005456999995658,['c'],1,left,['2'],5,0.25603939999928116,,,6,18,Man,Rechts,1,
,dotcolour,dotcolour,xotask,22,3,202,502,main,negativefb,-99,average,53,0.7837365000004866,['c'],1,left,['1'],6,0.2714139999998224,,,6,18,Man,Rechts,1,
,dotcolour,dotcolour,xotask,23,3,203,503,main,negativefb,-99,average,25,0.7671076000005996,['n'],1,right,['1'],6,0.16675179999947431,,,6,18,Man,Rechts,1,
,dotcolour,dotcolour,xotask,24,3,204,504,main,negativefb,-99,average,27,0.8173107000002346,['n'],1,right,['1'],6,0.1675955000000613,,,6,18,Man,Rechts,1,
,dotcolour,dotcolour,xotask,25,3,205,505,main,negativefb,-99,easy,15,0.7015885000000708,['n'],1,right,['1'],6,0.2134965999994165,,,6,18,Man,Rechts,1,
,dotcolour,dotcolour,xotask,26,3,206,506,main,negativefb,-99,easy,65,0.533365600000252,['c'],1,left,['1'],6,0.17734649999965768,,,6,18,Man,Rechts,1,
,dotcolour,dotcolour,xotask,27,3,207,507,main,negativefb,-99,easy,62,0.7008433000000878,['c'],1,left,['1'],6,0.1749837999996089,,,6,18,Man,Rechts,1,
,dotcolour,dotcolour,xotask,28,3,208,508,main,negativefb,-99,easy,62,0.7840524000002915,['c'],1,left,['1'],6,0.17810850000023493,,,6,18,Man,Rechts,1,
,dotcolour,dotcolour,xotask,29,3,209,509,main,negativefb,-99,hard,43,2.2178811000003407,['c'],1,left,['2'],5,0.11521590000029391,,,6,18,Man,Rechts,1,
,dotcolour,dotcolour,xotask,30,3,210,510,main,negativefb,-99,hard,41,0.8333253000000695,['n'],0,left,['2'],5,0.14196919999994861,,,6,18,Man,Rechts,1,
,dotcolour,dotcolour,xotask,31,3,211,511,main,negativefb,-99,hard,43,0.6519169000002876,['c'],1,left,['1'],6,0.6239931999998589,,,6,18,Man,Rechts,1,
,dotcolour,dotcolour,xotask,32,3,212,512,main,negativefb,-99,hard,41,1.1511946000000535,['c'],1,left,['2'],5,0.6490536999999676,,,6,18,Man,Rechts,1,
,dotcolour,dotcolour,xotask,33,3,213,513,main,negativefb,-99,average,53,1.6847077000002173,['c'],1,left,['2'],5,0.8130440000004455,,,6,18,Man,Rechts,1,
,dotcolour,dotcolour,xotask,34,3,214,514,main,negativefb,-99,average,28,0.7178494999998293,['n'],1,right,['2'],5,0.2810675999999148,,,6,18,Man,Rechts,1,
,dotcolour,dotcolour,xotask,35,3,215,515,main,negativefb,-99,hard,36,0.600606400000288,['n'],1,right,['2'],5,0.14190770000004704,,,6,18,Man,Rechts,1,
,dotcolour,dotcolour,xotask,36,3,216,516,main,negativefb,-99,average,52,0.850205000000642,['c'],1,left,['1'],6,0.21502379999947152,,,6,18,Man,Rechts,1,
,dotcolour,dotcolour,xotask,37,3,217,517,main,negativefb,-99,easy,61,0.717220499999712,['c'],1,left,['1'],6,0.13873100000000704,,,6,18,Man,Rechts,1,
,dotcolour,dotcolour,xotask,38,3,218,518,main,negativefb,-99,easy,17,0.6002324000000954,['n'],1,right,['1'],6,0.16607999999996537,,,6,18,Man,Rechts,1,
,dotcolour,dotcolour,xotask,39,3,219,519,main,negativefb,-99,hard,36,1.1677261000004364,['c'],0,right,['1'],6,0.12907309999991412,,,6,18,Man,Rechts,1,
,dotcolour,dotcolour,xotask,40,3,220,520,main,negativefb,-99,hard,43,2.2012196999994558,['c'],1,left,['3'],4,0.13338370000019495,,,6,18,Man,Rechts,1,
,dotcolour,dotcolour,xotask,41,3,221,521,main,negativefb,-99,hard,37,0.8165644000000611,['n'],1,right,['3'],4,0.13664520000020275,,,6,18,Man,Rechts,1,
,dotcolour,dotcolour,xotask,42,3,222,522,main,negativefb,-99,average,53,0.7668110000004162,['n'],0,left,['1'],6,0.14910020000024815,,,6,18,Man,Rechts,1,
,dotcolour,dotcolour,xotask,43,3,223,523,main,negativefb,-99,hard,45,2.1165429000002405,['c'],1,left,['1'],6,0.17916609999974753,,,6,18,Man,Rechts,1,
,dotcolour,dotcolour,xotask,44,3,224,524,main,negativefb,-99,hard,35,1.6011638999998468,['c'],0,right,['3'],4,0.08485560000008263,,,6,18,Man,Rechts,1,
,dotcolour,dotcolour,xotask,45,3,225,525,main,negativefb,-99,easy,17,0.6842485999995915,['c'],0,right,['1'],6,0.1673385000003691,,,6,18,Man,Rechts,1,
,dotcolour,dotcolour,xotask,46,3,226,526,main,negativefb,-99,easy,17,1.9509766000001036,['n'],1,right,['3'],4,0.12260519999927055,,,6,18,Man,Rechts,1,
,dotcolour,dotcolour,xotask,47,3,227,527,main,negativefb,-99,hard,36,1.0336321000004318,['n'],1,right,['3'],4,0.17363899999963905,,,6,18,Man,Rechts,1,
,dotcolour,dotcolour,xotask,48,3,228,528,main,negativefb,-99,average,28,0.734157499999128,['n'],1,right,['3'],4,0.15443099999993137,,,6,18,Man,Rechts,1,
,dotcolour,dotcolour,xotask,49,3,229,529,main,negativefb,-99,easy,17,0.6175662999994529,['n'],1,right,['1'],6,0.16487359999973705,,,6,18,Man,Rechts,1,
,dotcolour,dotcolour,xotask,50,3,230,530,main,negativefb,-99,average,28,0.8511845000002722,['n'],1,right,['1'],6,0.22074890000021696,,,6,18,Man,Rechts,1,
,dotcolour,dotcolour,xotask,51,3,231,531,main,negativefb,-99,easy,15,0.6184494999997696,['n'],1,right,['1'],6,0.22782850000021426,,,6,18,Man,Rechts,1,
,dotcolour,dotcolour,xotask,52,3,232,532,main,negativefb,-99,easy,16,0.6013058999997156,['n'],1,right,['1'],6,0.21933669999998529,,,6,18,Man,Rechts,1,
,dotcolour,dotcolour,xotask,53,3,233,533,main,negativefb,-99,hard,45,0.6512187999996968,['c'],1,left,['1'],6,0.16961429999992106,,,6,18,Man,Rechts,1,
,dotcolour,dotcolour,xotask,54,3,234,534,main,negativefb,-99,easy,61,0.7679378000002544,['c'],1,left,['1'],6,0.12528480000037234,,,6,18,Man,Rechts,1,
,dotcolour,dotcolour,xotask,55,3,235,535,main,negativefb,-99,average,51,0.6015520999999353,['c'],1,left,['1'],6,0.1452516999997897,,,6,18,Man,Rechts,1,
,dotcolour,dotcolour,xotask,56,3,236,536,main,negativefb,-99,average,53,0.6006359999992128,['c'],1,left,['1'],6,0.15630919999966864,,,6,18,Man,Rechts,1,
,dotcolour,dotcolour,xotask,57,3,237,537,main,negativefb,-99,easy,17,0.6340030999999726,['n'],1,right,['1'],6,0.16581270000006043,,,6,18,Man,Rechts,1,
,dotcolour,dotcolour,xotask,58,3,238,538,main,negativefb,-99,average,27,0.6343636000001425,['n'],1,right,['1'],6,0.1423543000000791,,,6,18,Man,Rechts,1,
,dotcolour,dotcolour,xotask,59,3,239,539,main,negativefb,-99,average,28,0.7003070000000662,['n'],1,right,['1'],6,0.15800169999965874,,,6,18,Man,Rechts,1,
,dotcolour,dotcolour,xotask,0,4,240,540,main,negativefb,-99,average,27,0.5848605000001044,['n'],1,right,['1'],6,0.1738615000003847,,,6,18,Man,Rechts,1,
,dotcolour,dotcolour,xotask,1,4,241,541,main,negativefb,-99,average,54,0.7174690000001647,['c'],1,left,['1'],6,0.21888029999990977,,,6,18,Man,Rechts,1,
,dotcolour,dotcolour,xotask,2,4,242,542,main,negativefb,-99,easy,64,0.8503316000005725,['c'],1,left,['1'],6,0.12110300000040297,,,6,18,Man,Rechts,1,
,dotcolour,dotcolour,xotask,3,4,243,543,main,negativefb,-99,average,26,0.7498711999996885,['n'],1,right,['1'],6,0.14303790000030858,,,6,18,Man,Rechts,1,
,dotcolour,dotcolour,xotask,4,4,244,544,main,negativefb,-99,average,54,0.917077000000063,['c'],1,left,['1'],6,0.14190320000034262,,,6,18,Man,Rechts,1,
,dotcolour,dotcolour,xotask,5,4,245,545,main,negativefb,-99,easy,65,0.7668127999995704,['c'],1,left,['1'],6,0.22653939999963768,,,6,18,Man,Rechts,1,
,dotcolour,dotcolour,xotask,6,4,246,546,main,negativefb,-99,average,29,0.6833643999998458,['n'],1,right,['1'],6,0.19892330000038783,,,6,18,Man,Rechts,1,
,dotcolour,dotcolour,xotask,7,4,247,547,main,negativefb,-99,average,25,0.6676451000002999,['n'],1,right,['1'],6,0.22136530000079802,,,6,18,Man,Rechts,1,
,dotcolour,dotcolour,xotask,8,4,248,548,main,negativefb,-99,easy,65,0.5511399999995774,['c'],1,left,['1'],6,0.1678226000003633,,,6,18,Man,Rechts,1,
,dotcolour,dotcolour,xotask,9,4,249,549,main,negativefb,-99,hard,38,1.666968700000325,['c'],0,right,['2'],5,1.5990304999995715,,,6,18,Man,Rechts,1,
,dotcolour,dotcolour,xotask,10,4,250,550,main,negativefb,-99,easy,61,1.0670672999995077,['c'],1,left,['1'],6,0.18863150000015594,,,6,18,Man,Rechts,1,
,dotcolour,dotcolour,xotask,11,4,251,551,main,negativefb,-99,hard,45,1.1173177000000578,['c'],1,left,['1'],6,0.1615126999995482,,,6,18,Man,Rechts,1,
,dotcolour,dotcolour,xotask,12,4,252,552,main,negativefb,-99,average,25,0.817521900000429,['n'],1,right,['1'],6,0.17145590000018274,,,6,18,Man,Rechts,1,
,dotcolour,dotcolour,xotask,13,4,253,553,main,negativefb,-99,average,52,0.6338774000005287,['c'],1,left,['1'],6,0.17206720000012865,,,6,18,Man,Rechts,1,
,dotcolour,dotcolour,xotask,14,4,254,554,main,negativefb,-99,hard,37,1.6019274000000223,['c'],0,right,['1'],6,0.29440919999979087,,,6,18,Man,Rechts,1,
,dotcolour,dotcolour,xotask,15,4,255,555,main,negativefb,-99,average,29,0.6181859999996959,['n'],1,right,['2'],5,0.5148942999994688,,,6,18,Man,Rechts,1,
,dotcolour,dotcolour,xotask,16,4,256,556,main,negativefb,-99,easy,19,0.7674440999999206,['n'],1,right,['1'],6,0.13567909999983385,,,6,18,Man,Rechts,1,
,dotcolour,dotcolour,xotask,17,4,257,557,main,negativefb,-99,easy,15,0.6671403999998802,['n'],1,right,['1'],6,0.1927507999998852,,,6,18,Man,Rechts,1,
,dotcolour,dotcolour,xotask,18,4,258,558,main,negativefb,-99,easy,65,0.8338706000004095,['c'],1,left,['1'],6,0.20077469999978348,,,6,18,Man,Rechts,1,
,dotcolour,dotcolour,xotask,19,4,259,559,main,negativefb,-99,easy,65,0.8678099000007933,['c'],1,left,['1'],6,0.17529859999922337,,,6,18,Man,Rechts,1,
,dotcolour,dotcolour,xotask,20,4,260,560,main,negativefb,-99,hard,45,1.2680096000003687,['c'],1,left,['1'],6,0.11796990000038932,,,6,18,Man,Rechts,1,
,dotcolour,dotcolour,xotask,21,4,261,561,main,negativefb,-99,easy,16,0.5180098000000726,['n'],1,right,['1'],6,0.19821959999990213,,,6,18,Man,Rechts,1,
,dotcolour,dotcolour,xotask,22,4,262,562,main,negativefb,-99,hard,44,0.9507488999997804,['n'],0,left,['2'],5,0.1760234000003038,,,6,18,Man,Rechts,1,
,dotcolour,dotcolour,xotask,23,4,263,563,main,negativefb,-99,easy,16,0.5672702000001664,['n'],1,right,['2'],5,0.2282175999998799,,,6,18,Man,Rechts,1,
,dotcolour,dotcolour,xotask,24,4,264,564,main,negativefb,-99,average,53,1.1002330999999685,['c'],1,left,['1'],6,0.08782569999948464,,,6,18,Man,Rechts,1,
,dotcolour,dotcolour,xotask,25,4,265,565,main,negativefb,-99,average,27,0.7682860999993864,['n'],1,right,['2'],5,0.246651300000849,,,6,18,Man,Rechts,1,
,dotcolour,dotcolour,xotask,26,4,266,566,main,negativefb,-99,easy,65,0.46738619999996445,['c'],1,left,['1'],6,0.1554418000005171,,,6,18,Man,Rechts,1,
,dotcolour,dotcolour,xotask,27,4,267,567,main,negativefb,-99,hard,35,0.8174436000008427,['n'],1,right,['2'],5,0.19681980000041222,,,6,18,Man,Rechts,1,
,dotcolour,dotcolour,xotask,28,4,268,568,main,negativefb,-99,average,28,0.8510825000003024,['n'],1,right,['2'],5,0.20467050000024756,,,6,18,Man,Rechts,1,
,dotcolour,dotcolour,xotask,29,4,269,569,main,negativefb,-99,hard,41,0.7677116000004389,['n'],0,left,['2'],5,0.2542600999995557,,,6,18,Man,Rechts,1,
,dotcolour,dotcolour,xotask,30,4,270,570,main,negativefb,-99,average,55,0.5677579000002879,['c'],1,left,['1'],6,0.17440370000076655,,,6,18,Man,Rechts,1,
,dotcolour,dotcolour,xotask,31,4,271,571,main,negativefb,-99,average,25,0.6330253000005541,['n'],1,right,['1'],6,0.3513188999995691,,,6,18,Man,Rechts,1,
,dotcolour,dotcolour,xotask,32,4,272,572,main,negativefb,-99,average,52,1.7179252999994787,['c'],1,left,['2'],5,0.1731142999997246,,,6,18,Man,Rechts,1,
,dotcolour,dotcolour,xotask,33,4,273,573,main,negativefb,-99,hard,42,0.7173414999997476,['c'],1,left,['2'],5,0.23404889999983425,,,6,18,Man,Rechts,1,
,dotcolour,dotcolour,xotask,34,4,274,574,main,negativefb,-99,easy,18,0.5845560999996451,['n'],1,right,['1'],6,0.13035060000038357,,,6,18,Man,Rechts,1,
,dotcolour,dotcolour,xotask,35,4,275,575,main,negativefb,-99,easy,15,0.5839453999997204,['n'],1,right,['1'],6,0.12712379999993573,,,6,18,Man,Rechts,1,
,dotcolour,dotcolour,xotask,36,4,276,576,main,negativefb,-99,average,52,0.7672608000002583,['c'],1,left,['1'],6,0.14839290000054461,,,6,18,Man,Rechts,1,
,dotcolour,dotcolour,xotask,37,4,277,577,main,negativefb,-99,hard,37,1.5350286000002598,['c'],0,right,['2'],5,0.1697703999998339,,,6,18,Man,Rechts,1,
,dotcolour,dotcolour,xotask,38,4,278,578,main,negativefb,-99,hard,42,1.101266300000134,['c'],1,left,['2'],5,0.25544389999959094,,,6,18,Man,Rechts,1,
,dotcolour,dotcolour,xotask,39,4,279,579,main,negativefb,-99,easy,19,1.0014282000001913,['n'],1,right,['2'],5,0.174591999999393,,,6,18,Man,Rechts,1,
,dotcolour,dotcolour,xotask,40,4,280,580,main,negativefb,-99,average,52,0.6512830000001486,['c'],1,left,['1'],6,0.1348180000004504,,,6,18,Man,Rechts,1,
,dotcolour,dotcolour,xotask,41,4,281,581,main,negativefb,-99,average,54,1.0668421000000308,['c'],1,left,['1'],6,0.19117860000005749,,,6,18,Man,Rechts,1,
,dotcolour,dotcolour,xotask,42,4,282,582,main,negativefb,-99,easy,65,0.8180976999992708,['c'],1,left,['1'],6,0.14401289999932487,,,6,18,Man,Rechts,1,
,dotcolour,dotcolour,xotask,43,4,283,583,main,negativefb,-99,hard,39,1.4673757999998998,['c'],0,right,['2'],5,0.27288119999957416,,,6,18,Man,Rechts,1,
,dotcolour,dotcolour,xotask,44,4,284,584,main,negativefb,-99,hard,37,1.5343970000003537,['c'],0,right,['2'],5,0.10528810000050726,,,6,18,Man,Rechts,1,
,dotcolour,dotcolour,xotask,45,4,285,585,main,negativefb,-99,hard,42,0.9999883999998929,['c'],1,left,['2'],5,0.15004529999987426,,,6,18,Man,Rechts,1,
,dotcolour,dotcolour,xotask,46,4,286,586,main,negativefb,-99,easy,64,0.8835172999997667,['c'],1,left,['1'],6,0.11670969999977387,,,6,18,Man,Rechts,1,
,dotcolour,dotcolour,xotask,47,4,287,587,main,negativefb,-99,easy,18,0.5505139000006238,['n'],1,right,['1'],6,0.1395524999998088,,,6,18,Man,Rechts,1,
,dotcolour,dotcolour,xotask,48,4,288,588,main,negativefb,-99,easy,17,0.48486159999993106,['n'],1,right,['1'],6,0.11528240000006917,,,6,18,Man,Rechts,1,
,dotcolour,dotcolour,xotask,49,4,289,589,main,negativefb,-99,easy,64,0.5996897000004537,['c'],1,left,['1'],6,0.1272662000001219,,,6,18,Man,Rechts,1,
,dotcolour,dotcolour,xotask,50,4,290,590,main,negativefb,-99,hard,44,1.001092499999686,['c'],1,left,['2'],5,0.09152779999931226,,,6,18,Man,Rechts,1,
,dotcolour,dotcolour,xotask,51,4,291,591,main,negativefb,-99,hard,35,0.8347428999995827,['n'],1,right,['2'],5,0.06317089999993186,,,6,18,Man,Rechts,1,
,dotcolour,dotcolour,xotask,52,4,292,592,main,negativefb,-99,easy,19,0.9513017000008404,['n'],1,right,['2'],5,0.088514999999461,,,6,18,Man,Rechts,1,
,dotcolour,dotcolour,xotask,53,4,293,593,main,negativefb,-99,average,53,0.6675125000001572,['c'],1,left,['1'],6,0.17811559999972815,,,6,18,Man,Rechts,1,
,dotcolour,dotcolour,xotask,54,4,294,594,main,negativefb,-99,hard,35,0.7681845999995858,['c'],0,right,['2'],5,1.414089700000659,,,6,18,Man,Rechts,1,
,dotcolour,dotcolour,xotask,55,4,295,595,main,negativefb,-99,hard,41,1.4180129999995188,['n'],0,left,['2'],5,0.10990680000031716,,,6,18,Man,Rechts,1,
,dotcolour,dotcolour,xotask,56,4,296,596,main,negativefb,-99,hard,43,0.8840376000007382,['n'],0,left,['2'],5,0.11903579999943759,,,6,18,Man,Rechts,1,
,dotcolour,dotcolour,xotask,57,4,297,597,main,negativefb,-99,hard,38,1.1007593000003908,['n'],1,right,['2'],5,0.15123860000039713,,,6,18,Man,Rechts,1,
,dotcolour,dotcolour,xotask,58,4,298,598,main,negativefb,-99,hard,38,0.8503485999999612,['c'],0,right,['1'],6,0.1521523999999772,,,6,18,Man,Rechts,1,
,dotcolour,dotcolour,xotask,59,4,299,599,main,negativefb,-99,average,26,0.7013874000003852,['n'],1,right,['1'],6,0.3187646999995195,,,6,18,Man,Rechts,1,
,dotcolour,dotcolour,xotask,0,0,0,600,training,negativefb,33,easy,19,0.7672052999996595,['n'],1,right,['1'],6,0.1035570000003645,,,6,18,Man,Rechts,1,
,dotcolour,dotcolour,xotask,1,0,1,601,training,negativefb,69,average,29,0.783368999999766,['n'],1,right,['1'],6,0.10806460000003426,,,6,18,Man,Rechts,1,
,dotcolour,dotcolour,xotask,2,0,2,602,training,negativefb,31,easy,15,0.5838625999995202,['n'],1,right,['1'],6,0.08868729999994684,,,6,18,Man,Rechts,1,
,dotcolour,dotcolour,xotask,3,0,3,603,training,negativefb,45,average,27,0.5666086000001087,['n'],1,right,['1'],6,0.11875140000029205,,,6,18,Man,Rechts,1,
,dotcolour,dotcolour,xotask,4,0,4,604,training,negativefb,76,average,53,0.80086829999982,['c'],1,left,['1'],6,0.089990299999954,,,6,18,Man,Rechts,1,
,dotcolour,dotcolour,xotask,5,0,5,605,training,negativefb,68,hard,42,0.7828578999997262,['n'],0,left,['2'],5,0.1355386000004728,,,6,18,Man,Rechts,1,
,dotcolour,dotcolour,xotask,6,0,6,606,training,negativefb,79,average,54,0.6012913000004119,['c'],1,left,['1'],6,0.1303351999995357,,,6,18,Man,Rechts,1,
,dotcolour,dotcolour,xotask,7,0,7,607,training,negativefb,43,hard,45,0.8664898999995785,['n'],0,left,['2'],5,0.16292650000013964,,,6,18,Man,Rechts,1,
,dotcolour,dotcolour,xotask,8,0,8,608,training,negativefb,78,average,28,0.567158599999857,['n'],1,right,['1'],6,0.18180080000001908,,,6,18,Man,Rechts,1,
,dotcolour,dotcolour,xotask,9,0,9,609,training,negativefb,73,average,55,0.5332114000002548,['c'],1,left,['1'],6,0.12156990000039514,,,6,18,Man,Rechts,1,
,dotcolour,dotcolour,xotask,10,0,10,610,training,negativefb,24,hard,41,0.6672383000004629,['n'],0,left,['3'],4,0.6017489000005298,,,6,18,Man,Rechts,1,
,dotcolour,dotcolour,xotask,11,0,11,611,training,negativefb,65,average,26,0.6506365000004735,['n'],1,right,['1'],6,0.09575610000047163,,,6,18,Man,Rechts,1,
,dotcolour,dotcolour,xotask,12,0,12,612,training,negativefb,65,easy,61,0.4826927000003707,['c'],1,left,['1'],6,0.12110369999936665,,,6,18,Man,Rechts,1,
,dotcolour,dotcolour,xotask,13,0,13,613,training,negativefb,87,hard,41,0.5832917999996425,['n'],0,left,['1'],6,0.13374449999992066,,,6,18,Man,Rechts,1,
,dotcolour,dotcolour,xotask,14,0,14,614,training,negativefb,87,hard,43,0.5169526999998197,['n'],0,left,['1'],6,0.17964829999982612,,,6,18,Man,Rechts,1,
,dotcolour,dotcolour,xotask,15,0,15,615,training,negativefb,66,easy,62,0.48340209999969375,['c'],1,left,['1'],6,0.09754830000019865,,,6,18,Man,Rechts,1,
,dotcolour,dotcolour,xotask,16,0,16,616,training,negativefb,88,easy,16,0.4502455000001646,['n'],1,right,['1'],6,0.5320728999995481,,,6,18,Man,Rechts,1,
,dotcolour,dotcolour,xotask,17,0,17,617,training,negativefb,74,hard,42,1.0007929999992484,['n'],0,left,['3'],4,0.16570390000015323,,,6,18,Man,Rechts,1,
,dotcolour,dotcolour,xotask,18,0,18,618,training,negativefb,71,average,51,0.4672235999996701,['c'],1,left,['1'],6,0.052996499999608204,,,6,18,Man,Rechts,1,
,dotcolour,dotcolour,xotask,19,0,19,619,training,negativefb,45,hard,36,0.45038059999933466,['n'],1,right,['1'],6,0.08091830000012123,,,6,18,Man,Rechts,1,
,dotcolour,dotcolour,xotask,20,0,20,620,training,negativefb,49,average,26,0.5837697999995726,['n'],1,right,['2'],5,0.12578639999992447,,,6,18,Man,Rechts,1,
,dotcolour,dotcolour,xotask,21,0,21,621,training,negativefb,78,hard,37,0.6995471999998699,['c'],0,right,['8'],3,0.07791510000060953,,,6,18,Man,Rechts,1,
,dotcolour,dotcolour,xotask,22,0,22,622,training,negativefb,57,easy,65,1.033676000000014,['c'],1,left,['1'],6,0.049902700000529876,,,6,18,Man,Rechts,1,
,dotcolour,dotcolour,xotask,23,0,23,623,training,negativefb,95,easy,16,0.43434139999953914,['n'],1,right,['1'],6,0.4383596999996371,,,6,18,Man,Rechts,1,
,dotcolour,dotcolour,xotask,24,0,24,624,training,negativefb,55,hard,39,0.7334575000004406,['c'],0,right,['2'],5,0.047933800000464544,,,6,18,Man,Rechts,1,
,dotcolour,dotcolour,xotask,25,0,25,625,training,negativefb,42,easy,15,1.0167720999997982,['n'],1,right,['1'],6,0.06166730000040843,,,6,18,Man,Rechts,1,
,dotcolour,dotcolour,xotask,26,0,26,626,training,negativefb,71,hard,35,0.9666299000000436,['n'],1,right,['8'],3,0.09216589999959979,,,6,18,Man,Rechts,1,
,dotcolour,dotcolour,xotask,27,0,27,627,training,negativefb,53,average,55,1.0510268999996697,['c'],1,left,"['3', '8']",4,0.2875773999994635,,,6,18,Man,Rechts,1,
,dotcolour,dotcolour,xotask,28,0,28,628,training,negativefb,65,hard,36,1.3170734999994238,['n'],1,right,['3'],4,0.06320869999944989,,,6,18,Man,Rechts,1,
,dotcolour,dotcolour,xotask,29,0,29,629,training,negativefb,62,average,54,0.7831034000000727,['c'],1,left,['3'],4,0.07025520000024699,,,6,18,Man,Rechts,1,
,dotcolour,dotcolour,xotask,30,0,30,630,training,negativefb,39,average,55,0.8334341999998287,['n'],0,left,['1'],6,0.1294650999998339,,,6,18,Man,Rechts,1,
,dotcolour,dotcolour,xotask,31,0,31,631,training,negativefb,47,hard,37,0.6166252000002714,['n'],1,right,['2'],5,0.196469800000159,,,6,18,Man,Rechts,1,
,dotcolour,dotcolour,xotask,32,0,32,632,training,negativefb,64,average,26,0.5176923999997598,['n'],1,right,['1'],6,0.12892860000010842,,,6,18,Man,Rechts,1,
,dotcolour,dotcolour,xotask,33,0,33,633,training,negativefb,69,easy,65,0.9834147000001394,['c'],1,left,['1'],6,0.11637340000015683,,,6,18,Man,Rechts,1,
,dotcolour,dotcolour,xotask,34,0,34,634,training,negativefb,45,easy,19,0.599966000000677,['n'],1,right,['1'],6,0.08072179999999207,,,6,18,Man,Rechts,1,
,dotcolour,dotcolour,xotask,35,0,35,635,training,negativefb,68,easy,62,0.7167422000002261,['c'],1,left,['1'],6,0.12865719999990688,,,6,18,Man,Rechts,1,
,dotcolour,dotcolour,xotask,36,0,36,636,training,negativefb,82,easy,64,0.4833532999991803,['c'],1,left,['1'],6,0.18470040000011068,,,6,18,Man,Rechts,1,
,dotcolour,dotcolour,xotask,37,0,37,637,training,negativefb,81,easy,15,0.48316090000025724,['n'],1,right,['1'],6,0.1422178000002532,,,6,18,Man,Rechts,1,
,dotcolour,dotcolour,xotask,38,0,38,638,training,negativefb,56,easy,16,0.45011780000004364,['n'],1,right,['1'],6,0.0871900000001915,,,6,18,Man,Rechts,1,
,dotcolour,dotcolour,xotask,39,0,39,639,training,negativefb,62,easy,16,0.5005418000000645,['n'],1,right,['2'],5,0.1355292999996891,,,6,18,Man,Rechts,1,
,dotcolour,dotcolour,xotask,40,0,40,640,training,negativefb,14,hard,43,0.4496649000002435,['n'],0,left,['2'],5,0.1277337000001353,,,6,18,Man,Rechts,1,
,dotcolour,dotcolour,xotask,41,0,41,641,training,negativefb,70,average,53,0.6829826000002868,['c'],1,left,['2'],5,0.12860280000040802,,,6,18,Man,Rechts,1,
,dotcolour,dotcolour,xotask,42,0,42,642,training,negativefb,37,average,53,0.616510500000004,['c'],1,left,['3'],4,0.10683349999999336,,,6,18,Man,Rechts,1,
,dotcolour,dotcolour,xotask,43,0,43,643,training,negativefb,51,hard,36,0.7672813999997743,['n'],1,right,['8'],3,0.05604040000071109,,,6,18,Man,Rechts,1,
,dotcolour,dotcolour,xotask,44,0,44,644,training,negativefb,78,average,54,0.9668340999996872,['c'],1,left,['3'],4,0.11168920000000071,,,6,18,Man,Rechts,1,
,dotcolour,dotcolour,xotask,45,0,45,645,training,negativefb,59,hard,38,0.7491600000003018,['n'],1,right,['3'],4,0.1094730000004347,,,6,18,Man,Rechts,1,
,dotcolour,dotcolour,xotask,46,0,46,646,training,negativefb,71,hard,42,0.7507569999997941,['n'],0,left,['3'],4,0.06788099999994301,,,6,18,Man,Rechts,1,
,dotcolour,dotcolour,xotask,47,0,47,647,training,negativefb,76,easy,15,0.7177447999993092,['n'],1,right,['1'],6,0.12402689999998984,,,6,18,Man,Rechts,1,
,dotcolour,dotcolour,xotask,48,0,48,648,training,negativefb,76,average,27,0.5333913000004031,['n'],1,right,['1'],6,0.08257709999998042,,,6,18,Man,Rechts,1,
,dotcolour,dotcolour,xotask,49,0,49,649,training,negativefb,44,easy,61,0.6671608999995442,['c'],1,left,['1'],6,0.08435559999998077,,,6,18,Man,Rechts,1,
,dotcolour,dotcolour,xotask,50,0,50,650,training,negativefb,70,easy,64,0.8506497999997009,['c'],1,left,['1'],6,0.09530119999999442,,,6,18,Man,Rechts,1,
,dotcolour,dotcolour,xotask,51,0,51,651,training,negativefb,69,hard,43,0.582872099999804,['n'],0,left,['2'],5,0.116780800000015,,,6,18,Man,Rechts,1,
,dotcolour,dotcolour,xotask,52,0,52,652,training,negativefb,68,hard,35,0.5333628000007593,['n'],1,right,['3'],4,0.1063930000000255,,,6,18,Man,Rechts,1,
,dotcolour,dotcolour,xotask,53,0,53,653,training,negativefb,60,average,28,1.3506532000001243,['c'],0,right,['3'],4,0.11202520000006189,,,6,18,Man,Rechts,1,
,dotcolour,dotcolour,xotask,54,0,54,654,training,negativefb,29,hard,41,0.7495638000000326,['n'],0,left,['8'],3,0.12686609999946086,,,6,18,Man,Rechts,1,
,dotcolour,dotcolour,xotask,55,0,55,655,training,negativefb,72,average,28,0.7166412999995373,['n'],1,right,['3'],4,0.06909350000023551,,,6,18,Man,Rechts,1,
,dotcolour,dotcolour,xotask,56,0,56,656,training,negativefb,82,easy,62,0.7340659000001324,['n'],0,left,['0'],1,1.0131572000000233,,,6,18,Man,Rechts,1,
,dotcolour,dotcolour,xotask,57,0,57,657,training,negativefb,58,hard,35,2.617474800000309,['n'],1,right,['8'],3,0.10815000000002328,,,6,18,Man,Rechts,1,
,dotcolour,dotcolour,xotask,58,0,58,658,training,negativefb,68,easy,62,0.6504037000004246,['c'],1,left,['2'],5,0.1260830999999598,,,6,18,Man,Rechts,1,
,dotcolour,dotcolour,xotask,59,0,59,659,training,negativefb,94,average,25,0.7334984999997687,['n'],1,right,['1'],6,0.10853620000034425,,,6,18,Man,Rechts,1,
,dotcolour,dotcolour,xotask,0,1,60,660,training,negativefb,60,average,26,0.8685575999998036,['n'],1,right,['1'],6,0.27629979999983334,,,6,18,Man,Rechts,1,
