starttime,task,fbtask,firsttask,withinblocktrial,block,withintasktrial,trial,running,feedback,fbscore,difflevel,reddots,rt,resp,cor,cresp,conf_press,cj,RTconf,n_xes,post1,post2,post3,post4,post5,stoptime,sub,age,gender,handedness,session,
1716965922,dotcolour,dotcolour,dotcolour,0,0,0,0,training,positivefb,99,easy,65,1.25067039999999,['c'],1,left,['3'],4,1.2384617000000162,,,,,,,,39,31,Vrouw,Links,2,
,dotcolour,dotcolour,dotcolour,1,0,1,1,training,positivefb,100,average,29,1.5166673999999603,['n'],1,right,['1'],6,1.8401880999999776,,,,,,,,39,31,Vrouw,Links,2,
,dotcolour,dotcolour,dotcolour,2,0,2,2,training,positivefb,90,average,54,1.2667039000000386,['c'],1,left,['1'],6,0.33100969999986773,,,,,,,,39,31,Vrouw,Links,2,
,dotcolour,dotcolour,dotcolour,3,0,3,3,training,positivefb,97,average,26,0.78354319999994,['n'],1,right,['1'],6,0.9343294999998761,,,,,,,,39,31,Vrouw,Links,2,
,dotcolour,dotcolour,dotcolour,4,0,4,4,training,positivefb,85,average,55,1.5168452000000343,['c'],1,left,['2'],5,0.49154199999998127,,,,,,,,39,31,Vrouw,Links,2,
,dotcolour,dotcolour,dotcolour,5,0,5,5,training,positivefb,92,average,54,1.1337135999999646,['c'],1,left,['2'],5,0.19544150000001537,,,,,,,,39,31,Vrouw,Links,2,
,dotcolour,dotcolour,dotcolour,6,0,6,6,training,positivefb,85,average,53,1.032722700000022,['c'],1,left,['2'],5,0.19477889999984654,,,,,,,,39,31,Vrouw,Links,2,
,dotcolour,dotcolour,dotcolour,7,0,7,7,training,positivefb,83,average,26,0.7662560999999641,['n'],1,right,['2'],5,0.23655959999996412,,,,,,,,39,31,Vrouw,Links,2,
,dotcolour,dotcolour,dotcolour,8,0,8,8,training,positivefb,71,hard,44,1.266785499999969,['c'],1,left,['3'],4,1.8404019999998127,,,,,,,,39,31,Vrouw,Links,2,
,dotcolour,dotcolour,dotcolour,9,0,9,9,training,positivefb,90,hard,37,1.2507660000001124,['n'],1,right,['3'],4,0.7884334000000308,,,,,,,,39,31,Vrouw,Links,2,
,dotcolour,dotcolour,dotcolour,10,0,10,10,training,positivefb,81,easy,16,0.8004625999999462,['n'],1,right,['1'],6,0.20556090000013683,,,,,,,,39,31,Vrouw,Links,2,
,dotcolour,dotcolour,dotcolour,11,0,11,11,training,positivefb,83,average,29,0.7165410000000065,['n'],1,right,['1'],6,0.17691080000008697,,,,,,,,39,31,Vrouw,Links,2,
,dotcolour,dotcolour,dotcolour,12,0,12,12,training,positivefb,90,hard,45,1.0493212000001222,['c'],1,left,['3'],4,0.6959916999999223,,,,,,,,39,31,Vrouw,Links,2,
,dotcolour,dotcolour,dotcolour,13,0,13,13,training,positivefb,80,average,27,0.7667555999998967,['n'],1,right,['1'],6,0.18157399999995505,,,,,,,,39,31,Vrouw,Links,2,
,dotcolour,dotcolour,dotcolour,14,0,14,14,training,positivefb,93,average,54,0.8664436000001388,['c'],1,left,['3'],4,0.29143839999983356,,,,,,,,39,31,Vrouw,Links,2,
,dotcolour,dotcolour,dotcolour,15,0,15,15,training,positivefb,51,hard,43,1.0158681000000342,['n'],0,left,['3'],4,0.38425610000012966,,,,,,,,39,31,Vrouw,Links,2,
,dotcolour,dotcolour,dotcolour,16,0,16,16,training,positivefb,99,average,25,0.7170648999999685,['n'],1,right,['2'],5,0.24397640000006504,,,,,,,,39,31,Vrouw,Links,2,
,dotcolour,dotcolour,dotcolour,17,0,17,17,training,positivefb,85,easy,15,0.7492892000000211,['n'],1,right,['1'],6,0.14110419999997248,,,,,,,,39,31,Vrouw,Links,2,
,dotcolour,dotcolour,dotcolour,18,0,18,18,training,positivefb,98,easy,19,0.6345558999998957,['n'],1,right,['1'],6,0.1340567000002011,,,,,,,,39,31,Vrouw,Links,2,
,dotcolour,dotcolour,dotcolour,19,0,19,19,training,positivefb,92,easy,64,0.8827724999998736,['c'],1,left,['1'],6,0.21305230000007214,,,,,,,,39,31,Vrouw,Links,2,
,dotcolour,dotcolour,dotcolour,20,0,20,20,training,positivefb,71,hard,45,1.4007490999999845,['c'],1,left,['3'],4,0.19736279999983708,,,,,,,,39,31,Vrouw,Links,2,
,dotcolour,dotcolour,dotcolour,21,0,21,21,training,positivefb,87,easy,17,0.6496145999999499,['n'],1,right,['1'],6,0.14808909999987918,,,,,,,,39,31,Vrouw,Links,2,
,dotcolour,dotcolour,dotcolour,22,0,22,22,training,positivefb,93,easy,63,1.015793899999835,['c'],1,left,['1'],6,0.1499145000000226,,,,,,,,39,31,Vrouw,Links,2,
,dotcolour,dotcolour,dotcolour,23,0,23,23,training,positivefb,90,hard,39,0.7335182000001623,['n'],1,right,['1'],6,0.1536487999999281,,,,,,,,39,31,Vrouw,Links,2,
,dotcolour,dotcolour,dotcolour,24,0,24,24,training,positivefb,95,average,53,0.8494492999998329,['c'],1,left,['2'],5,0.25102349999997386,,,,,,,,39,31,Vrouw,Links,2,
,dotcolour,dotcolour,dotcolour,25,0,25,25,training,positivefb,82,hard,43,0.8836882999999034,['n'],0,left,['3'],4,0.47691980000013245,,,,,,,,39,31,Vrouw,Links,2,
,dotcolour,dotcolour,dotcolour,26,0,26,26,training,positivefb,90,hard,35,1.0172141000000465,['n'],1,right,['1'],6,0.1692960000000312,,,,,,,,39,31,Vrouw,Links,2,
,dotcolour,dotcolour,dotcolour,27,0,27,27,training,positivefb,94,easy,63,0.8335284999998294,['c'],1,left,['1'],6,0.12175309999997808,,,,,,,,39,31,Vrouw,Links,2,
,dotcolour,dotcolour,dotcolour,28,0,28,28,training,positivefb,96,hard,37,0.8837591000001339,['n'],1,right,['2'],5,0.23328670000000784,,,,,,,,39,31,Vrouw,Links,2,
,dotcolour,dotcolour,dotcolour,29,0,29,29,training,positivefb,99,easy,16,0.7010892000000695,['n'],1,right,['1'],6,0.18879679999986365,,,,,,,,39,31,Vrouw,Links,2,
,dotcolour,dotcolour,dotcolour,30,0,30,30,training,positivefb,58,hard,35,1.167556999999988,['n'],1,right,['3'],4,0.302584300000035,,,,,,,,39,31,Vrouw,Links,2,
,dotcolour,dotcolour,dotcolour,31,0,31,31,training,positivefb,93,hard,43,0.8167635999998311,['n'],0,left,['2'],5,0.2493867999999111,,,,,,,,39,31,Vrouw,Links,2,
,dotcolour,dotcolour,dotcolour,32,0,32,32,training,positivefb,94,average,53,0.7176686999998765,['c'],1,left,['1'],6,0.2193061000000398,,,,,,,,39,31,Vrouw,Links,2,
,dotcolour,dotcolour,dotcolour,33,0,33,33,training,positivefb,92,easy,62,0.7670603999999912,['c'],1,left,['2'],5,0.18030099999987215,,,,,,,,39,31,Vrouw,Links,2,
,dotcolour,dotcolour,dotcolour,34,0,34,34,training,positivefb,67,hard,41,0.8162030999999388,['n'],0,left,['2'],5,0.2213214999999309,,,,,,,,39,31,Vrouw,Links,2,
,dotcolour,dotcolour,dotcolour,35,0,35,35,training,positivefb,72,average,29,0.9352925999999115,['c'],0,right,['1'],6,0.23898670000016864,,,,,,,,39,31,Vrouw,Links,2,
,dotcolour,dotcolour,dotcolour,36,0,36,36,training,positivefb,86,hard,39,0.8339123999999174,['n'],1,right,['2'],5,0.18048200000021097,,,,,,,,39,31,Vrouw,Links,2,
,dotcolour,dotcolour,dotcolour,37,0,37,37,training,positivefb,98,easy,63,0.7180386999998518,['c'],1,left,['1'],6,0.11233149999998204,,,,,,,,39,31,Vrouw,Links,2,
,dotcolour,dotcolour,dotcolour,38,0,38,38,training,positivefb,75,easy,15,1.0499862000001485,['n'],1,right,['1'],6,0.16999439999995047,,,,,,,,39,31,Vrouw,Links,2,
,dotcolour,dotcolour,dotcolour,39,0,39,39,training,positivefb,79,hard,36,1.0169012000001203,['n'],1,right,['2'],5,0.37965189999999893,,,,,,,,39,31,Vrouw,Links,2,
,dotcolour,dotcolour,dotcolour,40,0,40,40,training,positivefb,96,average,53,0.9001857000000655,['c'],1,left,['2'],5,0.2242561000000478,,,,,,,,39,31,Vrouw,Links,2,
,dotcolour,dotcolour,dotcolour,41,0,41,41,training,positivefb,88,hard,35,0.8007998999999018,['n'],1,right,['2'],5,0.21557890000008229,,,,,,,,39,31,Vrouw,Links,2,
,dotcolour,dotcolour,dotcolour,42,0,42,42,training,positivefb,91,easy,62,0.7996840999999222,['c'],1,left,['1'],6,0.17569939999998496,,,,,,,,39,31,Vrouw,Links,2,
,dotcolour,dotcolour,dotcolour,43,0,43,43,training,positivefb,86,average,55,0.8507340999999542,['c'],1,left,['1'],6,0.13541369999984454,,,,,,,,39,31,Vrouw,Links,2,
,dotcolour,dotcolour,dotcolour,44,0,44,44,training,positivefb,92,easy,19,0.7329502999998567,['n'],1,right,['1'],6,0.12361139999984516,,,,,,,,39,31,Vrouw,Links,2,
,dotcolour,dotcolour,dotcolour,45,0,45,45,training,positivefb,55,hard,35,0.9004652000000988,['n'],1,right,['2'],5,0.2196312000000944,,,,,,,,39,31,Vrouw,Links,2,
,dotcolour,dotcolour,dotcolour,46,0,46,46,training,positivefb,96,average,28,0.8497452000001431,['n'],1,right,['1'],6,0.16868969999995898,,,,,,,,39,31,Vrouw,Links,2,
,dotcolour,dotcolour,dotcolour,47,0,47,47,training,positivefb,95,easy,64,0.8509299999998348,['c'],1,left,['1'],6,0.12826869999980772,,,,,,,,39,31,Vrouw,Links,2,
,dotcolour,dotcolour,dotcolour,48,0,48,48,training,positivefb,94,hard,43,0.9663620999999694,['n'],0,left,['2'],5,0.15715879999993376,,,,,,,,39,31,Vrouw,Links,2,
,dotcolour,dotcolour,dotcolour,49,0,49,49,training,positivefb,96,easy,65,0.7344164999999521,['c'],1,left,['1'],6,0.09790390000011939,,,,,,,,39,31,Vrouw,Links,2,
,dotcolour,dotcolour,dotcolour,50,0,50,50,training,positivefb,86,hard,41,0.9659185999998954,['n'],0,left,['2'],5,0.21558109999978115,,,,,,,,39,31,Vrouw,Links,2,
,dotcolour,dotcolour,dotcolour,51,0,51,51,training,positivefb,91,easy,61,0.8673595000000205,['c'],1,left,['1'],6,0.12382539999998698,,,,,,,,39,31,Vrouw,Links,2,
,dotcolour,dotcolour,dotcolour,52,0,52,52,training,positivefb,85,easy,19,0.899612100000013,['n'],1,right,['1'],6,0.1473591999999826,,,,,,,,39,31,Vrouw,Links,2,
,dotcolour,dotcolour,dotcolour,53,0,53,53,training,positivefb,96,average,28,0.7503054000001157,['n'],1,right,['2'],5,0.2802372999999534,,,,,,,,39,31,Vrouw,Links,2,
,dotcolour,dotcolour,dotcolour,54,0,54,54,training,positivefb,91,easy,15,0.5847661999998763,['n'],1,right,['1'],6,0.13362630000005993,,,,,,,,39,31,Vrouw,Links,2,
,dotcolour,dotcolour,dotcolour,55,0,55,55,training,positivefb,96,average,25,0.6174536999999418,['n'],1,right,['1'],6,0.10370420000003833,,,,,,,,39,31,Vrouw,Links,2,
,dotcolour,dotcolour,dotcolour,56,0,56,56,training,positivefb,92,hard,38,0.8168928000000051,['n'],1,right,['2'],5,0.15479600000003302,,,,,,,,39,31,Vrouw,Links,2,
,dotcolour,dotcolour,dotcolour,57,0,57,57,training,positivefb,90,average,52,1.3501165000000128,['c'],1,left,['2'],5,0.3190875000000233,,,,,,,,39,31,Vrouw,Links,2,
,dotcolour,dotcolour,dotcolour,58,0,58,58,training,positivefb,76,hard,45,0.9827557999999499,['n'],0,left,['2'],5,0.26771609999991597,,,,,,,,39,31,Vrouw,Links,2,
,dotcolour,dotcolour,dotcolour,59,0,59,59,training,positivefb,89,easy,18,0.8509237000000667,['n'],1,right,['1'],6,0.11099560000002384,,,,,,,,39,31,Vrouw,Links,2,
,dotcolour,dotcolour,dotcolour,0,1,60,60,training,positivefb,94,hard,35,1.1011129000000892,['n'],1,right,['1'],6,0.09728300000006129,,,,,,,,39,31,Vrouw,Links,2,
,dotcolour,dotcolour,dotcolour,1,1,61,61,training,positivefb,95,average,52,1.1180681999999251,['c'],1,left,['2'],5,0.2967046000001119,,,,,,,,39,31,Vrouw,Links,2,
,dotcolour,dotcolour,dotcolour,2,1,62,62,training,positivefb,89,hard,35,0.8507899000001089,['n'],1,right,['2'],5,0.41213410000000295,,,,,,,,39,31,Vrouw,Links,2,
,dotcolour,dotcolour,dotcolour,3,1,63,63,training,positivefb,88,average,25,1.266671100000167,['n'],1,right,['1'],6,0.20129239999982929,,,,,,,,39,31,Vrouw,Links,2,
,dotcolour,dotcolour,dotcolour,4,1,64,64,training,positivefb,93,hard,35,0.88283720000004,['n'],1,right,['1'],6,0.15026080000006914,,,,,,,,39,31,Vrouw,Links,2,
,dotcolour,dotcolour,dotcolour,5,1,65,65,training,positivefb,93,easy,62,0.9344531000001552,['c'],1,left,['1'],6,0.1785411999999269,,,,,,,,39,31,Vrouw,Links,2,
,dotcolour,dotcolour,dotcolour,6,1,66,66,training,positivefb,98,easy,61,0.5335913999999775,['c'],1,left,['1'],6,0.1183774999999514,,,,,,,,39,31,Vrouw,Links,2,
,dotcolour,dotcolour,dotcolour,7,1,67,67,training,positivefb,90,hard,45,1.0657346999998936,['c'],1,left,['2'],5,0.18365990000006605,,,,,,,,39,31,Vrouw,Links,2,
,dotcolour,dotcolour,dotcolour,8,1,68,68,training,positivefb,73,average,53,1.849623400000155,['n'],0,left,['2'],5,0.2221638000000894,,,,,,,,39,31,Vrouw,Links,2,
,dotcolour,dotcolour,dotcolour,9,1,69,69,training,positivefb,93,easy,17,0.8163868000001457,['n'],1,right,['1'],6,0.1486214999999902,,,,,,,,39,31,Vrouw,Links,2,
,dotcolour,dotcolour,dotcolour,10,1,70,70,training,positivefb,97,average,28,0.6174725000000763,['n'],1,right,['1'],6,0.10256459999982326,,,,,,,,39,31,Vrouw,Links,2,
,dotcolour,dotcolour,dotcolour,11,1,71,71,training,positivefb,89,average,26,0.517508399999997,['n'],1,right,['1'],6,0.1020682000000761,,,,,,,,39,31,Vrouw,Links,2,
,dotcolour,dotcolour,dotcolour,12,1,72,72,training,positivefb,95,hard,43,1.7843763999999283,['c'],1,left,['2'],5,0.28294000000005326,,,,,,,,39,31,Vrouw,Links,2,
,dotcolour,dotcolour,dotcolour,13,1,73,73,training,positivefb,91,average,53,1.2008570999998938,['c'],1,left,['1'],6,0.15103690000000825,,,,,,,,39,31,Vrouw,Links,2,
,dotcolour,dotcolour,dotcolour,14,1,74,74,training,positivefb,96,average,52,0.5999448000000029,['c'],1,left,['1'],6,0.152645800000073,,,,,,,,39,31,Vrouw,Links,2,
,dotcolour,dotcolour,dotcolour,15,1,75,75,training,positivefb,93,average,26,0.8178365000001122,['n'],1,right,['1'],6,0.10647319999998217,,,,,,,,39,31,Vrouw,Links,2,
,dotcolour,dotcolour,dotcolour,16,1,76,76,training,positivefb,88,average,53,1.1836310999999569,['c'],1,left,['1'],6,0.11128369999983079,,,,,,,,39,31,Vrouw,Links,2,
,dotcolour,dotcolour,dotcolour,17,1,77,77,training,positivefb,94,easy,65,0.5999219999998786,['c'],1,left,['1'],6,0.11466310000014346,,,,,,,,39,31,Vrouw,Links,2,
,dotcolour,dotcolour,dotcolour,18,1,78,78,training,positivefb,95,average,26,0.7166841000000659,['n'],1,right,['1'],6,0.06563889999983985,,,,,,,,39,31,Vrouw,Links,2,
,dotcolour,dotcolour,dotcolour,19,1,79,79,training,positivefb,92,easy,64,0.8835417999998754,['c'],1,left,['1'],6,0.1083134999998947,,,,,,,,39,31,Vrouw,Links,2,
,dotcolour,dotcolour,dotcolour,20,1,80,80,training,positivefb,74,hard,43,1.0832680999999411,['n'],0,left,['3'],4,0.6684685999998692,,,,,,,,39,31,Vrouw,Links,2,
,dotcolour,dotcolour,dotcolour,21,1,81,81,training,positivefb,97,hard,39,0.8338438999999198,['n'],1,right,['1'],6,0.13640400000008412,,,,,,,,39,31,Vrouw,Links,2,
,dotcolour,dotcolour,dotcolour,22,1,82,82,training,positivefb,81,average,51,1.4835955000000922,['c'],1,left,['2'],5,0.392408899999964,,,,,,,,39,31,Vrouw,Links,2,
,dotcolour,dotcolour,dotcolour,23,1,83,83,training,positivefb,78,easy,62,0.7665426000000934,['c'],1,left,['1'],6,0.24163939999994,,,,,,,,39,31,Vrouw,Links,2,
,dotcolour,dotcolour,dotcolour,24,1,84,84,training,positivefb,93,easy,16,0.7168507000001227,['n'],1,right,['1'],6,0.04399020000005294,,,,,,,,39,31,Vrouw,Links,2,
,dotcolour,dotcolour,dotcolour,25,1,85,85,training,positivefb,94,average,54,1.3004871000000549,['c'],1,left,['2'],5,0.40652539999996407,,,,,,,,39,31,Vrouw,Links,2,
,dotcolour,dotcolour,dotcolour,26,1,86,86,training,positivefb,95,hard,42,0.9670230000001538,['n'],0,left,['2'],5,0.3603602000000592,,,,,,,,39,31,Vrouw,Links,2,
,dotcolour,dotcolour,dotcolour,27,1,87,87,training,positivefb,94,easy,61,0.7998906000000261,['c'],1,left,['1'],6,0.09040059999983896,,,,,,,,39,31,Vrouw,Links,2,
,dotcolour,dotcolour,dotcolour,28,1,88,88,training,positivefb,89,hard,38,1.050750300000118,['n'],1,right,['2'],5,0.18871339999986958,,,,,,,,39,31,Vrouw,Links,2,
,dotcolour,dotcolour,dotcolour,29,1,89,89,training,positivefb,96,easy,15,0.7501248999999461,['n'],1,right,['1'],6,0.07971199999997225,,,,,,,,39,31,Vrouw,Links,2,
,dotcolour,dotcolour,dotcolour,30,1,90,90,training,positivefb,85,easy,18,1.1831534999998894,['n'],1,right,['1'],6,0.13339799999994284,,,,,,,,39,31,Vrouw,Links,2,
,dotcolour,dotcolour,dotcolour,31,1,91,91,training,positivefb,94,easy,65,0.71664880000003,['c'],1,left,['1'],6,0.10756790000004912,,,,,,,,39,31,Vrouw,Links,2,
,dotcolour,dotcolour,dotcolour,32,1,92,92,training,positivefb,68,hard,42,0.9185970999999427,['n'],0,left,['2'],5,0.2432333000001563,,,,,,,,39,31,Vrouw,Links,2,
,dotcolour,dotcolour,dotcolour,33,1,93,93,training,positivefb,96,easy,16,0.6824651999997968,['n'],1,right,['1'],6,0.09459339999989425,,,,,,,,39,31,Vrouw,Links,2,
,dotcolour,dotcolour,dotcolour,34,1,94,94,training,positivefb,71,hard,42,1.1007988999999725,['n'],0,left,['2'],5,0.36694680000005064,,,,,,,,39,31,Vrouw,Links,2,
,dotcolour,dotcolour,dotcolour,35,1,95,95,training,positivefb,91,hard,45,1.0837234999999055,['c'],1,left,['2'],5,0.29280430000017077,,,,,,,,39,31,Vrouw,Links,2,
,dotcolour,dotcolour,dotcolour,36,1,96,96,training,positivefb,95,hard,44,0.7505358999999316,['n'],0,left,['2'],5,0.13172400000007656,,,,,,,,39,31,Vrouw,Links,2,
,dotcolour,dotcolour,dotcolour,37,1,97,97,training,positivefb,91,easy,16,0.9991251000001284,['n'],1,right,['1'],6,0.13417449999997189,,,,,,,,39,31,Vrouw,Links,2,
,dotcolour,dotcolour,dotcolour,38,1,98,98,training,positivefb,97,easy,19,0.7835669999999482,['n'],1,right,['1'],6,0.18552859999999782,,,,,,,,39,31,Vrouw,Links,2,
,dotcolour,dotcolour,dotcolour,39,1,99,99,training,positivefb,97,easy,19,0.7673690999999963,['n'],1,right,['1'],6,0.1557545000000573,,,,,,,,39,31,Vrouw,Links,2,
,dotcolour,dotcolour,dotcolour,40,1,100,100,training,positivefb,96,hard,38,0.6500978999999916,['n'],1,right,['2'],5,0.4358910000000833,,,,,,,,39,31,Vrouw,Links,2,
,dotcolour,dotcolour,dotcolour,41,1,101,101,training,positivefb,94,hard,36,0.7666994000001068,['n'],1,right,['2'],5,0.21956989999989673,,,,,,,,39,31,Vrouw,Links,2,
,dotcolour,dotcolour,dotcolour,42,1,102,102,training,positivefb,96,average,28,0.7837437000000591,['n'],1,right,['1'],6,0.13135389999979452,,,,,,,,39,31,Vrouw,Links,2,
,dotcolour,dotcolour,dotcolour,43,1,103,103,training,positivefb,95,hard,35,0.5828249000001051,['n'],1,right,['1'],6,0.09459940000010647,,,,,,,,39,31,Vrouw,Links,2,
,dotcolour,dotcolour,dotcolour,44,1,104,104,training,positivefb,89,easy,17,0.6004725000000235,['n'],1,right,['1'],6,0.10022839999987809,,,,,,,,39,31,Vrouw,Links,2,
,dotcolour,dotcolour,dotcolour,45,1,105,105,training,positivefb,87,hard,39,0.8177871999998843,['n'],1,right,['1'],6,0.11114999999995234,,,,,,,,39,31,Vrouw,Links,2,
,dotcolour,dotcolour,dotcolour,46,1,106,106,training,positivefb,96,easy,62,0.7500385000000733,['c'],1,left,['2'],5,0.11714219999998932,,,,,,,,39,31,Vrouw,Links,2,
,dotcolour,dotcolour,dotcolour,47,1,107,107,training,positivefb,91,average,54,1.100856799999974,['c'],1,left,['2'],5,0.21252210000011473,,,,,,,,39,31,Vrouw,Links,2,
,dotcolour,dotcolour,dotcolour,48,1,108,108,training,positivefb,93,hard,39,1.0840507999998863,['n'],1,right,['2'],5,0.2969567999998617,,,,,,,,39,31,Vrouw,Links,2,
,dotcolour,dotcolour,dotcolour,49,1,109,109,training,positivefb,70,average,27,0.7824804999997923,['n'],1,right,['2'],5,0.2146727000001647,,,,,,,,39,31,Vrouw,Links,2,
,dotcolour,dotcolour,dotcolour,50,1,110,110,training,positivefb,95,easy,17,0.6840755999999146,['n'],1,right,['1'],6,0.14636269999982687,,,,,,,,39,31,Vrouw,Links,2,
,dotcolour,dotcolour,dotcolour,51,1,111,111,training,positivefb,92,average,28,0.5179186999998819,['n'],1,right,['1'],6,0.137097600000061,,,,,,,,39,31,Vrouw,Links,2,
,dotcolour,dotcolour,dotcolour,52,1,112,112,training,positivefb,56,average,54,1.4507540999998128,['n'],0,left,['3'],4,1.1370772000000215,,,,,,,,39,31,Vrouw,Links,2,
,dotcolour,dotcolour,dotcolour,53,1,113,113,training,positivefb,94,average,28,0.7333043999999518,['n'],1,right,['2'],5,0.1984064999999191,,,,,,,,39,31,Vrouw,Links,2,
,dotcolour,dotcolour,dotcolour,54,1,114,114,training,positivefb,94,average,29,0.4841939000000366,['n'],1,right,['1'],6,0.09852059999980156,,,,,,,,39,31,Vrouw,Links,2,
,dotcolour,dotcolour,dotcolour,55,1,115,115,training,positivefb,50,hard,42,1.0669047999999748,['n'],0,left,['2'],5,0.37301240000010694,,,,,,,,39,31,Vrouw,Links,2,
,dotcolour,dotcolour,dotcolour,56,1,116,116,training,positivefb,86,easy,62,2.1840385000000424,['c'],1,left,['1'],6,0.22249810000016623,,,,,,,,39,31,Vrouw,Links,2,
,dotcolour,dotcolour,dotcolour,57,1,117,117,training,positivefb,90,hard,44,0.633399000000054,['c'],1,left,['2'],5,0.14079560000004676,,,,,,,,39,31,Vrouw,Links,2,
,dotcolour,dotcolour,dotcolour,58,1,118,118,training,positivefb,98,average,52,0.616683200000125,['c'],1,left,"['1', '2']",6,0.11907040000005509,,,,,,,,39,31,Vrouw,Links,2,
,dotcolour,dotcolour,dotcolour,59,1,119,119,training,positivefb,97,easy,61,0.5677083000000493,['c'],1,left,['2'],5,0.13112169999999423,,,,,,,,39,31,Vrouw,Links,2,
,dotcolour,dotcolour,dotcolour,0,2,120,120,main,positivefb,-99,average,25,2.5165486000000783,['n'],1,right,['1'],6,0.5810096999998677,,,,,,,,39,31,Vrouw,Links,2,
,dotcolour,dotcolour,dotcolour,1,2,121,121,main,positivefb,-99,hard,38,0.7345978000000741,['n'],1,right,['1'],6,0.10540169999990212,,,,,,,,39,31,Vrouw,Links,2,
,dotcolour,dotcolour,dotcolour,2,2,122,122,main,positivefb,-99,average,51,1.0349590999999236,['c'],1,left,['2'],5,0.10805550000009134,,,,,,,,39,31,Vrouw,Links,2,
,dotcolour,dotcolour,dotcolour,3,2,123,123,main,positivefb,-99,hard,42,0.833586700000069,['n'],0,left,['2'],5,0.2083368999999493,,,,,,,,39,31,Vrouw,Links,2,
,dotcolour,dotcolour,dotcolour,4,2,124,124,main,positivefb,-99,average,53,1.0169411000001674,['c'],1,left,['1'],6,0.09645000000000437,,,,,,,,39,31,Vrouw,Links,2,
,dotcolour,dotcolour,dotcolour,5,2,125,125,main,positivefb,-99,easy,62,0.5841846000000714,['c'],1,left,['1'],6,0.09426849999999831,,,,,,,,39,31,Vrouw,Links,2,
,dotcolour,dotcolour,dotcolour,6,2,126,126,main,positivefb,-99,average,51,0.48340269999994234,['c'],1,left,['1'],6,0.12017839999998614,,,,,,,,39,31,Vrouw,Links,2,
,dotcolour,dotcolour,dotcolour,7,2,127,127,main,positivefb,-99,average,52,0.5162330000000566,['c'],1,left,['2'],5,0.119838800000025,,,,,,,,39,31,Vrouw,Links,2,
,dotcolour,dotcolour,dotcolour,8,2,128,128,main,positivefb,-99,easy,18,0.7173386000001756,['n'],1,right,['1'],6,0.09506480000004558,,,,,,,,39,31,Vrouw,Links,2,
,dotcolour,dotcolour,dotcolour,9,2,129,129,main,positivefb,-99,hard,43,0.8675660999999764,['n'],0,left,['1'],6,0.17764889999989464,,,,,,,,39,31,Vrouw,Links,2,
,dotcolour,dotcolour,dotcolour,10,2,130,130,main,positivefb,-99,easy,17,0.6344168999999056,['n'],1,right,['1'],6,0.1382524000000558,,,,,,,,39,31,Vrouw,Links,2,
,dotcolour,dotcolour,dotcolour,11,2,131,131,main,positivefb,-99,average,28,0.5831524999998692,['n'],1,right,['1'],6,0.11847880000004807,,,,,,,,39,31,Vrouw,Links,2,
,dotcolour,dotcolour,dotcolour,12,2,132,132,main,positivefb,-99,hard,37,0.5328501999999844,['n'],1,right,['1'],6,0.09313019999990502,,,,,,,,39,31,Vrouw,Links,2,
,dotcolour,dotcolour,dotcolour,13,2,133,133,main,positivefb,-99,hard,44,2.050822200000084,['c'],1,left,['3'],4,0.18386339999983647,,,,,,,,39,31,Vrouw,Links,2,
,dotcolour,dotcolour,dotcolour,14,2,134,134,main,positivefb,-99,easy,18,0.550255800000059,['n'],1,right,['1'],6,0.0988676999998006,,,,,,,,39,31,Vrouw,Links,2,
,dotcolour,dotcolour,dotcolour,15,2,135,135,main,positivefb,-99,average,27,0.41709709999986444,['n'],1,right,['1'],6,0.10281350000013845,,,,,,,,39,31,Vrouw,Links,2,
,dotcolour,dotcolour,dotcolour,16,2,136,136,main,positivefb,-99,average,27,0.49965290000000095,['n'],1,right,['1'],6,0.0875541999998859,,,,,,,,39,31,Vrouw,Links,2,
,dotcolour,dotcolour,dotcolour,17,2,137,137,main,positivefb,-99,easy,65,0.8503379999999652,['c'],1,left,['2'],5,0.059354100000064136,,,,,,,,39,31,Vrouw,Links,2,
,dotcolour,dotcolour,dotcolour,18,2,138,138,main,positivefb,-99,hard,45,1.1173278999999638,['c'],1,left,['3'],4,0.30155370000011317,,,,,,,,39,31,Vrouw,Links,2,
,dotcolour,dotcolour,dotcolour,19,2,139,139,main,positivefb,-99,average,25,0.6006709999999202,['n'],1,right,['1'],6,0.08991859999991902,,,,,,,,39,31,Vrouw,Links,2,
,dotcolour,dotcolour,dotcolour,20,2,140,140,main,positivefb,-99,easy,65,0.6338945999998487,['c'],1,left,['1'],6,0.07020729999999276,,,,,,,,39,31,Vrouw,Links,2,
,dotcolour,dotcolour,dotcolour,21,2,141,141,main,positivefb,-99,average,54,0.5839971999998852,['c'],1,left,['1'],6,0.10023959999989529,,,,,,,,39,31,Vrouw,Links,2,
,dotcolour,dotcolour,dotcolour,22,2,142,142,main,positivefb,-99,easy,17,0.5667332000000442,['n'],1,right,['1'],6,0.04323310000017955,,,,,,,,39,31,Vrouw,Links,2,
,dotcolour,dotcolour,dotcolour,23,2,143,143,main,positivefb,-99,hard,35,0.4505098999998154,['n'],1,right,['1'],6,0.07925790000012967,,,,,,,,39,31,Vrouw,Links,2,
,dotcolour,dotcolour,dotcolour,24,2,144,144,main,positivefb,-99,easy,65,0.6007170999998834,['c'],1,left,"['1', '2']",6,0.07017580000001544,,,,,,,,39,31,Vrouw,Links,2,
,dotcolour,dotcolour,dotcolour,25,2,145,145,main,positivefb,-99,average,54,0.6177701999999954,['c'],1,left,['1'],6,0.07560379999995348,,,,,,,,39,31,Vrouw,Links,2,
,dotcolour,dotcolour,dotcolour,26,2,146,146,main,positivefb,-99,easy,62,0.5012681000000612,['c'],1,left,['2'],5,0.16520059999993464,,,,,,,,39,31,Vrouw,Links,2,
,dotcolour,dotcolour,dotcolour,27,2,147,147,main,positivefb,-99,average,54,0.43441749999988133,['c'],1,left,['2'],5,0.1341096999999536,,,,,,,,39,31,Vrouw,Links,2,
,dotcolour,dotcolour,dotcolour,28,2,148,148,main,positivefb,-99,easy,18,0.45125869999992574,['n'],1,right,['1'],6,0.11968690000003335,,,,,,,,39,31,Vrouw,Links,2,
,dotcolour,dotcolour,dotcolour,29,2,149,149,main,positivefb,-99,hard,35,0.4342844000000241,['n'],1,right,['2'],5,0.130176899999924,,,,,,,,39,31,Vrouw,Links,2,
,dotcolour,dotcolour,dotcolour,30,2,150,150,main,positivefb,-99,hard,39,0.5672903999998198,['n'],1,right,['1'],6,0.15964340000004995,,,,,,,,39,31,Vrouw,Links,2,
,dotcolour,dotcolour,dotcolour,31,2,151,151,main,positivefb,-99,average,52,0.9674208999999792,['c'],1,left,['3'],4,0.16305049999982657,,,,,,,,39,31,Vrouw,Links,2,
,dotcolour,dotcolour,dotcolour,32,2,152,152,main,positivefb,-99,hard,45,0.751483700000108,['c'],1,left,['3'],4,0.056519600000001446,,,,,,,,39,31,Vrouw,Links,2,
,dotcolour,dotcolour,dotcolour,33,2,153,153,main,positivefb,-99,hard,39,0.6342838000000484,['c'],0,right,['3'],4,0.10199230000011994,,,,,,,,39,31,Vrouw,Links,2,
,dotcolour,dotcolour,dotcolour,34,2,154,154,main,positivefb,-99,hard,43,0.7015893999998752,['n'],0,left,['3'],4,0.19023939999988215,,,,,,,,39,31,Vrouw,Links,2,
,dotcolour,dotcolour,dotcolour,35,2,155,155,main,positivefb,-99,easy,61,0.9845717999999124,['c'],1,left,['2'],5,0.4399167000001398,,,,,,,,39,31,Vrouw,Links,2,
,dotcolour,dotcolour,dotcolour,36,2,156,156,main,positivefb,-99,easy,15,0.633913499999835,['n'],1,right,['1'],6,0.11808459999997467,,,,,,,,39,31,Vrouw,Links,2,
,dotcolour,dotcolour,dotcolour,37,2,157,157,main,positivefb,-99,easy,17,0.5003175000001647,['n'],1,right,['1'],6,0.11869560000013735,,,,,,,,39,31,Vrouw,Links,2,
,dotcolour,dotcolour,dotcolour,38,2,158,158,main,positivefb,-99,hard,36,0.6688395999999557,['n'],1,right,['1'],6,0.11179760000004535,,,,,,,,39,31,Vrouw,Links,2,
,dotcolour,dotcolour,dotcolour,39,2,159,159,main,positivefb,-99,average,28,0.9498375000000578,['n'],1,right,['2'],5,0.3982293000001391,,,,,,,,39,31,Vrouw,Links,2,
,dotcolour,dotcolour,dotcolour,40,2,160,160,main,positivefb,-99,average,53,1.0001319000000422,['c'],1,left,['2'],5,0.19152079999980742,,,,,,,,39,31,Vrouw,Links,2,
,dotcolour,dotcolour,dotcolour,41,2,161,161,main,positivefb,-99,easy,19,0.6172842999999375,['n'],1,right,['2'],5,0.2153835000001436,,,,,,,,39,31,Vrouw,Links,2,
,dotcolour,dotcolour,dotcolour,42,2,162,162,main,positivefb,-99,hard,43,0.9852078999999776,['c'],1,left,['2'],5,0.0724977999998373,,,,,,,,39,31,Vrouw,Links,2,
,dotcolour,dotcolour,dotcolour,43,2,163,163,main,positivefb,-99,average,25,0.9849649999998746,['n'],1,right,['1'],6,0.08705640000016501,,,,,,,,39,31,Vrouw,Links,2,
,dotcolour,dotcolour,dotcolour,44,2,164,164,main,positivefb,-99,easy,15,0.6507891999999629,['n'],1,right,['1'],6,0.10672159999990072,,,,,,,,39,31,Vrouw,Links,2,
,dotcolour,dotcolour,dotcolour,45,2,165,165,main,positivefb,-99,hard,38,0.6169775999999274,['n'],1,right,['2'],5,0.12670969999999215,,,,,,,,39,31,Vrouw,Links,2,
,dotcolour,dotcolour,dotcolour,46,2,166,166,main,positivefb,-99,hard,45,1.5680317999999716,['c'],1,left,['2'],5,0.2032926999997926,,,,,,,,39,31,Vrouw,Links,2,
,dotcolour,dotcolour,dotcolour,47,2,167,167,main,positivefb,-99,hard,39,0.9353347999999642,['n'],1,right,['2'],5,0.17501070000002983,,,,,,,,39,31,Vrouw,Links,2,
,dotcolour,dotcolour,dotcolour,48,2,168,168,main,positivefb,-99,hard,41,0.8174441000001025,['n'],0,left,['2'],5,0.09602309999991121,,,,,,,,39,31,Vrouw,Links,2,
,dotcolour,dotcolour,dotcolour,49,2,169,169,main,positivefb,-99,easy,63,0.9503634000000147,['c'],1,left,['1'],6,0.10391349999986232,,,,,,,,39,31,Vrouw,Links,2,
,dotcolour,dotcolour,dotcolour,50,2,170,170,main,positivefb,-99,hard,43,0.9179272999999739,['n'],0,left,['2'],5,0.112197199999855,,,,,,,,39,31,Vrouw,Links,2,
,dotcolour,dotcolour,dotcolour,51,2,171,171,main,positivefb,-99,easy,61,0.6831741999999394,['c'],1,left,['2'],5,0.08884940000007191,,,,,,,,39,31,Vrouw,Links,2,
,dotcolour,dotcolour,dotcolour,52,2,172,172,main,positivefb,-99,average,53,0.684655199999952,['c'],1,left,['2'],5,0.07519309999997859,,,,,,,,39,31,Vrouw,Links,2,
,dotcolour,dotcolour,dotcolour,53,2,173,173,main,positivefb,-99,average,26,0.5345580000000609,['n'],1,right,['2'],5,0.07611429999997199,,,,,,,,39,31,Vrouw,Links,2,
,dotcolour,dotcolour,dotcolour,54,2,174,174,main,positivefb,-99,easy,16,0.48419620000004215,['n'],1,right,['2'],5,0.16605440000012095,,,,,,,,39,31,Vrouw,Links,2,
,dotcolour,dotcolour,dotcolour,55,2,175,175,main,positivefb,-99,average,29,0.4513415999999779,['n'],1,right,['2'],5,0.12692779999997583,,,,,,,,39,31,Vrouw,Links,2,
,dotcolour,dotcolour,dotcolour,56,2,176,176,main,positivefb,-99,hard,39,0.5012994000001072,['n'],1,right,['2'],5,0.11072420000004968,,,,,,,,39,31,Vrouw,Links,2,
,dotcolour,dotcolour,dotcolour,57,2,177,177,main,positivefb,-99,average,29,0.5016925999998421,['n'],1,right,['1'],6,0.463852400000178,,,,,,,,39,31,Vrouw,Links,2,
,dotcolour,dotcolour,dotcolour,58,2,178,178,main,positivefb,-99,easy,64,0.7500943000000007,['c'],1,left,['1'],6,0.6802980999998454,,,,,,,,39,31,Vrouw,Links,2,
,dotcolour,dotcolour,dotcolour,59,2,179,179,main,positivefb,-99,easy,63,0.8496631000000434,['c'],1,left,['1'],6,0.04362600000013117,,,,,,,,39,31,Vrouw,Links,2,
,dotcolour,dotcolour,dotcolour,0,3,180,180,main,positivefb,-99,easy,18,1.1337278999999398,['n'],1,right,['1'],6,0.05426660000011907,,,,,,,,39,31,Vrouw,Links,2,
,dotcolour,dotcolour,dotcolour,1,3,181,181,main,positivefb,-99,hard,43,0.5167977000000974,['n'],0,left,['1'],6,0.07985090000011041,,,,,,,,39,31,Vrouw,Links,2,
,dotcolour,dotcolour,dotcolour,2,3,182,182,main,positivefb,-99,easy,18,0.4672880000000532,['n'],1,right,['1'],6,0.09915740000019468,,,,,,,,39,31,Vrouw,Links,2,
,dotcolour,dotcolour,dotcolour,3,3,183,183,main,positivefb,-99,average,52,1.0510225999998966,['c'],1,left,['2'],5,0.15808979999997064,,,,,,,,39,31,Vrouw,Links,2,
,dotcolour,dotcolour,dotcolour,4,3,184,184,main,positivefb,-99,easy,65,0.8013582999999471,['c'],1,left,['2'],5,0.06474800000000869,,,,,,,,39,31,Vrouw,Links,2,
,dotcolour,dotcolour,dotcolour,5,3,185,185,main,positivefb,-99,average,29,0.8829677999999603,['n'],1,right,['2'],5,0.1477173999999195,,,,,,,,39,31,Vrouw,Links,2,
,dotcolour,dotcolour,dotcolour,6,3,186,186,main,positivefb,-99,easy,65,0.6835415999998986,['c'],1,left,['2'],5,0.06690809999986413,,,,,,,,39,31,Vrouw,Links,2,
,dotcolour,dotcolour,dotcolour,7,3,187,187,main,positivefb,-99,average,55,0.6348860000000514,['c'],1,left,['1'],6,0.11144410000019889,,,,,,,,39,31,Vrouw,Links,2,
,dotcolour,dotcolour,dotcolour,8,3,188,188,main,positivefb,-99,hard,41,1.3342711000000236,['c'],1,left,['3'],4,0.33456809999984216,,,,,,,,39,31,Vrouw,Links,2,
,dotcolour,dotcolour,dotcolour,9,3,189,189,main,positivefb,-99,easy,65,0.7507014999998773,['c'],1,left,['1'],6,0.10872699999981705,,,,,,,,39,31,Vrouw,Links,2,
,dotcolour,dotcolour,dotcolour,10,3,190,190,main,positivefb,-99,average,27,0.5502034000001004,['n'],1,right,['1'],6,0.15480579999984911,,,,,,,,39,31,Vrouw,Links,2,
,dotcolour,dotcolour,dotcolour,11,3,191,191,main,positivefb,-99,hard,37,0.5184776999999485,['n'],1,right,['1'],6,0.09681460000001607,,,,,,,,39,31,Vrouw,Links,2,
,dotcolour,dotcolour,dotcolour,12,3,192,192,main,positivefb,-99,hard,45,1.1175059999998211,['n'],0,left,['3'],4,0.24122459999989587,,,,,,,,39,31,Vrouw,Links,2,
,dotcolour,dotcolour,dotcolour,13,3,193,193,main,positivefb,-99,average,54,1.1009205000000293,['c'],1,left,['2'],5,0.13266329999987647,,,,,,,,39,31,Vrouw,Links,2,
,dotcolour,dotcolour,dotcolour,14,3,194,194,main,positivefb,-99,easy,65,0.7341018999998141,['c'],1,left,['2'],5,0.12330359999987195,,,,,,,,39,31,Vrouw,Links,2,
,dotcolour,dotcolour,dotcolour,15,3,195,195,main,positivefb,-99,average,55,1.551076700000067,['c'],1,left,['1'],6,0.1689245000000028,,,,,,,,39,31,Vrouw,Links,2,
,dotcolour,dotcolour,dotcolour,16,3,196,196,main,positivefb,-99,hard,35,0.7176802999999836,['n'],1,right,['2'],5,0.15031680000015513,,,,,,,,39,31,Vrouw,Links,2,
,dotcolour,dotcolour,dotcolour,17,3,197,197,main,positivefb,-99,easy,18,0.4839795000000322,['n'],1,right,['2'],5,0.517289799999844,,,,,,,,39,31,Vrouw,Links,2,
,dotcolour,dotcolour,dotcolour,18,3,198,198,main,positivefb,-99,hard,45,1.1333365999998932,['n'],0,left,['2'],5,0.22058260000017071,,,,,,,,39,31,Vrouw,Links,2,
,dotcolour,dotcolour,dotcolour,19,3,199,199,main,positivefb,-99,easy,15,0.8001495999999406,['n'],1,right,['1'],6,0.1481904999998278,,,,,,,,39,31,Vrouw,Links,2,
,dotcolour,dotcolour,dotcolour,20,3,200,200,main,positivefb,-99,average,27,0.5347663999998531,['n'],1,right,['1'],6,0.12183469999990848,,,,,,,,39,31,Vrouw,Links,2,
,dotcolour,dotcolour,dotcolour,21,3,201,201,main,positivefb,-99,average,52,0.8848134999998365,['c'],1,left,['2'],5,0.17808070000000953,,,,,,,,39,31,Vrouw,Links,2,
,dotcolour,dotcolour,dotcolour,22,3,202,202,main,positivefb,-99,average,55,0.7172012000000905,['c'],1,left,['1'],6,0.11117379999996047,,,,,,,,39,31,Vrouw,Links,2,
,dotcolour,dotcolour,dotcolour,23,3,203,203,main,positivefb,-99,average,28,0.6349473999998736,['n'],1,right,['1'],6,0.31499430000008033,,,,,,,,39,31,Vrouw,Links,2,
,dotcolour,dotcolour,dotcolour,24,3,204,204,main,positivefb,-99,hard,35,0.5852643000000626,['n'],1,right,['2'],5,0.15930229999980838,,,,,,,,39,31,Vrouw,Links,2,
,dotcolour,dotcolour,dotcolour,25,3,205,205,main,positivefb,-99,easy,18,0.5007444999998825,['n'],1,right,['1'],6,0.13452639999991334,,,,,,,,39,31,Vrouw,Links,2,
,dotcolour,dotcolour,dotcolour,26,3,206,206,main,positivefb,-99,hard,45,0.9499236000001474,['n'],0,left,['2'],5,0.18745999999987362,,,,,,,,39,31,Vrouw,Links,2,
,dotcolour,dotcolour,dotcolour,27,3,207,207,main,positivefb,-99,average,55,1.1671814000001177,['c'],1,left,['2'],5,0.21431789999996909,,,,,,,,39,31,Vrouw,Links,2,
,dotcolour,dotcolour,dotcolour,28,3,208,208,main,positivefb,-99,average,27,0.5841947999999775,['n'],1,right,['1'],6,0.13471630000003643,,,,,,,,39,31,Vrouw,Links,2,
,dotcolour,dotcolour,dotcolour,29,3,209,209,main,positivefb,-99,easy,17,0.9013491999999133,['n'],1,right,['1'],6,0.11091029999988677,,,,,,,,39,31,Vrouw,Links,2,
,dotcolour,dotcolour,dotcolour,30,3,210,210,main,positivefb,-99,easy,15,0.43383410000001277,['n'],1,right,['1'],6,0.12174140000001898,,,,,,,,39,31,Vrouw,Links,2,
,dotcolour,dotcolour,dotcolour,31,3,211,211,main,positivefb,-99,hard,44,0.701459899999918,['n'],0,left,['1'],6,0.13817109999990862,,,,,,,,39,31,Vrouw,Links,2,
,dotcolour,dotcolour,dotcolour,32,3,212,212,main,positivefb,-99,easy,16,0.667733200000157,['n'],1,right,['1'],6,0.21054000000003725,,,,,,,,39,31,Vrouw,Links,2,
,dotcolour,dotcolour,dotcolour,33,3,213,213,main,positivefb,-99,easy,64,0.9013463999999658,['c'],1,left,['1'],6,0.09562749999986409,,,,,,,,39,31,Vrouw,Links,2,
,dotcolour,dotcolour,dotcolour,34,3,214,214,main,positivefb,-99,average,53,0.5684519999999793,['c'],1,left,['1'],6,0.12601219999987734,,,,,,,,39,31,Vrouw,Links,2,
,dotcolour,dotcolour,dotcolour,35,3,215,215,main,positivefb,-99,easy,17,0.6519241999999394,['n'],1,right,['1'],6,0.12771120000002156,,,,,,,,39,31,Vrouw,Links,2,
,dotcolour,dotcolour,dotcolour,36,3,216,216,main,positivefb,-99,average,28,0.5997695999999451,['n'],1,right,['1'],6,0.10789509999995062,,,,,,,,39,31,Vrouw,Links,2,
,dotcolour,dotcolour,dotcolour,37,3,217,217,main,positivefb,-99,hard,44,0.918514899999991,['n'],0,left,['2'],5,0.15610339999989264,,,,,,,,39,31,Vrouw,Links,2,
,dotcolour,dotcolour,dotcolour,38,3,218,218,main,positivefb,-99,hard,43,0.9009667000000263,['n'],0,left,['2'],5,0.1225945999999567,,,,,,,,39,31,Vrouw,Links,2,
,dotcolour,dotcolour,dotcolour,39,3,219,219,main,positivefb,-99,hard,37,0.7681844999999612,['n'],1,right,['2'],5,0.09560620000002018,,,,,,,,39,31,Vrouw,Links,2,
,dotcolour,dotcolour,dotcolour,40,3,220,220,main,positivefb,-99,hard,36,0.633920900000021,['n'],1,right,['2'],5,0.12400209999987055,,,,,,,,39,31,Vrouw,Links,2,
,dotcolour,dotcolour,dotcolour,41,3,221,221,main,positivefb,-99,hard,39,0.5338944000000083,['n'],1,right,['2'],5,0.12285279999991872,,,,,,,,39,31,Vrouw,Links,2,
,dotcolour,dotcolour,dotcolour,42,3,222,222,main,positivefb,-99,easy,64,1.2503666000000067,['c'],1,left,['1'],6,0.2286315999999715,,,,,,,,39,31,Vrouw,Links,2,
,dotcolour,dotcolour,dotcolour,43,3,223,223,main,positivefb,-99,hard,41,0.801975000000084,['n'],0,left,['2'],5,0.19643310000014935,,,,,,,,39,31,Vrouw,Links,2,
,dotcolour,dotcolour,dotcolour,44,3,224,224,main,positivefb,-99,average,26,1.0011551000000054,['n'],1,right,['1'],6,0.11781669999982114,,,,,,,,39,31,Vrouw,Links,2,
,dotcolour,dotcolour,dotcolour,45,3,225,225,main,positivefb,-99,hard,45,1.6675907999999708,['n'],0,left,['2'],5,0.14356469999984256,,,,,,,,39,31,Vrouw,Links,2,
,dotcolour,dotcolour,dotcolour,46,3,226,226,main,positivefb,-99,easy,65,0.7009603000001334,['c'],1,left,['1'],6,0.14262269999994714,,,,,,,,39,31,Vrouw,Links,2,
,dotcolour,dotcolour,dotcolour,47,3,227,227,main,positivefb,-99,hard,36,0.6825352999999268,['n'],1,right,['1'],6,0.24703959999988,,,,,,,,39,31,Vrouw,Links,2,
,dotcolour,dotcolour,dotcolour,48,3,228,228,main,positivefb,-99,easy,63,0.7508733999998185,['c'],1,left,['1'],6,0.14450250000004417,,,,,,,,39,31,Vrouw,Links,2,
,dotcolour,dotcolour,dotcolour,49,3,229,229,main,positivefb,-99,hard,35,0.9339353000000301,['n'],1,right,['2'],5,0.13434110000002875,,,,,,,,39,31,Vrouw,Links,2,
,dotcolour,dotcolour,dotcolour,50,3,230,230,main,positivefb,-99,easy,16,0.7165107999999236,['n'],1,right,['1'],6,0.13307420000001002,,,,,,,,39,31,Vrouw,Links,2,
,dotcolour,dotcolour,dotcolour,51,3,231,231,main,positivefb,-99,average,54,0.9503423999999541,['c'],1,left,['2'],5,0.578114499999856,,,,,,,,39,31,Vrouw,Links,2,
,dotcolour,dotcolour,dotcolour,52,3,232,232,main,positivefb,-99,average,29,0.6674390999999105,['n'],1,right,['2'],5,0.25695949999999357,,,,,,,,39,31,Vrouw,Links,2,
,dotcolour,dotcolour,dotcolour,53,3,233,233,main,positivefb,-99,hard,38,0.43517659999997704,['n'],1,right,['1'],6,0.17513469999994413,,,,,,,,39,31,Vrouw,Links,2,
,dotcolour,dotcolour,dotcolour,54,3,234,234,main,positivefb,-99,hard,36,0.9685864000000493,['n'],1,right,['2'],5,0.2902102000000468,,,,,,,,39,31,Vrouw,Links,2,
,dotcolour,dotcolour,dotcolour,55,3,235,235,main,positivefb,-99,average,25,0.8014852999999675,['n'],1,right,['2'],5,0.13575349999996433,,,,,,,,39,31,Vrouw,Links,2,
,dotcolour,dotcolour,dotcolour,56,3,236,236,main,positivefb,-99,average,25,0.5507711000000199,['n'],1,right,['1'],6,0.16514340000003358,,,,,,,,39,31,Vrouw,Links,2,
,dotcolour,dotcolour,dotcolour,57,3,237,237,main,positivefb,-99,easy,63,0.8669875000000502,['c'],1,left,['1'],6,0.1162603999998737,,,,,,,,39,31,Vrouw,Links,2,
,dotcolour,dotcolour,dotcolour,58,3,238,238,main,positivefb,-99,easy,62,0.7679075000000921,['c'],1,left,['1'],6,0.11387930000000779,,,,,,,,39,31,Vrouw,Links,2,
,dotcolour,dotcolour,dotcolour,59,3,239,239,main,positivefb,-99,average,51,0.9673542999998972,['c'],1,left,['1'],6,0.1355854000000818,,,,,,,,39,31,Vrouw,Links,2,
,dotcolour,dotcolour,dotcolour,0,4,240,240,main,positivefb,-99,easy,64,1.1505400000000918,['c'],1,left,['1'],6,0.19284650000008696,,,,,,,,39,31,Vrouw,Links,2,
,dotcolour,dotcolour,dotcolour,1,4,241,241,main,positivefb,-99,hard,42,1.8165067999998428,['n'],0,left,['2'],5,0.11297600000011698,,,,,,,,39,31,Vrouw,Links,2,
,dotcolour,dotcolour,dotcolour,2,4,242,242,main,positivefb,-99,average,51,0.7328678999999738,['n'],0,left,['1'],6,0.0725216000000728,,,,,,,,39,31,Vrouw,Links,2,
,dotcolour,dotcolour,dotcolour,3,4,243,243,main,positivefb,-99,hard,44,1.917573100000027,['n'],0,left,['3'],4,0.5705599000000348,,,,,,,,39,31,Vrouw,Links,2,
,dotcolour,dotcolour,dotcolour,4,4,244,244,main,positivefb,-99,average,53,0.7170387999999548,['n'],0,left,['9'],2,1.1674017000000276,,,,,,,,39,31,Vrouw,Links,2,
,dotcolour,dotcolour,dotcolour,5,4,245,245,main,positivefb,-99,easy,15,1.7162232999999105,['n'],1,right,['1'],6,0.14864769999985583,,,,,,,,39,31,Vrouw,Links,2,
,dotcolour,dotcolour,dotcolour,6,4,246,246,main,positivefb,-99,average,27,0.6008747000000767,['n'],1,right,['1'],6,0.1512531000000763,,,,,,,,39,31,Vrouw,Links,2,
,dotcolour,dotcolour,dotcolour,7,4,247,247,main,positivefb,-99,average,52,0.8672165000000405,['c'],1,left,['1'],6,0.17572939999990922,,,,,,,,39,31,Vrouw,Links,2,
,dotcolour,dotcolour,dotcolour,8,4,248,248,main,positivefb,-99,hard,44,1.3672558000000663,['c'],1,left,['2'],5,0.3786344999998619,,,,,,,,39,31,Vrouw,Links,2,
,dotcolour,dotcolour,dotcolour,9,4,249,249,main,positivefb,-99,average,52,0.6341465999998945,['c'],1,left,['2'],5,0.13214579999998932,,,,,,,,39,31,Vrouw,Links,2,
,dotcolour,dotcolour,dotcolour,10,4,250,250,main,positivefb,-99,easy,64,0.6178475000001526,['c'],1,left,['2'],5,0.18256590000009965,,,,,,,,39,31,Vrouw,Links,2,
,dotcolour,dotcolour,dotcolour,11,4,251,251,main,positivefb,-99,average,55,0.5333210999999665,['c'],1,left,['2'],5,0.17084749999980886,,,,,,,,39,31,Vrouw,Links,2,
,dotcolour,dotcolour,dotcolour,12,4,252,252,main,positivefb,-99,easy,62,0.5505430999999135,['c'],1,left,['1'],6,0.14214490000017577,,,,,,,,39,31,Vrouw,Links,2,
,dotcolour,dotcolour,dotcolour,13,4,253,253,main,positivefb,-99,easy,16,0.8339016999998421,['n'],1,right,['1'],6,0.12905799999998635,,,,,,,,39,31,Vrouw,Links,2,
,dotcolour,dotcolour,dotcolour,14,4,254,254,main,positivefb,-99,hard,41,0.5174170000000231,['n'],0,left,['1'],6,0.1280679000001328,,,,,,,,39,31,Vrouw,Links,2,
,dotcolour,dotcolour,dotcolour,15,4,255,255,main,positivefb,-99,easy,62,0.7831627000000481,['c'],1,left,['1'],6,0.04511759999991227,,,,,,,,39,31,Vrouw,Links,2,
,dotcolour,dotcolour,dotcolour,16,4,256,256,main,positivefb,-99,hard,39,1.8515876999999819,['n'],1,right,['3'],4,0.6659492000001137,,,,,,,,39,31,Vrouw,Links,2,
,dotcolour,dotcolour,dotcolour,17,4,257,257,main,positivefb,-99,average,28,0.950803199999882,['n'],1,right,['1'],6,0.14553380000006655,,,,,,,,39,31,Vrouw,Links,2,
,dotcolour,dotcolour,dotcolour,18,4,258,258,main,positivefb,-99,hard,36,0.617134999999962,['n'],1,right,['1'],6,0.24467159999994692,,,,,,,,39,31,Vrouw,Links,2,
,dotcolour,dotcolour,dotcolour,19,4,259,259,main,positivefb,-99,hard,41,0.4842254000000139,['n'],0,left,['1'],6,0.10480340000003707,,,,,,,,39,31,Vrouw,Links,2,
,dotcolour,dotcolour,dotcolour,20,4,260,260,main,positivefb,-99,average,25,0.46669090000000324,['n'],1,right,['1'],6,0.11436249999997017,,,,,,,,39,31,Vrouw,Links,2,
,dotcolour,dotcolour,dotcolour,21,4,261,261,main,positivefb,-99,easy,61,0.9003777000000355,['c'],1,left,['1'],6,0.08209519999991244,,,,,,,,39,31,Vrouw,Links,2,
,dotcolour,dotcolour,dotcolour,22,4,262,262,main,positivefb,-99,easy,61,0.5181950000001052,['c'],1,left,['1'],6,0.12352480000004107,,,,,,,,39,31,Vrouw,Links,2,
,dotcolour,dotcolour,dotcolour,23,4,263,263,main,positivefb,-99,average,52,0.5351832999999715,['c'],1,left,['1'],6,0.0825904000000719,,,,,,,,39,31,Vrouw,Links,2,
,dotcolour,dotcolour,dotcolour,24,4,264,264,main,positivefb,-99,easy,19,0.7505919000000176,['n'],1,right,['1'],6,0.12904330000014852,,,,,,,,39,31,Vrouw,Links,2,
,dotcolour,dotcolour,dotcolour,25,4,265,265,main,positivefb,-99,easy,62,0.7839831000001141,['c'],1,left,['1'],6,0.07012010000016744,,,,,,,,39,31,Vrouw,Links,2,
,dotcolour,dotcolour,dotcolour,26,4,266,266,main,positivefb,-99,hard,38,0.9499783999999636,['n'],1,right,['2'],5,0.1500487000000703,,,,,,,,39,31,Vrouw,Links,2,
,dotcolour,dotcolour,dotcolour,27,4,267,267,main,positivefb,-99,hard,37,0.7843345999999656,['n'],1,right,['2'],5,0.09690630000000056,,,,,,,,39,31,Vrouw,Links,2,
,dotcolour,dotcolour,dotcolour,28,4,268,268,main,positivefb,-99,hard,44,0.7168130999998539,['n'],0,left,['2'],5,0.11347609999984343,,,,,,,,39,31,Vrouw,Links,2,
,dotcolour,dotcolour,dotcolour,29,4,269,269,main,positivefb,-99,hard,43,1.9171057000000928,['c'],1,left,['3'],4,1.9542437000000064,,,,,,,,39,31,Vrouw,Links,2,
,dotcolour,dotcolour,dotcolour,30,4,270,270,main,positivefb,-99,average,52,5.468025400000215,['c'],1,left,['3'],4,0.3627652999998645,,,,,,,,39,31,Vrouw,Links,2,
,dotcolour,dotcolour,dotcolour,31,4,271,271,main,positivefb,-99,easy,19,0.7668160999999145,['n'],1,right,['1'],6,0.05464860000006411,,,,,,,,39,31,Vrouw,Links,2,
,dotcolour,dotcolour,dotcolour,32,4,272,272,main,positivefb,-99,hard,37,0.7666243000001032,['n'],1,right,['2'],5,0.10219379999989542,,,,,,,,39,31,Vrouw,Links,2,
,dotcolour,dotcolour,dotcolour,33,4,273,273,main,positivefb,-99,easy,16,0.6338259999999991,['n'],1,right,['1'],6,0.08918999999991684,,,,,,,,39,31,Vrouw,Links,2,
,dotcolour,dotcolour,dotcolour,34,4,274,274,main,positivefb,-99,hard,37,0.48322890000008556,['n'],1,right,['1'],6,0.08318000000008396,,,,,,,,39,31,Vrouw,Links,2,
,dotcolour,dotcolour,dotcolour,35,4,275,275,main,positivefb,-99,easy,18,0.4835800000000745,['n'],1,right,['1'],6,0.10905969999998888,,,,,,,,39,31,Vrouw,Links,2,
,dotcolour,dotcolour,dotcolour,36,4,276,276,main,positivefb,-99,average,55,1.5505310999999438,['c'],1,left,['1'],6,0.1239064999999755,,,,,,,,39,31,Vrouw,Links,2,
,dotcolour,dotcolour,dotcolour,37,4,277,277,main,positivefb,-99,average,25,0.7669220000000223,['n'],1,right,['1'],6,0.12215160000005199,,,,,,,,39,31,Vrouw,Links,2,
,dotcolour,dotcolour,dotcolour,38,4,278,278,main,positivefb,-99,easy,17,0.4850126999999702,['n'],1,right,['1'],6,0.09082450000005338,,,,,,,,39,31,Vrouw,Links,2,
,dotcolour,dotcolour,dotcolour,39,4,279,279,main,positivefb,-99,hard,45,2.0334424999998646,['c'],1,left,['2'],5,0.5349272000000838,,,,,,,,39,31,Vrouw,Links,2,
,dotcolour,dotcolour,dotcolour,40,4,280,280,main,positivefb,-99,easy,18,0.7165628999998717,['n'],1,right,['1'],6,0.12543299999992996,,,,,,,,39,31,Vrouw,Links,2,
,dotcolour,dotcolour,dotcolour,41,4,281,281,main,positivefb,-99,easy,61,1.1335954999999558,['c'],1,left,['1'],6,1.1001286000000619,,,,,,,,39,31,Vrouw,Links,2,
,dotcolour,dotcolour,dotcolour,42,4,282,282,main,positivefb,-99,hard,45,1.0011773000001085,['n'],0,left,['3'],4,0.5050306000000546,,,,,,,,39,31,Vrouw,Links,2,
,dotcolour,dotcolour,dotcolour,43,4,283,283,main,positivefb,-99,average,28,0.9836920000000191,['n'],1,right,['2'],5,0.4702178999998523,,,,,,,,39,31,Vrouw,Links,2,
,dotcolour,dotcolour,dotcolour,44,4,284,284,main,positivefb,-99,easy,15,0.7840753000000404,['n'],1,right,['1'],6,0.20494619999999486,,,,,,,,39,31,Vrouw,Links,2,
,dotcolour,dotcolour,dotcolour,45,4,285,285,main,positivefb,-99,easy,65,0.9343414999998458,['c'],1,left,['1'],6,0.48017219999996996,,,,,,,,39,31,Vrouw,Links,2,
,dotcolour,dotcolour,dotcolour,46,4,286,286,main,positivefb,-99,hard,35,0.9998077999998713,['n'],1,right,['1'],6,0.18229199999996126,,,,,,,,39,31,Vrouw,Links,2,
,dotcolour,dotcolour,dotcolour,47,4,287,287,main,positivefb,-99,average,29,0.6996094999999514,['n'],1,right,['1'],6,0.14001020000000608,,,,,,,,39,31,Vrouw,Links,2,
,dotcolour,dotcolour,dotcolour,48,4,288,288,main,positivefb,-99,hard,43,0.4994945999999345,['n'],0,left,['1'],6,0.11498180000012326,,,,,,,,39,31,Vrouw,Links,2,
,dotcolour,dotcolour,dotcolour,49,4,289,289,main,positivefb,-99,hard,36,0.6169637000000421,['n'],1,right,['1'],6,0.11033879999990859,,,,,,,,39,31,Vrouw,Links,2,
,dotcolour,dotcolour,dotcolour,50,4,290,290,main,positivefb,-99,easy,64,0.84988670000007,['c'],1,left,['1'],6,0.16103980000002593,,,,,,,,39,31,Vrouw,Links,2,
,dotcolour,dotcolour,dotcolour,51,4,291,291,main,positivefb,-99,easy,15,0.7177177000000938,['n'],1,right,['1'],6,0.20699930000000677,,,,,,,,39,31,Vrouw,Links,2,
,dotcolour,dotcolour,dotcolour,52,4,292,292,main,positivefb,-99,hard,36,1.3340587000000141,['n'],1,right,['2'],5,0.3707644999999502,,,,,,,,39,31,Vrouw,Links,2,
,dotcolour,dotcolour,dotcolour,53,4,293,293,main,positivefb,-99,hard,36,0.6508911000000808,['n'],1,right,['2'],5,0.1943058999997902,,,,,,,,39,31,Vrouw,Links,2,
,dotcolour,dotcolour,dotcolour,54,4,294,294,main,positivefb,-99,average,25,0.916575899999998,['n'],1,right,['2'],5,0.39940489999980855,,,,,,,,39,31,Vrouw,Links,2,
,dotcolour,dotcolour,dotcolour,55,4,295,295,main,positivefb,-99,average,51,1.2498209999998835,['c'],1,left,['1'],6,0.1966691999998602,,,,,,,,39,31,Vrouw,Links,2,
,dotcolour,dotcolour,dotcolour,56,4,296,296,main,positivefb,-99,average,29,0.600380800000039,['n'],1,right,['1'],6,0.19124779999992825,,,,,,,,39,31,Vrouw,Links,2,
,dotcolour,dotcolour,dotcolour,57,4,297,297,main,positivefb,-99,average,28,0.4845434999999725,['n'],1,right,['1'],6,0.12450590000003103,,,,,,,,39,31,Vrouw,Links,2,
,dotcolour,dotcolour,dotcolour,58,4,298,298,main,positivefb,-99,average,55,0.8504937999998674,['c'],1,left,['1'],6,0.07091310000009798,,,,,,,,39,31,Vrouw,Links,2,
,dotcolour,dotcolour,dotcolour,59,4,299,299,main,positivefb,-99,average,26,0.8004329000000325,['n'],1,right,['1'],6,0.10833169999978054,,,,,,,,39,31,Vrouw,Links,2,
,dotcolour,dotcolour,dotcolour,0,0,0,300,training,positivefb,95,average,28,1.083685399999922,['n'],1,right,['1'],6,0.15486799999985124,,,,,,,,39,31,Vrouw,Links,2,
,dotcolour,dotcolour,dotcolour,1,0,1,301,training,positivefb,98,hard,36,0.9009558000000197,['n'],1,right,['2'],5,0.18502510000007533,,,,,,,,39,31,Vrouw,Links,2,
,dotcolour,dotcolour,dotcolour,2,0,2,302,training,positivefb,96,easy,17,0.7002305999999408,['n'],1,right,['1'],6,0.10153749999994943,,,,,,,,39,31,Vrouw,Links,2,
,dotcolour,dotcolour,dotcolour,3,0,3,303,training,positivefb,92,easy,61,0.8991680999999971,['c'],1,left,['1'],6,0.13410659999999552,,,,,,,,39,31,Vrouw,Links,2,
,dotcolour,dotcolour,dotcolour,4,0,4,304,training,positivefb,95,easy,15,0.8826093000000128,['n'],1,right,['1'],6,0.20537990000002537,,,,,,,,39,31,Vrouw,Links,2,
,dotcolour,dotcolour,dotcolour,5,0,5,305,training,positivefb,94,average,27,0.700075599999991,['n'],1,right,['1'],6,0.11319800000001123,,,,,,,,39,31,Vrouw,Links,2,
,dotcolour,dotcolour,dotcolour,6,0,6,306,training,positivefb,100,average,51,1.7998270000000502,['c'],1,left,['3'],4,6.021244799999977,,,,,,,,39,31,Vrouw,Links,2,
,dotcolour,dotcolour,dotcolour,7,0,7,307,training,positivefb,67,easy,64,2.318093799999815,['c'],1,left,['3'],4,0.22116779999987557,,,,,,,,39,31,Vrouw,Links,2,
,dotcolour,dotcolour,dotcolour,8,0,8,308,training,positivefb,95,average,29,0.9173106000000644,['n'],1,right,['1'],6,0.19273859999998422,,,,,,,,39,31,Vrouw,Links,2,
,dotcolour,dotcolour,dotcolour,9,0,9,309,training,positivefb,57,hard,45,2.8341100000000097,['n'],0,left,['3'],4,0.2715926999999283,,,,,,,,39,31,Vrouw,Links,2,
,dotcolour,dotcolour,dotcolour,10,0,10,310,training,positivefb,99,easy,62,1.3170471999999336,['c'],1,left,['1'],6,2.8245308000000477,,,,,,,,39,31,Vrouw,Links,2,
,dotcolour,dotcolour,dotcolour,11,0,11,311,training,positivefb,67,average,25,4.033475400000043,['c'],0,right,['3'],4,0.28581020000001445,,,,,,,,39,31,Vrouw,Links,2,
,dotcolour,dotcolour,dotcolour,12,0,12,312,training,positivefb,93,average,29,1.1323171999999886,['n'],1,right,['1'],6,0.15777849999994942,,,,,,,,39,31,Vrouw,Links,2,
,dotcolour,dotcolour,dotcolour,13,0,13,313,training,positivefb,94,hard,35,0.8175229999999374,['n'],1,right,['1'],6,0.11053739999988466,,,,,,,,39,31,Vrouw,Links,2,
,dotcolour,dotcolour,dotcolour,14,0,14,314,training,positivefb,92,average,53,0.8327355999999781,['c'],1,left,['3'],4,0.28103680000003806,,,,,,,,39,31,Vrouw,Links,2,
,dotcolour,dotcolour,dotcolour,15,0,15,315,training,positivefb,85,hard,36,0.8173517000000174,['n'],1,right,['2'],5,0.19697339999993346,,,,,,,,39,31,Vrouw,Links,2,
,dotcolour,dotcolour,dotcolour,16,0,16,316,training,positivefb,87,hard,37,1.0505375999998705,['n'],1,right,['3'],4,0.5397916000001715,,,,,,,,39,31,Vrouw,Links,2,
,dotcolour,dotcolour,dotcolour,17,0,17,317,training,positivefb,90,hard,43,1.0830344999999397,['c'],1,left,['1'],6,0.11534979999987627,,,,,,,,39,31,Vrouw,Links,2,
,dotcolour,dotcolour,dotcolour,18,0,18,318,training,positivefb,91,average,53,0.9339603999999326,['c'],1,left,['1'],6,0.08129930000018248,,,,,,,,39,31,Vrouw,Links,2,
,dotcolour,dotcolour,dotcolour,19,0,19,319,training,positivefb,95,easy,65,0.9013087000000723,['c'],1,left,['1'],6,0.11379460000011932,,,,,,,,39,31,Vrouw,Links,2,
,dotcolour,dotcolour,dotcolour,20,0,20,320,training,positivefb,75,hard,41,1.1336621000000378,['n'],0,left,['2'],5,0.40128740000000107,,,,,,,,39,31,Vrouw,Links,2,
,dotcolour,dotcolour,dotcolour,21,0,21,321,training,positivefb,94,average,55,1.1998566999998275,['c'],1,left,['1'],6,0.272782799999959,,,,,,,,39,31,Vrouw,Links,2,
,dotcolour,dotcolour,dotcolour,22,0,22,322,training,positivefb,94,average,53,0.716651899999988,['c'],1,left,['1'],6,0.13013850000015736,,,,,,,,39,31,Vrouw,Links,2,
,dotcolour,dotcolour,dotcolour,23,0,23,323,training,positivefb,76,hard,38,0.9831119000000399,['n'],1,right,['2'],5,0.2460019000000102,,,,,,,,39,31,Vrouw,Links,2,
,dotcolour,dotcolour,dotcolour,24,0,24,324,training,positivefb,88,hard,36,0.9339778999999453,['n'],1,right,['2'],5,0.35103890000004867,,,,,,,,39,31,Vrouw,Links,2,
,dotcolour,dotcolour,dotcolour,25,0,25,325,training,positivefb,68,hard,44,0.8335349999999835,['n'],0,left,['2'],5,0.4241300000001047,,,,,,,,39,31,Vrouw,Links,2,
,dotcolour,dotcolour,dotcolour,26,0,26,326,training,positivefb,80,easy,65,1.0175409999999374,['c'],1,left,['2'],5,0.19797119999998358,,,,,,,,39,31,Vrouw,Links,2,
,dotcolour,dotcolour,dotcolour,27,0,27,327,training,positivefb,93,easy,15,0.7167881000000307,['n'],1,right,['1'],6,0.1059635999999955,,,,,,,,39,31,Vrouw,Links,2,
,dotcolour,dotcolour,dotcolour,28,0,28,328,training,positivefb,93,hard,35,0.8171772000000601,['n'],1,right,['2'],5,0.11729119999995419,,,,,,,,39,31,Vrouw,Links,2,
,dotcolour,dotcolour,dotcolour,29,0,29,329,training,positivefb,93,average,53,0.9002361000000292,['c'],1,left,['1'],6,0.09218080000005102,,,,,,,,39,31,Vrouw,Links,2,
,dotcolour,dotcolour,dotcolour,30,0,30,330,training,positivefb,94,average,25,0.867238400000133,['n'],1,right,['2'],5,0.1337805999999091,,,,,,,,39,31,Vrouw,Links,2,
,dotcolour,dotcolour,dotcolour,31,0,31,331,training,positivefb,97,easy,62,0.9343562999999904,['c'],1,left,['1'],6,0.10734530000013365,,,,,,,,39,31,Vrouw,Links,2,
,dotcolour,dotcolour,dotcolour,32,0,32,332,training,positivefb,92,average,51,1.000559899999871,['n'],0,left,['2'],5,0.15975969999999506,,,,,,,,39,31,Vrouw,Links,2,
,dotcolour,dotcolour,dotcolour,33,0,33,333,training,positivefb,91,average,54,0.7992212999999992,['c'],1,left,['1'],6,0.058351000000129716,,,,,,,,39,31,Vrouw,Links,2,
,dotcolour,dotcolour,dotcolour,34,0,34,334,training,positivefb,89,average,55,0.783171700000139,['c'],1,left,['1'],6,0.056211800000028234,,,,,,,,39,31,Vrouw,Links,2,
,dotcolour,dotcolour,dotcolour,35,0,35,335,training,positivefb,93,easy,18,0.7335786999999527,['n'],1,right,['1'],6,0.11307949999991251,,,,,,,,39,31,Vrouw,Links,2,
,dotcolour,dotcolour,dotcolour,36,0,36,336,training,positivefb,80,hard,45,1.0160550000000512,['n'],0,left,['2'],5,0.13254000000006272,,,,,,,,39,31,Vrouw,Links,2,
,dotcolour,dotcolour,dotcolour,37,0,37,337,training,positivefb,93,easy,63,0.7496616000000813,['c'],1,left,['1'],6,0.01728570000000218,,,,,,,,39,31,Vrouw,Links,2,
,dotcolour,dotcolour,dotcolour,38,0,38,338,training,positivefb,91,average,53,0.6834458999999242,['c'],1,left,['1'],6,0.012834699999984878,,,,,,,,39,31,Vrouw,Links,2,
,dotcolour,dotcolour,dotcolour,39,0,39,339,training,positivefb,91,hard,41,0.884233100000074,['n'],0,left,['2'],5,0.11354339999979857,,,,,,,,39,31,Vrouw,Links,2,
,dotcolour,dotcolour,dotcolour,40,0,40,340,training,positivefb,93,average,25,0.8005493999999089,['n'],1,right,['1'],6,0.11793069999998806,,,,,,,,39,31,Vrouw,Links,2,
,dotcolour,dotcolour,dotcolour,41,0,41,341,training,positivefb,96,easy,18,0.6834172999999737,['n'],1,right,['1'],6,0.1176333999999315,,,,,,,,39,31,Vrouw,Links,2,
,dotcolour,dotcolour,dotcolour,42,0,42,342,training,positivefb,92,average,29,0.8835579000001417,['n'],1,right,['2'],5,0.15757010000015725,,,,,,,,39,31,Vrouw,Links,2,
,dotcolour,dotcolour,dotcolour,43,0,43,343,training,positivefb,93,hard,41,1.916607100000192,['c'],1,left,['2'],5,0.3398845000001529,,,,,,,,39,31,Vrouw,Links,2,
,dotcolour,dotcolour,dotcolour,44,0,44,344,training,positivefb,99,easy,62,0.7996210999999676,['c'],1,left,['1'],6,3.382530699999961,,,,,,,,39,31,Vrouw,Links,2,
,dotcolour,dotcolour,dotcolour,45,0,45,345,training,positivefb,95,easy,64,0.6841693999999734,['c'],1,left,['1'],6,0.05080159999988609,,,,,,,,39,31,Vrouw,Links,2,
,dotcolour,dotcolour,dotcolour,46,0,46,346,training,positivefb,96,hard,45,0.7324679999999262,['c'],1,left,['1'],6,0.03540399999997135,,,,,,,,39,31,Vrouw,Links,2,
,dotcolour,dotcolour,dotcolour,47,0,47,347,training,positivefb,92,hard,35,0.683445200000051,['n'],1,right,['2'],5,0.10249240000007376,,,,,,,,39,31,Vrouw,Links,2,
,dotcolour,dotcolour,dotcolour,48,0,48,348,training,positivefb,95,easy,64,1.100030600000082,['c'],1,left,['1'],6,0.06243989999984478,,,,,,,,39,31,Vrouw,Links,2,
,dotcolour,dotcolour,dotcolour,49,0,49,349,training,positivefb,93,easy,19,0.8011962000000494,['n'],1,right,['1'],6,0.10863400000016554,,,,,,,,39,31,Vrouw,Links,2,
,dotcolour,dotcolour,dotcolour,50,0,50,350,training,positivefb,88,hard,36,0.9839316000000053,['n'],1,right,['1'],6,0.11349939999990966,,,,,,,,39,31,Vrouw,Links,2,
,dotcolour,dotcolour,dotcolour,51,0,51,351,training,positivefb,90,hard,45,0.834090900000092,['c'],1,left,['2'],5,0.11549749999994674,,,,,,,,39,31,Vrouw,Links,2,
,dotcolour,dotcolour,dotcolour,52,0,52,352,training,positivefb,93,hard,39,0.6998610000000554,['n'],1,right,['2'],5,0.19562859999996363,,,,,,,,39,31,Vrouw,Links,2,
,dotcolour,dotcolour,dotcolour,53,0,53,353,training,positivefb,93,easy,16,0.8006910000001426,['n'],1,right,['1'],6,0.10763580000002548,,,,,,,,39,31,Vrouw,Links,2,
,dotcolour,dotcolour,dotcolour,54,0,54,354,training,positivefb,95,easy,16,0.6998564000000442,['n'],1,right,['1'],6,0.1160127000000557,,,,,,,,39,31,Vrouw,Links,2,
,dotcolour,dotcolour,dotcolour,55,0,55,355,training,positivefb,73,hard,45,1.0849773999998433,['n'],0,left,['3'],4,0.18802549999963958,,,,,,,,39,31,Vrouw,Links,2,
,dotcolour,dotcolour,dotcolour,56,0,56,356,training,positivefb,92,easy,19,0.8498781999996936,['n'],1,right,['1'],6,0.08223679999991873,,,,,,,,39,31,Vrouw,Links,2,
,dotcolour,dotcolour,dotcolour,57,0,57,357,training,positivefb,95,average,28,0.5508208000001105,['n'],1,right,['1'],6,0.11302549999982148,,,,,,,,39,31,Vrouw,Links,2,
,dotcolour,dotcolour,dotcolour,58,0,58,358,training,positivefb,97,average,28,0.5344660999999178,['n'],1,right,['1'],6,0.11932560000013837,,,,,,,,39,31,Vrouw,Links,2,
,dotcolour,dotcolour,dotcolour,59,0,59,359,training,positivefb,96,easy,17,0.6009455999997044,['n'],1,right,['1'],6,0.1227894999997261,,,,,,,,39,31,Vrouw,Links,2,
,dotcolour,dotcolour,dotcolour,0,1,60,360,training,positivefb,90,easy,61,1.1181817000001502,['c'],1,left,['1'],6,0.09158870000010211,,,,,,,,39,31,Vrouw,Links,2,
,dotcolour,dotcolour,dotcolour,1,1,61,361,training,positivefb,91,easy,62,0.5501991999999518,['c'],1,left,['2'],5,0.0979723999998896,,,,,,,,39,31,Vrouw,Links,2,
,dotcolour,dotcolour,dotcolour,2,1,62,362,training,positivefb,85,average,55,1.2351109000001088,['c'],1,left,['2'],5,0.14888370000016948,,,,,,,,39,31,Vrouw,Links,2,
,dotcolour,dotcolour,dotcolour,3,1,63,363,training,positivefb,89,average,55,0.7831678999996257,['c'],1,left,['1'],6,0.19919459999982791,,,,,,,,39,31,Vrouw,Links,2,
,dotcolour,dotcolour,dotcolour,4,1,64,364,training,positivefb,97,easy,19,0.6342322000000422,['n'],1,right,['1'],6,0.17376819999981308,,,,,,,,39,31,Vrouw,Links,2,
,dotcolour,dotcolour,dotcolour,5,1,65,365,training,positivefb,98,average,28,0.5173719000003985,['n'],1,right,['1'],6,0.10703910000029282,,,,,,,,39,31,Vrouw,Links,2,
,dotcolour,dotcolour,dotcolour,6,1,66,366,training,positivefb,92,hard,38,0.9334530000000996,['n'],1,right,['2'],5,0.2739329999999427,,,,,,,,39,31,Vrouw,Links,2,
,dotcolour,dotcolour,dotcolour,7,1,67,367,training,positivefb,92,hard,39,0.833504400000038,['n'],1,right,['2'],5,0.19760719999976573,,,,,,,,39,31,Vrouw,Links,2,
,dotcolour,dotcolour,dotcolour,8,1,68,368,training,positivefb,55,hard,44,0.6667569999999614,['n'],0,left,['2'],5,0.171367200000077,,,,,,,,39,31,Vrouw,Links,2,
,dotcolour,dotcolour,dotcolour,9,1,69,369,training,positivefb,99,easy,17,0.5659467000000404,['n'],1,right,['1'],6,0.2296741000000111,,,,,,,,39,31,Vrouw,Links,2,
,dotcolour,dotcolour,dotcolour,10,1,70,370,training,positivefb,97,average,26,0.5835379000000103,['n'],1,right,['2'],5,0.14959970000018075,,,,,,,,39,31,Vrouw,Links,2,
,dotcolour,dotcolour,dotcolour,11,1,71,371,training,positivefb,96,hard,36,0.5340819999996711,['n'],1,right,['1'],6,0.0992607000002863,,,,,,,,39,31,Vrouw,Links,2,
,dotcolour,dotcolour,dotcolour,12,1,72,372,training,positivefb,76,average,52,1.2661339000001135,['c'],1,left,['3'],4,0.20411689999991722,,,,,,,,39,31,Vrouw,Links,2,
,dotcolour,dotcolour,dotcolour,13,1,73,373,training,positivefb,75,hard,43,0.7163445000001047,['n'],0,left,['2'],5,0.1515028999997412,,,,,,,,39,31,Vrouw,Links,2,
,dotcolour,dotcolour,dotcolour,14,1,74,374,training,positivefb,71,hard,45,1.1003592000001845,['n'],0,left,['2'],5,0.16581440000027214,,,,,,,,39,31,Vrouw,Links,2,
,dotcolour,dotcolour,dotcolour,15,1,75,375,training,positivefb,84,average,53,0.9663955000000897,['c'],1,left,['2'],5,0.1687232999997832,,,,,,,,39,31,Vrouw,Links,2,
,dotcolour,dotcolour,dotcolour,16,1,76,376,training,positivefb,83,average,54,0.8179996999997456,['c'],1,left,['2'],5,0.11303610000004483,,,,,,,,39,31,Vrouw,Links,2,
,dotcolour,dotcolour,dotcolour,17,1,77,377,training,positivefb,96,average,28,0.46720159999995303,['n'],1,right,['2'],5,0.16216680000025008,,,,,,,,39,31,Vrouw,Links,2,
,dotcolour,dotcolour,dotcolour,18,1,78,378,training,positivefb,87,average,55,1.3337010000000191,['c'],1,left,['2'],5,0.11125689999971655,,,,,,,,39,31,Vrouw,Links,2,
,dotcolour,dotcolour,dotcolour,19,1,79,379,training,positivefb,90,hard,39,0.7001657000000705,['n'],1,right,['2'],5,0.10300539999980174,,,,,,,,39,31,Vrouw,Links,2,
,dotcolour,dotcolour,dotcolour,20,1,80,380,training,positivefb,93,easy,62,0.966549500000383,['c'],1,left,['2'],5,0.09308280000004743,,,,,,,,39,31,Vrouw,Links,2,
,dotcolour,dotcolour,dotcolour,21,1,81,381,training,positivefb,96,hard,35,0.5836448000000019,['n'],1,right,['1'],6,0.19411669999999503,,,,,,,,39,31,Vrouw,Links,2,
,dotcolour,dotcolour,dotcolour,22,1,82,382,training,positivefb,78,hard,36,1.1169991000001573,['n'],1,right,['2'],5,0.18201150000004418,,,,,,,,39,31,Vrouw,Links,2,
,dotcolour,dotcolour,dotcolour,23,1,83,383,training,positivefb,92,easy,63,0.8167069999999512,['c'],1,left,['1'],6,0.046280299999580166,,,,,,,,39,31,Vrouw,Links,2,
,dotcolour,dotcolour,dotcolour,24,1,84,384,training,positivefb,98,easy,15,0.6677761000000828,['n'],1,right,['1'],6,0.08137690000012299,,,,,,,,39,31,Vrouw,Links,2,
,dotcolour,dotcolour,dotcolour,25,1,85,385,training,positivefb,98,easy,17,0.5501524000001154,['n'],1,right,['1'],6,0.0803886000003331,,,,,,,,39,31,Vrouw,Links,2,
,dotcolour,dotcolour,dotcolour,26,1,86,386,training,positivefb,80,hard,38,0.5493019999998978,['n'],1,right,['1'],6,0.09585569999990184,,,,,,,,39,31,Vrouw,Links,2,
,dotcolour,dotcolour,dotcolour,27,1,87,387,training,positivefb,98,easy,63,0.7167145999997047,['c'],1,left,['2'],5,0.07217369999989387,,,,,,,,39,31,Vrouw,Links,2,
,dotcolour,dotcolour,dotcolour,28,1,88,388,training,positivefb,94,easy,18,0.5826458999999886,['n'],1,right,['1'],6,0.10254829999985304,,,,,,,,39,31,Vrouw,Links,2,
,dotcolour,dotcolour,dotcolour,29,1,89,389,training,positivefb,97,average,28,0.4505311000002621,['n'],1,right,['1'],6,0.12018949999992401,,,,,,,,39,31,Vrouw,Links,2,
,dotcolour,dotcolour,dotcolour,30,1,90,390,training,positivefb,88,hard,45,0.998731200000293,['c'],1,left,['2'],5,0.06716919999962556,,,,,,,,39,31,Vrouw,Links,2,
,dotcolour,dotcolour,dotcolour,31,1,91,391,training,positivefb,95,average,54,0.7672550000002047,['c'],1,left,['2'],5,0.06552519999968354,,,,,,,,39,31,Vrouw,Links,2,
,dotcolour,dotcolour,dotcolour,32,1,92,392,training,positivefb,97,average,55,0.6502367000002778,['c'],1,left,['2'],5,0.06973470000002635,,,,,,,,39,31,Vrouw,Links,2,
,dotcolour,dotcolour,dotcolour,33,1,93,393,training,positivefb,98,easy,61,0.5840288999997938,['c'],1,left,['2'],5,0.07576220000009926,,,,,,,,39,31,Vrouw,Links,2,
,dotcolour,dotcolour,dotcolour,34,1,94,394,training,positivefb,90,hard,44,2.1672693999998955,['c'],1,left,['3'],4,0.18666829999983747,,,,,,,,39,31,Vrouw,Links,2,
,dotcolour,dotcolour,dotcolour,35,1,95,395,training,positivefb,93,hard,42,0.9995452000002842,['n'],0,left,['2'],5,0.1387406999997438,,,,,,,,39,31,Vrouw,Links,2,
,dotcolour,dotcolour,dotcolour,36,1,96,396,training,positivefb,92,average,27,0.7322834999999941,['n'],1,right,['2'],5,0.11978329999965354,,,,,,,,39,31,Vrouw,Links,2,
,dotcolour,dotcolour,dotcolour,37,1,97,397,training,positivefb,93,easy,15,0.7827308000000812,['n'],1,right,['1'],6,0.0923744000001534,,,,,,,,39,31,Vrouw,Links,2,
,dotcolour,dotcolour,dotcolour,38,1,98,398,training,positivefb,95,easy,18,0.53300229999968,['n'],1,right,['1'],6,0.09129550000034214,,,,,,,,39,31,Vrouw,Links,2,
,dotcolour,dotcolour,dotcolour,39,1,99,399,training,positivefb,84,hard,41,0.9169747000000825,['n'],0,left,['1'],6,0.09107919999996739,,,,,,,,39,31,Vrouw,Links,2,
,dotcolour,dotcolour,dotcolour,40,1,100,400,training,positivefb,98,hard,38,0.5002935000002253,['n'],1,right,['3'],4,0.10837209999999686,,,,,,,,39,31,Vrouw,Links,2,
,dotcolour,dotcolour,dotcolour,41,1,101,401,training,positivefb,88,hard,45,1.034053700000186,['n'],0,left,['3'],4,0.13495330000023387,,,,,,,,39,31,Vrouw,Links,2,
,dotcolour,dotcolour,dotcolour,42,1,102,402,training,positivefb,97,average,53,0.8844161000001804,['c'],1,left,['2'],5,0.07037700000000768,,,,,,,,39,31,Vrouw,Links,2,
,dotcolour,dotcolour,dotcolour,43,1,103,403,training,positivefb,94,average,25,0.6509946000001037,['n'],1,right,['1'],6,0.12981820000004518,,,,,,,,39,31,Vrouw,Links,2,
,dotcolour,dotcolour,dotcolour,44,1,104,404,training,positivefb,97,easy,15,0.5670981999996911,['n'],1,right,['1'],6,0.09393579999959911,,,,,,,,39,31,Vrouw,Links,2,
,dotcolour,dotcolour,dotcolour,45,1,105,405,training,positivefb,84,easy,64,0.9170379000001958,['c'],1,left,['1'],6,0.11035420000007434,,,,,,,,39,31,Vrouw,Links,2,
,dotcolour,dotcolour,dotcolour,46,1,106,406,training,positivefb,97,easy,63,0.7002913999999691,['c'],1,left,['2'],5,0.04668459999993502,,,,,,,,39,31,Vrouw,Links,2,
,dotcolour,dotcolour,dotcolour,47,1,107,407,training,positivefb,98,hard,36,0.6506925999997293,['n'],1,right,['2'],5,0.19490360000008877,,,,,,,,39,31,Vrouw,Links,2,
,dotcolour,dotcolour,dotcolour,48,1,108,408,training,positivefb,91,average,28,0.5832362999999532,['n'],1,right,['1'],6,0.11575269999957527,,,,,,,,39,31,Vrouw,Links,2,
,dotcolour,dotcolour,dotcolour,49,1,109,409,training,positivefb,90,hard,45,0.8657140999998774,['c'],1,left,['3'],4,0.333125900000141,,,,,,,,39,31,Vrouw,Links,2,
,dotcolour,dotcolour,dotcolour,50,1,110,410,training,positivefb,97,average,53,0.8668377000003602,['c'],1,left,['2'],5,0.18920920000027763,,,,,,,,39,31,Vrouw,Links,2,
,dotcolour,dotcolour,dotcolour,51,1,111,411,training,positivefb,94,easy,63,0.8503611999999521,['c'],1,left,['1'],6,0.08351919999995516,,,,,,,,39,31,Vrouw,Links,2,
,dotcolour,dotcolour,dotcolour,52,1,112,412,training,positivefb,79,easy,18,0.5674372999997104,['n'],1,right,['1'],6,0.13730609999993248,,,,,,,,39,31,Vrouw,Links,2,
,dotcolour,dotcolour,dotcolour,53,1,113,413,training,positivefb,97,average,25,0.6672800999999708,['n'],1,right,['1'],6,0.1464666000001671,,,,,,,,39,31,Vrouw,Links,2,
,dotcolour,dotcolour,dotcolour,54,1,114,414,training,positivefb,96,easy,61,0.8338254999998753,['c'],1,left,['2'],5,0.18783580000035727,,,,,,,,39,31,Vrouw,Links,2,
,dotcolour,dotcolour,dotcolour,55,1,115,415,training,positivefb,73,hard,41,0.800141999999596,['n'],0,left,['2'],5,0.15625690000024406,,,,,,,,39,31,Vrouw,Links,2,
,dotcolour,dotcolour,dotcolour,56,1,116,416,training,positivefb,89,easy,18,0.716257399999904,['n'],1,right,['1'],6,0.17797769999970114,,,,,,,,39,31,Vrouw,Links,2,
,dotcolour,dotcolour,dotcolour,57,1,117,417,training,positivefb,93,hard,36,0.7166126000001896,['n'],1,right,['3'],4,0.1585602000000108,,,,,,,,39,31,Vrouw,Links,2,
,dotcolour,dotcolour,dotcolour,58,1,118,418,training,positivefb,94,average,29,0.8170876000003773,['n'],1,right,['1'],6,0.0881481999999778,,,,,,,,39,31,Vrouw,Links,2,
,dotcolour,dotcolour,dotcolour,59,1,119,419,training,positivefb,98,average,27,0.718088600000101,['n'],1,right,['2'],5,0.17541430000028413,,,,,,,,39,31,Vrouw,Links,2,
,xotask,dotcolour,dotcolour,0,2,120,420,main,positivefb,-99,easy,,1.268554999999651,['c'],1,left,['1'],6,0.09594130000004952,74,,,,,,,39,31,Vrouw,Links,2,
,xotask,dotcolour,dotcolour,1,2,121,421,main,positivefb,-99,average,,0.5668872999999621,['n'],1,right,['1'],6,0.09456580000005488,17,,,,,,,39,31,Vrouw,Links,2,
,xotask,dotcolour,dotcolour,2,2,122,422,main,positivefb,-99,easy,,0.5836881000000176,['n'],1,right,['1'],6,0.08473570000023756,7,,,,,,,39,31,Vrouw,Links,2,
,xotask,dotcolour,dotcolour,3,2,123,423,main,positivefb,-99,average,,0.5177429000000302,['n'],1,right,['1'],6,0.08616350000011153,17,,,,,,,39,31,Vrouw,Links,2,
,xotask,dotcolour,dotcolour,4,2,124,424,main,positivefb,-99,hard,,0.7005246999997325,['c'],0,right,['1'],6,0.09451089999993201,26,,,,,,,39,31,Vrouw,Links,2,
,xotask,dotcolour,dotcolour,5,2,125,425,main,positivefb,-99,hard,,0.5167123999999603,['n'],1,right,['1'],6,0.23974520000001576,27,,,,,,,39,31,Vrouw,Links,2,
,xotask,dotcolour,dotcolour,6,2,126,426,main,positivefb,-99,average,,0.6341714000000138,['c'],1,left,['1'],6,0.09382879999975557,64,,,,,,,39,31,Vrouw,Links,2,
,xotask,dotcolour,dotcolour,7,2,127,427,main,positivefb,-99,average,,0.5836506000000554,['n'],1,right,['1'],6,0.07545130000016798,17,,,,,,,39,31,Vrouw,Links,2,
,xotask,dotcolour,dotcolour,8,2,128,428,main,positivefb,-99,easy,,0.6009454000000005,['n'],1,right,['1'],6,0.09790490000023055,6,,,,,,,39,31,Vrouw,Links,2,
,xotask,dotcolour,dotcolour,9,2,129,429,main,positivefb,-99,easy,,0.5837076000002526,['n'],1,right,['1'],6,0.10255809999989651,9,,,,,,,39,31,Vrouw,Links,2,
,xotask,dotcolour,dotcolour,10,2,130,430,main,positivefb,-99,hard,,0.7844245000001138,['c'],0,right,['2'],5,0.06049960000018473,28,,,,,,,39,31,Vrouw,Links,2,
,xotask,dotcolour,dotcolour,11,2,131,431,main,positivefb,-99,hard,,0.5177831999999398,['n'],1,right,['1'],6,0.09395539999968605,27,,,,,,,39,31,Vrouw,Links,2,
,xotask,dotcolour,dotcolour,12,2,132,432,main,positivefb,-99,easy,,0.6673268999998072,['c'],1,left,['2'],5,0.04114990000016405,74,,,,,,,39,31,Vrouw,Links,2,
,xotask,dotcolour,dotcolour,13,2,133,433,main,positivefb,-99,average,,0.6180711000001793,['c'],1,left,['2'],5,0.06426640000017869,63,,,,,,,39,31,Vrouw,Links,2,
,xotask,dotcolour,dotcolour,14,2,134,434,main,positivefb,-99,hard,,1.7501373000000058,['c'],1,left,['3'],4,0.168186699999751,51,,,,,,,39,31,Vrouw,Links,2,
,xotask,dotcolour,dotcolour,15,2,135,435,main,positivefb,-99,easy,,0.6008191000000807,['n'],1,right,['2'],5,0.09023580000030051,9,,,,,,,39,31,Vrouw,Links,2,
,xotask,dotcolour,dotcolour,16,2,136,436,main,positivefb,-99,hard,,0.5998635999999351,['c'],1,left,"['1', '2']",6,0.10404130000006262,50,,,,,,,39,31,Vrouw,Links,2,
,xotask,dotcolour,dotcolour,17,2,137,437,main,positivefb,-99,average,,0.566690699999981,['n'],1,right,['1'],6,0.10159209999983432,18,,,,,,,39,31,Vrouw,Links,2,
,xotask,dotcolour,dotcolour,18,2,138,438,main,positivefb,-99,easy,,0.6504710999997769,['n'],0,left,['0'],1,1.1525481999997282,73,,,,,,,39,31,Vrouw,Links,2,
,xotask,dotcolour,dotcolour,19,2,139,439,main,positivefb,-99,average,,2.267920299999787,['c'],1,left,['1'],6,0.7605747000002339,61,,,,,,,39,31,Vrouw,Links,2,
,xotask,dotcolour,dotcolour,20,2,140,440,main,positivefb,-99,easy,,0.6006413000000066,['n'],1,right,['1'],6,0.09121569999979329,8,,,,,,,39,31,Vrouw,Links,2,
,xotask,dotcolour,dotcolour,21,2,141,441,main,positivefb,-99,hard,,0.6839932000002591,['n'],1,right,['1'],6,0.10977020000018456,25,,,,,,,39,31,Vrouw,Links,2,
,xotask,dotcolour,dotcolour,22,2,142,442,main,positivefb,-99,easy,,1.2348920999997972,['n'],1,right,['1'],6,0.15224709999984043,6,,,,,,,39,31,Vrouw,Links,2,
,xotask,dotcolour,dotcolour,23,2,143,443,main,positivefb,-99,hard,,1.3175562999999784,['c'],1,left,['2'],5,0.20658580000008442,51,,,,,,,39,31,Vrouw,Links,2,
,xotask,dotcolour,dotcolour,24,2,144,444,main,positivefb,-99,hard,,1.1016541999997571,['c'],1,left,['1'],6,0.05076619999999821,54,,,,,,,39,31,Vrouw,Links,2,
,xotask,dotcolour,dotcolour,25,2,145,445,main,positivefb,-99,average,,0.6673738999998022,['c'],1,left,['1'],6,0.08698659999981828,61,,,,,,,39,31,Vrouw,Links,2,
,xotask,dotcolour,dotcolour,26,2,146,446,main,positivefb,-99,hard,,1.0350012000003517,['n'],0,left,['2'],5,2.291113399999631,54,,,,,,,39,31,Vrouw,Links,2,
,xotask,dotcolour,dotcolour,27,2,147,447,main,positivefb,-99,hard,,3.0997732999999243,['c'],0,right,['3'],4,0.2529313000000002,27,,,,,,,39,31,Vrouw,Links,2,
,xotask,dotcolour,dotcolour,28,2,148,448,main,positivefb,-99,easy,,1.0177625000001171,['n'],1,right,['1'],6,0.06623429999990549,7,,,,,,,39,31,Vrouw,Links,2,
,xotask,dotcolour,dotcolour,29,2,149,449,main,positivefb,-99,easy,,1.3518037999997432,['c'],1,left,"['1', '2']",6,0.12299419999999373,71,,,,,,,39,31,Vrouw,Links,2,
,xotask,dotcolour,dotcolour,30,2,150,450,main,positivefb,-99,hard,,0.7334873999998308,['n'],1,right,['1'],6,0.11364189999994778,26,,,,,,,39,31,Vrouw,Links,2,
,xotask,dotcolour,dotcolour,31,2,151,451,main,positivefb,-99,average,,0.800083099999938,['c'],1,left,['1'],6,0.08601069999986066,64,,,,,,,39,31,Vrouw,Links,2,
,xotask,dotcolour,dotcolour,32,2,152,452,main,positivefb,-99,easy,,0.7340804000000389,['c'],1,left,['1'],6,0.10209299999996801,70,,,,,,,39,31,Vrouw,Links,2,
,xotask,dotcolour,dotcolour,33,2,153,453,main,positivefb,-99,average,,0.6507541000000856,['c'],1,left,"['1', '2']",6,0.11245019999978467,62,,,,,,,39,31,Vrouw,Links,2,
,xotask,dotcolour,dotcolour,34,2,154,454,main,positivefb,-99,hard,,1.1998250000001462,['n'],0,left,['3'],4,0.6532910999999331,54,,,,,,,39,31,Vrouw,Links,2,
,xotask,dotcolour,dotcolour,35,2,155,455,main,positivefb,-99,easy,,0.8176229000000603,['n'],1,right,['1'],6,0.16380660000004355,9,,,,,,,39,31,Vrouw,Links,2,
,xotask,dotcolour,dotcolour,36,2,156,456,main,positivefb,-99,average,,0.5504404000002978,['n'],1,right,['1'],6,0.1680897000001096,17,,,,,,,39,31,Vrouw,Links,2,
,xotask,dotcolour,dotcolour,37,2,157,457,main,positivefb,-99,average,,0.5177230999997846,['n'],1,right,['1'],6,0.10075830000005226,16,,,,,,,39,31,Vrouw,Links,2,
,xotask,dotcolour,dotcolour,38,2,158,458,main,positivefb,-99,easy,,0.5012541000000965,['n'],1,right,['1'],6,0.0776836000000003,9,,,,,,,39,31,Vrouw,Links,2,
,xotask,dotcolour,dotcolour,39,2,159,459,main,positivefb,-99,hard,,0.5500604999997449,['n'],1,right,['1'],6,0.08571799999981522,25,,,,,,,39,31,Vrouw,Links,2,
,xotask,dotcolour,dotcolour,40,2,160,460,main,positivefb,-99,average,,0.6017587999999705,['n'],1,right,['1'],6,0.17946889999984705,18,,,,,,,39,31,Vrouw,Links,2,
,xotask,dotcolour,dotcolour,41,2,161,461,main,positivefb,-99,easy,,1.084871800000201,['c'],1,left,['1'],6,0.026762299999973038,71,,,,,,,39,31,Vrouw,Links,2,
,xotask,dotcolour,dotcolour,42,2,162,462,main,positivefb,-99,average,,1.184588900000108,['c'],1,left,['2'],5,0.1312524999998459,61,,,,,,,39,31,Vrouw,Links,2,
,xotask,dotcolour,dotcolour,43,2,163,463,main,positivefb,-99,average,,0.6512696999998298,['n'],1,right,['1'],6,0.0922619000002669,18,,,,,,,39,31,Vrouw,Links,2,
,xotask,dotcolour,dotcolour,44,2,164,464,main,positivefb,-99,easy,,0.4673053000001346,['n'],1,right,['1'],6,0.07883140000012645,9,,,,,,,39,31,Vrouw,Links,2,
,xotask,dotcolour,dotcolour,45,2,165,465,main,positivefb,-99,hard,,0.8345362000000023,['c'],1,left,['1'],6,0.05944809999982681,51,,,,,,,39,31,Vrouw,Links,2,
,xotask,dotcolour,dotcolour,46,2,166,466,main,positivefb,-99,hard,,0.7019564000001992,['c'],1,left,['1'],6,0.09407629999986966,54,,,,,,,39,31,Vrouw,Links,2,
,xotask,dotcolour,dotcolour,47,2,167,467,main,positivefb,-99,easy,,0.749974100000145,['c'],1,left,['2'],5,0.1175137000000177,71,,,,,,,39,31,Vrouw,Links,2,
,xotask,dotcolour,dotcolour,48,2,168,468,main,positivefb,-99,easy,,0.6342477000002873,['c'],1,left,['2'],5,0.12058900000010908,72,,,,,,,39,31,Vrouw,Links,2,
,xotask,dotcolour,dotcolour,49,2,169,469,main,positivefb,-99,average,,0.534453300000223,['c'],1,left,['2'],5,0.07123360000014145,63,,,,,,,39,31,Vrouw,Links,2,
,xotask,dotcolour,dotcolour,50,2,170,470,main,positivefb,-99,hard,,0.7508714000000509,['n'],0,left,['2'],5,0.11869139999998879,53,,,,,,,39,31,Vrouw,Links,2,
,xotask,dotcolour,dotcolour,51,2,171,471,main,positivefb,-99,hard,,1.8512374000001728,['c'],0,right,['3'],4,0.46584070000017164,29,,,,,,,39,31,Vrouw,Links,2,
,xotask,dotcolour,dotcolour,52,2,172,472,main,positivefb,-99,hard,,0.6334907000000385,['n'],1,right,['1'],6,0.12604509999982838,27,,,,,,,39,31,Vrouw,Links,2,
,xotask,dotcolour,dotcolour,53,2,173,473,main,positivefb,-99,hard,,0.9843565999999555,['c'],1,left,['2'],5,0.210431299999982,53,,,,,,,39,31,Vrouw,Links,2,
,xotask,dotcolour,dotcolour,54,2,174,474,main,positivefb,-99,easy,,0.9181389000000308,['c'],1,left,['1'],6,0.08629330000030677,71,,,,,,,39,31,Vrouw,Links,2,
,xotask,dotcolour,dotcolour,55,2,175,475,main,positivefb,-99,average,,0.6335997999999563,['n'],1,right,['1'],6,0.13808170000038444,16,,,,,,,39,31,Vrouw,Links,2,
,xotask,dotcolour,dotcolour,56,2,176,476,main,positivefb,-99,average,,1.2162309000000278,['n'],1,right,['1'],6,0.10870389999990948,16,,,,,,,39,31,Vrouw,Links,2,
,xotask,dotcolour,dotcolour,57,2,177,477,main,positivefb,-99,easy,,0.5837977000001047,['c'],1,left,['1'],6,0.058291100000133156,71,,,,,,,39,31,Vrouw,Links,2,
,xotask,dotcolour,dotcolour,58,2,178,478,main,positivefb,-99,average,,0.7344912000003205,['c'],1,left,['2'],5,0.027731800000310614,60,,,,,,,39,31,Vrouw,Links,2,
,xotask,dotcolour,dotcolour,59,2,179,479,main,positivefb,-99,average,,0.6169998999998825,['c'],1,left,['1'],6,0.0828244999997878,60,,,,,,,39,31,Vrouw,Links,2,
,xotask,dotcolour,dotcolour,0,3,180,480,main,positivefb,-99,average,,1.9840226999999686,['n'],1,right,['2'],5,0.13182869999991453,17,,,,,,,39,31,Vrouw,Links,2,
,xotask,dotcolour,dotcolour,1,3,181,481,main,positivefb,-99,hard,,0.6185512000001836,['n'],1,right,['2'],5,0.06250099999988379,25,,,,,,,39,31,Vrouw,Links,2,
,xotask,dotcolour,dotcolour,2,3,182,482,main,positivefb,-99,hard,,1.1839805000004162,['c'],1,left,['3'],4,0.22213670000019192,54,,,,,,,39,31,Vrouw,Links,2,
,xotask,dotcolour,dotcolour,3,3,183,483,main,positivefb,-99,average,,1.3163874999995642,['n'],0,left,['3'],4,0.2655878999999004,61,,,,,,,39,31,Vrouw,Links,2,
,xotask,dotcolour,dotcolour,4,3,184,484,main,positivefb,-99,hard,,1.3844031999997242,['c'],1,left,['1'],6,0.0882050000000163,53,,,,,,,39,31,Vrouw,Links,2,
,xotask,dotcolour,dotcolour,5,3,185,485,main,positivefb,-99,average,,0.6841493000001719,['c'],1,left,['1'],6,0.09835359999988214,64,,,,,,,39,31,Vrouw,Links,2,
,xotask,dotcolour,dotcolour,6,3,186,486,main,positivefb,-99,hard,,0.7016211000000112,['n'],1,right,['2'],5,0.13057230000003983,27,,,,,,,39,31,Vrouw,Links,2,
,xotask,dotcolour,dotcolour,7,3,187,487,main,positivefb,-99,easy,,0.601347799999985,['n'],1,right,['1'],6,0.11035880000008547,9,,,,,,,39,31,Vrouw,Links,2,
,xotask,dotcolour,dotcolour,8,3,188,488,main,positivefb,-99,easy,,0.4853880000000572,['n'],1,right,['1'],6,0.127708900000016,7,,,,,,,39,31,Vrouw,Links,2,
,xotask,dotcolour,dotcolour,9,3,189,489,main,positivefb,-99,average,,0.4512337999999545,['n'],1,right,['1'],6,0.11312240000006568,18,,,,,,,39,31,Vrouw,Links,2,
,xotask,dotcolour,dotcolour,10,3,190,490,main,positivefb,-99,average,,0.8514132000000245,['c'],1,left,['1'],6,0.10839369999985138,61,,,,,,,39,31,Vrouw,Links,2,
,xotask,dotcolour,dotcolour,11,3,191,491,main,positivefb,-99,hard,,0.850188800000069,['n'],0,left,['3'],4,0.9508292999998957,54,,,,,,,39,31,Vrouw,Links,2,
,xotask,dotcolour,dotcolour,12,3,192,492,main,positivefb,-99,easy,,0.8505285000001095,['n'],1,right,['1'],6,0.13589430000001812,6,,,,,,,39,31,Vrouw,Links,2,
,xotask,dotcolour,dotcolour,13,3,193,493,main,positivefb,-99,easy,,0.45099830000026486,['n'],1,right,['1'],6,0.12043290000019624,8,,,,,,,39,31,Vrouw,Links,2,
,xotask,dotcolour,dotcolour,14,3,194,494,main,positivefb,-99,easy,,0.8677385999999387,['c'],1,left,['1'],6,0.018419300000005023,70,,,,,,,39,31,Vrouw,Links,2,
,xotask,dotcolour,dotcolour,15,3,195,495,main,positivefb,-99,easy,,0.683673799999724,['n'],1,right,['1'],6,0.12628700000004756,6,,,,,,,39,31,Vrouw,Links,2,
,xotask,dotcolour,dotcolour,16,3,196,496,main,positivefb,-99,average,,0.8009071000001313,['c'],1,left,"['1', '2']",6,0.11500660000001517,64,,,,,,,39,31,Vrouw,Links,2,
,xotask,dotcolour,dotcolour,17,3,197,497,main,positivefb,-99,easy,,0.6332209000001967,['n'],1,right,['1'],6,0.14974859999983892,7,,,,,,,39,31,Vrouw,Links,2,
,xotask,dotcolour,dotcolour,18,3,198,498,main,positivefb,-99,average,,0.8178994999998395,['c'],1,left,['2'],5,0.06425169999965874,60,,,,,,,39,31,Vrouw,Links,2,
,xotask,dotcolour,dotcolour,19,3,199,499,main,positivefb,-99,easy,,0.5844266999997672,['n'],1,right,['1'],6,0.10259839999980613,5,,,,,,,39,31,Vrouw,Links,2,
,xotask,dotcolour,dotcolour,20,3,200,500,main,positivefb,-99,hard,,0.5332342000001518,['n'],1,right,['1'],6,0.11043740000013713,29,,,,,,,39,31,Vrouw,Links,2,
,xotask,dotcolour,dotcolour,21,3,201,501,main,positivefb,-99,average,,0.6010613000003104,['c'],1,left,['2'],5,0.13157929999988482,60,,,,,,,39,31,Vrouw,Links,2,
,xotask,dotcolour,dotcolour,22,3,202,502,main,positivefb,-99,average,,0.5005987999998069,['n'],0,left,['1'],6,0.11455569999998261,63,,,,,,,39,31,Vrouw,Links,2,
,xotask,dotcolour,dotcolour,23,3,203,503,main,positivefb,-99,hard,,1.4510588999996799,['c'],1,left,['3'],4,0.1562911000000895,54,,,,,,,39,31,Vrouw,Links,2,
,xotask,dotcolour,dotcolour,24,3,204,504,main,positivefb,-99,easy,,0.5843855000002804,['n'],1,right,['1'],6,0.13611119999995935,7,,,,,,,39,31,Vrouw,Links,2,
,xotask,dotcolour,dotcolour,25,3,205,505,main,positivefb,-99,easy,,0.6839684000001398,['c'],1,left,['1'],6,0.16798049999988507,70,,,,,,,39,31,Vrouw,Links,2,
,xotask,dotcolour,dotcolour,26,3,206,506,main,positivefb,-99,hard,,1.1011757000001126,['c'],1,left,['2'],5,0.16562680000015462,53,,,,,,,39,31,Vrouw,Links,2,
,xotask,dotcolour,dotcolour,27,3,207,507,main,positivefb,-99,hard,,0.7835846000002675,['n'],1,right,['2'],5,0.2167964000000211,26,,,,,,,39,31,Vrouw,Links,2,
,xotask,dotcolour,dotcolour,28,3,208,508,main,positivefb,-99,average,,0.6515492000003178,['n'],1,right,['1'],6,0.333975399999872,16,,,,,,,39,31,Vrouw,Links,2,
,xotask,dotcolour,dotcolour,29,3,209,509,main,positivefb,-99,average,,0.49979750000011336,['n'],1,right,['1'],6,0.11005969999996523,17,,,,,,,39,31,Vrouw,Links,2,
,xotask,dotcolour,dotcolour,30,3,210,510,main,positivefb,-99,hard,,0.68379270000014,['n'],0,left,['1'],6,0.10273720000031972,54,,,,,,,39,31,Vrouw,Links,2,
,xotask,dotcolour,dotcolour,31,3,211,511,main,positivefb,-99,average,,1.000228899999911,['c'],1,left,['1'],6,0.3074768999999833,61,,,,,,,39,31,Vrouw,Links,2,
,xotask,dotcolour,dotcolour,32,3,212,512,main,positivefb,-99,hard,,0.58462499999996,['n'],1,right,['2'],5,0.2487618999998631,29,,,,,,,39,31,Vrouw,Links,2,
,xotask,dotcolour,dotcolour,33,3,213,513,main,positivefb,-99,easy,,1.0017360000001645,['c'],1,left,['1'],6,0.09577230000013515,73,,,,,,,39,31,Vrouw,Links,2,
,xotask,dotcolour,dotcolour,34,3,214,514,main,positivefb,-99,hard,,0.7168575000000601,['n'],1,right,['2'],5,0.11260089999996126,26,,,,,,,39,31,Vrouw,Links,2,
,xotask,dotcolour,dotcolour,35,3,215,515,main,positivefb,-99,easy,,0.9671057000000474,['c'],1,left,['1'],6,0.0947132999999667,71,,,,,,,39,31,Vrouw,Links,2,
,xotask,dotcolour,dotcolour,36,3,216,516,main,positivefb,-99,hard,,0.6348189999998795,['n'],1,right,['2'],5,0.17844789999981003,25,,,,,,,39,31,Vrouw,Links,2,
,xotask,dotcolour,dotcolour,37,3,217,517,main,positivefb,-99,easy,,0.9673155999998926,['c'],1,left,['1'],6,0.08551039999974819,72,,,,,,,39,31,Vrouw,Links,2,
,xotask,dotcolour,dotcolour,38,3,218,518,main,positivefb,-99,easy,,0.8855303000000276,['n'],1,right,['1'],6,0.10353080000004411,9,,,,,,,39,31,Vrouw,Links,2,
,xotask,dotcolour,dotcolour,39,3,219,519,main,positivefb,-99,easy,,0.6509421000000657,['c'],1,left,['1'],6,0.09829369999988558,72,,,,,,,39,31,Vrouw,Links,2,
,xotask,dotcolour,dotcolour,40,3,220,520,main,positivefb,-99,average,,0.5012690999997176,['n'],1,right,['1'],6,0.09914419999995516,16,,,,,,,39,31,Vrouw,Links,2,
,xotask,dotcolour,dotcolour,41,3,221,521,main,positivefb,-99,hard,,1.2325063000002956,['c'],1,left,['2'],5,0.11026700000002165,52,,,,,,,39,31,Vrouw,Links,2,
,xotask,dotcolour,dotcolour,42,3,222,522,main,positivefb,-99,average,,0.6016466999999466,['n'],1,right,['1'],6,0.09902280000005703,18,,,,,,,39,31,Vrouw,Links,2,
,xotask,dotcolour,dotcolour,43,3,223,523,main,positivefb,-99,average,,0.5344035999996777,['n'],1,right,['1'],6,0.09067800000002535,17,,,,,,,39,31,Vrouw,Links,2,
,xotask,dotcolour,dotcolour,44,3,224,524,main,positivefb,-99,easy,,0.6835975999997572,['c'],1,left,['1'],6,0.06106210000007195,71,,,,,,,39,31,Vrouw,Links,2,
,xotask,dotcolour,dotcolour,45,3,225,525,main,positivefb,-99,easy,,0.55095590000019,['c'],1,left,['2'],5,0.029537800000071,72,,,,,,,39,31,Vrouw,Links,2,
,xotask,dotcolour,dotcolour,46,3,226,526,main,positivefb,-99,average,,0.6005940999998529,['n'],1,right,['1'],6,0.07781720000002679,17,,,,,,,39,31,Vrouw,Links,2,
,xotask,dotcolour,dotcolour,47,3,227,527,main,positivefb,-99,hard,,0.7499609999999848,['c'],1,left,['1'],6,0.09380220000002737,50,,,,,,,39,31,Vrouw,Links,2,
,xotask,dotcolour,dotcolour,48,3,228,528,main,positivefb,-99,hard,,0.8160480999999891,['c'],1,left,['1'],6,0.05057669999996506,53,,,,,,,39,31,Vrouw,Links,2,
,xotask,dotcolour,dotcolour,49,3,229,529,main,positivefb,-99,hard,,0.6659107000000404,['n'],1,right,['2'],5,0.15067339999995966,26,,,,,,,39,31,Vrouw,Links,2,
,xotask,dotcolour,dotcolour,50,3,230,530,main,positivefb,-99,hard,,0.7174703000000591,['c'],1,left,"['1', '2']",6,0.07633759999998802,53,,,,,,,39,31,Vrouw,Links,2,
,xotask,dotcolour,dotcolour,51,3,231,531,main,positivefb,-99,average,,1.0849545999999464,['c'],1,left,['2'],5,0.02282500000001164,61,,,,,,,39,31,Vrouw,Links,2,
,xotask,dotcolour,dotcolour,52,3,232,532,main,positivefb,-99,average,,1.0165022000001045,['n'],1,right,['1'],6,0.07855990000007296,15,,,,,,,39,31,Vrouw,Links,2,
,xotask,dotcolour,dotcolour,53,3,233,533,main,positivefb,-99,easy,,0.6178404999996019,['n'],1,right,['1'],6,0.07537589999992633,7,,,,,,,39,31,Vrouw,Links,2,
,xotask,dotcolour,dotcolour,54,3,234,534,main,positivefb,-99,hard,,0.783620400000018,['c'],0,right,['2'],5,0.02688239999997677,29,,,,,,,39,31,Vrouw,Links,2,
,xotask,dotcolour,dotcolour,55,3,235,535,main,positivefb,-99,hard,,0.7502767000000858,['n'],1,right,['2'],5,0.09265770000001794,26,,,,,,,39,31,Vrouw,Links,2,
,xotask,dotcolour,dotcolour,56,3,236,536,main,positivefb,-99,average,,0.9181598000000122,['c'],1,left,['1'],6,0.036770400000023074,63,,,,,,,39,31,Vrouw,Links,2,
,xotask,dotcolour,dotcolour,57,3,237,537,main,positivefb,-99,easy,,0.7007932000001347,['c'],1,left,['1'],6,1.200433399999838,71,,,,,,,39,31,Vrouw,Links,2,
,xotask,dotcolour,dotcolour,58,3,238,538,main,positivefb,-99,average,,0.8673028999996859,['n'],1,right,['1'],6,0.08624379999992016,16,,,,,,,39,31,Vrouw,Links,2,
,xotask,dotcolour,dotcolour,59,3,239,539,main,positivefb,-99,easy,,0.700893200000337,['c'],1,left,['1'],6,0.05517099999997299,71,,,,,,,39,31,Vrouw,Links,2,
,xotask,dotcolour,dotcolour,0,4,240,540,main,positivefb,-99,average,,1.1839909000000262,['c'],1,left,['2'],5,0.14747429999988526,64,,,,,,,39,31,Vrouw,Links,2,
,xotask,dotcolour,dotcolour,1,4,241,541,main,positivefb,-99,average,,0.6830637000002753,['n'],1,right,['1'],6,0.06714899999997215,19,,,,,,,39,31,Vrouw,Links,2,
,xotask,dotcolour,dotcolour,2,4,242,542,main,positivefb,-99,easy,,0.5668375000000196,['n'],1,right,['1'],6,0.08252029999994193,6,,,,,,,39,31,Vrouw,Links,2,
,xotask,dotcolour,dotcolour,3,4,243,543,main,positivefb,-99,average,,0.4500990000001366,['n'],1,right,['1'],6,0.07733989999996993,16,,,,,,,39,31,Vrouw,Links,2,
,xotask,dotcolour,dotcolour,4,4,244,544,main,positivefb,-99,average,,0.9677522000001773,['n'],1,right,['2'],5,0.24493740000025355,15,,,,,,,39,31,Vrouw,Links,2,
,xotask,dotcolour,dotcolour,5,4,245,545,main,positivefb,-99,easy,,0.6175321999999142,['c'],1,left,['1'],6,0.028111600000102044,74,,,,,,,39,31,Vrouw,Links,2,
,xotask,dotcolour,dotcolour,6,4,246,546,main,positivefb,-99,easy,,0.6996843000001718,['c'],1,left,['2'],5,0.08812600000010207,71,,,,,,,39,31,Vrouw,Links,2,
,xotask,dotcolour,dotcolour,7,4,247,547,main,positivefb,-99,hard,,0.6845797000000857,['n'],1,right,['1'],6,0.11337589999993725,27,,,,,,,39,31,Vrouw,Links,2,
,xotask,dotcolour,dotcolour,8,4,248,548,main,positivefb,-99,average,,1.4339899000001424,['c'],1,left,['2'],5,0.2769849000001159,63,,,,,,,39,31,Vrouw,Links,2,
,xotask,dotcolour,dotcolour,9,4,249,549,main,positivefb,-99,easy,,0.8007803999998941,['c'],1,left,['1'],6,0.0030569000000468805,72,,,,,,,39,31,Vrouw,Links,2,
,xotask,dotcolour,dotcolour,10,4,250,550,main,positivefb,-99,easy,,0.6335962999996809,['n'],1,right,['1'],6,0.09094269999968674,7,,,,,,,39,31,Vrouw,Links,2,
,xotask,dotcolour,dotcolour,11,4,251,551,main,positivefb,-99,average,,0.8840834999996332,['n'],0,left,['1'],6,0.10111920000008467,64,,,,,,,39,31,Vrouw,Links,2,
,xotask,dotcolour,dotcolour,12,4,252,552,main,positivefb,-99,easy,,0.6501960000000508,['n'],0,left,['1'],6,0.09560250000004089,70,,,,,,,39,31,Vrouw,Links,2,
,xotask,dotcolour,dotcolour,13,4,253,553,main,positivefb,-99,hard,,0.6500837999997202,['n'],0,left,['1'],6,0.09095159999969837,52,,,,,,,39,31,Vrouw,Links,2,
,xotask,dotcolour,dotcolour,14,4,254,554,main,positivefb,-99,easy,,1.1500604000002568,['n'],1,right,['1'],6,0.11435270000038145,8,,,,,,,39,31,Vrouw,Links,2,
,xotask,dotcolour,dotcolour,15,4,255,555,main,positivefb,-99,easy,,0.5829644999998891,['n'],1,right,['1'],6,0.103648400000111,5,,,,,,,39,31,Vrouw,Links,2,
,xotask,dotcolour,dotcolour,16,4,256,556,main,positivefb,-99,average,,0.7677210000001651,['c'],1,left,['1'],6,0.005556300000080228,62,,,,,,,39,31,Vrouw,Links,2,
,xotask,dotcolour,dotcolour,17,4,257,557,main,positivefb,-99,easy,,0.48445670000000973,['n'],1,right,['1'],6,0.09908130000030724,8,,,,,,,39,31,Vrouw,Links,2,
,xotask,dotcolour,dotcolour,18,4,258,558,main,positivefb,-99,average,,1.2166124999998829,['c'],1,left,['1'],6,0.007293899999694986,61,,,,,,,39,31,Vrouw,Links,2,
,xotask,dotcolour,dotcolour,19,4,259,559,main,positivefb,-99,average,,0.6665727999998126,['c'],1,left,['1'],6,0.8051461000000018,64,,,,,,,39,31,Vrouw,Links,2,
,xotask,dotcolour,dotcolour,20,4,260,560,main,positivefb,-99,hard,,0.9999284000000443,['n'],1,right,['2'],5,0.16578070000014122,27,,,,,,,39,31,Vrouw,Links,2,
,xotask,dotcolour,dotcolour,21,4,261,561,main,positivefb,-99,average,,1.467711700000109,['c'],1,left,['2'],5,0.3571551999998519,64,,,,,,,39,31,Vrouw,Links,2,
,xotask,dotcolour,dotcolour,22,4,262,562,main,positivefb,-99,average,,0.7669237000000066,['c'],1,left,['2'],5,0.09704679999958898,64,,,,,,,39,31,Vrouw,Links,2,
,xotask,dotcolour,dotcolour,23,4,263,563,main,positivefb,-99,average,,0.7161381999999321,['n'],1,right,['2'],5,0.32221869999966657,18,,,,,,,39,31,Vrouw,Links,2,
,xotask,dotcolour,dotcolour,24,4,264,564,main,positivefb,-99,hard,,0.8174463000000287,['n'],1,right,['1'],6,0.08546049999995375,25,,,,,,,39,31,Vrouw,Links,2,
,xotask,dotcolour,dotcolour,25,4,265,565,main,positivefb,-99,hard,,0.5167320000000473,['n'],1,right,['1'],6,0.08590149999963614,27,,,,,,,39,31,Vrouw,Links,2,
,xotask,dotcolour,dotcolour,26,4,266,566,main,positivefb,-99,average,,0.6495756999997866,['n'],1,right,['1'],6,0.09714099999973769,16,,,,,,,39,31,Vrouw,Links,2,
,xotask,dotcolour,dotcolour,27,4,267,567,main,positivefb,-99,easy,,0.6831510000001799,['c'],1,left,['2'],5,0.16322579999996378,72,,,,,,,39,31,Vrouw,Links,2,
,xotask,dotcolour,dotcolour,28,4,268,568,main,positivefb,-99,average,,2.4828984000000673,['n'],1,right,['2'],5,0.37065039999970395,17,,,,,,,39,31,Vrouw,Links,2,
,xotask,dotcolour,dotcolour,29,4,269,569,main,positivefb,-99,hard,,0.7507258000000547,['n'],1,right,['2'],5,0.08658470000000307,27,,,,,,,39,31,Vrouw,Links,2,
,xotask,dotcolour,dotcolour,30,4,270,570,main,positivefb,-99,hard,,1.1340350000000399,['n'],1,right,['3'],4,0.5029789999998684,29,,,,,,,39,31,Vrouw,Links,2,
,xotask,dotcolour,dotcolour,31,4,271,571,main,positivefb,-99,hard,,0.9503568999998606,['n'],0,left,['3'],4,0.6212966999996752,53,,,,,,,39,31,Vrouw,Links,2,
,xotask,dotcolour,dotcolour,32,4,272,572,main,positivefb,-99,easy,,0.8839879000001929,['c'],1,left,['1'],6,0.6260412999999971,70,,,,,,,39,31,Vrouw,Links,2,
,xotask,dotcolour,dotcolour,33,4,273,573,main,positivefb,-99,hard,,0.8670518999997512,['n'],1,right,['2'],5,0.15935190000027433,28,,,,,,,39,31,Vrouw,Links,2,
,xotask,dotcolour,dotcolour,34,4,274,574,main,positivefb,-99,easy,,0.5994712000001527,['n'],1,right,['2'],5,0.08208609999974215,8,,,,,,,39,31,Vrouw,Links,2,
,xotask,dotcolour,dotcolour,35,4,275,575,main,positivefb,-99,average,,0.7503601000003073,['c'],1,left,['2'],5,0.10526460000028237,61,,,,,,,39,31,Vrouw,Links,2,
,xotask,dotcolour,dotcolour,36,4,276,576,main,positivefb,-99,average,,0.7003113999999186,['n'],1,right,['2'],5,0.15322539999988294,16,,,,,,,39,31,Vrouw,Links,2,
,xotask,dotcolour,dotcolour,37,4,277,577,main,positivefb,-99,average,,0.5840218999996978,['n'],1,right,['1'],6,0.1010522999999921,18,,,,,,,39,31,Vrouw,Links,2,
,xotask,dotcolour,dotcolour,38,4,278,578,main,positivefb,-99,average,,1.018479699999716,['c'],1,left,['2'],5,0.4008708999999726,60,,,,,,,39,31,Vrouw,Links,2,
,xotask,dotcolour,dotcolour,39,4,279,579,main,positivefb,-99,hard,,1.3673837999999705,['n'],0,left,['3'],4,0.4505030000000261,54,,,,,,,39,31,Vrouw,Links,2,
,xotask,dotcolour,dotcolour,40,4,280,580,main,positivefb,-99,easy,,0.7672523000001092,['c'],1,left,['1'],6,0.5711827000000085,73,,,,,,,39,31,Vrouw,Links,2,
,xotask,dotcolour,dotcolour,41,4,281,581,main,positivefb,-99,easy,,0.6835160000000542,['n'],1,right,['1'],6,0.16962280000007013,8,,,,,,,39,31,Vrouw,Links,2,
,xotask,dotcolour,dotcolour,42,4,282,582,main,positivefb,-99,easy,,0.5337257000001046,['n'],1,right,['1'],6,0.12609359999987646,7,,,,,,,39,31,Vrouw,Links,2,
,xotask,dotcolour,dotcolour,43,4,283,583,main,positivefb,-99,average,,0.500544699999864,['n'],1,right,['1'],6,0.0784734999997454,19,,,,,,,39,31,Vrouw,Links,2,
,xotask,dotcolour,dotcolour,44,4,284,584,main,positivefb,-99,hard,,0.7173901999999543,['c'],1,left,['1'],6,0.6236776000000646,50,,,,,,,39,31,Vrouw,Links,2,
,xotask,dotcolour,dotcolour,45,4,285,585,main,positivefb,-99,hard,,0.7516054999996413,['n'],1,right,['2'],5,0.2419622000002164,26,,,,,,,39,31,Vrouw,Links,2,
,xotask,dotcolour,dotcolour,46,4,286,586,main,positivefb,-99,hard,,0.985092700000223,['c'],1,left,['2'],5,0.178338199999871,52,,,,,,,39,31,Vrouw,Links,2,
,xotask,dotcolour,dotcolour,47,4,287,587,main,positivefb,-99,hard,,0.9847853999999643,['n'],0,left,['2'],5,0.2126852000001236,50,,,,,,,39,31,Vrouw,Links,2,
,xotask,dotcolour,dotcolour,48,4,288,588,main,positivefb,-99,easy,,0.8674829000001409,['c'],1,left,['1'],6,0.5387218000000757,71,,,,,,,39,31,Vrouw,Links,2,
,xotask,dotcolour,dotcolour,49,4,289,589,main,positivefb,-99,easy,,0.7180241999999453,['c'],1,left,['2'],5,0.14481989999967482,73,,,,,,,39,31,Vrouw,Links,2,
,xotask,dotcolour,dotcolour,50,4,290,590,main,positivefb,-99,hard,,0.7502621999997245,['n'],1,right,['2'],5,0.19042939999962982,29,,,,,,,39,31,Vrouw,Links,2,
,xotask,dotcolour,dotcolour,51,4,291,591,main,positivefb,-99,hard,,0.9502619999998387,['n'],1,right,['1'],6,0.20200430000022607,26,,,,,,,39,31,Vrouw,Links,2,
,xotask,dotcolour,dotcolour,52,4,292,592,main,positivefb,-99,average,,0.5669407000000319,['n'],1,right,['2'],5,0.09985519999963799,19,,,,,,,39,31,Vrouw,Links,2,
,xotask,dotcolour,dotcolour,53,4,293,593,main,positivefb,-99,hard,,0.5508598999999776,['n'],0,left,['2'],5,0.13033249999989494,53,,,,,,,39,31,Vrouw,Links,2,
,xotask,dotcolour,dotcolour,54,4,294,594,main,positivefb,-99,hard,,0.8845602999999755,['n'],0,left,['1'],6,0.1311851000000388,50,,,,,,,39,31,Vrouw,Links,2,
,xotask,dotcolour,dotcolour,55,4,295,595,main,positivefb,-99,hard,,1.000870599999871,['c'],1,left,['1'],6,0.12663270000030025,53,,,,,,,39,31,Vrouw,Links,2,
,xotask,dotcolour,dotcolour,56,4,296,596,main,positivefb,-99,easy,,0.7010372999998253,['n'],1,right,['1'],6,0.11044020000008459,9,,,,,,,39,31,Vrouw,Links,2,
,xotask,dotcolour,dotcolour,57,4,297,597,main,positivefb,-99,easy,,1.0016292000000249,['c'],1,left,['1'],6,0.09083759999975882,72,,,,,,,39,31,Vrouw,Links,2,
,xotask,dotcolour,dotcolour,58,4,298,598,main,positivefb,-99,hard,,1.4337027000001399,['c'],1,left,['1'],6,0.07101239999974496,52,,,,,,,39,31,Vrouw,Links,2,
,xotask,dotcolour,dotcolour,59,4,299,599,main,positivefb,-99,easy,,0.9167738000001009,['n'],1,right,['1'],6,0.11266630000000077,5,,,,,,,39,31,Vrouw,Links,2,
,dotcolour,dotcolour,dotcolour,0,0,0,600,training,positivefb,89,hard,38,1.4508295000000544,['n'],1,right,['1'],6,0.42201820000036605,,,,,,,,39,31,Vrouw,Links,2,
,dotcolour,dotcolour,dotcolour,1,0,1,601,training,positivefb,98,average,27,0.6491822000002685,['n'],1,right,['1'],6,0.08243819999961488,,,,,,,,39,31,Vrouw,Links,2,
,dotcolour,dotcolour,dotcolour,2,0,2,602,training,positivefb,98,easy,19,0.5663319000000229,['n'],1,right,['2'],5,0.10461080000004586,,,,,,,,39,31,Vrouw,Links,2,
,dotcolour,dotcolour,dotcolour,3,0,3,603,training,positivefb,88,easy,61,0.6830642999998418,['c'],1,left,['2'],5,0.08922880000000077,,,,,,,,39,31,Vrouw,Links,2,
,dotcolour,dotcolour,dotcolour,4,0,4,604,training,positivefb,82,average,54,0.7503102999999101,['c'],1,left,['2'],5,0.09593070000028092,,,,,,,,39,31,Vrouw,Links,2,
,dotcolour,dotcolour,dotcolour,5,0,5,605,training,positivefb,87,hard,41,0.7670719000002464,['n'],0,left,['2'],5,0.2378827000002275,,,,,,,,39,31,Vrouw,Links,2,
,dotcolour,dotcolour,dotcolour,6,0,6,606,training,positivefb,93,average,54,0.8508381999999983,['c'],1,left,['3'],4,0.12289469999996072,,,,,,,,39,31,Vrouw,Links,2,
,dotcolour,dotcolour,dotcolour,7,0,7,607,training,positivefb,89,hard,38,0.683110299999953,['n'],1,right,['2'],5,0.1951072000001659,,,,,,,,39,31,Vrouw,Links,2,
,dotcolour,dotcolour,dotcolour,8,0,8,608,training,positivefb,77,average,25,0.7685253999998167,['n'],1,right,['1'],6,0.16467069999998785,,,,,,,,39,31,Vrouw,Links,2,
,dotcolour,dotcolour,dotcolour,9,0,9,609,training,positivefb,95,hard,39,0.6158003999998982,['n'],1,right,['2'],5,0.13340299999981653,,,,,,,,39,31,Vrouw,Links,2,
,dotcolour,dotcolour,dotcolour,10,0,10,610,training,positivefb,93,average,54,0.851118999999926,['c'],1,left,['1'],6,0.006310499999926833,,,,,,,,39,31,Vrouw,Links,2,
,dotcolour,dotcolour,dotcolour,11,0,11,611,training,positivefb,68,hard,44,1.9492828000002191,['c'],1,left,['3'],4,1.6802089000002525,,,,,,,,39,31,Vrouw,Links,2,
,dotcolour,dotcolour,dotcolour,12,0,12,612,training,positivefb,98,easy,19,0.683103200000005,['n'],1,right,['1'],6,0.11406709999982922,,,,,,,,39,31,Vrouw,Links,2,
,dotcolour,dotcolour,dotcolour,13,0,13,613,training,positivefb,90,average,29,0.7001635999999962,['n'],1,right,['1'],6,0.1292433999997229,,,,,,,,39,31,Vrouw,Links,2,
,dotcolour,dotcolour,dotcolour,14,0,14,614,training,positivefb,96,hard,36,0.5672936999999365,['n'],1,right,['1'],6,0.10280620000003182,,,,,,,,39,31,Vrouw,Links,2,
,dotcolour,dotcolour,dotcolour,15,0,15,615,training,positivefb,93,easy,15,0.5674205000000256,['n'],1,right,['1'],6,0.13964889999988372,,,,,,,,39,31,Vrouw,Links,2,
,dotcolour,dotcolour,dotcolour,16,0,16,616,training,positivefb,97,average,25,0.6177554999999302,['n'],1,right,['1'],6,0.13386440000022048,,,,,,,,39,31,Vrouw,Links,2,
,dotcolour,dotcolour,dotcolour,17,0,17,617,training,positivefb,96,easy,65,1.167197700000088,['c'],1,left,['2'],5,0.2978270999997221,,,,,,,,39,31,Vrouw,Links,2,
,dotcolour,dotcolour,dotcolour,18,0,18,618,training,positivefb,97,easy,19,0.7839838999998392,['n'],1,right,['1'],6,0.11034360000030574,,,,,,,,39,31,Vrouw,Links,2,
,dotcolour,dotcolour,dotcolour,19,0,19,619,training,positivefb,89,hard,39,0.916704899999786,['n'],1,right,['2'],5,0.24584199999981138,,,,,,,,39,31,Vrouw,Links,2,
