starttime,task,fbtask,firsttask,withinblocktrial,block,withintasktrial,trial,running,feedback,fbscore,difflevel,reddots,rt,resp,cor,cresp,conf_press,cj,RTconf,n_xes,stoptime,sub,age,gender,handedness,session,
1714724497,dotcolour,dotcolour,dotcolour,0,0,0,0,training,negativefb,99,average,26,3.3007908000008683,['n'],1,right,['3'],4,5.863178399999924,,,7,18,Vrouw,Links,1,
,dotcolour,dotcolour,dotcolour,1,0,1,1,training,negativefb,53,hard,44,1.3324800999998843,['c'],1,left,['2'],5,2.813288199999988,,,7,18,Vrouw,Links,1,
,dotcolour,dotcolour,dotcolour,2,0,2,2,training,negativefb,96,easy,17,1.8668340999993234,['n'],1,right,['2'],5,2.625855799999954,,,7,18,Vrouw,Links,1,
,dotcolour,dotcolour,dotcolour,3,0,3,3,training,negativefb,74,average,52,1.382957499999975,['c'],1,left,['2'],5,2.081340800000362,,,7,18,Vrouw,Links,1,
,dotcolour,dotcolour,dotcolour,4,0,4,4,training,negativefb,18,hard,38,2.1336816000002727,['c'],0,right,['3'],4,2.872073900000032,,,7,18,Vrouw,Links,1,
,dotcolour,dotcolour,dotcolour,5,0,5,5,training,negativefb,98,average,29,1.5668953000003967,['n'],1,right,['8'],3,3.2458034999999654,,,7,18,Vrouw,Links,1,
,dotcolour,dotcolour,dotcolour,6,0,6,6,training,negativefb,21,average,26,3.1504664000003686,['c'],0,right,['3'],4,3.7820679999995264,,,7,18,Vrouw,Links,1,
,dotcolour,dotcolour,dotcolour,7,0,7,7,training,negativefb,72,easy,65,1.7495946999997614,['c'],1,left,['2'],5,1.7109565000000657,,,7,18,Vrouw,Links,1,
,dotcolour,dotcolour,dotcolour,8,0,8,8,training,negativefb,94,average,28,1.617176699999618,['n'],1,right,['3'],4,1.4428753999991386,,,7,18,Vrouw,Links,1,
,dotcolour,dotcolour,dotcolour,9,0,9,9,training,negativefb,81,hard,35,1.850237300000117,['n'],1,right,['2'],5,2.7591509999992923,,,7,18,Vrouw,Links,1,
,dotcolour,dotcolour,dotcolour,10,0,10,10,training,negativefb,98,easy,16,1.1007400000007692,['n'],1,right,['2'],5,2.476122099999884,,,7,18,Vrouw,Links,1,
,dotcolour,dotcolour,dotcolour,11,0,11,11,training,negativefb,90,easy,61,1.4509666000003563,['c'],1,left,['2'],5,2.15102780000052,,,7,18,Vrouw,Links,1,
,dotcolour,dotcolour,dotcolour,12,0,12,12,training,negativefb,83,average,55,1.0836999000002834,['c'],1,left,['1'],6,2.348895199999788,,,7,18,Vrouw,Links,1,
,dotcolour,dotcolour,dotcolour,13,0,13,13,training,negativefb,93,average,28,1.450369999999566,['n'],1,right,['2'],5,1.2918696999995518,,,7,18,Vrouw,Links,1,
,dotcolour,dotcolour,dotcolour,14,0,14,14,training,negativefb,89,average,52,1.1334318999997777,['c'],1,left,['1'],6,0.9718763999999283,,,7,18,Vrouw,Links,1,
,dotcolour,dotcolour,dotcolour,15,0,15,15,training,negativefb,55,easy,62,1.1671016999998756,['c'],1,left,['1'],6,0.6138989000000947,,,7,18,Vrouw,Links,1,
,dotcolour,dotcolour,dotcolour,16,0,16,16,training,negativefb,58,hard,45,2.6007423000000927,['c'],1,left,['3'],4,1.829826199999843,,,7,18,Vrouw,Links,1,
,dotcolour,dotcolour,dotcolour,17,0,17,17,training,negativefb,51,average,28,1.4668380000002799,['n'],1,right,['3'],4,1.6660976000002847,,,7,18,Vrouw,Links,1,
,dotcolour,dotcolour,dotcolour,18,0,18,18,training,negativefb,99,easy,17,1.7828954999995403,['n'],1,right,['2'],5,3.391751199999817,,,7,18,Vrouw,Links,1,
,dotcolour,dotcolour,dotcolour,19,0,19,19,training,negativefb,61,hard,37,2.100185899999815,['c'],0,right,['3'],4,1.3234834000004412,,,7,18,Vrouw,Links,1,
,dotcolour,dotcolour,dotcolour,20,0,20,20,training,negativefb,97,easy,17,1.132530300000326,['n'],1,right,['2'],5,2.4968933000000106,,,7,18,Vrouw,Links,1,
,dotcolour,dotcolour,dotcolour,21,0,21,21,training,negativefb,57,hard,45,1.8498356000000058,['c'],1,left,['3'],4,1.4827885999993669,,,7,18,Vrouw,Links,1,
,dotcolour,dotcolour,dotcolour,22,0,22,22,training,negativefb,61,easy,16,1.0494220999999015,['n'],1,right,['2'],5,1.1338210000003528,,,7,18,Vrouw,Links,1,
,dotcolour,dotcolour,dotcolour,23,0,23,23,training,negativefb,63,hard,41,1.7005756999997175,['c'],1,left,['3'],4,0.7715683000005811,,,7,18,Vrouw,Links,1,
,dotcolour,dotcolour,dotcolour,24,0,24,24,training,negativefb,99,average,55,2.1489834999993036,['c'],1,left,['2'],5,4.191684999999779,,,7,18,Vrouw,Links,1,
,dotcolour,dotcolour,dotcolour,25,0,25,25,training,negativefb,99,average,27,0.8832877000004373,['n'],1,right,['2'],5,1.9476309000001493,,,7,18,Vrouw,Links,1,
,dotcolour,dotcolour,dotcolour,26,0,26,26,training,negativefb,69,hard,38,3.083586199999445,['n'],1,right,['3'],4,1.6338410999996995,,,7,18,Vrouw,Links,1,
,dotcolour,dotcolour,dotcolour,27,0,27,27,training,negativefb,62,hard,37,1.8495719000002282,['c'],0,right,['2'],5,0.9576944000000367,,,7,18,Vrouw,Links,1,
,dotcolour,dotcolour,dotcolour,28,0,28,28,training,negativefb,82,hard,37,1.9669659000001047,['n'],1,right,['3'],4,1.0737664999996923,,,7,18,Vrouw,Links,1,
,dotcolour,dotcolour,dotcolour,29,0,29,29,training,negativefb,35,average,25,3.2001760000002832,['c'],0,right,['3'],4,0.8948366999993596,,,7,18,Vrouw,Links,1,
,dotcolour,dotcolour,dotcolour,30,0,30,30,training,negativefb,43,average,55,1.1838493000004746,['c'],1,left,['2'],5,1.3245458000001236,,,7,18,Vrouw,Links,1,
,dotcolour,dotcolour,dotcolour,31,0,31,31,training,negativefb,72,hard,38,1.616935700000795,['n'],1,right,['3'],4,1.2467624000000797,,,7,18,Vrouw,Links,1,
,dotcolour,dotcolour,dotcolour,32,0,32,32,training,negativefb,88,easy,18,0.9327980999996726,['n'],1,right,['2'],5,0.5918357999998989,,,7,18,Vrouw,Links,1,
,dotcolour,dotcolour,dotcolour,33,0,33,33,training,negativefb,66,easy,17,1.2833218000005218,['n'],1,right,['1'],6,0.45375530000001163,,,7,18,Vrouw,Links,1,
,dotcolour,dotcolour,dotcolour,34,0,34,34,training,negativefb,57,hard,44,1.85050450000017,['c'],1,left,['3'],4,1.553709799999524,,,7,18,Vrouw,Links,1,
,dotcolour,dotcolour,dotcolour,35,0,35,35,training,negativefb,59,average,54,1.3325728999998319,['c'],1,left,['2'],5,0.9813077000007979,,,7,18,Vrouw,Links,1,
,dotcolour,dotcolour,dotcolour,36,0,36,36,training,negativefb,44,hard,38,1.9511630000006335,['c'],0,right,['3'],4,0.6242121000004772,,,7,18,Vrouw,Links,1,
,dotcolour,dotcolour,dotcolour,37,0,37,37,training,negativefb,70,hard,35,3.116152300000067,['n'],1,right,['3'],4,1.4585203000006004,,,7,18,Vrouw,Links,1,
,dotcolour,dotcolour,dotcolour,38,0,38,38,training,negativefb,30,hard,41,1.599519400000645,['c'],1,left,['2'],5,1.8015784999997777,,,7,18,Vrouw,Links,1,
,dotcolour,dotcolour,dotcolour,39,0,39,39,training,negativefb,97,easy,15,1.2339191000000937,['n'],1,right,['2'],5,1.023207199999888,,,7,18,Vrouw,Links,1,
,dotcolour,dotcolour,dotcolour,40,0,40,40,training,negativefb,68,easy,65,1.266640599999846,['c'],1,left,['1'],6,0.4595943000003899,,,7,18,Vrouw,Links,1,
,dotcolour,dotcolour,dotcolour,41,0,41,41,training,negativefb,75,average,52,1.3667509000006248,['c'],1,left,['2'],5,1.3877093000000968,,,7,18,Vrouw,Links,1,
,dotcolour,dotcolour,dotcolour,42,0,42,42,training,negativefb,84,hard,43,1.3498865000001388,['c'],1,left,['2'],5,0.9575291000001016,,,7,18,Vrouw,Links,1,
,dotcolour,dotcolour,dotcolour,43,0,43,43,training,negativefb,87,average,54,1.2179707000004782,['c'],1,left,['1'],6,0.3914991000001464,,,7,18,Vrouw,Links,1,
,dotcolour,dotcolour,dotcolour,44,0,44,44,training,negativefb,47,easy,63,0.9174672999997711,['c'],1,left,['1'],6,0.5151290000003428,,,7,18,Vrouw,Links,1,
,dotcolour,dotcolour,dotcolour,45,0,45,45,training,negativefb,48,hard,41,1.6989236999997956,['c'],1,left,['2'],5,0.7868490000000747,,,7,18,Vrouw,Links,1,
,dotcolour,dotcolour,dotcolour,46,0,46,46,training,negativefb,80,hard,44,1.766699200000403,['c'],1,left,['3'],4,0.908606800000598,,,7,18,Vrouw,Links,1,
,dotcolour,dotcolour,dotcolour,47,0,47,47,training,negativefb,75,easy,17,1.350024599999415,['n'],1,right,['2'],5,1.427019300000211,,,7,18,Vrouw,Links,1,
,dotcolour,dotcolour,dotcolour,48,0,48,48,training,negativefb,1,hard,38,2.7670175999992352,['c'],0,right,['2'],5,2.3474151000000347,,,7,18,Vrouw,Links,1,
,dotcolour,dotcolour,dotcolour,49,0,49,49,training,negativefb,92,easy,63,1.450969200000145,['c'],1,left,['1'],6,0.835573000000295,,,7,18,Vrouw,Links,1,
,dotcolour,dotcolour,dotcolour,50,0,50,50,training,negativefb,90,average,55,1.0665785000001051,['c'],1,left,['1'],6,0.8473039000000426,,,7,18,Vrouw,Links,1,
,dotcolour,dotcolour,dotcolour,51,0,51,51,training,negativefb,97,easy,61,0.8334016999997402,['c'],1,left,['1'],6,1.0773307999997996,,,7,18,Vrouw,Links,1,
,dotcolour,dotcolour,dotcolour,52,0,52,52,training,negativefb,54,easy,62,0.7664709999999104,['c'],1,left,['1'],6,0.579468399999314,,,7,18,Vrouw,Links,1,
,dotcolour,dotcolour,dotcolour,53,0,53,53,training,negativefb,69,average,29,1.1831134000003658,['n'],1,right,['2'],5,0.7737637000000177,,,7,18,Vrouw,Links,1,
,dotcolour,dotcolour,dotcolour,54,0,54,54,training,negativefb,94,easy,19,0.8166221999999834,['n'],1,right,['1'],6,0.7742305000001579,,,7,18,Vrouw,Links,1,
,dotcolour,dotcolour,dotcolour,55,0,55,55,training,negativefb,93,average,26,1.1170107000007192,['n'],1,right,['1'],6,1.418738100000155,,,7,18,Vrouw,Links,1,
,dotcolour,dotcolour,dotcolour,56,0,56,56,training,negativefb,89,easy,65,1.1164655000002313,['c'],1,left,['1'],6,1.357591599999978,,,7,18,Vrouw,Links,1,
,dotcolour,dotcolour,dotcolour,57,0,57,57,training,negativefb,70,easy,62,1.2336268999997628,['c'],1,left,['1'],6,0.5824346999997942,,,7,18,Vrouw,Links,1,
,dotcolour,dotcolour,dotcolour,58,0,58,58,training,negativefb,37,hard,42,1.7174506000001202,['n'],0,left,['2'],5,1.0344489999997677,,,7,18,Vrouw,Links,1,
,dotcolour,dotcolour,dotcolour,59,0,59,59,training,negativefb,81,average,53,0.9997872000003554,['c'],1,left,['2'],5,1.0654528000004575,,,7,18,Vrouw,Links,1,
,dotcolour,dotcolour,dotcolour,0,1,60,60,training,negativefb,61,easy,15,1.3352814999998373,['n'],1,right,['1'],6,1.3299963999998,,,7,18,Vrouw,Links,1,
,dotcolour,dotcolour,dotcolour,1,1,61,61,training,negativefb,57,average,55,2.750782799999797,['c'],1,left,['3'],4,1.1120033000006515,,,7,18,Vrouw,Links,1,
,dotcolour,dotcolour,dotcolour,2,1,62,62,training,negativefb,83,average,28,1.1837009999999282,['n'],1,right,['2'],5,2.036892600000101,,,7,18,Vrouw,Links,1,
,dotcolour,dotcolour,dotcolour,3,1,63,63,training,negativefb,23,hard,37,2.3326388000004954,['c'],0,right,['3'],4,1.149206499999309,,,7,18,Vrouw,Links,1,
,dotcolour,dotcolour,dotcolour,4,1,64,64,training,negativefb,54,hard,42,2.433765400000084,['n'],0,left,['2'],5,1.422275400000217,,,7,18,Vrouw,Links,1,
,dotcolour,dotcolour,dotcolour,5,1,65,65,training,negativefb,91,easy,15,1.5992976999996245,['n'],1,right,['1'],6,1.1332524999997986,,,7,18,Vrouw,Links,1,
,dotcolour,dotcolour,dotcolour,6,1,66,66,training,negativefb,30,hard,38,1.7662113000005775,['c'],0,right,['2'],5,0.9218817999999374,,,7,18,Vrouw,Links,1,
,dotcolour,dotcolour,dotcolour,7,1,67,67,training,negativefb,92,hard,41,2.2333913000002212,['c'],1,left,['2'],5,2.92367269999977,,,7,18,Vrouw,Links,1,
,dotcolour,dotcolour,dotcolour,8,1,68,68,training,negativefb,51,hard,39,2.349926300000334,['n'],1,right,['3'],4,0.7915416999994704,,,7,18,Vrouw,Links,1,
,dotcolour,dotcolour,dotcolour,9,1,69,69,training,negativefb,85,average,51,1.6001169000001028,['c'],1,left,['2'],5,1.160692299999937,,,7,18,Vrouw,Links,1,
,dotcolour,dotcolour,dotcolour,10,1,70,70,training,negativefb,84,hard,45,1.3012617000003956,['c'],1,left,['2'],5,0.8469283999993422,,,7,18,Vrouw,Links,1,
,dotcolour,dotcolour,dotcolour,11,1,71,71,training,negativefb,76,easy,61,1.482952899999873,['c'],1,left,['2'],5,1.033983299999818,,,7,18,Vrouw,Links,1,
,dotcolour,dotcolour,dotcolour,12,1,72,72,training,negativefb,85,average,28,2.967623999999887,['n'],1,right,['3'],4,0.8421801000004052,,,7,18,Vrouw,Links,1,
,dotcolour,dotcolour,dotcolour,13,1,73,73,training,negativefb,95,average,27,1.7012528999994174,['n'],1,right,['3'],4,1.157078299999739,,,7,18,Vrouw,Links,1,
,dotcolour,dotcolour,dotcolour,14,1,74,74,training,negativefb,73,easy,18,1.201062600000114,['n'],1,right,['1'],6,0.7509889000002659,,,7,18,Vrouw,Links,1,
,dotcolour,dotcolour,dotcolour,15,1,75,75,training,negativefb,38,average,53,1.7000127999999677,['c'],1,left,['1'],6,1.2769531000003553,,,7,18,Vrouw,Links,1,
,dotcolour,dotcolour,dotcolour,16,1,76,76,training,negativefb,59,hard,36,1.551244900000711,['n'],1,right,['2'],5,1.4604774999997971,,,7,18,Vrouw,Links,1,
,dotcolour,dotcolour,dotcolour,17,1,77,77,training,negativefb,85,average,52,1.9340135000002192,['c'],1,left,['2'],5,1.7326909999992495,,,7,18,Vrouw,Links,1,
,dotcolour,dotcolour,dotcolour,18,1,78,78,training,negativefb,73,easy,64,0.9666810999997324,['c'],1,left,['1'],6,0.5759250000000975,,,7,18,Vrouw,Links,1,
,dotcolour,dotcolour,dotcolour,19,1,79,79,training,negativefb,83,average,55,0.8846654999997554,['c'],1,left,['1'],6,0.33486379999976634,,,7,18,Vrouw,Links,1,
,dotcolour,dotcolour,dotcolour,20,1,80,80,training,negativefb,93,average,26,1.017272199999752,['n'],1,right,['1'],6,0.719967999999426,,,7,18,Vrouw,Links,1,
,dotcolour,dotcolour,dotcolour,21,1,81,81,training,negativefb,38,average,28,1.283582899999601,['n'],1,right,['2'],5,0.48831539999991946,,,7,18,Vrouw,Links,1,
,dotcolour,dotcolour,dotcolour,22,1,82,82,training,negativefb,69,hard,35,2.617457899999863,['n'],1,right,['2'],5,0.7322784999996657,,,7,18,Vrouw,Links,1,
,dotcolour,dotcolour,dotcolour,23,1,83,83,training,negativefb,91,average,53,1.1331986999994115,['c'],1,left,['1'],6,2.2977684000006775,,,7,18,Vrouw,Links,1,
,dotcolour,dotcolour,dotcolour,24,1,84,84,training,negativefb,69,easy,61,0.9834949999994933,['c'],1,left,['1'],6,0.36617630000000645,,,7,18,Vrouw,Links,1,
,dotcolour,dotcolour,dotcolour,25,1,85,85,training,negativefb,82,easy,65,0.9506937000005564,['c'],1,left,['1'],6,0.32173580000016955,,,7,18,Vrouw,Links,1,
,dotcolour,dotcolour,dotcolour,26,1,86,86,training,negativefb,67,easy,19,2.14994999999999,['n'],1,right,['2'],5,0.7022074999995311,,,7,18,Vrouw,Links,1,
,dotcolour,dotcolour,dotcolour,27,1,87,87,training,negativefb,81,easy,61,0.9835396999997101,['c'],1,left,['1'],6,0.36316749999969034,,,7,18,Vrouw,Links,1,
,dotcolour,dotcolour,dotcolour,28,1,88,88,training,negativefb,71,hard,45,4.399124200000188,['c'],1,left,['2'],5,1.1652342999996108,,,7,18,Vrouw,Links,1,
,dotcolour,dotcolour,dotcolour,29,1,89,89,training,negativefb,54,hard,38,1.7335238999994544,['c'],0,right,['2'],5,0.4498409999996511,,,7,18,Vrouw,Links,1,
,dotcolour,dotcolour,dotcolour,30,1,90,90,training,negativefb,73,hard,42,2.1510241999994832,['c'],1,left,['3'],4,0.8178312999998525,,,7,18,Vrouw,Links,1,
,dotcolour,dotcolour,dotcolour,31,1,91,91,training,negativefb,85,average,52,2.950036299999738,['c'],1,left,['2'],5,1.5312106999999742,,,7,18,Vrouw,Links,1,
,dotcolour,dotcolour,dotcolour,32,1,92,92,training,negativefb,62,average,26,1.9502743999992163,['n'],1,right,['3'],4,1.2158584999997402,,,7,18,Vrouw,Links,1,
,dotcolour,dotcolour,dotcolour,33,1,93,93,training,negativefb,85,easy,15,1.4340372999995452,['n'],1,right,['1'],6,0.7578696999999011,,,7,18,Vrouw,Links,1,
,dotcolour,dotcolour,dotcolour,34,1,94,94,training,negativefb,80,average,26,1.38372740000068,['n'],1,right,['2'],5,0.8008008999995582,,,7,18,Vrouw,Links,1,
,dotcolour,dotcolour,dotcolour,35,1,95,95,training,negativefb,100,easy,64,1.1005989000004774,['c'],1,left,['2'],5,8.996675200000027,,,7,18,Vrouw,Links,1,
,dotcolour,dotcolour,dotcolour,36,1,96,96,training,negativefb,89,easy,61,1.6841353999998319,['c'],1,left,['1'],6,1.5434433000000354,,,7,18,Vrouw,Links,1,
,dotcolour,dotcolour,dotcolour,37,1,97,97,training,negativefb,71,hard,45,1.1176662999996552,['c'],1,left,['2'],5,1.452687799999694,,,7,18,Vrouw,Links,1,
,dotcolour,dotcolour,dotcolour,38,1,98,98,training,negativefb,92,easy,19,1.2830039999998917,['n'],1,right,['1'],6,2.6470187000004444,,,7,18,Vrouw,Links,1,
,dotcolour,dotcolour,dotcolour,39,1,99,99,training,negativefb,89,easy,15,0.9162270000006174,['n'],1,right,['1'],6,0.5919958000004044,,,7,18,Vrouw,Links,1,
,dotcolour,dotcolour,dotcolour,40,1,100,100,training,negativefb,86,average,53,1.283294200000455,['c'],1,left,['2'],5,0.8934203999997408,,,7,18,Vrouw,Links,1,
,dotcolour,dotcolour,dotcolour,41,1,101,101,training,negativefb,52,hard,42,1.7669058000001314,['c'],1,left,['2'],5,1.6115866999998616,,,7,18,Vrouw,Links,1,
,dotcolour,dotcolour,dotcolour,42,1,102,102,training,negativefb,83,easy,64,0.900507800000014,['c'],1,left,['1'],6,0.7427852000000712,,,7,18,Vrouw,Links,1,
,dotcolour,dotcolour,dotcolour,43,1,103,103,training,negativefb,57,hard,44,1.9510073999999804,['c'],1,left,['2'],5,0.8754996999996365,,,7,18,Vrouw,Links,1,
,dotcolour,dotcolour,dotcolour,44,1,104,104,training,negativefb,82,easy,62,1.1670776000000842,['c'],1,left,['1'],6,0.6103404999994382,,,7,18,Vrouw,Links,1,
,dotcolour,dotcolour,dotcolour,45,1,105,105,training,negativefb,85,average,27,1.083136299999751,['n'],1,right,['1'],6,1.7427403000001505,,,7,18,Vrouw,Links,1,
,dotcolour,dotcolour,dotcolour,46,1,106,106,training,negativefb,72,hard,38,1.899330000000191,['n'],1,right,['2'],5,1.5489600000000792,,,7,18,Vrouw,Links,1,
,dotcolour,dotcolour,dotcolour,47,1,107,107,training,negativefb,100,easy,18,1.1006575000001249,['n'],1,right,['2'],5,1.8176309000000401,,,7,18,Vrouw,Links,1,
,dotcolour,dotcolour,dotcolour,48,1,108,108,training,negativefb,74,easy,61,2.9171956000000137,['c'],1,left,['2'],5,0.899220699999205,,,7,18,Vrouw,Links,1,
,dotcolour,dotcolour,dotcolour,49,1,109,109,training,negativefb,35,hard,39,3.7829477999994197,['c'],0,right,['2'],5,1.632179800000813,,,7,18,Vrouw,Links,1,
,dotcolour,dotcolour,dotcolour,50,1,110,110,training,negativefb,68,average,28,1.616868200000681,['n'],1,right,['2'],5,0.7339000000001761,,,7,18,Vrouw,Links,1,
,dotcolour,dotcolour,dotcolour,51,1,111,111,training,negativefb,61,hard,45,2.550179300000309,['c'],1,left,['2'],5,1.5307364000000234,,,7,18,Vrouw,Links,1,
,dotcolour,dotcolour,dotcolour,52,1,112,112,training,negativefb,64,average,54,2.366361600000346,['c'],1,left,['2'],5,1.4470287000003736,,,7,18,Vrouw,Links,1,
,dotcolour,dotcolour,dotcolour,53,1,113,113,training,negativefb,38,hard,38,2.7166779999997743,['c'],0,right,['2'],5,0.7933302000001277,,,7,18,Vrouw,Links,1,
,dotcolour,dotcolour,dotcolour,54,1,114,114,training,negativefb,90,hard,45,1.015882600000623,['c'],1,left,['2'],5,0.7052833999996437,,,7,18,Vrouw,Links,1,
,dotcolour,dotcolour,dotcolour,55,1,115,115,training,negativefb,98,easy,17,1.3504014000000097,['n'],1,right,['2'],5,2.3515625,,,7,18,Vrouw,Links,1,
,dotcolour,dotcolour,dotcolour,56,1,116,116,training,negativefb,92,average,52,1.0324655000003986,['c'],1,left,['2'],5,1.7434395999998742,,,7,18,Vrouw,Links,1,
,dotcolour,dotcolour,dotcolour,57,1,117,117,training,negativefb,62,hard,38,1.2338276000000405,['n'],1,right,['1'],6,0.6241636999993716,,,7,18,Vrouw,Links,1,
,dotcolour,dotcolour,dotcolour,58,1,118,118,training,negativefb,92,easy,19,0.9339608000000226,['n'],1,right,['1'],6,0.9464174000004277,,,7,18,Vrouw,Links,1,
,dotcolour,dotcolour,dotcolour,59,1,119,119,training,negativefb,59,average,28,0.7983198000001721,['n'],1,right,['1'],6,0.38059679999969376,,,7,18,Vrouw,Links,1,
,dotcolour,dotcolour,dotcolour,0,2,120,120,main,negativefb,-99,average,26,2.2006886000008308,['n'],1,right,['2'],5,3.314615799999956,,,7,18,Vrouw,Links,1,
,dotcolour,dotcolour,dotcolour,1,2,121,121,main,negativefb,-99,easy,19,1.4992654999996375,['n'],1,right,['2'],5,0.7074737000002642,,,7,18,Vrouw,Links,1,
,dotcolour,dotcolour,dotcolour,2,2,122,122,main,negativefb,-99,hard,44,1.7348110000002634,['c'],1,left,['3'],4,1.2986852000003637,,,7,18,Vrouw,Links,1,
,dotcolour,dotcolour,dotcolour,3,2,123,123,main,negativefb,-99,easy,64,1.5846390999995492,['c'],1,left,['1'],6,0.7995466000002125,,,7,18,Vrouw,Links,1,
,dotcolour,dotcolour,dotcolour,4,2,124,124,main,negativefb,-99,average,25,2.43380260000049,['n'],1,right,['2'],5,0.6392410999997082,,,7,18,Vrouw,Links,1,
,dotcolour,dotcolour,dotcolour,5,2,125,125,main,negativefb,-99,average,28,1.2507894999998825,['n'],1,right,['2'],5,0.8365694000003714,,,7,18,Vrouw,Links,1,
,dotcolour,dotcolour,dotcolour,6,2,126,126,main,negativefb,-99,hard,39,2.4009149000003163,['c'],0,right,['2'],5,0.5313734000001205,,,7,18,Vrouw,Links,1,
,dotcolour,dotcolour,dotcolour,7,2,127,127,main,negativefb,-99,hard,41,2.2338778000003003,['c'],1,left,['3'],4,1.2063763000005565,,,7,18,Vrouw,Links,1,
,dotcolour,dotcolour,dotcolour,8,2,128,128,main,negativefb,-99,easy,15,1.001371299999846,['n'],1,right,['1'],6,1.3181477999996787,,,7,18,Vrouw,Links,1,
,dotcolour,dotcolour,dotcolour,9,2,129,129,main,negativefb,-99,easy,15,0.8341857000004893,['n'],1,right,['1'],6,0.35353110000050947,,,7,18,Vrouw,Links,1,
,dotcolour,dotcolour,dotcolour,10,2,130,130,main,negativefb,-99,easy,18,1.0841918000005535,['n'],1,right,['1'],6,0.3288429999993241,,,7,18,Vrouw,Links,1,
,dotcolour,dotcolour,dotcolour,11,2,131,131,main,negativefb,-99,average,29,2.684747000000243,['n'],1,right,['2'],5,0.8574664999996457,,,7,18,Vrouw,Links,1,
,dotcolour,dotcolour,dotcolour,12,2,132,132,main,negativefb,-99,average,52,1.9015675000000556,['c'],1,left,['2'],5,0.8039927999998326,,,7,18,Vrouw,Links,1,
,dotcolour,dotcolour,dotcolour,13,2,133,133,main,negativefb,-99,easy,15,1.0181721999997535,['n'],1,right,['2'],5,0.9960331000002043,,,7,18,Vrouw,Links,1,
,dotcolour,dotcolour,dotcolour,14,2,134,134,main,negativefb,-99,hard,44,1.9344499999997424,['c'],1,left,['2'],5,0.7758287999995446,,,7,18,Vrouw,Links,1,
,dotcolour,dotcolour,dotcolour,15,2,135,135,main,negativefb,-99,hard,35,2.567857400000321,['c'],0,right,['2'],5,0.49956790000032925,,,7,18,Vrouw,Links,1,
,dotcolour,dotcolour,dotcolour,16,2,136,136,main,negativefb,-99,easy,63,1.7516686000008121,['c'],1,left,['1'],6,0.5942806000002747,,,7,18,Vrouw,Links,1,
,dotcolour,dotcolour,dotcolour,17,2,137,137,main,negativefb,-99,hard,43,1.4849311999996644,['c'],1,left,['2'],5,0.6484135000000606,,,7,18,Vrouw,Links,1,
,dotcolour,dotcolour,dotcolour,18,2,138,138,main,negativefb,-99,average,51,2.001438600000256,['c'],1,left,['2'],5,0.7913569000002099,,,7,18,Vrouw,Links,1,
,dotcolour,dotcolour,dotcolour,19,2,139,139,main,negativefb,-99,average,51,1.1336169999995036,['c'],1,left,['1'],6,0.4747783000002528,,,7,18,Vrouw,Links,1,
,dotcolour,dotcolour,dotcolour,20,2,140,140,main,negativefb,-99,hard,41,1.3842499000002135,['c'],1,left,['1'],6,0.9058335999998235,,,7,18,Vrouw,Links,1,
,dotcolour,dotcolour,dotcolour,21,2,141,141,main,negativefb,-99,hard,42,2.3017061999998987,['n'],0,left,['2'],5,2.154486200000065,,,7,18,Vrouw,Links,1,
,dotcolour,dotcolour,dotcolour,22,2,142,142,main,negativefb,-99,hard,39,2.3508012000002054,['n'],1,right,['3'],4,0.5265701999996963,,,7,18,Vrouw,Links,1,
,dotcolour,dotcolour,dotcolour,23,2,143,143,main,negativefb,-99,average,54,1.1172040999999808,['c'],1,left,['1'],6,0.5506328999999823,,,7,18,Vrouw,Links,1,
,dotcolour,dotcolour,dotcolour,24,2,144,144,main,negativefb,-99,average,25,1.033328700000311,['n'],1,right,['1'],6,0.816068300000552,,,7,18,Vrouw,Links,1,
,dotcolour,dotcolour,dotcolour,25,2,145,145,main,negativefb,-99,easy,64,1.3510041999998066,['c'],1,left,['1'],6,0.6495134000006146,,,7,18,Vrouw,Links,1,
,dotcolour,dotcolour,dotcolour,26,2,146,146,main,negativefb,-99,easy,65,1.3351757000000362,['c'],1,left,['1'],6,0.5470849000003,,,7,18,Vrouw,Links,1,
,dotcolour,dotcolour,dotcolour,27,2,147,147,main,negativefb,-99,average,26,1.7676526999994167,['n'],1,right,['1'],6,3.0879745000002004,,,7,18,Vrouw,Links,1,
,dotcolour,dotcolour,dotcolour,28,2,148,148,main,negativefb,-99,easy,62,0.9015193000004729,['c'],1,left,['1'],6,0.6491552999996202,,,7,18,Vrouw,Links,1,
,dotcolour,dotcolour,dotcolour,29,2,149,149,main,negativefb,-99,average,25,1.5016285000001517,['n'],1,right,['2'],5,1.1079771999993682,,,7,18,Vrouw,Links,1,
,dotcolour,dotcolour,dotcolour,30,2,150,150,main,negativefb,-99,easy,18,1.2513778000002276,['n'],1,right,['1'],6,0.45398350000050414,,,7,18,Vrouw,Links,1,
,dotcolour,dotcolour,dotcolour,31,2,151,151,main,negativefb,-99,hard,37,0.9338038999994751,['n'],1,right,['2'],5,0.4880106999999043,,,7,18,Vrouw,Links,1,
,dotcolour,dotcolour,dotcolour,32,2,152,152,main,negativefb,-99,average,25,1.1008835000002364,['n'],1,right,['2'],5,0.4091902999998638,,,7,18,Vrouw,Links,1,
,dotcolour,dotcolour,dotcolour,33,2,153,153,main,negativefb,-99,easy,65,1.0506722000000082,['c'],1,left,['1'],6,0.4479935999997906,,,7,18,Vrouw,Links,1,
,dotcolour,dotcolour,dotcolour,34,2,154,154,main,negativefb,-99,easy,61,1.3344486999994842,['c'],1,left,['1'],6,0.5054551000002903,,,7,18,Vrouw,Links,1,
,dotcolour,dotcolour,dotcolour,35,2,155,155,main,negativefb,-99,easy,16,1.6013226999994004,['n'],1,right,['1'],6,1.085794800000258,,,7,18,Vrouw,Links,1,
,dotcolour,dotcolour,dotcolour,36,2,156,156,main,negativefb,-99,hard,43,1.5331405999995695,['c'],1,left,['2'],5,0.3823402999996688,,,7,18,Vrouw,Links,1,
,dotcolour,dotcolour,dotcolour,37,2,157,157,main,negativefb,-99,hard,35,1.6512565999992148,['n'],1,right,['3'],4,1.0293807999996716,,,7,18,Vrouw,Links,1,
,dotcolour,dotcolour,dotcolour,38,2,158,158,main,negativefb,-99,easy,16,1.018018700000539,['n'],1,right,['1'],6,0.7965443000002779,,,7,18,Vrouw,Links,1,
,dotcolour,dotcolour,dotcolour,39,2,159,159,main,negativefb,-99,easy,65,1.150395099999514,['c'],1,left,['1'],6,0.7199807999995755,,,7,18,Vrouw,Links,1,
,dotcolour,dotcolour,dotcolour,40,2,160,160,main,negativefb,-99,average,25,0.9512913000007757,['n'],1,right,['2'],5,0.5814546999999948,,,7,18,Vrouw,Links,1,
,dotcolour,dotcolour,dotcolour,41,2,161,161,main,negativefb,-99,average,53,1.1178641000005882,['c'],1,left,['1'],6,0.610358300000371,,,7,18,Vrouw,Links,1,
,dotcolour,dotcolour,dotcolour,42,2,162,162,main,negativefb,-99,hard,35,1.3179079000001366,['n'],1,right,['2'],5,1.0625427000004493,,,7,18,Vrouw,Links,1,
,dotcolour,dotcolour,dotcolour,43,2,163,163,main,negativefb,-99,average,52,1.2355033999992884,['c'],1,left,['1'],6,0.6759031999999934,,,7,18,Vrouw,Links,1,
,dotcolour,dotcolour,dotcolour,44,2,164,164,main,negativefb,-99,hard,42,2.0515109000007214,['n'],0,left,['2'],5,0.6715347999997903,,,7,18,Vrouw,Links,1,
,dotcolour,dotcolour,dotcolour,45,2,165,165,main,negativefb,-99,easy,63,0.9179829000004247,['c'],1,left,['1'],6,0.6093709000006129,,,7,18,Vrouw,Links,1,
,dotcolour,dotcolour,dotcolour,46,2,166,166,main,negativefb,-99,average,28,1.2014821000002485,['n'],1,right,['2'],5,2.218339800000649,,,7,18,Vrouw,Links,1,
,dotcolour,dotcolour,dotcolour,47,2,167,167,main,negativefb,-99,hard,44,2.8012100000005375,['c'],1,left,['1'],6,0.6578126000003977,,,7,18,Vrouw,Links,1,
,dotcolour,dotcolour,dotcolour,48,2,168,168,main,negativefb,-99,hard,36,1.1839756999997917,['n'],1,right,['2'],5,1.2019528999999238,,,7,18,Vrouw,Links,1,
,dotcolour,dotcolour,dotcolour,49,2,169,169,main,negativefb,-99,easy,19,0.867008000000169,['n'],1,right,['1'],6,0.43953459999920597,,,7,18,Vrouw,Links,1,
,dotcolour,dotcolour,dotcolour,50,2,170,170,main,negativefb,-99,average,54,1.2672945000003892,['c'],1,left,['1'],6,0.6116280000005645,,,7,18,Vrouw,Links,1,
,dotcolour,dotcolour,dotcolour,51,2,171,171,main,negativefb,-99,easy,63,0.7343073000001823,['c'],1,left,['1'],6,0.5433011000004626,,,7,18,Vrouw,Links,1,
,dotcolour,dotcolour,dotcolour,52,2,172,172,main,negativefb,-99,easy,18,1.2007512999998653,['n'],1,right,['1'],6,0.6108396999998149,,,7,18,Vrouw,Links,1,
,dotcolour,dotcolour,dotcolour,53,2,173,173,main,negativefb,-99,average,52,0.9338820999992095,['c'],1,left,['1'],6,0.5024300999994011,,,7,18,Vrouw,Links,1,
,dotcolour,dotcolour,dotcolour,54,2,174,174,main,negativefb,-99,hard,39,2.4170151000007536,['c'],0,right,['2'],5,0.4577329000003374,,,7,18,Vrouw,Links,1,
,dotcolour,dotcolour,dotcolour,55,2,175,175,main,negativefb,-99,average,53,3.3010250000006636,['c'],1,left,['2'],5,0.7083926999994219,,,7,18,Vrouw,Links,1,
,dotcolour,dotcolour,dotcolour,56,2,176,176,main,negativefb,-99,hard,36,1.7850925000002462,['c'],0,right,['2'],5,0.45878149999953166,,,7,18,Vrouw,Links,1,
,dotcolour,dotcolour,dotcolour,57,2,177,177,main,negativefb,-99,hard,35,1.8343806000002587,['n'],1,right,['3'],4,0.9270292999999583,,,7,18,Vrouw,Links,1,
,dotcolour,dotcolour,dotcolour,58,2,178,178,main,negativefb,-99,hard,44,3.8008527000001777,['c'],1,left,['2'],5,1.2435319999995045,,,7,18,Vrouw,Links,1,
,dotcolour,dotcolour,dotcolour,59,2,179,179,main,negativefb,-99,average,51,1.2838322000006883,['c'],1,left,['2'],5,0.8236250999998447,,,7,18,Vrouw,Links,1,
,dotcolour,dotcolour,dotcolour,0,3,180,180,main,negativefb,-99,hard,39,1.4683620999994673,['n'],1,right,['2'],5,0.7528370999998515,,,7,18,Vrouw,Links,1,
,dotcolour,dotcolour,dotcolour,1,3,181,181,main,negativefb,-99,hard,39,1.6178229999995892,['c'],0,right,['3'],4,1.9628882999995767,,,7,18,Vrouw,Links,1,
,dotcolour,dotcolour,dotcolour,2,3,182,182,main,negativefb,-99,easy,63,0.9515024000002086,['c'],1,left,['1'],6,0.5837443000000349,,,7,18,Vrouw,Links,1,
,dotcolour,dotcolour,dotcolour,3,3,183,183,main,negativefb,-99,easy,19,1.6515090999992026,['n'],1,right,['2'],5,0.7353892000000997,,,7,18,Vrouw,Links,1,
,dotcolour,dotcolour,dotcolour,4,3,184,184,main,negativefb,-99,hard,42,2.184241999999358,['n'],0,left,['3'],4,0.538408100000197,,,7,18,Vrouw,Links,1,
,dotcolour,dotcolour,dotcolour,5,3,185,185,main,negativefb,-99,hard,44,1.1847593000002234,['c'],1,left,['2'],5,0.4704577000002246,,,7,18,Vrouw,Links,1,
,dotcolour,dotcolour,dotcolour,6,3,186,186,main,negativefb,-99,hard,36,1.4180366999999023,['n'],1,right,['2'],5,0.3643456999998307,,,7,18,Vrouw,Links,1,
,dotcolour,dotcolour,dotcolour,7,3,187,187,main,negativefb,-99,hard,35,1.9846372000001793,['n'],1,right,['3'],4,0.5591166000003795,,,7,18,Vrouw,Links,1,
,dotcolour,dotcolour,dotcolour,8,3,188,188,main,negativefb,-99,hard,41,1.6846298000000388,['c'],1,left,['2'],5,0.6224251000003278,,,7,18,Vrouw,Links,1,
,dotcolour,dotcolour,dotcolour,9,3,189,189,main,negativefb,-99,hard,38,1.6009422999995877,['n'],1,right,['3'],4,1.3020361999997476,,,7,18,Vrouw,Links,1,
,dotcolour,dotcolour,dotcolour,10,3,190,190,main,negativefb,-99,hard,42,1.4173216999997749,['c'],1,left,['2'],5,1.090252099999816,,,7,18,Vrouw,Links,1,
,dotcolour,dotcolour,dotcolour,11,3,191,191,main,negativefb,-99,hard,45,1.2836612999999488,['c'],1,left,['2'],5,0.8920935999994981,,,7,18,Vrouw,Links,1,
,dotcolour,dotcolour,dotcolour,12,3,192,192,main,negativefb,-99,average,52,1.7176880999995774,['c'],1,left,['2'],5,0.43758470000011584,,,7,18,Vrouw,Links,1,
,dotcolour,dotcolour,dotcolour,13,3,193,193,main,negativefb,-99,easy,64,1.70184750000044,['c'],1,left,['2'],5,0.6645226999999068,,,7,18,Vrouw,Links,1,
,dotcolour,dotcolour,dotcolour,14,3,194,194,main,negativefb,-99,easy,61,0.9681380000001809,['c'],1,left,['1'],6,0.38407199999983277,,,7,18,Vrouw,Links,1,
,dotcolour,dotcolour,dotcolour,15,3,195,195,main,negativefb,-99,easy,63,0.5175792000000001,['c'],1,left,['1'],6,0.6365427000000636,,,7,18,Vrouw,Links,1,
,dotcolour,dotcolour,dotcolour,16,3,196,196,main,negativefb,-99,easy,61,0.7180725999996866,['c'],1,left,['1'],6,0.3352021999999124,,,7,18,Vrouw,Links,1,
,dotcolour,dotcolour,dotcolour,17,3,197,197,main,negativefb,-99,average,28,1.7507015999999567,['n'],1,right,['1'],6,0.6127595999996629,,,7,18,Vrouw,Links,1,
,dotcolour,dotcolour,dotcolour,18,3,198,198,main,negativefb,-99,average,51,1.168303499999638,['c'],1,left,['2'],5,0.47868170000037935,,,7,18,Vrouw,Links,1,
,dotcolour,dotcolour,dotcolour,19,3,199,199,main,negativefb,-99,hard,41,1.2852079000003869,['c'],1,left,['2'],5,0.2736813000001348,,,7,18,Vrouw,Links,1,
,dotcolour,dotcolour,dotcolour,20,3,200,200,main,negativefb,-99,easy,65,1.3506729000000632,['c'],1,left,['1'],6,1.9532341000003726,,,7,18,Vrouw,Links,1,
,dotcolour,dotcolour,dotcolour,21,3,201,201,main,negativefb,-99,average,26,1.7340211999999156,['n'],1,right,['2'],5,0.6541740000002392,,,7,18,Vrouw,Links,1,
,dotcolour,dotcolour,dotcolour,22,3,202,202,main,negativefb,-99,easy,19,0.8673904000006587,['n'],1,right,['1'],6,0.3384669999995822,,,7,18,Vrouw,Links,1,
,dotcolour,dotcolour,dotcolour,23,3,203,203,main,negativefb,-99,average,25,0.8508554000000004,['n'],1,right,['1'],6,0.3322428999999829,,,7,18,Vrouw,Links,1,
,dotcolour,dotcolour,dotcolour,24,3,204,204,main,negativefb,-99,average,29,1.2506893999998283,['n'],1,right,['1'],6,0.3815531000000192,,,7,18,Vrouw,Links,1,
,dotcolour,dotcolour,dotcolour,25,3,205,205,main,negativefb,-99,easy,18,0.8177719999994224,['n'],1,right,['1'],6,0.3582569999998668,,,7,18,Vrouw,Links,1,
,dotcolour,dotcolour,dotcolour,26,3,206,206,main,negativefb,-99,easy,17,1.217804800000522,['n'],1,right,['1'],6,0.48756739999953425,,,7,18,Vrouw,Links,1,
,dotcolour,dotcolour,dotcolour,27,3,207,207,main,negativefb,-99,easy,65,1.7186077000005753,['c'],1,left,['1'],6,0.39228970000021945,,,7,18,Vrouw,Links,1,
,dotcolour,dotcolour,dotcolour,28,3,208,208,main,negativefb,-99,easy,15,1.1005514999997104,['n'],1,right,['1'],6,0.39765369999986433,,,7,18,Vrouw,Links,1,
,dotcolour,dotcolour,dotcolour,29,3,209,209,main,negativefb,-99,easy,15,1.0178220999996483,['n'],1,right,['1'],6,0.31030029999965336,,,7,18,Vrouw,Links,1,
,dotcolour,dotcolour,dotcolour,30,3,210,210,main,negativefb,-99,easy,19,0.8833827999997084,['n'],1,right,['1'],6,0.26360899999963294,,,7,18,Vrouw,Links,1,
,dotcolour,dotcolour,dotcolour,31,3,211,211,main,negativefb,-99,hard,35,1.901096999999936,['c'],0,right,['1'],6,0.6504567000001771,,,7,18,Vrouw,Links,1,
,dotcolour,dotcolour,dotcolour,32,3,212,212,main,negativefb,-99,hard,35,1.301384099999268,['n'],1,right,['2'],5,0.34848299999976007,,,7,18,Vrouw,Links,1,
,dotcolour,dotcolour,dotcolour,33,3,213,213,main,negativefb,-99,hard,35,1.8511869999992996,['n'],1,right,['2'],5,0.6294265999995332,,,7,18,Vrouw,Links,1,
,dotcolour,dotcolour,dotcolour,34,3,214,214,main,negativefb,-99,easy,65,0.91728460000013,['c'],1,left,['1'],6,0.38478200000008655,,,7,18,Vrouw,Links,1,
,dotcolour,dotcolour,dotcolour,35,3,215,215,main,negativefb,-99,average,51,0.7503499999993437,['c'],1,left,['1'],6,0.30811200000061945,,,7,18,Vrouw,Links,1,
,dotcolour,dotcolour,dotcolour,36,3,216,216,main,negativefb,-99,hard,44,1.3181044000002657,['c'],1,left,['1'],6,0.2918612999992547,,,7,18,Vrouw,Links,1,
,dotcolour,dotcolour,dotcolour,37,3,217,217,main,negativefb,-99,average,28,1.0840530000004946,['n'],1,right,['2'],5,2.3983932000001005,,,7,18,Vrouw,Links,1,
,dotcolour,dotcolour,dotcolour,38,3,218,218,main,negativefb,-99,hard,42,1.350849699999344,['n'],0,left,['2'],5,1.1524684000005436,,,7,18,Vrouw,Links,1,
,dotcolour,dotcolour,dotcolour,39,3,219,219,main,negativefb,-99,average,25,0.9345796000006885,['n'],1,right,['2'],5,0.24557610000010754,,,7,18,Vrouw,Links,1,
,dotcolour,dotcolour,dotcolour,40,3,220,220,main,negativefb,-99,hard,43,1.6343144000002212,['c'],1,left,['3'],4,1.132274000000507,,,7,18,Vrouw,Links,1,
,dotcolour,dotcolour,dotcolour,41,3,221,221,main,negativefb,-99,easy,16,0.8001408000000083,['n'],1,right,['2'],5,0.7839444999999614,,,7,18,Vrouw,Links,1,
,dotcolour,dotcolour,dotcolour,42,3,222,222,main,negativefb,-99,average,54,2.851573300000382,['c'],1,left,['1'],6,0.42296429999987595,,,7,18,Vrouw,Links,1,
,dotcolour,dotcolour,dotcolour,43,3,223,223,main,negativefb,-99,hard,38,1.118262400000276,['n'],1,right,['2'],5,0.530166100000315,,,7,18,Vrouw,Links,1,
,dotcolour,dotcolour,dotcolour,44,3,224,224,main,negativefb,-99,easy,19,1.1179034999995565,['n'],1,right,['1'],6,0.26549249999970925,,,7,18,Vrouw,Links,1,
,dotcolour,dotcolour,dotcolour,45,3,225,225,main,negativefb,-99,average,53,1.1508162000000084,['c'],1,left,['1'],6,0.8744038999993791,,,7,18,Vrouw,Links,1,
,dotcolour,dotcolour,dotcolour,46,3,226,226,main,negativefb,-99,hard,37,3.051127599999745,['n'],1,right,['3'],4,0.549638500000583,,,7,18,Vrouw,Links,1,
,dotcolour,dotcolour,dotcolour,47,3,227,227,main,negativefb,-99,easy,62,1.3675843999999415,['c'],1,left,['1'],6,0.5138193000002502,,,7,18,Vrouw,Links,1,
,dotcolour,dotcolour,dotcolour,48,3,228,228,main,negativefb,-99,easy,61,0.617130100000395,['c'],1,left,['1'],6,0.30997800000022835,,,7,18,Vrouw,Links,1,
,dotcolour,dotcolour,dotcolour,49,3,229,229,main,negativefb,-99,average,53,2.0175605000003998,['c'],1,left,['2'],5,0.4985247000004165,,,7,18,Vrouw,Links,1,
,dotcolour,dotcolour,dotcolour,50,3,230,230,main,negativefb,-99,average,53,0.8018302999998923,['c'],1,left,['1'],6,0.41443660000004456,,,7,18,Vrouw,Links,1,
,dotcolour,dotcolour,dotcolour,51,3,231,231,main,negativefb,-99,average,28,1.3012974000002941,['n'],1,right,['2'],5,0.9064677000005759,,,7,18,Vrouw,Links,1,
,dotcolour,dotcolour,dotcolour,52,3,232,232,main,negativefb,-99,average,27,0.884148400000413,['n'],1,right,['2'],5,0.5324079000001802,,,7,18,Vrouw,Links,1,
,dotcolour,dotcolour,dotcolour,53,3,233,233,main,negativefb,-99,average,55,2.7681431000000885,['n'],0,left,['1'],6,0.3363766000002215,,,7,18,Vrouw,Links,1,
,dotcolour,dotcolour,dotcolour,54,3,234,234,main,negativefb,-99,average,26,1.2996210000001156,['n'],1,right,['2'],5,0.8161030000001119,,,7,18,Vrouw,Links,1,
,dotcolour,dotcolour,dotcolour,55,3,235,235,main,negativefb,-99,average,52,1.2673162000000957,['n'],0,left,['1'],6,0.3094948999996632,,,7,18,Vrouw,Links,1,
,dotcolour,dotcolour,dotcolour,56,3,236,236,main,negativefb,-99,hard,44,1.2182613999993919,['n'],0,left,['2'],5,0.19381320000047708,,,7,18,Vrouw,Links,1,
,dotcolour,dotcolour,dotcolour,57,3,237,237,main,negativefb,-99,average,51,1.7676071999994747,['c'],1,left,['2'],5,0.988288300000022,,,7,18,Vrouw,Links,1,
,dotcolour,dotcolour,dotcolour,58,3,238,238,main,negativefb,-99,easy,19,1.4846004999999423,['n'],1,right,['2'],5,0.8179800999996587,,,7,18,Vrouw,Links,1,
,dotcolour,dotcolour,dotcolour,59,3,239,239,main,negativefb,-99,average,27,0.8007494000003135,['n'],1,right,['2'],5,0.7696758000001864,,,7,18,Vrouw,Links,1,
,dotcolour,dotcolour,dotcolour,0,4,240,240,main,negativefb,-99,average,51,1.6508593999997174,['c'],1,left,['2'],5,0.6475795999995171,,,7,18,Vrouw,Links,1,
,dotcolour,dotcolour,dotcolour,1,4,241,241,main,negativefb,-99,average,51,1.3517338999999993,['c'],1,left,['2'],5,0.7763907999997173,,,7,18,Vrouw,Links,1,
,dotcolour,dotcolour,dotcolour,2,4,242,242,main,negativefb,-99,easy,61,0.6336443999998664,['c'],1,left,['1'],6,0.4809440999997605,,,7,18,Vrouw,Links,1,
,dotcolour,dotcolour,dotcolour,3,4,243,243,main,negativefb,-99,hard,42,1.5847495000007257,['c'],1,left,['2'],5,0.4385479000002306,,,7,18,Vrouw,Links,1,
,dotcolour,dotcolour,dotcolour,4,4,244,244,main,negativefb,-99,hard,43,1.0168268999996144,['c'],1,left,['3'],4,0.8854452999994464,,,7,18,Vrouw,Links,1,
,dotcolour,dotcolour,dotcolour,5,4,245,245,main,negativefb,-99,easy,64,0.8023347999996986,['c'],1,left,['1'],6,0.6587116000000606,,,7,18,Vrouw,Links,1,
,dotcolour,dotcolour,dotcolour,6,4,246,246,main,negativefb,-99,average,54,0.8180363000001307,['c'],1,left,['1'],6,0.38461780000034196,,,7,18,Vrouw,Links,1,
,dotcolour,dotcolour,dotcolour,7,4,247,247,main,negativefb,-99,hard,38,1.6678300999992643,['n'],1,right,['3'],4,0.4152610999999524,,,7,18,Vrouw,Links,1,
,dotcolour,dotcolour,dotcolour,8,4,248,248,main,negativefb,-99,easy,64,1.2675300000000789,['c'],1,left,['1'],6,0.8292354999994132,,,7,18,Vrouw,Links,1,
,dotcolour,dotcolour,dotcolour,9,4,249,249,main,negativefb,-99,average,55,0.7845762999995713,['c'],1,left,['1'],6,0.4141664999997374,,,7,18,Vrouw,Links,1,
,dotcolour,dotcolour,dotcolour,10,4,250,250,main,negativefb,-99,hard,36,2.184106700000484,['c'],0,right,['2'],5,1.0226647999998022,,,7,18,Vrouw,Links,1,
,dotcolour,dotcolour,dotcolour,11,4,251,251,main,negativefb,-99,average,26,1.0681541999992987,['n'],1,right,['2'],5,1.7651163999998971,,,7,18,Vrouw,Links,1,
,dotcolour,dotcolour,dotcolour,12,4,252,252,main,negativefb,-99,average,25,0.8331311000001733,['n'],1,right,['1'],6,1.0372901999999158,,,7,18,Vrouw,Links,1,
,dotcolour,dotcolour,dotcolour,13,4,253,253,main,negativefb,-99,average,54,1.2001924000005602,['c'],1,left,['1'],6,0.7406260999996448,,,7,18,Vrouw,Links,1,
,dotcolour,dotcolour,dotcolour,14,4,254,254,main,negativefb,-99,average,26,1.26650890000019,['n'],1,right,['1'],6,0.5411033000000316,,,7,18,Vrouw,Links,1,
,dotcolour,dotcolour,dotcolour,15,4,255,255,main,negativefb,-99,average,53,1.183922100000018,['c'],1,left,['1'],6,0.4011237999993682,,,7,18,Vrouw,Links,1,
,dotcolour,dotcolour,dotcolour,16,4,256,256,main,negativefb,-99,easy,65,1.0999041000004581,['c'],1,left,['1'],6,0.46977760000027047,,,7,18,Vrouw,Links,1,
,dotcolour,dotcolour,dotcolour,17,4,257,257,main,negativefb,-99,hard,43,2.0348661999996693,['c'],1,left,['2'],5,0.9303496000002269,,,7,18,Vrouw,Links,1,
,dotcolour,dotcolour,dotcolour,18,4,258,258,main,negativefb,-99,easy,18,0.9508832999999868,['n'],1,right,['1'],6,0.4000337999996191,,,7,18,Vrouw,Links,1,
,dotcolour,dotcolour,dotcolour,19,4,259,259,main,negativefb,-99,average,52,1.71764979999989,['c'],1,left,['1'],6,0.7160107999998218,,,7,18,Vrouw,Links,1,
,dotcolour,dotcolour,dotcolour,20,4,260,260,main,negativefb,-99,average,55,1.1683102999995754,['c'],1,left,['1'],6,0.41800160000002506,,,7,18,Vrouw,Links,1,
,dotcolour,dotcolour,dotcolour,21,4,261,261,main,negativefb,-99,hard,38,1.7005976999998893,['c'],0,right,['2'],5,0.33393729999988864,,,7,18,Vrouw,Links,1,
,dotcolour,dotcolour,dotcolour,22,4,262,262,main,negativefb,-99,easy,15,0.8679961999996522,['n'],1,right,['1'],6,0.5667402999997648,,,7,18,Vrouw,Links,1,
,dotcolour,dotcolour,dotcolour,23,4,263,263,main,negativefb,-99,easy,16,0.801582099999905,['n'],1,right,['1'],6,0.22414720000051602,,,7,18,Vrouw,Links,1,
,dotcolour,dotcolour,dotcolour,24,4,264,264,main,negativefb,-99,average,25,0.7512462999993659,['n'],1,right,['1'],6,0.1382000000003245,,,7,18,Vrouw,Links,1,
,dotcolour,dotcolour,dotcolour,25,4,265,265,main,negativefb,-99,easy,61,1.8675951000004716,['c'],1,left,['1'],6,0.21916590000000724,,,7,18,Vrouw,Links,1,
,dotcolour,dotcolour,dotcolour,26,4,266,266,main,negativefb,-99,easy,61,0.9338243999991391,['c'],1,left,['1'],6,0.2221690000005765,,,7,18,Vrouw,Links,1,
,dotcolour,dotcolour,dotcolour,27,4,267,267,main,negativefb,-99,easy,17,1.2346370000004754,['n'],1,right,['1'],6,0.39601049999964744,,,7,18,Vrouw,Links,1,
,dotcolour,dotcolour,dotcolour,28,4,268,268,main,negativefb,-99,easy,64,0.9678886000001512,['c'],1,left,['1'],6,0.3919347999999445,,,7,18,Vrouw,Links,1,
,dotcolour,dotcolour,dotcolour,29,4,269,269,main,negativefb,-99,easy,15,0.7338614999998754,['n'],1,right,['1'],6,0.13903140000002168,,,7,18,Vrouw,Links,1,
,dotcolour,dotcolour,dotcolour,30,4,270,270,main,negativefb,-99,hard,37,1.5335102999997616,['n'],1,right,['2'],5,0.6251654000006965,,,7,18,Vrouw,Links,1,
,dotcolour,dotcolour,dotcolour,31,4,271,271,main,negativefb,-99,easy,16,1.018284799999492,['n'],1,right,['1'],6,0.19229700000050798,,,7,18,Vrouw,Links,1,
,dotcolour,dotcolour,dotcolour,32,4,272,272,main,negativefb,-99,hard,41,1.3508480000000418,['c'],1,left,['2'],5,0.30754029999934573,,,7,18,Vrouw,Links,1,
,dotcolour,dotcolour,dotcolour,33,4,273,273,main,negativefb,-99,average,52,1.2845052000002397,['c'],1,left,['1'],6,0.6368658000001233,,,7,18,Vrouw,Links,1,
,dotcolour,dotcolour,dotcolour,34,4,274,274,main,negativefb,-99,hard,41,1.2343328000006295,['n'],0,left,['2'],5,0.2436968000001798,,,7,18,Vrouw,Links,1,
,dotcolour,dotcolour,dotcolour,35,4,275,275,main,negativefb,-99,average,25,1.2008008999991944,['n'],1,right,['2'],5,0.5068197999999029,,,7,18,Vrouw,Links,1,
,dotcolour,dotcolour,dotcolour,36,4,276,276,main,negativefb,-99,hard,37,1.384531199999401,['n'],1,right,['2'],5,0.11169229999995878,,,7,18,Vrouw,Links,1,
,dotcolour,dotcolour,dotcolour,37,4,277,277,main,negativefb,-99,easy,65,1.1672529999996186,['c'],1,left,['2'],5,0.39811639999970794,,,7,18,Vrouw,Links,1,
,dotcolour,dotcolour,dotcolour,38,4,278,278,main,negativefb,-99,hard,41,1.2343995999999606,['c'],1,left,['2'],5,0.3571326000001136,,,7,18,Vrouw,Links,1,
,dotcolour,dotcolour,dotcolour,39,4,279,279,main,negativefb,-99,average,27,1.7012238000006619,['n'],1,right,['2'],5,0.16379629999937606,,,7,18,Vrouw,Links,1,
,dotcolour,dotcolour,dotcolour,40,4,280,280,main,negativefb,-99,easy,19,1.2170957999996972,['n'],1,right,['1'],6,0.14963709999938146,,,7,18,Vrouw,Links,1,
,dotcolour,dotcolour,dotcolour,41,4,281,281,main,negativefb,-99,hard,45,2.2678093000004083,['c'],1,left,['2'],5,0.4620438000001741,,,7,18,Vrouw,Links,1,
,dotcolour,dotcolour,dotcolour,42,4,282,282,main,negativefb,-99,average,26,0.9350537999998778,['n'],1,right,['1'],6,0.5595596000002843,,,7,18,Vrouw,Links,1,
,dotcolour,dotcolour,dotcolour,43,4,283,283,main,negativefb,-99,hard,39,1.1011910999995962,['c'],0,right,['2'],5,0.23038790000009612,,,7,18,Vrouw,Links,1,
,dotcolour,dotcolour,dotcolour,44,4,284,284,main,negativefb,-99,easy,65,1.1505333000004612,['c'],1,left,['1'],6,0.4646342999994886,,,7,18,Vrouw,Links,1,
,dotcolour,dotcolour,dotcolour,45,4,285,285,main,negativefb,-99,average,52,1.0016800999992483,['c'],1,left,['1'],6,0.15866659999937838,,,7,18,Vrouw,Links,1,
,dotcolour,dotcolour,dotcolour,46,4,286,286,main,negativefb,-99,easy,18,2.384707299999718,['n'],1,right,['1'],6,0.1301912999997512,,,7,18,Vrouw,Links,1,
,dotcolour,dotcolour,dotcolour,47,4,287,287,main,negativefb,-99,average,29,1.6510717999999542,['n'],1,right,['3'],4,0.18034200000056444,,,7,18,Vrouw,Links,1,
,dotcolour,dotcolour,dotcolour,48,4,288,288,main,negativefb,-99,easy,19,3.0175810999999158,['n'],1,right,['3'],4,0.6855645000005097,,,7,18,Vrouw,Links,1,
,dotcolour,dotcolour,dotcolour,49,4,289,289,main,negativefb,-99,average,28,0.9341672000000472,['n'],1,right,['2'],5,0.22922960000050807,,,7,18,Vrouw,Links,1,
,dotcolour,dotcolour,dotcolour,50,4,290,290,main,negativefb,-99,hard,39,1.7339630000005855,['n'],1,right,['3'],4,0.8083316000002014,,,7,18,Vrouw,Links,1,
,dotcolour,dotcolour,dotcolour,51,4,291,291,main,negativefb,-99,hard,42,1.4346056000003955,['c'],1,left,['3'],4,0.6952905999996801,,,7,18,Vrouw,Links,1,
,dotcolour,dotcolour,dotcolour,52,4,292,292,main,negativefb,-99,easy,62,0.6183409000004758,['c'],1,left,['1'],6,0.8364691000006133,,,7,18,Vrouw,Links,1,
,dotcolour,dotcolour,dotcolour,53,4,293,293,main,negativefb,-99,average,29,1.783561300000656,['n'],1,right,['2'],5,1.052211599999282,,,7,18,Vrouw,Links,1,
,dotcolour,dotcolour,dotcolour,54,4,294,294,main,negativefb,-99,hard,36,2.733399599999757,['n'],1,right,['3'],4,0.4616304000001037,,,7,18,Vrouw,Links,1,
,dotcolour,dotcolour,dotcolour,55,4,295,295,main,negativefb,-99,hard,43,3.418496299999788,['c'],1,left,['2'],5,0.4998893000001772,,,7,18,Vrouw,Links,1,
,dotcolour,dotcolour,dotcolour,56,4,296,296,main,negativefb,-99,hard,42,2.6506174999994982,['n'],0,left,['3'],4,1.0464167999998608,,,7,18,Vrouw,Links,1,
,dotcolour,dotcolour,dotcolour,57,4,297,297,main,negativefb,-99,easy,19,1.0678135999996812,['n'],1,right,['1'],6,0.28254520000064076,,,7,18,Vrouw,Links,1,
,dotcolour,dotcolour,dotcolour,58,4,298,298,main,negativefb,-99,hard,37,1.6342777999998361,['c'],0,right,['2'],5,1.6471732999998494,,,7,18,Vrouw,Links,1,
,dotcolour,dotcolour,dotcolour,59,4,299,299,main,negativefb,-99,hard,37,2.0012445000002117,['n'],1,right,['2'],5,0.9184797000007165,,,7,18,Vrouw,Links,1,
,dotcolour,dotcolour,dotcolour,0,0,0,300,training,negativefb,63,hard,37,1.8011943999999858,['n'],1,right,['3'],4,1.8442433000000165,,,7,18,Vrouw,Links,1,
,dotcolour,dotcolour,dotcolour,1,0,1,301,training,negativefb,99,average,25,0.9671856000004482,['n'],1,right,['2'],5,2.747624800000267,,,7,18,Vrouw,Links,1,
,dotcolour,dotcolour,dotcolour,2,0,2,302,training,negativefb,31,hard,45,1.2163937999994232,['c'],1,left,['2'],5,0.5411652000002505,,,7,18,Vrouw,Links,1,
,dotcolour,dotcolour,dotcolour,3,0,3,303,training,negativefb,58,hard,38,2.416216299999178,['n'],1,right,['2'],5,0.7511411000004955,,,7,18,Vrouw,Links,1,
,dotcolour,dotcolour,dotcolour,4,0,4,304,training,negativefb,84,average,53,1.3168120999998791,['c'],1,left,['1'],6,0.6366934999996374,,,7,18,Vrouw,Links,1,
,dotcolour,dotcolour,dotcolour,5,0,5,305,training,negativefb,63,hard,39,1.433754200000294,['n'],1,right,['2'],5,0.5295961000001626,,,7,18,Vrouw,Links,1,
,dotcolour,dotcolour,dotcolour,6,0,6,306,training,negativefb,74,easy,19,1.2337852000000566,['n'],1,right,['2'],5,0.48344170000018494,,,7,18,Vrouw,Links,1,
,dotcolour,dotcolour,dotcolour,7,0,7,307,training,negativefb,59,average,26,1.4163570999999138,['n'],1,right,['2'],5,0.5352499000000535,,,7,18,Vrouw,Links,1,
,dotcolour,dotcolour,dotcolour,8,0,8,308,training,negativefb,68,average,54,1.1662132000001293,['c'],1,left,['2'],5,1.1233305999994627,,,7,18,Vrouw,Links,1,
,dotcolour,dotcolour,dotcolour,9,0,9,309,training,negativefb,54,average,26,1.1167375999993965,['n'],1,right,['2'],5,0.8586857999998756,,,7,18,Vrouw,Links,1,
,dotcolour,dotcolour,dotcolour,10,0,10,310,training,negativefb,81,hard,41,1.9338146999998571,['c'],1,left,['2'],5,1.1789804000000004,,,7,18,Vrouw,Links,1,
,dotcolour,dotcolour,dotcolour,11,0,11,311,training,negativefb,97,average,51,1.032749299999523,['c'],1,left,['1'],6,1.0671387000002142,,,7,18,Vrouw,Links,1,
,dotcolour,dotcolour,dotcolour,12,0,12,312,training,negativefb,77,easy,19,1.016373599999497,['n'],1,right,['1'],6,0.5357773000005182,,,7,18,Vrouw,Links,1,
,dotcolour,dotcolour,dotcolour,13,0,13,313,training,negativefb,93,average,51,1.4993559000004097,['c'],1,left,['1'],6,1.1508809000006295,,,7,18,Vrouw,Links,1,
,dotcolour,dotcolour,dotcolour,14,0,14,314,training,negativefb,62,hard,42,1.682509499999469,['c'],1,left,['2'],5,0.3012979000004634,,,7,18,Vrouw,Links,1,
,dotcolour,dotcolour,dotcolour,15,0,15,315,training,negativefb,98,easy,61,0.9659472000003007,['c'],1,left,['2'],5,1.2185676000008243,,,7,18,Vrouw,Links,1,
,dotcolour,dotcolour,dotcolour,16,0,16,316,training,negativefb,53,easy,17,0.9666680999998789,['n'],1,right,['1'],6,0.2911372999997184,,,7,18,Vrouw,Links,1,
,dotcolour,dotcolour,dotcolour,17,0,17,317,training,negativefb,71,average,53,1.517672500000117,['c'],1,left,['1'],6,1.218786800000089,,,7,18,Vrouw,Links,1,
,dotcolour,dotcolour,dotcolour,18,0,18,318,training,negativefb,88,easy,61,1.0831429999998363,['c'],1,left,['1'],6,0.6947064000005412,,,7,18,Vrouw,Links,1,
,dotcolour,dotcolour,dotcolour,19,0,19,319,training,negativefb,36,average,54,1.0166748999999982,['c'],1,left,['2'],5,1.9795930000000226,,,7,18,Vrouw,Links,1,
,dotcolour,dotcolour,dotcolour,20,0,20,320,training,negativefb,93,easy,61,1.0166053000002648,['c'],1,left,['2'],5,0.53086919999987,,,7,18,Vrouw,Links,1,
,dotcolour,dotcolour,dotcolour,21,0,21,321,training,negativefb,88,easy,62,2.7999700000000303,['c'],1,left,['1'],6,1.094139300000279,,,7,18,Vrouw,Links,1,
,dotcolour,dotcolour,dotcolour,22,0,22,322,training,negativefb,94,hard,35,1.2486754999999903,['n'],1,right,['3'],4,0.6410307999994984,,,7,18,Vrouw,Links,1,
,dotcolour,dotcolour,dotcolour,23,0,23,323,training,negativefb,52,average,26,1.2838213000004544,['n'],1,right,['2'],5,0.636529999999766,,,7,18,Vrouw,Links,1,
,dotcolour,dotcolour,dotcolour,24,0,24,324,training,negativefb,62,average,29,1.8831475000006321,['n'],1,right,['2'],5,0.7836160999995627,,,7,18,Vrouw,Links,1,
,dotcolour,dotcolour,dotcolour,25,0,25,325,training,negativefb,43,hard,43,1.4667319000000134,['n'],0,left,['2'],5,0.33306809999976394,,,7,18,Vrouw,Links,1,
,dotcolour,dotcolour,dotcolour,26,0,26,326,training,negativefb,41,easy,65,1.3489358000006177,['c'],1,left,['1'],6,0.3702137000000221,,,7,18,Vrouw,Links,1,
,dotcolour,dotcolour,dotcolour,27,0,27,327,training,negativefb,81,easy,18,1.0166795999994065,['n'],1,right,['1'],6,0.29086999999981344,,,7,18,Vrouw,Links,1,
,dotcolour,dotcolour,dotcolour,28,0,28,328,training,negativefb,10,hard,41,0.933202700000038,['n'],0,left,['2'],5,0.7300731999994241,,,7,18,Vrouw,Links,1,
,dotcolour,dotcolour,dotcolour,29,0,29,329,training,negativefb,96,easy,19,1.499963100000059,['n'],1,right,['1'],6,1.442185700000664,,,7,18,Vrouw,Links,1,
,dotcolour,dotcolour,dotcolour,30,0,30,330,training,negativefb,25,average,28,1.0490579999996044,['n'],1,right,['2'],5,0.6786067999992156,,,7,18,Vrouw,Links,1,
,dotcolour,dotcolour,dotcolour,31,0,31,331,training,negativefb,82,hard,37,4.549951999999394,['n'],1,right,['2'],5,2.4138270000003104,,,7,18,Vrouw,Links,1,
,dotcolour,dotcolour,dotcolour,32,0,32,332,training,negativefb,80,average,25,2.41713880000043,['n'],1,right,['1'],6,0.5004582000001392,,,7,18,Vrouw,Links,1,
,dotcolour,dotcolour,dotcolour,33,0,33,333,training,negativefb,67,hard,38,2.049828599999273,['n'],1,right,['2'],5,0.2542838999997912,,,7,18,Vrouw,Links,1,
,dotcolour,dotcolour,dotcolour,34,0,34,334,training,negativefb,80,average,27,1.4661826999999903,['n'],1,right,['2'],5,0.3783205999998245,,,7,18,Vrouw,Links,1,
,dotcolour,dotcolour,dotcolour,35,0,35,335,training,negativefb,86,average,53,1.4824295999997048,['c'],1,left,['1'],6,0.4714293999995789,,,7,18,Vrouw,Links,1,
,dotcolour,dotcolour,dotcolour,36,0,36,336,training,negativefb,60,hard,36,2.083389499999612,['n'],1,right,['2'],5,0.8333222999999634,,,7,18,Vrouw,Links,1,
,dotcolour,dotcolour,dotcolour,37,0,37,337,training,negativefb,76,easy,61,0.9507137000000512,['c'],1,left,['1'],6,0.3222071000000142,,,7,18,Vrouw,Links,1,
,dotcolour,dotcolour,dotcolour,38,0,38,338,training,negativefb,83,average,26,0.7995499999997264,['n'],1,right,['1'],6,0.677779599999667,,,7,18,Vrouw,Links,1,
,dotcolour,dotcolour,dotcolour,39,0,39,339,training,negativefb,94,easy,19,0.8652073999992353,['n'],1,right,['1'],6,0.3599203000003399,,,7,18,Vrouw,Links,1,
,dotcolour,dotcolour,dotcolour,40,0,40,340,training,negativefb,59,easy,18,1.000403500000175,['n'],1,right,['1'],6,0.762536999999611,,,7,18,Vrouw,Links,1,
,dotcolour,dotcolour,dotcolour,41,0,41,341,training,negativefb,81,easy,19,0.8673163000003115,['n'],1,right,['1'],6,1.041709200000696,,,7,18,Vrouw,Links,1,
,dotcolour,dotcolour,dotcolour,42,0,42,342,training,negativefb,92,easy,64,1.0655705999997735,['c'],1,left,['1'],6,0.5179501000002347,,,7,18,Vrouw,Links,1,
,dotcolour,dotcolour,dotcolour,43,0,43,343,training,negativefb,42,hard,41,1.483104099999764,['n'],0,left,['3'],4,0.670133600000554,,,7,18,Vrouw,Links,1,
,dotcolour,dotcolour,dotcolour,44,0,44,344,training,negativefb,33,hard,41,1.2667351000000053,['c'],1,left,['3'],4,1.128508700000566,,,7,18,Vrouw,Links,1,
,dotcolour,dotcolour,dotcolour,45,0,45,345,training,negativefb,12,hard,37,2.266948099999354,['c'],0,right,['3'],4,0.9291130000001431,,,7,18,Vrouw,Links,1,
,dotcolour,dotcolour,dotcolour,46,0,46,346,training,negativefb,96,easy,61,0.9003870999995343,['c'],1,left,['1'],6,0.8405856999997923,,,7,18,Vrouw,Links,1,
,dotcolour,dotcolour,dotcolour,47,0,47,347,training,negativefb,54,easy,65,1.0496529000001829,['c'],1,left,['1'],6,0.4049354000007952,,,7,18,Vrouw,Links,1,
,dotcolour,dotcolour,dotcolour,48,0,48,348,training,negativefb,78,easy,16,1.166934300000321,['n'],1,right,['1'],6,0.3583247999995365,,,7,18,Vrouw,Links,1,
,dotcolour,dotcolour,dotcolour,49,0,49,349,training,negativefb,69,hard,44,1.6001200000000608,['c'],1,left,['2'],5,0.8241844999993191,,,7,18,Vrouw,Links,1,
,dotcolour,dotcolour,dotcolour,50,0,50,350,training,negativefb,94,average,55,0.7998545999998896,['c'],1,left,['2'],5,0.5443228000003728,,,7,18,Vrouw,Links,1,
,dotcolour,dotcolour,dotcolour,51,0,51,351,training,negativefb,41,average,52,1.1838348000001133,['c'],1,left,['1'],6,0.4754671999999118,,,7,18,Vrouw,Links,1,
,dotcolour,dotcolour,dotcolour,52,0,52,352,training,negativefb,57,hard,39,1.2838443999999072,['n'],1,right,['2'],5,0.6216601000005539,,,7,18,Vrouw,Links,1,
,dotcolour,dotcolour,dotcolour,53,0,53,353,training,negativefb,88,easy,16,0.9852289999998902,['n'],1,right,['1'],6,0.4695659999997588,,,7,18,Vrouw,Links,1,
,dotcolour,dotcolour,dotcolour,54,0,54,354,training,negativefb,88,easy,63,1.033735400000296,['c'],1,left,['1'],6,0.7059485999998287,,,7,18,Vrouw,Links,1,
,dotcolour,dotcolour,dotcolour,55,0,55,355,training,negativefb,83,hard,42,1.7167318000001615,['c'],1,left,['2'],5,0.48103530000025785,,,7,18,Vrouw,Links,1,
,dotcolour,dotcolour,dotcolour,56,0,56,356,training,negativefb,48,hard,44,1.4326209000000745,['c'],1,left,['2'],5,0.38900899999953253,,,7,18,Vrouw,Links,1,
,dotcolour,dotcolour,dotcolour,57,0,57,357,training,negativefb,81,average,53,1.6001107000001866,['c'],1,left,['3'],4,1.0617560000000594,,,7,18,Vrouw,Links,1,
,dotcolour,dotcolour,dotcolour,58,0,58,358,training,negativefb,40,hard,39,1.4332399999993868,['c'],0,right,['3'],4,0.8182623000002422,,,7,18,Vrouw,Links,1,
,dotcolour,dotcolour,dotcolour,59,0,59,359,training,negativefb,49,average,28,1.4840963000006013,['n'],1,right,['2'],5,1.0063688999998703,,,7,18,Vrouw,Links,1,
,dotcolour,dotcolour,dotcolour,0,1,60,360,training,negativefb,85,easy,65,1.0841746000005514,['c'],1,left,['1'],6,0.5816319999994448,,,7,18,Vrouw,Links,1,
,dotcolour,dotcolour,dotcolour,1,1,61,361,training,negativefb,94,average,26,0.8005303999998432,['n'],1,right,['2'],5,1.798323199999686,,,7,18,Vrouw,Links,1,
,dotcolour,dotcolour,dotcolour,2,1,62,362,training,negativefb,48,hard,39,1.667464000000109,['n'],1,right,['3'],4,0.6829137000004266,,,7,18,Vrouw,Links,1,
,dotcolour,dotcolour,dotcolour,3,1,63,363,training,negativefb,68,easy,62,1.166244099999858,['c'],1,left,['1'],6,0.6808879000000161,,,7,18,Vrouw,Links,1,
,dotcolour,dotcolour,dotcolour,4,1,64,364,training,negativefb,65,hard,42,1.5842941999999312,['c'],1,left,['2'],5,0.4940340000002834,,,7,18,Vrouw,Links,1,
,dotcolour,dotcolour,dotcolour,5,1,65,365,training,negativefb,76,easy,64,0.9669206999997186,['c'],1,left,['1'],6,0.38078829999994923,,,7,18,Vrouw,Links,1,
,dotcolour,dotcolour,dotcolour,6,1,66,366,training,negativefb,52,average,54,0.816109399999732,['c'],1,left,['1'],6,0.524830700000166,,,7,18,Vrouw,Links,1,
,dotcolour,dotcolour,dotcolour,7,1,67,367,training,negativefb,26,average,29,0.8182063000003836,['n'],1,right,['2'],5,0.496390600000268,,,7,18,Vrouw,Links,1,
,dotcolour,dotcolour,dotcolour,8,1,68,368,training,negativefb,31,hard,43,0.983806100000038,['c'],1,left,['2'],5,0.5087204999999813,,,7,18,Vrouw,Links,1,
,dotcolour,dotcolour,dotcolour,9,1,69,369,training,negativefb,84,easy,17,1.133187999999791,['n'],1,right,['1'],6,0.6363221000001431,,,7,18,Vrouw,Links,1,
,dotcolour,dotcolour,dotcolour,10,1,70,370,training,negativefb,55,hard,39,3.0656114999992496,['n'],1,right,['2'],5,0.4719973999999638,,,7,18,Vrouw,Links,1,
,dotcolour,dotcolour,dotcolour,11,1,71,371,training,negativefb,81,hard,42,1.9497731999999814,['n'],0,left,['2'],5,0.5350403000002188,,,7,18,Vrouw,Links,1,
,dotcolour,dotcolour,dotcolour,12,1,72,372,training,negativefb,47,easy,18,1.3341324000002714,['n'],1,right,['1'],6,0.460704999999507,,,7,18,Vrouw,Links,1,
,dotcolour,dotcolour,dotcolour,13,1,73,373,training,negativefb,82,average,54,1.4670841000006476,['c'],1,left,['2'],5,0.7200216999999611,,,7,18,Vrouw,Links,1,
,dotcolour,dotcolour,dotcolour,14,1,74,374,training,negativefb,71,easy,64,0.7843462000000727,['c'],1,left,['1'],6,0.26830210000025545,,,7,18,Vrouw,Links,1,
,dotcolour,dotcolour,dotcolour,15,1,75,375,training,negativefb,76,average,55,0.8837130000001707,['c'],1,left,['1'],6,0.3576262999995379,,,7,18,Vrouw,Links,1,
,dotcolour,dotcolour,dotcolour,16,1,76,376,training,negativefb,85,average,29,0.9677284999997937,['n'],1,right,['2'],5,0.48137820000010834,,,7,18,Vrouw,Links,1,
,dotcolour,dotcolour,dotcolour,17,1,77,377,training,negativefb,57,hard,37,1.7511667999997371,['n'],1,right,['3'],4,0.6398841999998695,,,7,18,Vrouw,Links,1,
,dotcolour,dotcolour,dotcolour,18,1,78,378,training,negativefb,76,easy,16,1.1329910999993444,['n'],1,right,['1'],6,0.28181210000002466,,,7,18,Vrouw,Links,1,
,dotcolour,dotcolour,dotcolour,19,1,79,379,training,negativefb,36,hard,36,1.6672097000000576,['n'],1,right,['2'],5,0.4516847000004418,,,7,18,Vrouw,Links,1,
,dotcolour,dotcolour,dotcolour,20,1,80,380,training,negativefb,87,easy,61,1.650038200000381,['c'],1,left,['1'],6,0.8077075000001059,,,7,18,Vrouw,Links,1,
,dotcolour,dotcolour,dotcolour,21,1,81,381,training,negativefb,84,easy,18,0.8007127000000764,['n'],1,right,['1'],6,0.911392999999407,,,7,18,Vrouw,Links,1,
,dotcolour,dotcolour,dotcolour,22,1,82,382,training,negativefb,58,hard,39,1.5506599999998798,['n'],1,right,['8'],3,2.325255499999912,,,7,18,Vrouw,Links,1,
,dotcolour,dotcolour,dotcolour,23,1,83,383,training,negativefb,9,hard,41,1.367210200000045,['n'],0,left,['2'],5,0.6412530999996306,,,7,18,Vrouw,Links,1,
,dotcolour,dotcolour,dotcolour,24,1,84,384,training,negativefb,40,hard,45,5.632720799999333,['n'],0,left,['3'],4,2.527063300000009,,,7,18,Vrouw,Links,1,
,dotcolour,dotcolour,dotcolour,25,1,85,385,training,negativefb,97,easy,64,1.3673880999995163,['c'],1,left,['1'],6,1.4670616000003065,,,7,18,Vrouw,Links,1,
,dotcolour,dotcolour,dotcolour,26,1,86,386,training,negativefb,90,easy,61,1.0501410999995642,['c'],1,left,['1'],6,0.37342739999985497,,,7,18,Vrouw,Links,1,
,dotcolour,dotcolour,dotcolour,27,1,87,387,training,negativefb,90,average,29,1.2332158999997773,['n'],1,right,['2'],5,1.085992599999372,,,7,18,Vrouw,Links,1,
,dotcolour,dotcolour,dotcolour,28,1,88,388,training,negativefb,68,easy,61,0.9506493999997474,['c'],1,left,['2'],5,0.6766598999993221,,,7,18,Vrouw,Links,1,
,dotcolour,dotcolour,dotcolour,29,1,89,389,training,negativefb,72,hard,44,1.467424899999969,['c'],1,left,['2'],5,0.48674449999998615,,,7,18,Vrouw,Links,1,
,dotcolour,dotcolour,dotcolour,30,1,90,390,training,negativefb,55,average,28,1.1175527999994301,['n'],1,right,['2'],5,0.3837114999996629,,,7,18,Vrouw,Links,1,
,dotcolour,dotcolour,dotcolour,31,1,91,391,training,negativefb,22,hard,38,1.6663243000002694,['c'],0,right,['2'],5,0.8686680999999226,,,7,18,Vrouw,Links,1,
,dotcolour,dotcolour,dotcolour,32,1,92,392,training,negativefb,11,hard,45,1.4005943000001935,['c'],1,left,['2'],5,0.9383672000003571,,,7,18,Vrouw,Links,1,
,dotcolour,dotcolour,dotcolour,33,1,93,393,training,negativefb,81,average,54,1.502155500000299,['c'],1,left,['3'],4,0.9612825000003795,,,7,18,Vrouw,Links,1,
,dotcolour,dotcolour,dotcolour,34,1,94,394,training,negativefb,71,average,25,0.9846282999997129,['n'],1,right,['1'],6,0.747842099999616,,,7,18,Vrouw,Links,1,
,dotcolour,dotcolour,dotcolour,35,1,95,395,training,negativefb,64,average,52,1.0844777999991493,['c'],1,left,['2'],5,0.7301852000000508,,,7,18,Vrouw,Links,1,
,dotcolour,dotcolour,dotcolour,36,1,96,396,training,negativefb,52,average,29,1.2167570999999953,['n'],1,right,['1'],6,0.40496559999974124,,,7,18,Vrouw,Links,1,
,dotcolour,dotcolour,dotcolour,37,1,97,397,training,negativefb,90,average,29,1.2664944999996806,['n'],1,right,['1'],6,1.0670163000004322,,,7,18,Vrouw,Links,1,
,dotcolour,dotcolour,dotcolour,38,1,98,398,training,negativefb,90,easy,64,2.200912100000096,['c'],1,left,['1'],6,0.6159519000002547,,,7,18,Vrouw,Links,1,
,dotcolour,dotcolour,dotcolour,39,1,99,399,training,negativefb,94,easy,15,0.9664531999997052,['n'],1,right,['2'],5,1.1287299999994502,,,7,18,Vrouw,Links,1,
,dotcolour,dotcolour,dotcolour,40,1,100,400,training,negativefb,76,hard,35,2.5501498000003266,['c'],0,right,['3'],4,0.5339287999995577,,,7,18,Vrouw,Links,1,
,dotcolour,dotcolour,dotcolour,41,1,101,401,training,negativefb,54,easy,18,0.9171576999997342,['n'],1,right,['1'],6,0.27586429999973916,,,7,18,Vrouw,Links,1,
,dotcolour,dotcolour,dotcolour,42,1,102,402,training,negativefb,47,hard,39,1.9504237000001012,['n'],1,right,['2'],5,0.563046100000065,,,7,18,Vrouw,Links,1,
,dotcolour,dotcolour,dotcolour,43,1,103,403,training,negativefb,66,hard,35,1.6003876999993736,['n'],1,right,['3'],4,0.6690978000005998,,,7,18,Vrouw,Links,1,
,dotcolour,dotcolour,dotcolour,44,1,104,404,training,negativefb,78,average,25,1.0004449999996723,['n'],1,right,['2'],5,0.26669009999932314,,,7,18,Vrouw,Links,1,
,dotcolour,dotcolour,dotcolour,45,1,105,405,training,negativefb,51,average,28,1.8179024999999456,['n'],1,right,['3'],4,0.2798782999998366,,,7,18,Vrouw,Links,1,
,dotcolour,dotcolour,dotcolour,46,1,106,406,training,negativefb,31,hard,43,1.5172176999994917,['c'],1,left,['3'],4,1.3199595000005502,,,7,18,Vrouw,Links,1,
,dotcolour,dotcolour,dotcolour,47,1,107,407,training,negativefb,90,easy,18,0.8336421000003611,['n'],1,right,['2'],5,0.8821311000001515,,,7,18,Vrouw,Links,1,
,dotcolour,dotcolour,dotcolour,48,1,108,408,training,negativefb,60,hard,45,1.915913300000284,['c'],1,left,['3'],4,1.0739511000001585,,,7,18,Vrouw,Links,1,
,dotcolour,dotcolour,dotcolour,49,1,109,409,training,negativefb,96,average,52,1.383707900000445,['c'],1,left,['2'],5,0.7201714000002539,,,7,18,Vrouw,Links,1,
,dotcolour,dotcolour,dotcolour,50,1,110,410,training,negativefb,49,average,52,1.4836000000004788,['c'],1,left,['1'],6,0.32795159999932366,,,7,18,Vrouw,Links,1,
,dotcolour,dotcolour,dotcolour,51,1,111,411,training,negativefb,87,easy,18,1.1001102000000174,['n'],1,right,['1'],6,0.4477292999999918,,,7,18,Vrouw,Links,1,
,dotcolour,dotcolour,dotcolour,52,1,112,412,training,negativefb,98,average,51,0.9161535000002914,['c'],1,left,['1'],6,0.7210811000004469,,,7,18,Vrouw,Links,1,
,dotcolour,dotcolour,dotcolour,53,1,113,413,training,negativefb,63,average,55,0.9499567000002571,['c'],1,left,['1'],6,0.31853490000048623,,,7,18,Vrouw,Links,1,
,dotcolour,dotcolour,dotcolour,54,1,114,414,training,negativefb,19,hard,42,0.9162828999997146,['n'],0,left,['2'],5,0.5733935999996902,,,7,18,Vrouw,Links,1,
,dotcolour,dotcolour,dotcolour,55,1,115,415,training,negativefb,86,easy,19,1.033842600000753,['n'],1,right,['1'],6,0.325348500000473,,,7,18,Vrouw,Links,1,
,dotcolour,dotcolour,dotcolour,56,1,116,416,training,negativefb,62,easy,64,1.6501671000005445,['c'],1,left,['1'],6,0.8384154000004855,,,7,18,Vrouw,Links,1,
,dotcolour,dotcolour,dotcolour,57,1,117,417,training,negativefb,88,easy,16,0.9665528000004997,['n'],1,right,['1'],6,0.7665587000001324,,,7,18,Vrouw,Links,1,
,dotcolour,dotcolour,dotcolour,58,1,118,418,training,negativefb,77,hard,37,1.4503898000002664,['n'],1,right,['3'],4,0.7500988000001598,,,7,18,Vrouw,Links,1,
,dotcolour,dotcolour,dotcolour,59,1,119,419,training,negativefb,85,average,52,0.9505812999996124,['c'],1,left,['2'],5,0.5459601000002294,,,7,18,Vrouw,Links,1,
,xotask,dotcolour,dotcolour,0,2,120,420,main,negativefb,-99,hard,,2.0336975000000166,['c'],0,right,['3'],4,3.062176200000067,29,,7,18,Vrouw,Links,1,
,xotask,dotcolour,dotcolour,1,2,121,421,main,negativefb,-99,hard,,1.634561400000166,['c'],1,left,['3'],4,2.0119088000001284,53,,7,18,Vrouw,Links,1,
,xotask,dotcolour,dotcolour,2,2,122,422,main,negativefb,-99,average,,2.734355499999765,['c'],1,left,['3'],4,0.7909441000001607,61,,7,18,Vrouw,Links,1,
,xotask,dotcolour,dotcolour,3,2,123,423,main,negativefb,-99,average,,1.1002209999996921,['c'],1,left,['3'],4,0.8601784000002226,60,,7,18,Vrouw,Links,1,
,xotask,dotcolour,dotcolour,4,2,124,424,main,negativefb,-99,hard,,2.149967600000309,['n'],1,right,['3'],4,1.4378736999997273,25,,7,18,Vrouw,Links,1,
,xotask,dotcolour,dotcolour,5,2,125,425,main,negativefb,-99,average,,1.9347658999995474,['n'],1,right,['3'],4,1.4954762000006667,17,,7,18,Vrouw,Links,1,
,xotask,dotcolour,dotcolour,6,2,126,426,main,negativefb,-99,average,,2.1838151000001744,['n'],1,right,['3'],4,0.6930073000003176,17,,7,18,Vrouw,Links,1,
,xotask,dotcolour,dotcolour,7,2,127,427,main,negativefb,-99,average,,2.2347530000006373,['c'],1,left,['3'],4,1.1456584999996267,62,,7,18,Vrouw,Links,1,
,xotask,dotcolour,dotcolour,8,2,128,428,main,negativefb,-99,hard,,1.1178486999997403,['n'],1,right,['3'],4,0.4805700999995679,27,,7,18,Vrouw,Links,1,
,xotask,dotcolour,dotcolour,9,2,129,429,main,negativefb,-99,average,,2.3676563999997597,['n'],1,right,['3'],4,0.5272299999996903,17,,7,18,Vrouw,Links,1,
,xotask,dotcolour,dotcolour,10,2,130,430,main,negativefb,-99,hard,,0.9507272000000739,['n'],1,right,['3'],4,0.40588209999987157,29,,7,18,Vrouw,Links,1,
,xotask,dotcolour,dotcolour,11,2,131,431,main,negativefb,-99,easy,,1.4669407999999748,['n'],1,right,['2'],5,0.23556029999963357,5,,7,18,Vrouw,Links,1,
,xotask,dotcolour,dotcolour,12,2,132,432,main,negativefb,-99,hard,,3.20161730000018,['c'],0,right,['3'],4,0.546415299999353,27,,7,18,Vrouw,Links,1,
,xotask,dotcolour,dotcolour,13,2,133,433,main,negativefb,-99,hard,,2.3185598000000027,['c'],1,left,['8'],3,1.1530994000004284,54,,7,18,Vrouw,Links,1,
,xotask,dotcolour,dotcolour,14,2,134,434,main,negativefb,-99,easy,,1.0341957000000548,['n'],1,right,['3'],4,1.0903303000004598,5,,7,18,Vrouw,Links,1,
,xotask,dotcolour,dotcolour,15,2,135,435,main,negativefb,-99,hard,,2.501040799999828,['c'],1,left,['3'],4,0.6922983000004024,53,,7,18,Vrouw,Links,1,
,xotask,dotcolour,dotcolour,16,2,136,436,main,negativefb,-99,easy,,1.5170975000000908,['n'],1,right,['3'],4,1.0047531000000163,9,,7,18,Vrouw,Links,1,
,xotask,dotcolour,dotcolour,17,2,137,437,main,negativefb,-99,average,,1.1010010999998485,['n'],1,right,['3'],4,0.8899171999992177,16,,7,18,Vrouw,Links,1,
,xotask,dotcolour,dotcolour,18,2,138,438,main,negativefb,-99,average,,1.3007673000001887,['n'],1,right,['3'],4,0.5706811999998536,18,,7,18,Vrouw,Links,1,
,xotask,dotcolour,dotcolour,19,2,139,439,main,negativefb,-99,hard,,1.7172097000002395,['c'],1,left,['3'],4,0.8244969999996101,51,,7,18,Vrouw,Links,1,
,xotask,dotcolour,dotcolour,20,2,140,440,main,negativefb,-99,average,,1.2183770999999979,['n'],1,right,['3'],4,0.8231527999996615,17,,7,18,Vrouw,Links,1,
,xotask,dotcolour,dotcolour,21,2,141,441,main,negativefb,-99,easy,,1.7008632999995825,['n'],1,right,['3'],4,1.3160960999994131,7,,7,18,Vrouw,Links,1,
,xotask,dotcolour,dotcolour,22,2,142,442,main,negativefb,-99,average,,1.585599099999854,['c'],1,left,['8'],3,1.0646399999995992,60,,7,18,Vrouw,Links,1,
,xotask,dotcolour,dotcolour,23,2,143,443,main,negativefb,-99,hard,,1.201191199999812,['c'],0,right,['3'],4,5.46233839999968,29,,7,18,Vrouw,Links,1,
,xotask,dotcolour,dotcolour,24,2,144,444,main,negativefb,-99,hard,,1.1181823999995686,['c'],1,left,['2'],5,1.1125051999997595,53,,7,18,Vrouw,Links,1,
,xotask,dotcolour,dotcolour,25,2,145,445,main,negativefb,-99,hard,,1.8179693000001862,['c'],0,right,['3'],4,1.5725538000006054,25,,7,18,Vrouw,Links,1,
,xotask,dotcolour,dotcolour,26,2,146,446,main,negativefb,-99,easy,,2.5511112000003777,['c'],1,left,['3'],4,1.0569555000001856,71,,7,18,Vrouw,Links,1,
,xotask,dotcolour,dotcolour,27,2,147,447,main,negativefb,-99,hard,,2.067277899999681,['n'],1,right,['8'],3,1.0128130999992209,29,,7,18,Vrouw,Links,1,
,xotask,dotcolour,dotcolour,28,2,148,448,main,negativefb,-99,hard,,0.9345315000000483,['c'],1,left,['3'],4,2.6798102000002473,53,,7,18,Vrouw,Links,1,
,xotask,dotcolour,dotcolour,29,2,149,449,main,negativefb,-99,easy,,1.0004911999994874,['c'],1,left,['2'],5,0.6217511000004379,72,,7,18,Vrouw,Links,1,
,xotask,dotcolour,dotcolour,30,2,150,450,main,negativefb,-99,average,,1.4009841999995842,['c'],1,left,['2'],5,1.6062941999998657,63,,7,18,Vrouw,Links,1,
,xotask,dotcolour,dotcolour,31,2,151,451,main,negativefb,-99,easy,,1.1684726000003138,['c'],1,left,['2'],5,0.832137899999907,70,,7,18,Vrouw,Links,1,
,xotask,dotcolour,dotcolour,32,2,152,452,main,negativefb,-99,easy,,1.2521375999995144,['c'],1,left,['1'],6,0.7405547000007573,72,,7,18,Vrouw,Links,1,
,xotask,dotcolour,dotcolour,33,2,153,453,main,negativefb,-99,hard,,1.7018331999997827,['c'],1,left,['3'],4,0.7244574999995166,50,,7,18,Vrouw,Links,1,
,xotask,dotcolour,dotcolour,34,2,154,454,main,negativefb,-99,average,,1.3684359999997469,['n'],1,right,['3'],4,1.105709499999648,18,,7,18,Vrouw,Links,1,
,xotask,dotcolour,dotcolour,35,2,155,455,main,negativefb,-99,hard,,1.4841833000000406,['c'],1,left,['3'],4,0.6431130999999368,53,,7,18,Vrouw,Links,1,
,xotask,dotcolour,dotcolour,36,2,156,456,main,negativefb,-99,easy,,1.1178466000001208,['n'],1,right,['2'],5,1.2381113000001278,6,,7,18,Vrouw,Links,1,
,xotask,dotcolour,dotcolour,37,2,157,457,main,negativefb,-99,easy,,0.8850409999995463,['c'],1,left,['2'],5,0.5623327000002973,72,,7,18,Vrouw,Links,1,
,xotask,dotcolour,dotcolour,38,2,158,458,main,negativefb,-99,hard,,1.4513657999996212,['n'],1,right,['3'],4,1.178638100000171,28,,7,18,Vrouw,Links,1,
,xotask,dotcolour,dotcolour,39,2,159,459,main,negativefb,-99,average,,1.035161199999493,['n'],1,right,['2'],5,0.4433327000006102,16,,7,18,Vrouw,Links,1,
,xotask,dotcolour,dotcolour,40,2,160,460,main,negativefb,-99,easy,,1.2339866000002075,['c'],1,left,['2'],5,0.46554199999991397,74,,7,18,Vrouw,Links,1,
,xotask,dotcolour,dotcolour,41,2,161,461,main,negativefb,-99,easy,,2.6182044999995924,['n'],1,right,['2'],5,0.7828294999999343,8,,7,18,Vrouw,Links,1,
,xotask,dotcolour,dotcolour,42,2,162,462,main,negativefb,-99,easy,,0.9509460999997827,['n'],1,right,['1'],6,0.37024290000044857,6,,7,18,Vrouw,Links,1,
,xotask,dotcolour,dotcolour,43,2,163,463,main,negativefb,-99,hard,,1.9350703000000067,['c'],1,left,['2'],5,1.3345838000004733,53,,7,18,Vrouw,Links,1,
,xotask,dotcolour,dotcolour,44,2,164,464,main,negativefb,-99,easy,,1.1346562999997332,['n'],1,right,['2'],5,0.40513630000077683,7,,7,18,Vrouw,Links,1,
,xotask,dotcolour,dotcolour,45,2,165,465,main,negativefb,-99,average,,1.2672387000002345,['c'],1,left,['2'],5,1.4664670000001934,60,,7,18,Vrouw,Links,1,
,xotask,dotcolour,dotcolour,46,2,166,466,main,negativefb,-99,average,,1.2846025999997437,['c'],1,left,['2'],5,0.477517500000431,64,,7,18,Vrouw,Links,1,
,xotask,dotcolour,dotcolour,47,2,167,467,main,negativefb,-99,average,,0.9338929999994434,['n'],1,right,['2'],5,0.5748484999994616,16,,7,18,Vrouw,Links,1,
,xotask,dotcolour,dotcolour,48,2,168,468,main,negativefb,-99,hard,,1.851581100000658,['n'],1,right,['2'],5,0.8385727999993833,29,,7,18,Vrouw,Links,1,
,xotask,dotcolour,dotcolour,49,2,169,469,main,negativefb,-99,average,,1.4176563000000897,['n'],1,right,['2'],5,1.1086319999994885,15,,7,18,Vrouw,Links,1,
,xotask,dotcolour,dotcolour,50,2,170,470,main,negativefb,-99,easy,,2.3678437999997186,['c'],1,left,['3'],4,1.642967900000258,70,,7,18,Vrouw,Links,1,
,xotask,dotcolour,dotcolour,51,2,171,471,main,negativefb,-99,average,,1.3834426000003077,['c'],1,left,['2'],5,0.8426160999997592,62,,7,18,Vrouw,Links,1,
,xotask,dotcolour,dotcolour,52,2,172,472,main,negativefb,-99,easy,,1.6350042000003668,['c'],1,left,['2'],5,0.6331344999998691,72,,7,18,Vrouw,Links,1,
,xotask,dotcolour,dotcolour,53,2,173,473,main,negativefb,-99,average,,1.217987600000015,['c'],1,left,['1'],6,0.4240265999997064,64,,7,18,Vrouw,Links,1,
,xotask,dotcolour,dotcolour,54,2,174,474,main,negativefb,-99,easy,,0.8173446000000695,['c'],1,left,['1'],6,0.5907514999998966,70,,7,18,Vrouw,Links,1,
,xotask,dotcolour,dotcolour,55,2,175,475,main,negativefb,-99,hard,,2.08350849999988,['c'],1,left,['3'],4,0.7570987999997669,51,,7,18,Vrouw,Links,1,
,xotask,dotcolour,dotcolour,56,2,176,476,main,negativefb,-99,easy,,1.1683626000003642,['n'],1,right,['2'],5,0.5613549999998213,5,,7,18,Vrouw,Links,1,
,xotask,dotcolour,dotcolour,57,2,177,477,main,negativefb,-99,easy,,0.9835165000004054,['n'],1,right,['1'],6,2.164853499999481,5,,7,18,Vrouw,Links,1,
,xotask,dotcolour,dotcolour,58,2,178,478,main,negativefb,-99,average,,1.7499842999995963,['c'],1,left,['3'],4,0.43311549999998533,62,,7,18,Vrouw,Links,1,
,xotask,dotcolour,dotcolour,59,2,179,479,main,negativefb,-99,easy,,0.6510201000000961,['c'],1,left,['2'],5,0.6539191000001665,71,,7,18,Vrouw,Links,1,
,xotask,dotcolour,dotcolour,0,3,180,480,main,negativefb,-99,hard,,1.134072699999706,['c'],1,left,['2'],5,0.4933280000004743,50,,7,18,Vrouw,Links,1,
,xotask,dotcolour,dotcolour,1,3,181,481,main,negativefb,-99,easy,,1.1006911000004038,['n'],1,right,['2'],5,0.5264031999995495,7,,7,18,Vrouw,Links,1,
,xotask,dotcolour,dotcolour,2,3,182,482,main,negativefb,-99,average,,1.4676894000003813,['c'],1,left,['3'],4,1.0716122000003452,62,,7,18,Vrouw,Links,1,
,xotask,dotcolour,dotcolour,3,3,183,483,main,negativefb,-99,hard,,1.6511029000002964,['c'],0,right,['2'],5,0.4925770999998349,27,,7,18,Vrouw,Links,1,
,xotask,dotcolour,dotcolour,4,3,184,484,main,negativefb,-99,easy,,1.35073519999969,['c'],1,left,['2'],5,0.41084109999974316,74,,7,18,Vrouw,Links,1,
,xotask,dotcolour,dotcolour,5,3,185,485,main,negativefb,-99,average,,1.0675861999998233,['c'],1,left,['2'],5,0.5289339999999356,64,,7,18,Vrouw,Links,1,
,xotask,dotcolour,dotcolour,6,3,186,486,main,negativefb,-99,average,,0.918616099999781,['n'],1,right,['2'],5,0.8329970999993748,15,,7,18,Vrouw,Links,1,
,xotask,dotcolour,dotcolour,7,3,187,487,main,negativefb,-99,hard,,1.667717499999526,['n'],1,right,['2'],5,0.5089144999992641,29,,7,18,Vrouw,Links,1,
,xotask,dotcolour,dotcolour,8,3,188,488,main,negativefb,-99,easy,,1.267422500000066,['c'],1,left,['2'],5,0.5353107000000819,72,,7,18,Vrouw,Links,1,
,xotask,dotcolour,dotcolour,9,3,189,489,main,negativefb,-99,average,,2.5003813000002992,['c'],1,left,['3'],4,0.6230158999997002,64,,7,18,Vrouw,Links,1,
,xotask,dotcolour,dotcolour,10,3,190,490,main,negativefb,-99,average,,1.4511603999999352,['c'],1,left,['2'],5,0.7972851999993509,62,,7,18,Vrouw,Links,1,
,xotask,dotcolour,dotcolour,11,3,191,491,main,negativefb,-99,average,,1.9683758000001035,['c'],1,left,['3'],4,1.0229492000007667,61,,7,18,Vrouw,Links,1,
,xotask,dotcolour,dotcolour,12,3,192,492,main,negativefb,-99,average,,1.4512297000001126,['n'],1,right,['3'],4,0.6450907999997071,17,,7,18,Vrouw,Links,1,
,xotask,dotcolour,dotcolour,13,3,193,493,main,negativefb,-99,hard,,1.367342099999405,['c'],1,left,['3'],4,0.6855883000007452,52,,7,18,Vrouw,Links,1,
,xotask,dotcolour,dotcolour,14,3,194,494,main,negativefb,-99,hard,,1.284634499999811,['c'],0,right,['3'],4,0.432435899999291,28,,7,18,Vrouw,Links,1,
,xotask,dotcolour,dotcolour,15,3,195,495,main,negativefb,-99,easy,,1.0337939000000915,['n'],1,right,['2'],5,0.3902187000003323,8,,7,18,Vrouw,Links,1,
,xotask,dotcolour,dotcolour,16,3,196,496,main,negativefb,-99,easy,,0.9670767999996315,['n'],1,right,['2'],5,0.46489960000053543,5,,7,18,Vrouw,Links,1,
,xotask,dotcolour,dotcolour,17,3,197,497,main,negativefb,-99,hard,,1.117344399999638,['n'],1,right,['2'],5,0.24170460000004823,28,,7,18,Vrouw,Links,1,
,xotask,dotcolour,dotcolour,18,3,198,498,main,negativefb,-99,easy,,0.81808220000039,['n'],1,right,['2'],5,0.8648344999992332,5,,7,18,Vrouw,Links,1,
,xotask,dotcolour,dotcolour,19,3,199,499,main,negativefb,-99,average,,2.368282100000215,['c'],1,left,['3'],4,1.831838400000379,62,,7,18,Vrouw,Links,1,
,xotask,dotcolour,dotcolour,20,3,200,500,main,negativefb,-99,easy,,1.2838785999992979,['c'],1,left,['2'],5,3.8838320000004387,70,,7,18,Vrouw,Links,1,
,xotask,dotcolour,dotcolour,21,3,201,501,main,negativefb,-99,hard,,1.7846123999997872,['n'],0,left,['8'],3,2.266509099999894,52,,7,18,Vrouw,Links,1,
,xotask,dotcolour,dotcolour,22,3,202,502,main,negativefb,-99,hard,,1.7178722999997262,['c'],0,right,['2'],5,1.5879377999999633,28,,7,18,Vrouw,Links,1,
,xotask,dotcolour,dotcolour,23,3,203,503,main,negativefb,-99,average,,1.050434600000699,['n'],1,right,['2'],5,0.387161699999524,15,,7,18,Vrouw,Links,1,
,xotask,dotcolour,dotcolour,24,3,204,504,main,negativefb,-99,hard,,1.3840627999998105,['c'],1,left,['3'],4,0.5255815999998958,54,,7,18,Vrouw,Links,1,
,xotask,dotcolour,dotcolour,25,3,205,505,main,negativefb,-99,hard,,1.3682220000000598,['c'],1,left,['3'],4,0.4423570999997537,51,,7,18,Vrouw,Links,1,
,xotask,dotcolour,dotcolour,26,3,206,506,main,negativefb,-99,easy,,0.9340379000004759,['n'],1,right,['2'],5,0.5405405999999857,9,,7,18,Vrouw,Links,1,
,xotask,dotcolour,dotcolour,27,3,207,507,main,negativefb,-99,average,,0.9677621999999246,['n'],1,right,['2'],5,1.3926738999998634,18,,7,18,Vrouw,Links,1,
,xotask,dotcolour,dotcolour,28,3,208,508,main,negativefb,-99,hard,,1.218338899999253,['c'],1,left,['3'],4,1.5616792000000714,50,,7,18,Vrouw,Links,1,
,xotask,dotcolour,dotcolour,29,3,209,509,main,negativefb,-99,hard,,0.8846656999994593,['n'],1,right,['3'],4,0.3695182000001296,29,,7,18,Vrouw,Links,1,
,xotask,dotcolour,dotcolour,30,3,210,510,main,negativefb,-99,hard,,1.451493699999446,['c'],1,left,['3'],4,0.4085778999997274,54,,7,18,Vrouw,Links,1,
,xotask,dotcolour,dotcolour,31,3,211,511,main,negativefb,-99,easy,,1.217924800000219,['c'],1,left,['2'],5,0.48919389999991836,71,,7,18,Vrouw,Links,1,
,xotask,dotcolour,dotcolour,32,3,212,512,main,negativefb,-99,hard,,1.6167450000002646,['c'],1,left,['3'],4,0.5415445999997246,53,,7,18,Vrouw,Links,1,
,xotask,dotcolour,dotcolour,33,3,213,513,main,negativefb,-99,easy,,0.9018144000001485,['n'],1,right,['2'],5,0.5896824999999808,6,,7,18,Vrouw,Links,1,
,xotask,dotcolour,dotcolour,34,3,214,514,main,negativefb,-99,average,,2.550577599999997,['n'],1,right,['3'],4,0.3927681000004668,15,,7,18,Vrouw,Links,1,
,xotask,dotcolour,dotcolour,35,3,215,515,main,negativefb,-99,hard,,3.067291300000761,['n'],1,right,['3'],4,2.095146300000124,25,,7,18,Vrouw,Links,1,
,xotask,dotcolour,dotcolour,36,3,216,516,main,negativefb,-99,average,,1.4841811999995116,['n'],1,right,['2'],5,0.4256113000001278,16,,7,18,Vrouw,Links,1,
,xotask,dotcolour,dotcolour,37,3,217,517,main,negativefb,-99,average,,1.86833630000001,['c'],1,left,['2'],5,0.7191479000002801,60,,7,18,Vrouw,Links,1,
,xotask,dotcolour,dotcolour,38,3,218,518,main,negativefb,-99,easy,,1.0009356999999,['c'],1,left,['2'],5,0.8745859000000564,72,,7,18,Vrouw,Links,1,
,xotask,dotcolour,dotcolour,39,3,219,519,main,negativefb,-99,hard,,1.1504520999997112,['c'],1,left,['2'],5,0.48257980000016687,53,,7,18,Vrouw,Links,1,
,xotask,dotcolour,dotcolour,40,3,220,520,main,negativefb,-99,easy,,0.8669579999996131,['c'],1,left,['1'],6,0.7975243000000773,73,,7,18,Vrouw,Links,1,
,xotask,dotcolour,dotcolour,41,3,221,521,main,negativefb,-99,average,,1.1678547000001345,['n'],1,right,['3'],4,1.160551399999349,19,,7,18,Vrouw,Links,1,
,xotask,dotcolour,dotcolour,42,3,222,522,main,negativefb,-99,average,,1.117978100000073,['n'],1,right,['3'],4,1.629601300000104,15,,7,18,Vrouw,Links,1,
,xotask,dotcolour,dotcolour,43,3,223,523,main,negativefb,-99,easy,,1.150521900000058,['c'],1,left,['2'],5,0.37610880000011093,72,,7,18,Vrouw,Links,1,
,xotask,dotcolour,dotcolour,44,3,224,524,main,negativefb,-99,hard,,1.3343440000007831,['n'],1,right,['3'],4,0.9331537999996726,27,,7,18,Vrouw,Links,1,
,xotask,dotcolour,dotcolour,45,3,225,525,main,negativefb,-99,hard,,2.2672077999995963,['c'],0,right,['3'],4,0.9569484000003285,28,,7,18,Vrouw,Links,1,
,xotask,dotcolour,dotcolour,46,3,226,526,main,negativefb,-99,easy,,1.0507248999992953,['n'],1,right,['2'],5,1.1341190000002825,5,,7,18,Vrouw,Links,1,
,xotask,dotcolour,dotcolour,47,3,227,527,main,negativefb,-99,easy,,1.6340338999998494,['c'],1,left,['3'],4,0.5201245000007475,70,,7,18,Vrouw,Links,1,
,xotask,dotcolour,dotcolour,48,3,228,528,main,negativefb,-99,average,,1.2677295000003141,['c'],1,left,['3'],4,0.5690369000003557,60,,7,18,Vrouw,Links,1,
,xotask,dotcolour,dotcolour,49,3,229,529,main,negativefb,-99,easy,,1.2846555999994962,['c'],1,left,['3'],4,0.38442509999913455,70,,7,18,Vrouw,Links,1,
,xotask,dotcolour,dotcolour,50,3,230,530,main,negativefb,-99,hard,,1.4670705999997153,['c'],1,left,['3'],4,0.8943570999999793,53,,7,18,Vrouw,Links,1,
,xotask,dotcolour,dotcolour,51,3,231,531,main,negativefb,-99,easy,,0.8347177999994528,['c'],1,left,['2'],5,0.49109299999963696,72,,7,18,Vrouw,Links,1,
,xotask,dotcolour,dotcolour,52,3,232,532,main,negativefb,-99,easy,,0.9173746999995274,['n'],1,right,['2'],5,0.4432982999996966,7,,7,18,Vrouw,Links,1,
,xotask,dotcolour,dotcolour,53,3,233,533,main,negativefb,-99,average,,1.3178184000007604,['c'],1,left,['3'],4,1.0145320000001448,60,,7,18,Vrouw,Links,1,
,xotask,dotcolour,dotcolour,54,3,234,534,main,negativefb,-99,easy,,0.7344211999998151,['n'],1,right,['2'],5,0.43317750000005617,6,,7,18,Vrouw,Links,1,
,xotask,dotcolour,dotcolour,55,3,235,535,main,negativefb,-99,average,,1.3342204999999012,['n'],1,right,['3'],4,0.35510059999978694,18,,7,18,Vrouw,Links,1,
,xotask,dotcolour,dotcolour,56,3,236,536,main,negativefb,-99,hard,,1.383853999999701,['n'],1,right,['3'],4,0.7579609000003984,25,,7,18,Vrouw,Links,1,
,xotask,dotcolour,dotcolour,57,3,237,537,main,negativefb,-99,easy,,1.0015070999997988,['n'],1,right,['2'],5,0.7288287000001219,9,,7,18,Vrouw,Links,1,
,xotask,dotcolour,dotcolour,58,3,238,538,main,negativefb,-99,average,,1.2515089999997144,['n'],1,right,['3'],4,0.6828910000003816,17,,7,18,Vrouw,Links,1,
,xotask,dotcolour,dotcolour,59,3,239,539,main,negativefb,-99,average,,1.3845932999993238,['c'],1,left,['3'],4,1.1690857000003234,64,,7,18,Vrouw,Links,1,
,xotask,dotcolour,dotcolour,0,4,240,540,main,negativefb,-99,easy,,0.9346310999999332,['n'],1,right,['3'],4,2.6189715999998953,6,,7,18,Vrouw,Links,1,
,xotask,dotcolour,dotcolour,1,4,241,541,main,negativefb,-99,average,,2.7347367000002123,['n'],1,right,['3'],4,8.269526600000063,16,,7,18,Vrouw,Links,1,
,xotask,dotcolour,dotcolour,2,4,242,542,main,negativefb,-99,easy,,1.0509121999994022,['c'],1,left,['3'],4,0.4651264000003721,74,,7,18,Vrouw,Links,1,
,xotask,dotcolour,dotcolour,3,4,243,543,main,negativefb,-99,hard,,1.6336807999996381,['n'],1,right,['3'],4,0.3903851000004579,29,,7,18,Vrouw,Links,1,
,xotask,dotcolour,dotcolour,4,4,244,544,main,negativefb,-99,average,,2.9172636000002967,['n'],0,left,['3'],4,1.210712500000227,64,,7,18,Vrouw,Links,1,
,xotask,dotcolour,dotcolour,5,4,245,545,main,negativefb,-99,hard,,1.3178517999995165,['n'],0,left,['3'],4,0.28711420000036014,51,,7,18,Vrouw,Links,1,
,xotask,dotcolour,dotcolour,6,4,246,546,main,negativefb,-99,average,,1.8853618000002825,['n'],1,right,['2'],5,2.17695459999959,17,,7,18,Vrouw,Links,1,
,xotask,dotcolour,dotcolour,7,4,247,547,main,negativefb,-99,average,,1.068210700000236,['n'],1,right,['2'],5,1.0802107999998043,15,,7,18,Vrouw,Links,1,
,xotask,dotcolour,dotcolour,8,4,248,548,main,negativefb,-99,average,,0.8337741000004826,['n'],1,right,['2'],5,0.48538639999969746,17,,7,18,Vrouw,Links,1,
,xotask,dotcolour,dotcolour,9,4,249,549,main,negativefb,-99,average,,1.0004106999995201,['n'],1,right,['1'],6,0.38682650000009744,15,,7,18,Vrouw,Links,1,
,xotask,dotcolour,dotcolour,10,4,250,550,main,negativefb,-99,easy,,0.917527899999186,['n'],1,right,['1'],6,0.33478070000001026,6,,7,18,Vrouw,Links,1,
,xotask,dotcolour,dotcolour,11,4,251,551,main,negativefb,-99,easy,,0.7683882999999696,['n'],1,right,['1'],6,0.5641626999995424,9,,7,18,Vrouw,Links,1,
,xotask,dotcolour,dotcolour,12,4,252,552,main,negativefb,-99,easy,,0.8851776999999856,['n'],1,right,['1'],6,1.1236877999999706,7,,7,18,Vrouw,Links,1,
,xotask,dotcolour,dotcolour,13,4,253,553,main,negativefb,-99,hard,,1.4001277999996091,['n'],0,left,['3'],4,1.6549839999997857,53,,7,18,Vrouw,Links,1,
,xotask,dotcolour,dotcolour,14,4,254,554,main,negativefb,-99,easy,,1.0004150000004302,['n'],1,right,['1'],6,0.5096396000008099,6,,7,18,Vrouw,Links,1,
,xotask,dotcolour,dotcolour,15,4,255,555,main,negativefb,-99,easy,,1.40071639999951,['c'],1,left,['2'],5,0.4595122000000629,72,,7,18,Vrouw,Links,1,
,xotask,dotcolour,dotcolour,16,4,256,556,main,negativefb,-99,hard,,3.118028000000777,['n'],1,right,['3'],4,1.340706400000272,29,,7,18,Vrouw,Links,1,
,xotask,dotcolour,dotcolour,17,4,257,557,main,negativefb,-99,easy,,1.3679550000006202,['c'],1,left,['1'],6,0.5053013999995528,73,,7,18,Vrouw,Links,1,
,xotask,dotcolour,dotcolour,18,4,258,558,main,negativefb,-99,hard,,1.4002367999992202,['c'],1,left,['3'],4,0.7174159000005602,52,,7,18,Vrouw,Links,1,
,xotask,dotcolour,dotcolour,19,4,259,559,main,negativefb,-99,hard,,3.2346088000003874,['n'],0,left,['8'],3,0.849188299999696,54,,7,18,Vrouw,Links,1,
,xotask,dotcolour,dotcolour,20,4,260,560,main,negativefb,-99,easy,,1.3498354000003019,['c'],1,left,['2'],5,0.5770523000001049,72,,7,18,Vrouw,Links,1,
,xotask,dotcolour,dotcolour,21,4,261,561,main,negativefb,-99,hard,,1.0840751000005184,['c'],1,left,['2'],5,0.40818749999925785,53,,7,18,Vrouw,Links,1,
,xotask,dotcolour,dotcolour,22,4,262,562,main,negativefb,-99,hard,,1.267740799999956,['n'],0,left,['3'],4,0.3897477999998955,51,,7,18,Vrouw,Links,1,
,xotask,dotcolour,dotcolour,23,4,263,563,main,negativefb,-99,average,,1.2841656000000512,['c'],1,left,['3'],4,1.3084181999993234,61,,7,18,Vrouw,Links,1,
,xotask,dotcolour,dotcolour,24,4,264,564,main,negativefb,-99,average,,1.01734260000012,['n'],1,right,['2'],5,0.2480985000001965,16,,7,18,Vrouw,Links,1,
,xotask,dotcolour,dotcolour,25,4,265,565,main,negativefb,-99,average,,1.0852468000002773,['c'],1,left,['2'],5,0.4838826999994126,64,,7,18,Vrouw,Links,1,
,xotask,dotcolour,dotcolour,26,4,266,566,main,negativefb,-99,hard,,1.0679530999996132,['n'],1,right,['3'],4,0.5822797000000719,29,,7,18,Vrouw,Links,1,
,xotask,dotcolour,dotcolour,27,4,267,567,main,negativefb,-99,average,,1.717828400000144,['c'],1,left,['2'],5,0.5467221999997491,61,,7,18,Vrouw,Links,1,
,xotask,dotcolour,dotcolour,28,4,268,568,main,negativefb,-99,average,,0.8344841999996788,['n'],1,right,['2'],5,1.357050800000252,18,,7,18,Vrouw,Links,1,
,xotask,dotcolour,dotcolour,29,4,269,569,main,negativefb,-99,average,,1.6682913000004191,['c'],1,left,['3'],4,0.6291765999994823,61,,7,18,Vrouw,Links,1,
,xotask,dotcolour,dotcolour,30,4,270,570,main,negativefb,-99,easy,,2.367866100000356,['c'],1,left,['2'],5,0.9424031999997169,70,,7,18,Vrouw,Links,1,
,xotask,dotcolour,dotcolour,31,4,271,571,main,negativefb,-99,average,,1.2345801999999821,['c'],1,left,['2'],5,0.536742499999491,64,,7,18,Vrouw,Links,1,
,xotask,dotcolour,dotcolour,32,4,272,572,main,negativefb,-99,easy,,0.8515046000002258,['c'],1,left,['1'],6,0.3780412999994951,72,,7,18,Vrouw,Links,1,
,xotask,dotcolour,dotcolour,33,4,273,573,main,negativefb,-99,hard,,1.6511019999998098,['c'],0,right,['3'],4,0.9131816999997682,29,,7,18,Vrouw,Links,1,
,xotask,dotcolour,dotcolour,34,4,274,574,main,negativefb,-99,hard,,1.0344679999998334,['c'],1,left,['2'],5,0.4934072999994896,54,,7,18,Vrouw,Links,1,
,xotask,dotcolour,dotcolour,35,4,275,575,main,negativefb,-99,easy,,2.0506844000001365,['n'],1,right,['1'],6,0.7443906999997125,5,,7,18,Vrouw,Links,1,
,xotask,dotcolour,dotcolour,36,4,276,576,main,negativefb,-99,hard,,1.1674865000004502,['n'],1,right,['3'],4,0.48461199999928795,25,,7,18,Vrouw,Links,1,
,xotask,dotcolour,dotcolour,37,4,277,577,main,negativefb,-99,average,,1.5346368999998958,['c'],1,left,['3'],4,0.6045147000004363,63,,7,18,Vrouw,Links,1,
,xotask,dotcolour,dotcolour,38,4,278,578,main,negativefb,-99,hard,,0.9007497000002331,['c'],1,left,['2'],5,0.433824700000514,50,,7,18,Vrouw,Links,1,
,xotask,dotcolour,dotcolour,39,4,279,579,main,negativefb,-99,hard,,2.485424200000125,['c'],1,left,['3'],4,1.3337410000003729,54,,7,18,Vrouw,Links,1,
,xotask,dotcolour,dotcolour,40,4,280,580,main,negativefb,-99,hard,,2.5506983000004766,['c'],0,right,['3'],4,0.379106899999897,26,,7,18,Vrouw,Links,1,
,xotask,dotcolour,dotcolour,41,4,281,581,main,negativefb,-99,hard,,1.0014682000000903,['c'],1,left,['3'],4,0.8055032000002029,51,,7,18,Vrouw,Links,1,
,xotask,dotcolour,dotcolour,42,4,282,582,main,negativefb,-99,hard,,1.5171958999999333,['n'],1,right,['3'],4,0.41741670000010345,27,,7,18,Vrouw,Links,1,
,xotask,dotcolour,dotcolour,43,4,283,583,main,negativefb,-99,easy,,1.0680163999995784,['c'],1,left,['2'],5,1.222819200000231,71,,7,18,Vrouw,Links,1,
,xotask,dotcolour,dotcolour,44,4,284,584,main,negativefb,-99,easy,,0.9999803000000611,['n'],1,right,['1'],6,0.5908255000003919,9,,7,18,Vrouw,Links,1,
,xotask,dotcolour,dotcolour,45,4,285,585,main,negativefb,-99,easy,,0.9180997000003117,['n'],1,right,['2'],5,1.4748214000001099,9,,7,18,Vrouw,Links,1,
,xotask,dotcolour,dotcolour,46,4,286,586,main,negativefb,-99,average,,0.7508545000000595,['n'],1,right,['2'],5,0.5474076000000423,16,,7,18,Vrouw,Links,1,
,xotask,dotcolour,dotcolour,47,4,287,587,main,negativefb,-99,easy,,1.150106600000072,['c'],1,left,['2'],5,0.42463650000081543,72,,7,18,Vrouw,Links,1,
,xotask,dotcolour,dotcolour,48,4,288,588,main,negativefb,-99,average,,0.9508329000000231,['n'],1,right,['2'],5,0.31461620000027324,19,,7,18,Vrouw,Links,1,
,xotask,dotcolour,dotcolour,49,4,289,589,main,negativefb,-99,average,,1.0335871999996016,['c'],1,left,['2'],5,0.8053768999998283,60,,7,18,Vrouw,Links,1,
,xotask,dotcolour,dotcolour,50,4,290,590,main,negativefb,-99,average,,0.701617200000328,['n'],1,right,['2'],5,0.2978867000001628,15,,7,18,Vrouw,Links,1,
,xotask,dotcolour,dotcolour,51,4,291,591,main,negativefb,-99,easy,,1.033291900000222,['c'],1,left,['1'],6,0.6378372999997737,72,,7,18,Vrouw,Links,1,
,xotask,dotcolour,dotcolour,52,4,292,592,main,negativefb,-99,average,,1.8837462999999843,['c'],1,left,['2'],5,0.3369493000000148,61,,7,18,Vrouw,Links,1,
,xotask,dotcolour,dotcolour,53,4,293,593,main,negativefb,-99,hard,,0.9184760999996797,['n'],1,right,['2'],5,0.4637980999996216,28,,7,18,Vrouw,Links,1,
,xotask,dotcolour,dotcolour,54,4,294,594,main,negativefb,-99,hard,,2.083493400000407,['n'],1,right,['3'],4,0.7473925000003874,29,,7,18,Vrouw,Links,1,
,xotask,dotcolour,dotcolour,55,4,295,595,main,negativefb,-99,average,,1.7839241000001493,['c'],1,left,['3'],4,0.7353780000003098,61,,7,18,Vrouw,Links,1,
,xotask,dotcolour,dotcolour,56,4,296,596,main,negativefb,-99,easy,,0.9009194999998726,['c'],1,left,['3'],4,0.7506788000000597,74,,7,18,Vrouw,Links,1,
,xotask,dotcolour,dotcolour,57,4,297,597,main,negativefb,-99,hard,,1.0673283999994965,['n'],1,right,['3'],4,1.879115300000194,25,,7,18,Vrouw,Links,1,
,xotask,dotcolour,dotcolour,58,4,298,598,main,negativefb,-99,easy,,1.1838894000002256,['n'],1,right,['2'],5,0.5092220000005909,5,,7,18,Vrouw,Links,1,
,xotask,dotcolour,dotcolour,59,4,299,599,main,negativefb,-99,easy,,0.9343246999997064,['n'],1,right,['2'],5,0.3566646999997829,8,,7,18,Vrouw,Links,1,
,dotcolour,dotcolour,dotcolour,0,0,0,600,training,negativefb,89,easy,19,2.9011171000001923,['n'],1,right,['3'],4,1.3687658999997439,,,7,18,Vrouw,Links,1,
,dotcolour,dotcolour,dotcolour,1,0,1,601,training,negativefb,77,easy,65,1.4845322000001033,['c'],1,left,['2'],5,1.5741373999999269,,,7,18,Vrouw,Links,1,
,dotcolour,dotcolour,dotcolour,2,0,2,602,training,negativefb,37,average,52,0.93311950000043,['c'],1,left,['2'],5,0.9056396999994831,,,7,18,Vrouw,Links,1,
,dotcolour,dotcolour,dotcolour,3,0,3,603,training,negativefb,95,average,29,0.6998706000003949,['n'],1,right,['2'],5,0.9780454000001555,,,7,18,Vrouw,Links,1,
,dotcolour,dotcolour,dotcolour,4,0,4,604,training,negativefb,67,average,55,0.9501384999994116,['c'],1,left,['2'],5,0.42139399999996385,,,7,18,Vrouw,Links,1,
,dotcolour,dotcolour,dotcolour,5,0,5,605,training,negativefb,92,hard,39,1.0664918000002217,['n'],1,right,['2'],5,1.4815316000003804,,,7,18,Vrouw,Links,1,
,dotcolour,dotcolour,dotcolour,6,0,6,606,training,negativefb,82,average,27,0.8840134000001854,['n'],1,right,['2'],5,0.5145461000010982,,,7,18,Vrouw,Links,1,
,dotcolour,dotcolour,dotcolour,7,0,7,607,training,negativefb,49,hard,36,1.6506375999997545,['c'],0,right,['3'],4,0.8996855999994295,,,7,18,Vrouw,Links,1,
,dotcolour,dotcolour,dotcolour,8,0,8,608,training,negativefb,98,easy,65,0.9013572000003478,['c'],1,left,['1'],6,0.8198250000004919,,,7,18,Vrouw,Links,1,
,dotcolour,dotcolour,dotcolour,9,0,9,609,training,negativefb,33,hard,42,1.6667637000009563,['n'],0,left,['3'],4,0.48046099999919534,,,7,18,Vrouw,Links,1,
,dotcolour,dotcolour,dotcolour,10,0,10,610,training,negativefb,92,easy,63,0.9164897999999084,['c'],1,left,['1'],6,1.2973058000006858,,,7,18,Vrouw,Links,1,
,dotcolour,dotcolour,dotcolour,11,0,11,611,training,negativefb,66,hard,45,1.4503938000016205,['c'],1,left,['1'],6,0.6915002999994613,,,7,18,Vrouw,Links,1,
,dotcolour,dotcolour,dotcolour,12,0,12,612,training,negativefb,35,hard,36,1.683980199999496,['n'],1,right,['2'],5,1.5172684000008303,,,7,18,Vrouw,Links,1,
,dotcolour,dotcolour,dotcolour,13,0,13,613,training,negativefb,66,average,51,0.9841935999993439,['c'],1,left,['2'],5,0.7125257999996393,,,7,18,Vrouw,Links,1,
,dotcolour,dotcolour,dotcolour,14,0,14,614,training,negativefb,79,average,55,1.1499069000001327,['c'],1,left,['2'],5,0.5426399000007223,,,7,18,Vrouw,Links,1,
,dotcolour,dotcolour,dotcolour,15,0,15,615,training,negativefb,50,easy,63,2.317083100000673,['c'],1,left,['2'],5,0.8922887999997329,,,7,18,Vrouw,Links,1,
,dotcolour,dotcolour,dotcolour,16,0,16,616,training,negativefb,59,hard,36,1.1164201999999932,['n'],1,right,['2'],5,0.7167613000001438,,,7,18,Vrouw,Links,1,
,dotcolour,dotcolour,dotcolour,17,0,17,617,training,negativefb,34,easy,64,0.8661679999986518,['c'],1,left,['1'],6,0.3658739999991667,,,7,18,Vrouw,Links,1,
,dotcolour,dotcolour,dotcolour,18,0,18,618,training,negativefb,41,hard,41,1.9993532999997115,['c'],1,left,['2'],5,0.46251610000035726,,,7,18,Vrouw,Links,1,
,dotcolour,dotcolour,dotcolour,19,0,19,619,training,negativefb,94,easy,19,0.6332777999996324,['n'],1,right,['1'],6,0.5556443999994372,,,7,18,Vrouw,Links,1,
,dotcolour,dotcolour,dotcolour,20,0,20,620,training,negativefb,26,hard,36,0.8345162000005075,['n'],1,right,['2'],5,0.4995316000004095,,,7,18,Vrouw,Links,1,
,dotcolour,dotcolour,dotcolour,21,0,21,621,training,negativefb,82,average,28,0.5833120000006602,['n'],1,right,['1'],6,0.40090650000092865,,,7,18,Vrouw,Links,1,
,dotcolour,dotcolour,dotcolour,22,0,22,622,training,negativefb,78,average,52,0.9169571000002179,['c'],1,left,['1'],6,0.4123087999996642,,,7,18,Vrouw,Links,1,
,dotcolour,dotcolour,dotcolour,23,0,23,623,training,negativefb,80,average,54,0.965669599998364,['c'],1,left,['1'],6,0.4775313999998616,,,7,18,Vrouw,Links,1,
,dotcolour,dotcolour,dotcolour,24,0,24,624,training,negativefb,77,average,26,0.8004376000008051,['n'],1,right,['1'],6,0.6276300999998057,,,7,18,Vrouw,Links,1,
,dotcolour,dotcolour,dotcolour,25,0,25,625,training,negativefb,33,average,25,0.6174666000006255,['n'],1,right,['1'],6,0.41751230000045325,,,7,18,Vrouw,Links,1,
,dotcolour,dotcolour,dotcolour,26,0,26,626,training,negativefb,71,average,26,0.7659475000000384,['n'],1,right,['1'],6,0.3381610999986151,,,7,18,Vrouw,Links,1,
,dotcolour,dotcolour,dotcolour,27,0,27,627,training,negativefb,51,hard,35,2.5006324000005407,['c'],0,right,['3'],4,0.39242729999932635,,,7,18,Vrouw,Links,1,
,dotcolour,dotcolour,dotcolour,28,0,28,628,training,negativefb,75,average,53,0.8837072999995144,['c'],1,left,['2'],5,0.8859317999995255,,,7,18,Vrouw,Links,1,
,dotcolour,dotcolour,dotcolour,29,0,29,629,training,negativefb,90,hard,43,1.3503970000001573,['c'],1,left,['2'],5,0.7887040999994497,,,7,18,Vrouw,Links,1,
,dotcolour,dotcolour,dotcolour,30,0,30,630,training,negativefb,54,average,26,2.3670407999998133,['c'],0,right,['2'],5,0.6873608000005333,,,7,18,Vrouw,Links,1,
,dotcolour,dotcolour,dotcolour,31,0,31,631,training,negativefb,45,average,27,1.7494015000011132,['n'],1,right,['2'],5,0.9895014000012452,,,7,18,Vrouw,Links,1,
,dotcolour,dotcolour,dotcolour,32,0,32,632,training,negativefb,26,easy,16,0.8169557000001078,['n'],1,right,['1'],6,0.5173250000007101,,,7,18,Vrouw,Links,1,
,dotcolour,dotcolour,dotcolour,33,0,33,633,training,negativefb,91,hard,43,1.4505145999992237,['c'],1,left,['2'],5,1.6311201999997138,,,7,18,Vrouw,Links,1,
,dotcolour,dotcolour,dotcolour,34,0,34,634,training,negativefb,55,hard,43,2.4506953000000067,['n'],0,left,['2'],5,1.0910217000000557,,,7,18,Vrouw,Links,1,
,dotcolour,dotcolour,dotcolour,35,0,35,635,training,negativefb,59,easy,64,1.1167393000014272,['c'],1,left,['1'],6,0.9555968000004214,,,7,18,Vrouw,Links,1,
,dotcolour,dotcolour,dotcolour,36,0,36,636,training,negativefb,47,hard,43,2.0663846000006743,['c'],1,left,['2'],5,1.3139215000010154,,,7,18,Vrouw,Links,1,
,dotcolour,dotcolour,dotcolour,37,0,37,637,training,negativefb,90,easy,18,1.0847295000003214,['n'],1,right,['1'],6,0.4105970000000525,,,7,18,Vrouw,Links,1,
,dotcolour,dotcolour,dotcolour,38,0,38,638,training,negativefb,94,average,55,1.082629000000452,['c'],1,left,['1'],6,0.7351056000006793,,,7,18,Vrouw,Links,1,
,dotcolour,dotcolour,dotcolour,39,0,39,639,training,negativefb,68,easy,61,0.9007452000005287,['c'],1,left,['1'],6,0.5813739000004716,,,7,18,Vrouw,Links,1,
,dotcolour,dotcolour,dotcolour,40,0,40,640,training,negativefb,57,easy,62,1.0007232000007207,['c'],1,left,['1'],6,0.45468410000103177,,,7,18,Vrouw,Links,1,
,dotcolour,dotcolour,dotcolour,41,0,41,641,training,negativefb,97,easy,18,0.9007507000005717,['n'],1,right,['1'],6,0.8725121000006766,,,7,18,Vrouw,Links,1,
,dotcolour,dotcolour,dotcolour,42,0,42,642,training,negativefb,85,easy,17,0.782703799999581,['n'],1,right,['1'],6,0.45460319999983767,,,7,18,Vrouw,Links,1,
,dotcolour,dotcolour,dotcolour,43,0,43,643,training,negativefb,40,average,51,1.5172302999999374,['n'],0,left,['2'],5,0.5193300000009913,,,7,18,Vrouw,Links,1,
,dotcolour,dotcolour,dotcolour,44,0,44,644,training,negativefb,98,easy,62,1.3169620999997278,['c'],1,left,['1'],6,0.9989623000001302,,,7,18,Vrouw,Links,1,
,dotcolour,dotcolour,dotcolour,45,0,45,645,training,negativefb,47,hard,39,1.883449799999653,['c'],0,right,['2'],5,1.3237380999999004,,,7,18,Vrouw,Links,1,
,dotcolour,dotcolour,dotcolour,46,0,46,646,training,negativefb,73,easy,15,1.0506956999997783,['n'],1,right,['1'],6,0.468290299999353,,,7,18,Vrouw,Links,1,
,dotcolour,dotcolour,dotcolour,47,0,47,647,training,negativefb,70,easy,62,0.8667557000007946,['c'],1,left,['1'],6,0.42336120000072697,,,7,18,Vrouw,Links,1,
