starttime,task,fbtask,firsttask,withinblocktrial,block,withintasktrial,trial,running,feedback,fbscore,difflevel,reddots,rt,resp,cor,cresp,conf_press,cj,RTconf,n_xes,post1,post2,post3,post4,post5,stoptime,sub,age,gender,handedness,session,
1715675565,dotcolour,dotcolour,xotask,0,0,0,0,training,negativefb,47,hard,42,2.7008333000003404,['c'],1,left,['9'],5,0.9437153000008038,,,,,,,,28,18,Vrouw,Rechts,2,
,dotcolour,dotcolour,xotask,1,0,1,1,training,negativefb,71,average,29,0.8000986000006378,['n'],1,right,['9'],5,0.28990609999982553,,,,,,,,28,18,Vrouw,Rechts,2,
,dotcolour,dotcolour,xotask,2,0,2,2,training,negativefb,89,easy,64,0.6007206000003862,['c'],1,left,['9'],5,0.2701427000001786,,,,,,,,28,18,Vrouw,Rechts,2,
,dotcolour,dotcolour,xotask,3,0,3,3,training,negativefb,34,average,26,0.8996821999999156,['n'],1,right,['9'],5,0.2639257999999245,,,,,,,,28,18,Vrouw,Rechts,2,
,dotcolour,dotcolour,xotask,4,0,4,4,training,negativefb,73,hard,36,2.5840071000002354,['n'],1,right,['8'],4,0.8221368000004077,,,,,,,,28,18,Vrouw,Rechts,2,
,dotcolour,dotcolour,xotask,5,0,5,5,training,negativefb,75,hard,42,0.4833100999994713,['n'],0,left,['9'],5,0.314138699999603,,,,,,,,28,18,Vrouw,Rechts,2,
,dotcolour,dotcolour,xotask,6,0,6,6,training,negativefb,44,easy,16,3.5343698000006043,['n'],1,right,['9'],5,0.26462179999998625,,,,,,,,28,18,Vrouw,Rechts,2,
,dotcolour,dotcolour,xotask,7,0,7,7,training,negativefb,75,easy,15,0.43333900000016,['n'],1,right,['8'],4,0.30046300000049087,,,,,,,,28,18,Vrouw,Rechts,2,
,dotcolour,dotcolour,xotask,8,0,8,8,training,negativefb,66,easy,62,0.3169714000005115,['c'],1,left,['9'],5,0.29175909999958094,,,,,,,,28,18,Vrouw,Rechts,2,
,dotcolour,dotcolour,xotask,9,0,9,9,training,negativefb,92,easy,64,0.5160170999997717,['c'],1,left,['9'],5,0.2367076000000452,,,,,,,,28,18,Vrouw,Rechts,2,
,dotcolour,dotcolour,xotask,10,0,10,10,training,negativefb,89,easy,61,0.33408869999948365,['c'],1,left,['9'],5,0.30114380000031815,,,,,,,,28,18,Vrouw,Rechts,2,
,dotcolour,dotcolour,xotask,11,0,11,11,training,negativefb,77,hard,37,0.5501432000000932,['n'],1,right,['9'],5,0.23527500000000146,,,,,,,,28,18,Vrouw,Rechts,2,
,dotcolour,dotcolour,xotask,12,0,12,12,training,negativefb,42,average,54,0.3006417999995392,['c'],1,left,['9'],5,0.27787400000033813,,,,,,,,28,18,Vrouw,Rechts,2,
,dotcolour,dotcolour,xotask,13,0,13,13,training,negativefb,57,average,54,0.383392300000196,['c'],1,left,['9'],5,0.3236389000003328,,,,,,,,28,18,Vrouw,Rechts,2,
,dotcolour,dotcolour,xotask,14,0,14,14,training,negativefb,50,easy,18,0.2662681000001612,['c'],0,right,['9'],5,0.3241238999999041,,,,,,,,28,18,Vrouw,Rechts,2,
,dotcolour,dotcolour,xotask,15,0,15,15,training,negativefb,95,hard,35,0.5006217999998626,['n'],1,right,['9'],5,0.27600080000047456,,,,,,,,28,18,Vrouw,Rechts,2,
,dotcolour,dotcolour,xotask,16,0,16,16,training,negativefb,78,average,29,0.70118790000015,['c'],0,right,['9'],5,0.33373110000047745,,,,,,,,28,18,Vrouw,Rechts,2,
,dotcolour,dotcolour,xotask,17,0,17,17,training,negativefb,60,hard,36,0.8167536000000837,['c'],0,right,['9'],5,0.23874919999980193,,,,,,,,28,18,Vrouw,Rechts,2,
,dotcolour,dotcolour,xotask,18,0,18,18,training,negativefb,57,hard,42,0.767831600000136,['c'],1,left,['9'],5,0.27940980000039417,,,,,,,,28,18,Vrouw,Rechts,2,
,dotcolour,dotcolour,xotask,19,0,19,19,training,negativefb,70,easy,19,0.949925500000063,['n'],1,right,['9'],5,0.2543908999996347,,,,,,,,28,18,Vrouw,Rechts,2,
,dotcolour,dotcolour,xotask,20,0,20,20,training,negativefb,36,hard,42,1.2665258999995785,['n'],0,left,['9'],5,0.3385013999995863,,,,,,,,28,18,Vrouw,Rechts,2,
,dotcolour,dotcolour,xotask,21,0,21,21,training,negativefb,36,hard,39,0.9665480999992724,['c'],0,right,['9'],5,0.29448469999988447,,,,,,,,28,18,Vrouw,Rechts,2,
,dotcolour,dotcolour,xotask,22,0,22,22,training,negativefb,62,hard,43,0.7660812999993141,['c'],1,left,['9'],5,0.26766219999990426,,,,,,,,28,18,Vrouw,Rechts,2,
,dotcolour,dotcolour,xotask,23,0,23,23,training,negativefb,51,easy,17,0.866805600000589,['n'],1,right,['9'],5,0.23867499999960273,,,,,,,,28,18,Vrouw,Rechts,2,
,dotcolour,dotcolour,xotask,24,0,24,24,training,negativefb,77,average,29,0.7670877000000473,['n'],1,right,['0'],6,0.3341861000008066,,,,,,,,28,18,Vrouw,Rechts,2,
,dotcolour,dotcolour,xotask,25,0,25,25,training,negativefb,76,hard,39,0.5334153000003425,['c'],0,right,['9'],5,0.25236729999960517,,,,,,,,28,18,Vrouw,Rechts,2,
,dotcolour,dotcolour,xotask,26,0,26,26,training,negativefb,54,average,25,0.7662454000001162,['n'],1,right,['9'],5,0.31540810000024067,,,,,,,,28,18,Vrouw,Rechts,2,
,dotcolour,dotcolour,xotask,27,0,27,27,training,negativefb,62,hard,45,0.4166354999997566,['c'],1,left,['9'],5,0.2860099999998056,,,,,,,,28,18,Vrouw,Rechts,2,
,dotcolour,dotcolour,xotask,28,0,28,28,training,negativefb,42,hard,42,0.4502793000001475,['c'],1,left,['9'],5,0.24111710000033781,,,,,,,,28,18,Vrouw,Rechts,2,
,dotcolour,dotcolour,xotask,29,0,29,29,training,negativefb,76,easy,16,0.6337360000006811,['n'],1,right,['9'],5,0.2861454000003505,,,,,,,,28,18,Vrouw,Rechts,2,
,dotcolour,dotcolour,xotask,30,0,30,30,training,negativefb,65,average,52,0.5165925000001153,['c'],1,left,['9'],5,0.277820199999951,,,,,,,,28,18,Vrouw,Rechts,2,
,dotcolour,dotcolour,xotask,31,0,31,31,training,negativefb,77,average,27,0.2324348000001919,['n'],1,right,['9'],5,0.2663911999998163,,,,,,,,28,18,Vrouw,Rechts,2,
,dotcolour,dotcolour,xotask,32,0,32,32,training,negativefb,96,easy,65,0.33356259999982285,['c'],1,left,['9'],5,0.28213099999993574,,,,,,,,28,18,Vrouw,Rechts,2,
,dotcolour,dotcolour,xotask,33,0,33,33,training,negativefb,83,easy,61,0.4337085000006482,['c'],1,left,['9'],5,0.2609645000002274,,,,,,,,28,18,Vrouw,Rechts,2,
,dotcolour,dotcolour,xotask,34,0,34,34,training,negativefb,95,easy,17,0.2998117999995884,['n'],1,right,['9'],5,0.25550290000046516,,,,,,,,28,18,Vrouw,Rechts,2,
,dotcolour,dotcolour,xotask,35,0,35,35,training,negativefb,77,average,54,0.3513708000000406,['c'],1,left,['8'],4,0.43982770000002347,,,,,,,,28,18,Vrouw,Rechts,2,
,dotcolour,dotcolour,xotask,36,0,36,36,training,negativefb,56,average,29,0.39982989999953134,['c'],0,right,['9'],5,0.27809049999996205,,,,,,,,28,18,Vrouw,Rechts,2,
,dotcolour,dotcolour,xotask,37,0,37,37,training,negativefb,28,easy,19,0.38270159999956377,['n'],1,right,['9'],5,0.2682585000002291,,,,,,,,28,18,Vrouw,Rechts,2,
,dotcolour,dotcolour,xotask,38,0,38,38,training,negativefb,85,average,52,0.3165876999992179,['c'],1,left,['9'],5,0.18918070000017906,,,,,,,,28,18,Vrouw,Rechts,2,
,dotcolour,dotcolour,xotask,39,0,39,39,training,negativefb,68,average,53,0.6335159999998723,['c'],1,left,['9'],5,0.26021590000073047,,,,,,,,28,18,Vrouw,Rechts,2,
,dotcolour,dotcolour,xotask,40,0,40,40,training,negativefb,40,hard,44,0.6331666999994923,['c'],1,left,['9'],5,0.20918910000000324,,,,,,,,28,18,Vrouw,Rechts,2,
,dotcolour,dotcolour,xotask,41,0,41,41,training,negativefb,72,average,53,0.4499324999997043,['c'],1,left,['0'],6,0.28707889999986946,,,,,,,,28,18,Vrouw,Rechts,2,
,dotcolour,dotcolour,xotask,42,0,42,42,training,negativefb,86,hard,42,0.41703679999955057,['c'],1,left,['0'],6,0.2587528000003658,,,,,,,,28,18,Vrouw,Rechts,2,
,dotcolour,dotcolour,xotask,43,0,43,43,training,negativefb,34,easy,62,0.38440559999980906,['c'],1,left,['0'],6,0.20182260000001406,,,,,,,,28,18,Vrouw,Rechts,2,
,dotcolour,dotcolour,xotask,44,0,44,44,training,negativefb,43,hard,36,0.43331710000074963,['c'],0,right,['0'],6,0.44001980000030017,,,,,,,,28,18,Vrouw,Rechts,2,
,dotcolour,dotcolour,xotask,45,0,45,45,training,negativefb,44,hard,38,0.48372829999971145,['c'],0,right,['9'],5,0.33137560000068333,,,,,,,,28,18,Vrouw,Rechts,2,
,dotcolour,dotcolour,xotask,46,0,46,46,training,negativefb,26,hard,37,0.38292529999944236,['c'],0,right,['9'],5,0.3108462000000145,,,,,,,,28,18,Vrouw,Rechts,2,
,dotcolour,dotcolour,xotask,47,0,47,47,training,negativefb,54,hard,38,0.5337571000000025,['c'],0,right,['9'],5,1.181937100000141,,,,,,,,28,18,Vrouw,Rechts,2,
,dotcolour,dotcolour,xotask,48,0,48,48,training,negativefb,81,average,25,0.8504049000002851,['n'],1,right,['9'],5,0.21991010000056121,,,,,,,,28,18,Vrouw,Rechts,2,
,dotcolour,dotcolour,xotask,49,0,49,49,training,negativefb,43,average,27,1.3502497999998013,['c'],0,right,['9'],5,0.26177329999973153,,,,,,,,28,18,Vrouw,Rechts,2,
,dotcolour,dotcolour,xotask,50,0,50,50,training,negativefb,80,average,25,1.0333268000003955,['n'],1,right,['9'],5,0.25834350000059203,,,,,,,,28,18,Vrouw,Rechts,2,
,dotcolour,dotcolour,xotask,51,0,51,51,training,negativefb,23,easy,19,0.5658650000004855,['c'],0,right,['9'],5,0.25721530000009807,,,,,,,,28,18,Vrouw,Rechts,2,
,dotcolour,dotcolour,xotask,52,0,52,52,training,negativefb,58,easy,64,0.5174762999995437,['c'],1,left,['9'],5,0.24329349999970873,,,,,,,,28,18,Vrouw,Rechts,2,
,dotcolour,dotcolour,xotask,53,0,53,53,training,negativefb,50,average,54,0.5335207999996783,['c'],1,left,['9'],5,0.19686280000041734,,,,,,,,28,18,Vrouw,Rechts,2,
,dotcolour,dotcolour,xotask,54,0,54,54,training,negativefb,75,easy,18,0.7662649000003512,['n'],1,right,['9'],5,0.25443989999985206,,,,,,,,28,18,Vrouw,Rechts,2,
,dotcolour,dotcolour,xotask,55,0,55,55,training,negativefb,72,easy,63,0.43281109999952605,['c'],1,left,['9'],5,0.2744750000001659,,,,,,,,28,18,Vrouw,Rechts,2,
,dotcolour,dotcolour,xotask,56,0,56,56,training,negativefb,66,hard,42,0.5330103999995117,['c'],1,left,['9'],5,0.24295900000015536,,,,,,,,28,18,Vrouw,Rechts,2,
,dotcolour,dotcolour,xotask,57,0,57,57,training,negativefb,45,average,53,0.38456919999953243,['c'],1,left,['0'],6,0.250597000000198,,,,,,,,28,18,Vrouw,Rechts,2,
,dotcolour,dotcolour,xotask,58,0,58,58,training,negativefb,41,easy,63,0.5995134999993752,['c'],1,left,['9'],5,0.2322663000004468,,,,,,,,28,18,Vrouw,Rechts,2,
,dotcolour,dotcolour,xotask,59,0,59,59,training,negativefb,72,average,51,0.5496148000001995,['c'],1,left,['9'],5,0.24159549999967567,,,,,,,,28,18,Vrouw,Rechts,2,
,dotcolour,dotcolour,xotask,0,1,60,60,training,negativefb,55,average,27,0.9007103999992978,['c'],0,right,['9'],5,0.3439504999996643,,,,,,,,28,18,Vrouw,Rechts,2,
,dotcolour,dotcolour,xotask,1,1,61,61,training,negativefb,87,easy,61,0.43369019999954617,['c'],1,left,['9'],5,0.23398839999936172,,,,,,,,28,18,Vrouw,Rechts,2,
,dotcolour,dotcolour,xotask,2,1,62,62,training,negativefb,55,easy,61,0.41653889999997773,['c'],1,left,['9'],5,0.24732469999980822,,,,,,,,28,18,Vrouw,Rechts,2,
,dotcolour,dotcolour,xotask,3,1,63,63,training,negativefb,31,hard,44,0.38474219999989145,['c'],1,left,['9'],5,0.2624034999998912,,,,,,,,28,18,Vrouw,Rechts,2,
,dotcolour,dotcolour,xotask,4,1,64,64,training,negativefb,60,hard,38,0.4343624999992244,['c'],0,right,['9'],5,0.21102830000018002,,,,,,,,28,18,Vrouw,Rechts,2,
,dotcolour,dotcolour,xotask,5,1,65,65,training,negativefb,76,average,27,0.9677271999998993,['n'],1,right,['8'],4,0.24507170000015321,,,,,,,,28,18,Vrouw,Rechts,2,
,dotcolour,dotcolour,xotask,6,1,66,66,training,negativefb,97,easy,18,0.5332314999996015,['n'],1,right,['9'],5,0.36616500000036467,,,,,,,,28,18,Vrouw,Rechts,2,
,dotcolour,dotcolour,xotask,7,1,67,67,training,negativefb,97,average,53,0.6174759000004997,['c'],1,left,['9'],5,0.42215909999958967,,,,,,,,28,18,Vrouw,Rechts,2,
,dotcolour,dotcolour,xotask,8,1,68,68,training,negativefb,92,easy,65,0.3675643999995373,['c'],1,left,['9'],5,0.23861570000008214,,,,,,,,28,18,Vrouw,Rechts,2,
,dotcolour,dotcolour,xotask,9,1,69,69,training,negativefb,87,easy,19,0.79984499999955,['n'],1,right,['9'],5,0.2614827999996123,,,,,,,,28,18,Vrouw,Rechts,2,
,dotcolour,dotcolour,xotask,10,1,70,70,training,negativefb,47,average,53,0.5341682000007495,['c'],1,left,['9'],5,0.23860329999934038,,,,,,,,28,18,Vrouw,Rechts,2,
,dotcolour,dotcolour,xotask,11,1,71,71,training,negativefb,68,average,26,0.8672962000000553,['n'],1,right,['9'],5,0.2905742000002647,,,,,,,,28,18,Vrouw,Rechts,2,
,dotcolour,dotcolour,xotask,12,1,72,72,training,negativefb,84,hard,43,0.6158608999994613,['c'],1,left,['8'],4,0.7028897999998662,,,,,,,,28,18,Vrouw,Rechts,2,
,dotcolour,dotcolour,xotask,13,1,73,73,training,negativefb,46,hard,44,0.49971089999962715,['c'],1,left,['8'],4,0.5027919000003749,,,,,,,,28,18,Vrouw,Rechts,2,
,dotcolour,dotcolour,xotask,14,1,74,74,training,negativefb,88,easy,16,0.5501476999997976,['n'],1,right,['8'],4,0.28417390000049636,,,,,,,,28,18,Vrouw,Rechts,2,
,dotcolour,dotcolour,xotask,15,1,75,75,training,negativefb,86,average,29,0.5835293999998612,['n'],1,right,['9'],5,0.31375300000036077,,,,,,,,28,18,Vrouw,Rechts,2,
,dotcolour,dotcolour,xotask,16,1,76,76,training,negativefb,96,average,52,0.43314830000053917,['c'],1,left,['8'],4,0.3967737000002671,,,,,,,,28,18,Vrouw,Rechts,2,
,dotcolour,dotcolour,xotask,17,1,77,77,training,negativefb,71,hard,42,0.4166973000001235,['c'],1,left,['9'],5,0.2679011000000173,,,,,,,,28,18,Vrouw,Rechts,2,
,dotcolour,dotcolour,xotask,18,1,78,78,training,negativefb,82,easy,63,0.517308100000264,['c'],1,left,['8'],4,0.25322549999964394,,,,,,,,28,18,Vrouw,Rechts,2,
,dotcolour,dotcolour,xotask,19,1,79,79,training,negativefb,97,easy,62,0.5676290999999765,['c'],1,left,['9'],5,0.36479250000047614,,,,,,,,28,18,Vrouw,Rechts,2,
,dotcolour,dotcolour,xotask,20,1,80,80,training,negativefb,78,easy,18,0.5841396999994686,['n'],1,right,['9'],5,0.30274869999993825,,,,,,,,28,18,Vrouw,Rechts,2,
,dotcolour,dotcolour,xotask,21,1,81,81,training,negativefb,47,average,25,1.2162809999999808,['n'],1,right,['9'],5,0.2414614999997866,,,,,,,,28,18,Vrouw,Rechts,2,
,dotcolour,dotcolour,xotask,22,1,82,82,training,negativefb,55,average,29,0.5001379999994242,['c'],0,right,['9'],5,0.2927534000000378,,,,,,,,28,18,Vrouw,Rechts,2,
,dotcolour,dotcolour,xotask,23,1,83,83,training,negativefb,44,easy,15,0.4662750999996206,['c'],0,right,['9'],5,0.3827601999992112,,,,,,,,28,18,Vrouw,Rechts,2,
,dotcolour,dotcolour,xotask,24,1,84,84,training,negativefb,64,hard,35,0.6997770999996646,['n'],1,right,['8'],4,0.3633638000001156,,,,,,,,28,18,Vrouw,Rechts,2,
,dotcolour,dotcolour,xotask,25,1,85,85,training,negativefb,57,average,27,0.7851597999997466,['n'],1,right,['8'],4,0.27746399999978166,,,,,,,,28,18,Vrouw,Rechts,2,
,dotcolour,dotcolour,xotask,26,1,86,86,training,negativefb,47,average,55,0.6659709999994448,['c'],1,left,['8'],4,0.2726981000005253,,,,,,,,28,18,Vrouw,Rechts,2,
,dotcolour,dotcolour,xotask,27,1,87,87,training,negativefb,30,hard,37,0.48406729999987874,['c'],0,right,['9'],5,0.3547417999998288,,,,,,,,28,18,Vrouw,Rechts,2,
,dotcolour,dotcolour,xotask,28,1,88,88,training,negativefb,72,hard,41,0.38340960000005,['n'],0,left,['9'],5,0.3089214000001448,,,,,,,,28,18,Vrouw,Rechts,2,
,dotcolour,dotcolour,xotask,29,1,89,89,training,negativefb,55,average,27,0.5667632000004232,['c'],0,right,['8'],4,1.0909437999998772,,,,,,,,28,18,Vrouw,Rechts,2,
,dotcolour,dotcolour,xotask,30,1,90,90,training,negativefb,72,easy,19,0.8830870000001596,['n'],1,right,['9'],5,0.27554520000012417,,,,,,,,28,18,Vrouw,Rechts,2,
,dotcolour,dotcolour,xotask,31,1,91,91,training,negativefb,71,average,53,0.7332916999994268,['c'],1,left,['8'],4,0.2920592000000397,,,,,,,,28,18,Vrouw,Rechts,2,
,dotcolour,dotcolour,xotask,32,1,92,92,training,negativefb,54,easy,61,0.549551999999494,['c'],1,left,['9'],5,0.23495349999939208,,,,,,,,28,18,Vrouw,Rechts,2,
,dotcolour,dotcolour,xotask,33,1,93,93,training,negativefb,85,hard,43,0.6847306999998182,['c'],1,left,['9'],5,0.17363690000001952,,,,,,,,28,18,Vrouw,Rechts,2,
,dotcolour,dotcolour,xotask,34,1,94,94,training,negativefb,44,easy,17,0.38360979999924893,['n'],1,right,['9'],5,0.20054909999998927,,,,,,,,28,18,Vrouw,Rechts,2,
,dotcolour,dotcolour,xotask,35,1,95,95,training,negativefb,37,average,29,0.3181626999994478,['c'],0,right,['9'],5,0.23570529999960854,,,,,,,,28,18,Vrouw,Rechts,2,
,dotcolour,dotcolour,xotask,36,1,96,96,training,negativefb,78,average,25,0.5337825000005978,['c'],0,right,['9'],5,0.22891290000006848,,,,,,,,28,18,Vrouw,Rechts,2,
,dotcolour,dotcolour,xotask,37,1,97,97,training,negativefb,84,hard,37,0.35155240000040067,['n'],1,right,['9'],5,0.2301987000000736,,,,,,,,28,18,Vrouw,Rechts,2,
,dotcolour,dotcolour,xotask,38,1,98,98,training,negativefb,24,hard,38,0.3826746999993702,['c'],0,right,['8'],4,0.598497099999804,,,,,,,,28,18,Vrouw,Rechts,2,
,dotcolour,dotcolour,xotask,39,1,99,99,training,negativefb,69,average,52,0.6330500000003667,['c'],1,left,['9'],5,0.46904409999933705,,,,,,,,28,18,Vrouw,Rechts,2,
,dotcolour,dotcolour,xotask,40,1,100,100,training,negativefb,16,easy,17,0.5665250000001834,['c'],0,right,['9'],5,0.419864299999972,,,,,,,,28,18,Vrouw,Rechts,2,
,dotcolour,dotcolour,xotask,41,1,101,101,training,negativefb,70,easy,65,0.6673766000003525,['c'],1,left,['9'],5,0.22461240000029647,,,,,,,,28,18,Vrouw,Rechts,2,
,dotcolour,dotcolour,xotask,42,1,102,102,training,negativefb,52,easy,63,0.7163038999997298,['c'],1,left,['9'],5,0.33149739999953454,,,,,,,,28,18,Vrouw,Rechts,2,
,dotcolour,dotcolour,xotask,43,1,103,103,training,negativefb,78,easy,61,0.6500442999995357,['c'],1,left,['9'],5,0.21911249999993743,,,,,,,,28,18,Vrouw,Rechts,2,
,dotcolour,dotcolour,xotask,44,1,104,104,training,negativefb,27,hard,36,0.6177406000006158,['c'],0,right,['9'],5,0.2737912000002325,,,,,,,,28,18,Vrouw,Rechts,2,
,dotcolour,dotcolour,xotask,45,1,105,105,training,negativefb,78,average,51,0.7996770999998262,['c'],1,left,['9'],5,0.295683100000133,,,,,,,,28,18,Vrouw,Rechts,2,
,dotcolour,dotcolour,xotask,46,1,106,106,training,negativefb,55,hard,44,0.6340953000008085,['c'],1,left,['9'],5,0.25073130000055244,,,,,,,,28,18,Vrouw,Rechts,2,
,dotcolour,dotcolour,xotask,47,1,107,107,training,negativefb,59,hard,42,0.43455249999988155,['c'],1,left,['8'],4,0.3918794000001071,,,,,,,,28,18,Vrouw,Rechts,2,
,dotcolour,dotcolour,xotask,48,1,108,108,training,negativefb,64,average,52,0.34966499999973166,['c'],1,left,['9'],5,0.3862849000006463,,,,,,,,28,18,Vrouw,Rechts,2,
,dotcolour,dotcolour,xotask,49,1,109,109,training,negativefb,66,easy,63,0.7663595000003625,['c'],1,left,['9'],5,0.2522358999995049,,,,,,,,28,18,Vrouw,Rechts,2,
,dotcolour,dotcolour,xotask,50,1,110,110,training,negativefb,81,hard,45,1.0160337999996045,['c'],1,left,['9'],5,0.2488600000006045,,,,,,,,28,18,Vrouw,Rechts,2,
,dotcolour,dotcolour,xotask,51,1,111,111,training,negativefb,26,hard,37,0.6497268000002805,['c'],0,right,['8'],4,0.7257393999998385,,,,,,,,28,18,Vrouw,Rechts,2,
,dotcolour,dotcolour,xotask,52,1,112,112,training,negativefb,36,easy,19,0.7165583999994851,['n'],1,right,['9'],5,0.24414580000029673,,,,,,,,28,18,Vrouw,Rechts,2,
,dotcolour,dotcolour,xotask,53,1,113,113,training,negativefb,65,hard,35,1.1002470000003086,['n'],1,right,['9'],5,0.20679550000022573,,,,,,,,28,18,Vrouw,Rechts,2,
,dotcolour,dotcolour,xotask,54,1,114,114,training,negativefb,75,easy,17,0.6164261000003535,['n'],1,right,['9'],5,0.27857570000014675,,,,,,,,28,18,Vrouw,Rechts,2,
,dotcolour,dotcolour,xotask,55,1,115,115,training,negativefb,73,hard,44,0.567779399999381,['c'],1,left,['9'],5,0.21338900000046124,,,,,,,,28,18,Vrouw,Rechts,2,
,dotcolour,dotcolour,xotask,56,1,116,116,training,negativefb,28,hard,38,0.4503153999994538,['n'],1,right,['9'],5,0.2590564000001905,,,,,,,,28,18,Vrouw,Rechts,2,
,dotcolour,dotcolour,xotask,57,1,117,117,training,negativefb,69,average,54,0.65075539999998,['c'],1,left,['9'],5,0.1834446000002572,,,,,,,,28,18,Vrouw,Rechts,2,
,dotcolour,dotcolour,xotask,58,1,118,118,training,negativefb,94,average,53,0.45026729999972304,['c'],1,left,['9'],5,0.34173290000035195,,,,,,,,28,18,Vrouw,Rechts,2,
,dotcolour,dotcolour,xotask,59,1,119,119,training,negativefb,78,hard,38,0.5332739999994374,['c'],0,right,['9'],5,0.21179169999959413,,,,,,,,28,18,Vrouw,Rechts,2,
,xotask,dotcolour,xotask,0,2,120,120,main,negativefb,-99,hard,,2.450187299999925,['n'],1,right,['9'],5,0.4295824000000721,27,,,,,,,28,18,Vrouw,Rechts,2,
,xotask,dotcolour,xotask,1,2,121,121,main,negativefb,-99,average,,1.63425769999958,['n'],1,right,['9'],5,0.26812489999974787,16,,,,,,,28,18,Vrouw,Rechts,2,
,xotask,dotcolour,xotask,2,2,122,122,main,negativefb,-99,average,,1.0840132000002995,['c'],1,left,['0'],6,0.40675479999936215,60,,,,,,,28,18,Vrouw,Rechts,2,
,xotask,dotcolour,xotask,3,2,123,123,main,negativefb,-99,easy,,1.1179376000000047,['n'],1,right,['9'],5,0.21116600000004837,8,,,,,,,28,18,Vrouw,Rechts,2,
,xotask,dotcolour,xotask,4,2,124,124,main,negativefb,-99,hard,,1.184518200000639,['n'],0,left,['9'],5,0.23635209999974904,50,,,,,,,28,18,Vrouw,Rechts,2,
,xotask,dotcolour,xotask,5,2,125,125,main,negativefb,-99,easy,,0.6503093999999692,['n'],1,right,['9'],5,0.2257012999998551,7,,,,,,,28,18,Vrouw,Rechts,2,
,xotask,dotcolour,xotask,6,2,126,126,main,negativefb,-99,easy,,0.6835094999996727,['n'],1,right,['9'],5,0.2471544999998514,6,,,,,,,28,18,Vrouw,Rechts,2,
,xotask,dotcolour,xotask,7,2,127,127,main,negativefb,-99,easy,,0.7509635999995226,['n'],0,left,['9'],5,0.2394043000003876,72,,,,,,,28,18,Vrouw,Rechts,2,
,xotask,dotcolour,xotask,8,2,128,128,main,negativefb,-99,average,,0.9345902000004571,['n'],1,right,['9'],5,0.24173140000038984,17,,,,,,,28,18,Vrouw,Rechts,2,
,xotask,dotcolour,xotask,9,2,129,129,main,negativefb,-99,average,,0.9855243000001792,['n'],1,right,['9'],5,0.257688099999541,15,,,,,,,28,18,Vrouw,Rechts,2,
,xotask,dotcolour,xotask,10,2,130,130,main,negativefb,-99,hard,,0.9008751000001212,['n'],0,left,['9'],5,1.2207845000002635,54,,,,,,,28,18,Vrouw,Rechts,2,
,xotask,dotcolour,xotask,11,2,131,131,main,negativefb,-99,average,,0.700565899999674,['n'],1,right,['9'],5,0.22463579999930516,19,,,,,,,28,18,Vrouw,Rechts,2,
,xotask,dotcolour,xotask,12,2,132,132,main,negativefb,-99,hard,,0.917628500000319,['n'],0,left,['9'],5,0.22756670000035228,53,,,,,,,28,18,Vrouw,Rechts,2,
,xotask,dotcolour,xotask,13,2,133,133,main,negativefb,-99,hard,,0.5005383999996411,['c'],1,left,['3'],3,0.32007849999990867,52,,,,,,,28,18,Vrouw,Rechts,2,
,xotask,dotcolour,xotask,14,2,134,134,main,negativefb,-99,average,,1.868254999999408,['n'],0,left,['9'],5,0.169021700000485,64,,,,,,,28,18,Vrouw,Rechts,2,
,xotask,dotcolour,xotask,15,2,135,135,main,negativefb,-99,average,,0.7340577999993911,['n'],0,left,['9'],5,0.18997620000027382,63,,,,,,,28,18,Vrouw,Rechts,2,
,xotask,dotcolour,xotask,16,2,136,136,main,negativefb,-99,average,,2.0178444000002855,['n'],1,right,['9'],5,0.2625086000007286,16,,,,,,,28,18,Vrouw,Rechts,2,
,xotask,dotcolour,xotask,17,2,137,137,main,negativefb,-99,hard,,0.9666423999997278,['n'],1,right,['9'],5,0.17445279999992636,25,,,,,,,28,18,Vrouw,Rechts,2,
,xotask,dotcolour,xotask,18,2,138,138,main,negativefb,-99,hard,,0.8841793999999936,['n'],1,right,['9'],5,0.20479940000041097,26,,,,,,,28,18,Vrouw,Rechts,2,
,xotask,dotcolour,xotask,19,2,139,139,main,negativefb,-99,easy,,0.6175472000004447,['n'],0,left,['9'],5,0.22900310000022728,70,,,,,,,28,18,Vrouw,Rechts,2,
,xotask,dotcolour,xotask,20,2,140,140,main,negativefb,-99,hard,,0.9681489000004149,['c'],0,right,['9'],5,0.5347200999995039,25,,,,,,,28,18,Vrouw,Rechts,2,
,xotask,dotcolour,xotask,21,2,141,141,main,negativefb,-99,average,,1.467286399999466,['n'],1,right,['9'],5,0.1514389999993,15,,,,,,,28,18,Vrouw,Rechts,2,
,xotask,dotcolour,xotask,22,2,142,142,main,negativefb,-99,average,,0.785174000000552,['n'],1,right,['9'],5,0.1946843000005174,15,,,,,,,28,18,Vrouw,Rechts,2,
,xotask,dotcolour,xotask,23,2,143,143,main,negativefb,-99,easy,,0.8175170000004073,['n'],0,left,['9'],5,0.36343269999997574,70,,,,,,,28,18,Vrouw,Rechts,2,
,xotask,dotcolour,xotask,24,2,144,144,main,negativefb,-99,average,,0.7504983999997421,['n'],1,right,['9'],5,0.36019000000032975,17,,,,,,,28,18,Vrouw,Rechts,2,
,xotask,dotcolour,xotask,25,2,145,145,main,negativefb,-99,easy,,0.6675693999995929,['n'],0,left,['0'],6,0.49540800000067975,72,,,,,,,28,18,Vrouw,Rechts,2,
,xotask,dotcolour,xotask,26,2,146,146,main,negativefb,-99,hard,,0.735302999999476,['n'],1,right,['9'],5,0.2882442000000083,29,,,,,,,28,18,Vrouw,Rechts,2,
,xotask,dotcolour,xotask,27,2,147,147,main,negativefb,-99,easy,,0.9838843000006818,['c'],1,left,['9'],5,0.5338824000000386,72,,,,,,,28,18,Vrouw,Rechts,2,
,xotask,dotcolour,xotask,28,2,148,148,main,negativefb,-99,hard,,0.7672057999998287,['c'],0,right,['9'],5,0.3788209000003917,27,,,,,,,28,18,Vrouw,Rechts,2,
,xotask,dotcolour,xotask,29,2,149,149,main,negativefb,-99,easy,,0.6509347999999591,['c'],0,right,['9'],5,0.21844140000030166,9,,,,,,,28,18,Vrouw,Rechts,2,
,xotask,dotcolour,xotask,30,2,150,150,main,negativefb,-99,average,,0.5346877000001768,['n'],0,left,['9'],5,0.229344399999718,61,,,,,,,28,18,Vrouw,Rechts,2,
,xotask,dotcolour,xotask,31,2,151,151,main,negativefb,-99,easy,,0.834780099999989,['n'],1,right,['8'],4,0.41185700000005454,7,,,,,,,28,18,Vrouw,Rechts,2,
,xotask,dotcolour,xotask,32,2,152,152,main,negativefb,-99,easy,,0.784375799999907,['c'],1,left,['8'],4,0.2610711999996056,70,,,,,,,28,18,Vrouw,Rechts,2,
,xotask,dotcolour,xotask,33,2,153,153,main,negativefb,-99,hard,,1.4182856999996147,['n'],1,right,['9'],5,0.22732269999960408,27,,,,,,,28,18,Vrouw,Rechts,2,
,xotask,dotcolour,xotask,34,2,154,154,main,negativefb,-99,hard,,1.0679520000003322,['c'],1,left,['9'],5,0.3043683999994755,53,,,,,,,28,18,Vrouw,Rechts,2,
,xotask,dotcolour,xotask,35,2,155,155,main,negativefb,-99,easy,,1.3178940999996485,['n'],1,right,['9'],5,0.21713550000004034,7,,,,,,,28,18,Vrouw,Rechts,2,
,xotask,dotcolour,xotask,36,2,156,156,main,negativefb,-99,hard,,0.8176783999997497,['n'],1,right,['9'],5,0.24030760000005102,26,,,,,,,28,18,Vrouw,Rechts,2,
,xotask,dotcolour,xotask,37,2,157,157,main,negativefb,-99,average,,1.2175810999997339,['c'],1,left,['9'],5,0.43030480000015814,63,,,,,,,28,18,Vrouw,Rechts,2,
,xotask,dotcolour,xotask,38,2,158,158,main,negativefb,-99,hard,,0.7337796000001617,['c'],0,right,['9'],5,0.28093879999960336,25,,,,,,,28,18,Vrouw,Rechts,2,
,xotask,dotcolour,xotask,39,2,159,159,main,negativefb,-99,hard,,0.7011916000001293,['c'],1,left,['9'],5,0.25075250000008964,50,,,,,,,28,18,Vrouw,Rechts,2,
,xotask,dotcolour,xotask,40,2,160,160,main,negativefb,-99,easy,,0.8011261999999988,['c'],1,left,['9'],5,0.2495509000000311,70,,,,,,,28,18,Vrouw,Rechts,2,
,xotask,dotcolour,xotask,41,2,161,161,main,negativefb,-99,hard,,0.8334853000005751,['c'],0,right,['0'],6,0.36667039999974804,26,,,,,,,28,18,Vrouw,Rechts,2,
,xotask,dotcolour,xotask,42,2,162,162,main,negativefb,-99,easy,,0.7013483999999153,['c'],1,left,['9'],5,0.24464030000035564,71,,,,,,,28,18,Vrouw,Rechts,2,
,xotask,dotcolour,xotask,43,2,163,163,main,negativefb,-99,hard,,0.9338417999997546,['c'],1,left,['9'],5,0.26252560000011727,51,,,,,,,28,18,Vrouw,Rechts,2,
,xotask,dotcolour,xotask,44,2,164,164,main,negativefb,-99,easy,,1.2842918000005739,['n'],1,right,['9'],5,0.22577540000020235,7,,,,,,,28,18,Vrouw,Rechts,2,
,xotask,dotcolour,xotask,45,2,165,165,main,negativefb,-99,average,,0.8348917000002984,['c'],1,left,['9'],5,0.24119969999992463,62,,,,,,,28,18,Vrouw,Rechts,2,
,xotask,dotcolour,xotask,46,2,166,166,main,negativefb,-99,average,,0.834583300000304,['n'],1,right,['9'],5,0.24709270000039396,16,,,,,,,28,18,Vrouw,Rechts,2,
,xotask,dotcolour,xotask,47,2,167,167,main,negativefb,-99,average,,0.7679817999996885,['c'],1,left,['9'],5,0.263233499999842,63,,,,,,,28,18,Vrouw,Rechts,2,
,xotask,dotcolour,xotask,48,2,168,168,main,negativefb,-99,hard,,0.6837195999996766,['c'],1,left,['9'],5,0.30694080000012036,53,,,,,,,28,18,Vrouw,Rechts,2,
,xotask,dotcolour,xotask,49,2,169,169,main,negativefb,-99,average,,0.7672221000002537,['n'],1,right,['9'],5,0.21637709999959043,16,,,,,,,28,18,Vrouw,Rechts,2,
,xotask,dotcolour,xotask,50,2,170,170,main,negativefb,-99,easy,,0.9190514000001713,['c'],1,left,['9'],5,0.8683985999996366,72,,,,,,,28,18,Vrouw,Rechts,2,
,xotask,dotcolour,xotask,51,2,171,171,main,negativefb,-99,hard,,1.9835141000003205,['n'],0,left,['9'],5,0.2504518999994616,51,,,,,,,28,18,Vrouw,Rechts,2,
,xotask,dotcolour,xotask,52,2,172,172,main,negativefb,-99,average,,0.8512821000003896,['c'],1,left,['9'],5,0.6394684000006237,61,,,,,,,28,18,Vrouw,Rechts,2,
,xotask,dotcolour,xotask,53,2,173,173,main,negativefb,-99,easy,,0.7179919999998674,['c'],1,left,['9'],5,0.2904155999995055,71,,,,,,,28,18,Vrouw,Rechts,2,
,xotask,dotcolour,xotask,54,2,174,174,main,negativefb,-99,easy,,0.7841852000001381,['n'],1,right,['9'],5,0.24002509999991162,6,,,,,,,28,18,Vrouw,Rechts,2,
,xotask,dotcolour,xotask,55,2,175,175,main,negativefb,-99,easy,,0.6345731000001251,['c'],0,right,['8'],4,1.1340267999994467,8,,,,,,,28,18,Vrouw,Rechts,2,
,xotask,dotcolour,xotask,56,2,176,176,main,negativefb,-99,average,,0.9002829999999449,['n'],0,left,['9'],5,0.2935643999999229,60,,,,,,,28,18,Vrouw,Rechts,2,
,xotask,dotcolour,xotask,57,2,177,177,main,negativefb,-99,easy,,1.5013677999995707,['n'],1,right,['9'],5,0.1743362999995952,6,,,,,,,28,18,Vrouw,Rechts,2,
,xotask,dotcolour,xotask,58,2,178,178,main,negativefb,-99,average,,0.9013075000002573,['c'],1,left,['9'],5,0.26103819999934785,62,,,,,,,28,18,Vrouw,Rechts,2,
,xotask,dotcolour,xotask,59,2,179,179,main,negativefb,-99,hard,,0.78454899999997,['c'],1,left,['9'],5,0.29993910000030155,53,,,,,,,28,18,Vrouw,Rechts,2,
,xotask,dotcolour,xotask,0,3,180,180,main,negativefb,-99,average,,2.1179662999993525,['c'],1,left,['9'],5,0.18842229999972915,61,,,,,,,28,18,Vrouw,Rechts,2,
,xotask,dotcolour,xotask,1,3,181,181,main,negativefb,-99,average,,0.634293200000684,['c'],1,left,['9'],5,0.19745750000038242,61,,,,,,,28,18,Vrouw,Rechts,2,
,xotask,dotcolour,xotask,2,3,182,182,main,negativefb,-99,average,,0.8012732999995933,['n'],0,left,['9'],5,0.1823060999995505,63,,,,,,,28,18,Vrouw,Rechts,2,
,xotask,dotcolour,xotask,3,3,183,183,main,negativefb,-99,hard,,0.6505465000000186,['n'],0,left,['9'],5,0.21324230000027455,50,,,,,,,28,18,Vrouw,Rechts,2,
,xotask,dotcolour,xotask,4,3,184,184,main,negativefb,-99,hard,,0.5836230000004434,['n'],0,left,['8'],4,0.5114903999992748,52,,,,,,,28,18,Vrouw,Rechts,2,
,xotask,dotcolour,xotask,5,3,185,185,main,negativefb,-99,average,,0.8841576000004352,['c'],1,left,['8'],4,0.6408116000002337,62,,,,,,,28,18,Vrouw,Rechts,2,
,xotask,dotcolour,xotask,6,3,186,186,main,negativefb,-99,average,,0.6172871999997369,['c'],0,right,['8'],4,0.5271637000005285,19,,,,,,,28,18,Vrouw,Rechts,2,
,xotask,dotcolour,xotask,7,3,187,187,main,negativefb,-99,easy,,1.0345537000002878,['n'],1,right,['9'],5,0.2979651000005106,7,,,,,,,28,18,Vrouw,Rechts,2,
,xotask,dotcolour,xotask,8,3,188,188,main,negativefb,-99,easy,,0.935384399999748,['c'],1,left,['8'],4,0.28917660000024625,70,,,,,,,28,18,Vrouw,Rechts,2,
,xotask,dotcolour,xotask,9,3,189,189,main,negativefb,-99,hard,,0.6846894999998767,['c'],0,right,['8'],4,0.24321990000044025,27,,,,,,,28,18,Vrouw,Rechts,2,
,xotask,dotcolour,xotask,10,3,190,190,main,negativefb,-99,easy,,0.9174616999998761,['c'],0,right,['8'],4,0.22933680000005552,9,,,,,,,28,18,Vrouw,Rechts,2,
,xotask,dotcolour,xotask,11,3,191,191,main,negativefb,-99,average,,0.5684176999993724,['n'],1,right,['0'],6,0.23038409999935539,15,,,,,,,28,18,Vrouw,Rechts,2,
,xotask,dotcolour,xotask,12,3,192,192,main,negativefb,-99,easy,,1.1176853999995728,['c'],1,left,['8'],4,0.37826750000022,72,,,,,,,28,18,Vrouw,Rechts,2,
,xotask,dotcolour,xotask,13,3,193,193,main,negativefb,-99,hard,,0.8012204999995447,['c'],1,left,['8'],4,1.308314099999734,51,,,,,,,28,18,Vrouw,Rechts,2,
,xotask,dotcolour,xotask,14,3,194,194,main,negativefb,-99,easy,,1.8013882000004742,['n'],1,right,['0'],6,0.30511680000017805,7,,,,,,,28,18,Vrouw,Rechts,2,
,xotask,dotcolour,xotask,15,3,195,195,main,negativefb,-99,average,,0.8173950000000332,['c'],0,right,['3'],3,1.3651779000001625,15,,,,,,,28,18,Vrouw,Rechts,2,
,xotask,dotcolour,xotask,16,3,196,196,main,negativefb,-99,hard,,2.1181415999999444,['n'],1,right,['9'],5,0.2588228999993589,29,,,,,,,28,18,Vrouw,Rechts,2,
,xotask,dotcolour,xotask,17,3,197,197,main,negativefb,-99,hard,,0.7834839000006468,['n'],1,right,['9'],5,0.25731919999998354,25,,,,,,,28,18,Vrouw,Rechts,2,
,xotask,dotcolour,xotask,18,3,198,198,main,negativefb,-99,easy,,0.6844395999996777,['c'],1,left,['9'],5,0.3089484000001903,74,,,,,,,28,18,Vrouw,Rechts,2,
,xotask,dotcolour,xotask,19,3,199,199,main,negativefb,-99,average,,0.6514383000003363,['n'],1,right,['9'],5,0.2795685000000958,17,,,,,,,28,18,Vrouw,Rechts,2,
,xotask,dotcolour,xotask,20,3,200,200,main,negativefb,-99,average,,0.8347098000003825,['c'],0,right,['9'],5,0.23619240000061836,18,,,,,,,28,18,Vrouw,Rechts,2,
,xotask,dotcolour,xotask,21,3,201,201,main,negativefb,-99,average,,0.8507301999998163,['c'],1,left,['9'],5,0.34582699999918987,63,,,,,,,28,18,Vrouw,Rechts,2,
,xotask,dotcolour,xotask,22,3,202,202,main,negativefb,-99,easy,,1.0336129999996047,['n'],1,right,['9'],5,0.21164860000044428,9,,,,,,,28,18,Vrouw,Rechts,2,
,xotask,dotcolour,xotask,23,3,203,203,main,negativefb,-99,hard,,0.783914100000402,['n'],1,right,['9'],5,0.23696500000005472,26,,,,,,,28,18,Vrouw,Rechts,2,
,xotask,dotcolour,xotask,24,3,204,204,main,negativefb,-99,average,,1.08470429999943,['c'],0,right,['3'],3,0.9371459000003597,17,,,,,,,28,18,Vrouw,Rechts,2,
,xotask,dotcolour,xotask,25,3,205,205,main,negativefb,-99,average,,1.117651399999886,['n'],1,right,['9'],5,0.2076974000001428,17,,,,,,,28,18,Vrouw,Rechts,2,
,xotask,dotcolour,xotask,26,3,206,206,main,negativefb,-99,average,,1.151130899999771,['n'],0,left,['9'],5,0.22597190000033152,61,,,,,,,28,18,Vrouw,Rechts,2,
,xotask,dotcolour,xotask,27,3,207,207,main,negativefb,-99,hard,,0.8177856000002066,['n'],0,left,['8'],4,0.7374638000001141,52,,,,,,,28,18,Vrouw,Rechts,2,
,xotask,dotcolour,xotask,28,3,208,208,main,negativefb,-99,average,,0.5835043999995833,['n'],1,right,['9'],5,0.3413268000003882,18,,,,,,,28,18,Vrouw,Rechts,2,
,xotask,dotcolour,xotask,29,3,209,209,main,negativefb,-99,easy,,0.5355181999993874,['c'],1,left,['9'],5,0.39535609999984445,71,,,,,,,28,18,Vrouw,Rechts,2,
,xotask,dotcolour,xotask,30,3,210,210,main,negativefb,-99,easy,,0.6348376999994798,['c'],0,right,['9'],5,0.22794790000079956,9,,,,,,,28,18,Vrouw,Rechts,2,
,xotask,dotcolour,xotask,31,3,211,211,main,negativefb,-99,hard,,0.6518505000003643,['c'],0,right,['9'],5,0.20146699999986595,27,,,,,,,28,18,Vrouw,Rechts,2,
,xotask,dotcolour,xotask,32,3,212,212,main,negativefb,-99,easy,,0.6841090000007171,['c'],1,left,['0'],6,0.19870540000010806,74,,,,,,,28,18,Vrouw,Rechts,2,
,xotask,dotcolour,xotask,33,3,213,213,main,negativefb,-99,easy,,0.7839035000006334,['c'],1,left,['9'],5,0.31286960000034014,71,,,,,,,28,18,Vrouw,Rechts,2,
,xotask,dotcolour,xotask,34,3,214,214,main,negativefb,-99,easy,,0.6513617999999042,['c'],1,left,['9'],5,0.29088599999977305,72,,,,,,,28,18,Vrouw,Rechts,2,
,xotask,dotcolour,xotask,35,3,215,215,main,negativefb,-99,average,,0.6851669999996375,['c'],0,right,['9'],5,0.4050340000003416,16,,,,,,,28,18,Vrouw,Rechts,2,
,xotask,dotcolour,xotask,36,3,216,216,main,negativefb,-99,easy,,0.9349421000006259,['n'],1,right,['9'],5,0.2004170999998678,8,,,,,,,28,18,Vrouw,Rechts,2,
,xotask,dotcolour,xotask,37,3,217,217,main,negativefb,-99,easy,,1.0675135999999839,['n'],1,right,['9'],5,0.19809689999965485,7,,,,,,,28,18,Vrouw,Rechts,2,
,xotask,dotcolour,xotask,38,3,218,218,main,negativefb,-99,hard,,0.7174291000001176,['n'],1,right,['0'],6,0.24257089999991877,27,,,,,,,28,18,Vrouw,Rechts,2,
,xotask,dotcolour,xotask,39,3,219,219,main,negativefb,-99,hard,,0.7830761000004713,['n'],1,right,['9'],5,0.38671959999919636,26,,,,,,,28,18,Vrouw,Rechts,2,
,xotask,dotcolour,xotask,40,3,220,220,main,negativefb,-99,average,,0.950277200000528,['c'],1,left,['9'],5,0.2621336000001975,64,,,,,,,28,18,Vrouw,Rechts,2,
,xotask,dotcolour,xotask,41,3,221,221,main,negativefb,-99,hard,,0.8342798999992738,['c'],1,left,['9'],5,0.2592214000005697,52,,,,,,,28,18,Vrouw,Rechts,2,
,xotask,dotcolour,xotask,42,3,222,222,main,negativefb,-99,easy,,0.8177243999998609,['n'],0,left,['9'],5,0.24888739999914833,73,,,,,,,28,18,Vrouw,Rechts,2,
,xotask,dotcolour,xotask,43,3,223,223,main,negativefb,-99,easy,,0.9333568000001833,['c'],1,left,['9'],5,0.21016560000043683,70,,,,,,,28,18,Vrouw,Rechts,2,
,xotask,dotcolour,xotask,44,3,224,224,main,negativefb,-99,hard,,2.2346056000005774,['n'],0,left,['9'],5,0.2024953000000096,50,,,,,,,28,18,Vrouw,Rechts,2,
,xotask,dotcolour,xotask,45,3,225,225,main,negativefb,-99,average,,1.3339805999994496,['n'],0,left,['9'],5,0.21366840000064258,60,,,,,,,28,18,Vrouw,Rechts,2,
,xotask,dotcolour,xotask,46,3,226,226,main,negativefb,-99,average,,1.1842399999995905,['n'],0,left,['9'],5,0.19044829999984358,62,,,,,,,28,18,Vrouw,Rechts,2,
,xotask,dotcolour,xotask,47,3,227,227,main,negativefb,-99,easy,,2.1675058000000718,['c'],0,right,['9'],5,0.48890300000039133,8,,,,,,,28,18,Vrouw,Rechts,2,
,xotask,dotcolour,xotask,48,3,228,228,main,negativefb,-99,easy,,1.3182706999996299,['n'],1,right,['9'],5,0.25835709999955725,7,,,,,,,28,18,Vrouw,Rechts,2,
,xotask,dotcolour,xotask,49,3,229,229,main,negativefb,-99,average,,0.7000373999999283,['c'],1,left,['9'],5,0.28453709999939747,64,,,,,,,28,18,Vrouw,Rechts,2,
,xotask,dotcolour,xotask,50,3,230,230,main,negativefb,-99,average,,0.7835359000000608,['n'],1,right,['9'],5,0.2103161999993972,15,,,,,,,28,18,Vrouw,Rechts,2,
,xotask,dotcolour,xotask,51,3,231,231,main,negativefb,-99,hard,,0.6509224999999788,['n'],0,left,['0'],6,1.0253657999992356,50,,,,,,,28,18,Vrouw,Rechts,2,
,xotask,dotcolour,xotask,52,3,232,232,main,negativefb,-99,hard,,1.2837594000002355,['n'],1,right,['0'],6,0.3742482999996355,27,,,,,,,28,18,Vrouw,Rechts,2,
,xotask,dotcolour,xotask,53,3,233,233,main,negativefb,-99,easy,,0.718127099999947,['n'],1,right,['0'],6,0.3870107000002463,5,,,,,,,28,18,Vrouw,Rechts,2,
,xotask,dotcolour,xotask,54,3,234,234,main,negativefb,-99,hard,,1.0840022000002136,['c'],0,right,['9'],5,0.7769430999996985,27,,,,,,,28,18,Vrouw,Rechts,2,
,xotask,dotcolour,xotask,55,3,235,235,main,negativefb,-99,hard,,0.6009862000000794,['c'],1,left,['0'],6,0.2749569999996311,50,,,,,,,28,18,Vrouw,Rechts,2,
,xotask,dotcolour,xotask,56,3,236,236,main,negativefb,-99,hard,,0.7844868000001952,['c'],1,left,['0'],6,0.30617700000038894,54,,,,,,,28,18,Vrouw,Rechts,2,
,xotask,dotcolour,xotask,57,3,237,237,main,negativefb,-99,hard,,2.2181578999998237,['c'],1,left,['9'],5,0.28590059999987716,54,,,,,,,28,18,Vrouw,Rechts,2,
,xotask,dotcolour,xotask,58,3,238,238,main,negativefb,-99,hard,,1.7500709999994797,['n'],1,right,['9'],5,0.2213608000001841,29,,,,,,,28,18,Vrouw,Rechts,2,
,xotask,dotcolour,xotask,59,3,239,239,main,negativefb,-99,easy,,0.8509574999998222,['c'],1,left,['9'],5,0.5073140000004059,72,,,,,,,28,18,Vrouw,Rechts,2,
,xotask,dotcolour,xotask,0,4,240,240,main,negativefb,-99,hard,,1.4515191999998933,['n'],0,left,['9'],5,0.2441131999994468,52,,,,,,,28,18,Vrouw,Rechts,2,
,xotask,dotcolour,xotask,1,4,241,241,main,negativefb,-99,average,,0.5512407999995048,['n'],1,right,['9'],5,0.23764879999998811,17,,,,,,,28,18,Vrouw,Rechts,2,
,xotask,dotcolour,xotask,2,4,242,242,main,negativefb,-99,hard,,0.48437250000006316,['c'],1,left,['9'],5,0.5703176999995776,51,,,,,,,28,18,Vrouw,Rechts,2,
,xotask,dotcolour,xotask,3,4,243,243,main,negativefb,-99,average,,0.5007870000008552,['c'],1,left,['9'],5,0.20818449999933364,60,,,,,,,28,18,Vrouw,Rechts,2,
,xotask,dotcolour,xotask,4,4,244,244,main,negativefb,-99,hard,,0.4828970999997182,['n'],0,left,['9'],5,0.25380630000017845,52,,,,,,,28,18,Vrouw,Rechts,2,
,xotask,dotcolour,xotask,5,4,245,245,main,negativefb,-99,easy,,1.2002558000003773,['n'],1,right,['0'],6,0.3240531999999803,8,,,,,,,28,18,Vrouw,Rechts,2,
,xotask,dotcolour,xotask,6,4,246,246,main,negativefb,-99,hard,,0.8006214999995791,['n'],1,right,['9'],5,0.28748410000025615,27,,,,,,,28,18,Vrouw,Rechts,2,
,xotask,dotcolour,xotask,7,4,247,247,main,negativefb,-99,hard,,0.7008402999999817,['n'],1,right,['9'],5,0.8488741999999547,28,,,,,,,28,18,Vrouw,Rechts,2,
,xotask,dotcolour,xotask,8,4,248,248,main,negativefb,-99,average,,0.600755699999354,['n'],1,right,['9'],5,0.40837849999934406,15,,,,,,,28,18,Vrouw,Rechts,2,
,xotask,dotcolour,xotask,9,4,249,249,main,negativefb,-99,easy,,0.6505349999997634,['c'],1,left,['9'],5,0.3030146999999488,70,,,,,,,28,18,Vrouw,Rechts,2,
,xotask,dotcolour,xotask,10,4,250,250,main,negativefb,-99,average,,0.8012163000003056,['c'],0,right,['9'],5,0.299702299999808,17,,,,,,,28,18,Vrouw,Rechts,2,
,xotask,dotcolour,xotask,11,4,251,251,main,negativefb,-99,average,,0.9344498999998905,['c'],1,left,['0'],6,0.3782072000003609,64,,,,,,,28,18,Vrouw,Rechts,2,
,xotask,dotcolour,xotask,12,4,252,252,main,negativefb,-99,easy,,0.7681046999996397,['c'],1,left,['9'],5,0.27807060000031925,74,,,,,,,28,18,Vrouw,Rechts,2,
,xotask,dotcolour,xotask,13,4,253,253,main,negativefb,-99,average,,0.5173488999998881,['c'],1,left,['9'],5,0.2555094999997891,60,,,,,,,28,18,Vrouw,Rechts,2,
,xotask,dotcolour,xotask,14,4,254,254,main,negativefb,-99,average,,0.7339945999992779,['c'],0,right,['9'],5,0.26480630000060046,15,,,,,,,28,18,Vrouw,Rechts,2,
,xotask,dotcolour,xotask,15,4,255,255,main,negativefb,-99,easy,,1.2175338999995802,['n'],1,right,['9'],5,0.19818670000040584,6,,,,,,,28,18,Vrouw,Rechts,2,
,xotask,dotcolour,xotask,16,4,256,256,main,negativefb,-99,average,,1.1321391000001313,['n'],1,right,['9'],5,0.2170380000006844,17,,,,,,,28,18,Vrouw,Rechts,2,
,xotask,dotcolour,xotask,17,4,257,257,main,negativefb,-99,easy,,0.7171433000003162,['c'],1,left,['9'],5,0.3085004000004119,71,,,,,,,28,18,Vrouw,Rechts,2,
,xotask,dotcolour,xotask,18,4,258,258,main,negativefb,-99,average,,2.2339519000006476,['n'],0,left,['0'],6,0.3119487999992998,60,,,,,,,28,18,Vrouw,Rechts,2,
,xotask,dotcolour,xotask,19,4,259,259,main,negativefb,-99,easy,,1.1185540999995283,['n'],1,right,['0'],6,0.23156070000004547,9,,,,,,,28,18,Vrouw,Rechts,2,
,xotask,dotcolour,xotask,20,4,260,260,main,negativefb,-99,easy,,0.8170335000004343,['c'],1,left,['0'],6,0.30339899999944464,73,,,,,,,28,18,Vrouw,Rechts,2,
,xotask,dotcolour,xotask,21,4,261,261,main,negativefb,-99,easy,,0.7515696999998909,['n'],1,right,['0'],6,0.35744290000002366,7,,,,,,,28,18,Vrouw,Rechts,2,
,xotask,dotcolour,xotask,22,4,262,262,main,negativefb,-99,average,,0.6673416000003272,['n'],0,left,['9'],5,0.32613839999976335,61,,,,,,,28,18,Vrouw,Rechts,2,
,xotask,dotcolour,xotask,23,4,263,263,main,negativefb,-99,easy,,0.8018079999992551,['c'],1,left,['8'],4,0.5213649999996051,70,,,,,,,28,18,Vrouw,Rechts,2,
,xotask,dotcolour,xotask,24,4,264,264,main,negativefb,-99,easy,,0.7678308000004108,['c'],0,right,['0'],6,0.3746449999998731,6,,,,,,,28,18,Vrouw,Rechts,2,
,xotask,dotcolour,xotask,25,4,265,265,main,negativefb,-99,easy,,1.3511042000000089,['n'],1,right,['9'],5,0.6993926999994073,9,,,,,,,28,18,Vrouw,Rechts,2,
,xotask,dotcolour,xotask,26,4,266,266,main,negativefb,-99,easy,,0.7165992000000188,['c'],1,left,['0'],6,0.48267610000038985,70,,,,,,,28,18,Vrouw,Rechts,2,
,xotask,dotcolour,xotask,27,4,267,267,main,negativefb,-99,easy,,0.8500582999995459,['c'],1,left,['0'],6,0.2543009000000893,72,,,,,,,28,18,Vrouw,Rechts,2,
,xotask,dotcolour,xotask,28,4,268,268,main,negativefb,-99,easy,,2.167387100000269,['n'],1,right,['0'],6,0.18281730000035168,6,,,,,,,28,18,Vrouw,Rechts,2,
,xotask,dotcolour,xotask,29,4,269,269,main,negativefb,-99,hard,,0.8333333999999013,['n'],1,right,['0'],6,0.24627659999987372,25,,,,,,,28,18,Vrouw,Rechts,2,
,xotask,dotcolour,xotask,30,4,270,270,main,negativefb,-99,hard,,1.0500509000003149,['c'],1,left,['2'],2,1.7154730000002019,51,,,,,,,28,18,Vrouw,Rechts,2,
,xotask,dotcolour,xotask,31,4,271,271,main,negativefb,-99,easy,,0.9170809999995981,['n'],1,right,['0'],6,0.26720709999972314,9,,,,,,,28,18,Vrouw,Rechts,2,
,xotask,dotcolour,xotask,32,4,272,272,main,negativefb,-99,hard,,0.5343363000001773,['c'],0,right,['0'],6,0.3635348999996495,27,,,,,,,28,18,Vrouw,Rechts,2,
,xotask,dotcolour,xotask,33,4,273,273,main,negativefb,-99,easy,,0.7010113000005731,['c'],1,left,['9'],5,0.32260669999959646,70,,,,,,,28,18,Vrouw,Rechts,2,
,xotask,dotcolour,xotask,34,4,274,274,main,negativefb,-99,hard,,0.8849104000000807,['n'],1,right,['9'],5,0.25063589999990654,29,,,,,,,28,18,Vrouw,Rechts,2,
,xotask,dotcolour,xotask,35,4,275,275,main,negativefb,-99,hard,,0.5333103000002666,['c'],0,right,['9'],5,0.2762624999995751,28,,,,,,,28,18,Vrouw,Rechts,2,
,xotask,dotcolour,xotask,36,4,276,276,main,negativefb,-99,average,,0.5506603000003452,['n'],0,left,['9'],5,0.308811699999751,64,,,,,,,28,18,Vrouw,Rechts,2,
,xotask,dotcolour,xotask,37,4,277,277,main,negativefb,-99,hard,,0.4502406000001429,['c'],1,left,['9'],5,0.25522600000022067,53,,,,,,,28,18,Vrouw,Rechts,2,
,xotask,dotcolour,xotask,38,4,278,278,main,negativefb,-99,hard,,0.5001097999993362,['c'],1,left,['9'],5,0.32205400000020745,54,,,,,,,28,18,Vrouw,Rechts,2,
,xotask,dotcolour,xotask,39,4,279,279,main,negativefb,-99,easy,,0.6343490999997812,['c'],1,left,['9'],5,0.35636299999987386,70,,,,,,,28,18,Vrouw,Rechts,2,
,xotask,dotcolour,xotask,40,4,280,280,main,negativefb,-99,easy,,0.8349474999995437,['n'],1,right,['9'],5,0.2535020999994231,5,,,,,,,28,18,Vrouw,Rechts,2,
,xotask,dotcolour,xotask,41,4,281,281,main,negativefb,-99,average,,1.0515661999997974,['c'],1,left,['9'],5,0.21086689999992814,62,,,,,,,28,18,Vrouw,Rechts,2,
,xotask,dotcolour,xotask,42,4,282,282,main,negativefb,-99,hard,,0.46592710000004445,['c'],0,right,['9'],5,0.2565537000000404,28,,,,,,,28,18,Vrouw,Rechts,2,
,xotask,dotcolour,xotask,43,4,283,283,main,negativefb,-99,hard,,0.4338250999999218,['c'],1,left,['9'],5,0.2216350999997303,52,,,,,,,28,18,Vrouw,Rechts,2,
,xotask,dotcolour,xotask,44,4,284,284,main,negativefb,-99,average,,0.6002655000002051,['c'],0,right,['9'],5,0.29424890000063897,15,,,,,,,28,18,Vrouw,Rechts,2,
,xotask,dotcolour,xotask,45,4,285,285,main,negativefb,-99,hard,,1.4338261000002603,['n'],1,right,['9'],5,0.2102552000005744,27,,,,,,,28,18,Vrouw,Rechts,2,
,xotask,dotcolour,xotask,46,4,286,286,main,negativefb,-99,average,,0.44986599999992904,['n'],1,right,['9'],5,0.24097029999938968,19,,,,,,,28,18,Vrouw,Rechts,2,
,xotask,dotcolour,xotask,47,4,287,287,main,negativefb,-99,average,,0.5181529999999839,['c'],1,left,['9'],5,0.30745130000013887,63,,,,,,,28,18,Vrouw,Rechts,2,
,xotask,dotcolour,xotask,48,4,288,288,main,negativefb,-99,easy,,0.6836200999996436,['c'],1,left,['9'],5,0.28430110000044806,72,,,,,,,28,18,Vrouw,Rechts,2,
,xotask,dotcolour,xotask,49,4,289,289,main,negativefb,-99,average,,0.43452049999996234,['c'],1,left,['9'],5,0.3443455000005997,64,,,,,,,28,18,Vrouw,Rechts,2,
,xotask,dotcolour,xotask,50,4,290,290,main,negativefb,-99,hard,,0.5341637999999875,['n'],1,right,['8'],4,0.27839809999932186,27,,,,,,,28,18,Vrouw,Rechts,2,
,xotask,dotcolour,xotask,51,4,291,291,main,negativefb,-99,average,,1.5500609999999142,['n'],1,right,['9'],5,0.19798369999989518,19,,,,,,,28,18,Vrouw,Rechts,2,
,xotask,dotcolour,xotask,52,4,292,292,main,negativefb,-99,easy,,1.084873400000106,['n'],1,right,['9'],5,0.2195878000002267,9,,,,,,,28,18,Vrouw,Rechts,2,
,xotask,dotcolour,xotask,53,4,293,293,main,negativefb,-99,average,,0.4501424999998562,['c'],0,right,['9'],5,0.23433079999995243,19,,,,,,,28,18,Vrouw,Rechts,2,
,xotask,dotcolour,xotask,54,4,294,294,main,negativefb,-99,hard,,0.6163759000000937,['n'],0,left,['9'],5,0.21694860000025074,54,,,,,,,28,18,Vrouw,Rechts,2,
,xotask,dotcolour,xotask,55,4,295,295,main,negativefb,-99,average,,0.9346777999999176,['n'],1,right,['9'],5,0.18721740000000864,15,,,,,,,28,18,Vrouw,Rechts,2,
,xotask,dotcolour,xotask,56,4,296,296,main,negativefb,-99,hard,,0.46719690000008995,['c'],1,left,['9'],5,0.25036420000014914,50,,,,,,,28,18,Vrouw,Rechts,2,
,xotask,dotcolour,xotask,57,4,297,297,main,negativefb,-99,average,,0.484554499999831,['c'],1,left,['9'],5,0.23719789999995555,61,,,,,,,28,18,Vrouw,Rechts,2,
,xotask,dotcolour,xotask,58,4,298,298,main,negativefb,-99,hard,,0.5017866999996841,['c'],1,left,['9'],5,0.2883196000002499,54,,,,,,,28,18,Vrouw,Rechts,2,
,xotask,dotcolour,xotask,59,4,299,299,main,negativefb,-99,hard,,1.1169364999996105,['c'],0,right,['9'],5,0.1931629000000612,29,,,,,,,28,18,Vrouw,Rechts,2,
,dotcolour,dotcolour,xotask,0,0,0,300,training,negativefb,64,easy,18,1.2506242999997994,['n'],1,right,['0'],6,0.22219760000007227,,,,,,,,28,18,Vrouw,Rechts,2,
,dotcolour,dotcolour,xotask,1,0,1,301,training,negativefb,8,average,29,0.4163384000003134,['c'],0,right,['0'],6,0.28405389999988984,,,,,,,,28,18,Vrouw,Rechts,2,
,dotcolour,dotcolour,xotask,2,0,2,302,training,negativefb,10,easy,15,0.6000377999998818,['c'],0,right,['8'],4,0.9607435999996596,,,,,,,,28,18,Vrouw,Rechts,2,
,dotcolour,dotcolour,xotask,3,0,3,303,training,negativefb,89,easy,18,0.4505202999998801,['c'],0,right,['8'],4,0.7373705999998492,,,,,,,,28,18,Vrouw,Rechts,2,
,dotcolour,dotcolour,xotask,4,0,4,304,training,negativefb,80,hard,42,0.8326973000002909,['c'],1,left,['0'],6,0.2982624999995096,,,,,,,,28,18,Vrouw,Rechts,2,
,dotcolour,dotcolour,xotask,5,0,5,305,training,negativefb,36,easy,64,0.6163279000002149,['c'],1,left,['0'],6,0.2455273000005036,,,,,,,,28,18,Vrouw,Rechts,2,
,dotcolour,dotcolour,xotask,6,0,6,306,training,negativefb,73,hard,36,0.716890799999419,['c'],0,right,['9'],5,0.2877790000002278,,,,,,,,28,18,Vrouw,Rechts,2,
,dotcolour,dotcolour,xotask,7,0,7,307,training,negativefb,63,average,26,0.5166048000000956,['n'],1,right,['9'],5,0.2475429999994958,,,,,,,,28,18,Vrouw,Rechts,2,
,dotcolour,dotcolour,xotask,8,0,8,308,training,negativefb,89,easy,64,0.4838622999996005,['c'],1,left,['0'],6,0.31454669999948237,,,,,,,,28,18,Vrouw,Rechts,2,
,dotcolour,dotcolour,xotask,9,0,9,309,training,negativefb,41,average,54,0.5832720999997036,['c'],1,left,['0'],6,0.2701625999998214,,,,,,,,28,18,Vrouw,Rechts,2,
,dotcolour,dotcolour,xotask,10,0,10,310,training,negativefb,70,easy,18,0.4494315000001734,['c'],0,right,['3'],3,1.089970799999719,,,,,,,,28,18,Vrouw,Rechts,2,
,dotcolour,dotcolour,xotask,11,0,11,311,training,negativefb,37,average,55,0.7157846000000063,['c'],1,left,['9'],5,0.25000030000046536,,,,,,,,28,18,Vrouw,Rechts,2,
,dotcolour,dotcolour,xotask,12,0,12,312,training,negativefb,84,average,25,0.5010039999997389,['n'],1,right,['9'],5,0.22813959999984945,,,,,,,,28,18,Vrouw,Rechts,2,
,dotcolour,dotcolour,xotask,13,0,13,313,training,negativefb,68,easy,65,0.7994268000002194,['c'],1,left,['8'],4,0.23506170000018756,,,,,,,,28,18,Vrouw,Rechts,2,
,dotcolour,dotcolour,xotask,14,0,14,314,training,negativefb,36,average,28,0.5500858999994307,['c'],0,right,['8'],4,0.8594177000004493,,,,,,,,28,18,Vrouw,Rechts,2,
,dotcolour,dotcolour,xotask,15,0,15,315,training,negativefb,75,easy,62,0.7002806000000419,['c'],1,left,['8'],4,0.253944600000068,,,,,,,,28,18,Vrouw,Rechts,2,
,dotcolour,dotcolour,xotask,16,0,16,316,training,negativefb,63,easy,19,0.6499844999998459,['n'],1,right,['0'],6,0.22572930000023916,,,,,,,,28,18,Vrouw,Rechts,2,
,dotcolour,dotcolour,xotask,17,0,17,317,training,negativefb,70,hard,37,1.150590999999622,['n'],1,right,['9'],5,0.2518471999992471,,,,,,,,28,18,Vrouw,Rechts,2,
,dotcolour,dotcolour,xotask,18,0,18,318,training,negativefb,76,hard,41,0.6670733000000837,['c'],1,left,['9'],5,0.2388613000002806,,,,,,,,28,18,Vrouw,Rechts,2,
,dotcolour,dotcolour,xotask,19,0,19,319,training,negativefb,52,average,54,0.3833217000001241,['c'],1,left,['9'],5,0.2702026000006299,,,,,,,,28,18,Vrouw,Rechts,2,
,dotcolour,dotcolour,xotask,20,0,20,320,training,negativefb,71,average,53,2.0173527999995713,['c'],1,left,['9'],5,0.45090650000020105,,,,,,,,28,18,Vrouw,Rechts,2,
,dotcolour,dotcolour,xotask,21,0,21,321,training,negativefb,78,hard,45,0.40058419999968464,['c'],1,left,['9'],5,0.2412774000003992,,,,,,,,28,18,Vrouw,Rechts,2,
,dotcolour,dotcolour,xotask,22,0,22,322,training,negativefb,95,easy,17,0.3844528999998147,['n'],1,right,['9'],5,0.19218819999969128,,,,,,,,28,18,Vrouw,Rechts,2,
,dotcolour,dotcolour,xotask,23,0,23,323,training,negativefb,50,average,27,0.8489422000002378,['n'],1,right,['9'],5,0.2226055000000997,,,,,,,,28,18,Vrouw,Rechts,2,
,dotcolour,dotcolour,xotask,24,0,24,324,training,negativefb,77,hard,37,1.0162798000001203,['n'],1,right,['9'],5,0.19781380000040372,,,,,,,,28,18,Vrouw,Rechts,2,
,dotcolour,dotcolour,xotask,25,0,25,325,training,negativefb,74,hard,45,0.45024789999934,['c'],1,left,['9'],5,0.20363470000029338,,,,,,,,28,18,Vrouw,Rechts,2,
,dotcolour,dotcolour,xotask,26,0,26,326,training,negativefb,78,hard,39,0.5500068000001193,['c'],0,right,['9'],5,0.22966249999990396,,,,,,,,28,18,Vrouw,Rechts,2,
,dotcolour,dotcolour,xotask,27,0,27,327,training,negativefb,41,hard,36,0.8494406999998318,['n'],1,right,['9'],5,0.19504149999920628,,,,,,,,28,18,Vrouw,Rechts,2,
,dotcolour,dotcolour,xotask,28,0,28,328,training,negativefb,53,easy,62,0.6669905999997354,['c'],1,left,['9'],5,0.20853729999998905,,,,,,,,28,18,Vrouw,Rechts,2,
,dotcolour,dotcolour,xotask,29,0,29,329,training,negativefb,38,hard,44,0.5162606000003507,['c'],1,left,['9'],5,0.22037920000002487,,,,,,,,28,18,Vrouw,Rechts,2,
,dotcolour,dotcolour,xotask,30,0,30,330,training,negativefb,49,average,53,0.5497642000000269,['c'],1,left,['9'],5,0.16565259999970294,,,,,,,,28,18,Vrouw,Rechts,2,
,dotcolour,dotcolour,xotask,31,0,31,331,training,negativefb,77,average,54,0.40095880000080797,['c'],1,left,['9'],5,0.16638009999951464,,,,,,,,28,18,Vrouw,Rechts,2,
,dotcolour,dotcolour,xotask,32,0,32,332,training,negativefb,75,average,28,0.8507604999995237,['n'],1,right,['9'],5,0.17454980000002251,,,,,,,,28,18,Vrouw,Rechts,2,
,dotcolour,dotcolour,xotask,33,0,33,333,training,negativefb,71,easy,19,0.43348539999988134,['n'],1,right,['9'],5,0.2137167999999292,,,,,,,,28,18,Vrouw,Rechts,2,
,dotcolour,dotcolour,xotask,34,0,34,334,training,negativefb,71,easy,64,0.6500576999997065,['c'],1,left,['9'],5,0.1714842999999746,,,,,,,,28,18,Vrouw,Rechts,2,
,dotcolour,dotcolour,xotask,35,0,35,335,training,negativefb,54,easy,18,0.5999238999993395,['n'],1,right,['9'],5,0.18949909999992087,,,,,,,,28,18,Vrouw,Rechts,2,
,dotcolour,dotcolour,xotask,36,0,36,336,training,negativefb,26,hard,37,0.8341435000002093,['c'],0,right,['9'],5,0.18803399999978865,,,,,,,,28,18,Vrouw,Rechts,2,
,dotcolour,dotcolour,xotask,37,0,37,337,training,negativefb,64,average,52,0.6164982999998756,['n'],0,left,['9'],5,0.2763422999996692,,,,,,,,28,18,Vrouw,Rechts,2,
,dotcolour,dotcolour,xotask,38,0,38,338,training,negativefb,65,hard,45,0.667551700000331,['c'],1,left,['9'],5,0.22245079999993322,,,,,,,,28,18,Vrouw,Rechts,2,
,dotcolour,dotcolour,xotask,39,0,39,339,training,negativefb,84,average,26,0.5993030999998155,['n'],1,right,['9'],5,0.16649760000018432,,,,,,,,28,18,Vrouw,Rechts,2,
,dotcolour,dotcolour,xotask,40,0,40,340,training,negativefb,39,hard,42,0.7519435000003796,['n'],0,left,['9'],5,0.1856803000000582,,,,,,,,28,18,Vrouw,Rechts,2,
,dotcolour,dotcolour,xotask,41,0,41,341,training,negativefb,65,hard,41,0.6825598999994327,['n'],0,left,['9'],5,0.19898560000001453,,,,,,,,28,18,Vrouw,Rechts,2,
,dotcolour,dotcolour,xotask,42,0,42,342,training,negativefb,95,hard,39,0.33327009999993606,['n'],1,right,['9'],5,0.23354470000049332,,,,,,,,28,18,Vrouw,Rechts,2,
,dotcolour,dotcolour,xotask,43,0,43,343,training,negativefb,54,average,52,0.8161269000001994,['c'],1,left,['9'],5,0.15973269999994955,,,,,,,,28,18,Vrouw,Rechts,2,
,dotcolour,dotcolour,xotask,44,0,44,344,training,negativefb,63,easy,62,0.5497740000000704,['c'],1,left,['9'],5,0.21922270000050048,,,,,,,,28,18,Vrouw,Rechts,2,
,dotcolour,dotcolour,xotask,45,0,45,345,training,negativefb,81,hard,35,0.3321358000002874,['n'],1,right,['9'],5,0.2374837999996089,,,,,,,,28,18,Vrouw,Rechts,2,
,dotcolour,dotcolour,xotask,46,0,46,346,training,negativefb,25,average,52,0.4669373999995514,['c'],1,left,['9'],5,0.24923059999946418,,,,,,,,28,18,Vrouw,Rechts,2,
,dotcolour,dotcolour,xotask,47,0,47,347,training,negativefb,67,easy,61,0.583988500000487,['c'],1,left,['9'],5,0.21590899999955582,,,,,,,,28,18,Vrouw,Rechts,2,
,dotcolour,dotcolour,xotask,48,0,48,348,training,negativefb,83,easy,62,0.4497895000004064,['c'],1,left,['9'],5,0.23003679999965243,,,,,,,,28,18,Vrouw,Rechts,2,
,dotcolour,dotcolour,xotask,49,0,49,349,training,negativefb,81,easy,62,0.43360930000017106,['c'],1,left,['0'],6,0.2602366000000984,,,,,,,,28,18,Vrouw,Rechts,2,
,dotcolour,dotcolour,xotask,50,0,50,350,training,negativefb,66,hard,44,0.3678810000001249,['c'],1,left,['0'],6,0.2348425000000134,,,,,,,,28,18,Vrouw,Rechts,2,
,dotcolour,dotcolour,xotask,51,0,51,351,training,negativefb,42,average,28,0.4669962999996642,['c'],0,right,['0'],6,0.5435494999992443,,,,,,,,28,18,Vrouw,Rechts,2,
,dotcolour,dotcolour,xotask,52,0,52,352,training,negativefb,67,average,54,0.5335275999996156,['c'],1,left,['0'],6,0.23592550000012125,,,,,,,,28,18,Vrouw,Rechts,2,
,dotcolour,dotcolour,xotask,53,0,53,353,training,negativefb,42,hard,45,0.6829863000002661,['c'],1,left,['0'],6,0.1279594999996334,,,,,,,,28,18,Vrouw,Rechts,2,
,dotcolour,dotcolour,xotask,54,0,54,354,training,negativefb,69,hard,38,0.48348450000048615,['c'],0,right,['0'],6,0.1997682999999597,,,,,,,,28,18,Vrouw,Rechts,2,
,dotcolour,dotcolour,xotask,55,0,55,355,training,negativefb,20,easy,15,0.5994573999996646,['c'],0,right,['0'],6,0.6637111000000004,,,,,,,,28,18,Vrouw,Rechts,2,
,dotcolour,dotcolour,xotask,56,0,56,356,training,negativefb,83,easy,19,0.5496014000000287,['n'],1,right,['0'],6,0.24777679999988322,,,,,,,,28,18,Vrouw,Rechts,2,
,dotcolour,dotcolour,xotask,57,0,57,357,training,negativefb,58,average,27,0.7836123999995834,['n'],1,right,['0'],6,0.21410199999991164,,,,,,,,28,18,Vrouw,Rechts,2,
,dotcolour,dotcolour,xotask,58,0,58,358,training,negativefb,54,hard,39,0.8503429000002143,['n'],1,right,['0'],6,0.15595050000047195,,,,,,,,28,18,Vrouw,Rechts,2,
,dotcolour,dotcolour,xotask,59,0,59,359,training,negativefb,48,average,29,0.9837333999994371,['n'],1,right,['9'],5,0.1658583999997063,,,,,,,,28,18,Vrouw,Rechts,2,
,dotcolour,dotcolour,xotask,0,1,60,360,training,negativefb,76,average,53,1.0342618000004222,['c'],1,left,['0'],6,0.15447369999947114,,,,,,,,28,18,Vrouw,Rechts,2,
,dotcolour,dotcolour,xotask,1,1,61,361,training,negativefb,91,easy,64,0.5339384999997492,['c'],1,left,['0'],6,0.19067140000061045,,,,,,,,28,18,Vrouw,Rechts,2,
,dotcolour,dotcolour,xotask,2,1,62,362,training,negativefb,47,hard,39,0.7666467999997622,['c'],0,right,['0'],6,0.2090729999999894,,,,,,,,28,18,Vrouw,Rechts,2,
,dotcolour,dotcolour,xotask,3,1,63,363,training,negativefb,78,easy,63,0.5166441999999734,['c'],1,left,['0'],6,0.30070639999939885,,,,,,,,28,18,Vrouw,Rechts,2,
,dotcolour,dotcolour,xotask,4,1,64,364,training,negativefb,37,average,51,0.6507014999997409,['c'],1,left,['9'],5,0.23884150000048976,,,,,,,,28,18,Vrouw,Rechts,2,
,dotcolour,dotcolour,xotask,5,1,65,365,training,negativefb,28,hard,42,1.2838089999995645,['n'],0,left,['9'],5,0.2102297000001272,,,,,,,,28,18,Vrouw,Rechts,2,
,dotcolour,dotcolour,xotask,6,1,66,366,training,negativefb,65,easy,63,0.6507682999999815,['c'],1,left,['9'],5,0.17624240000077407,,,,,,,,28,18,Vrouw,Rechts,2,
,dotcolour,dotcolour,xotask,7,1,67,367,training,negativefb,59,hard,37,0.9327603000001545,['n'],1,right,['9'],5,0.18747450000046229,,,,,,,,28,18,Vrouw,Rechts,2,
,dotcolour,dotcolour,xotask,8,1,68,368,training,negativefb,10,easy,19,0.84916019999946,['c'],0,right,['9'],5,0.2668925999996645,,,,,,,,28,18,Vrouw,Rechts,2,
,dotcolour,dotcolour,xotask,9,1,69,369,training,negativefb,67,average,54,0.7673387000004368,['c'],1,left,['9'],5,0.2013517999994292,,,,,,,,28,18,Vrouw,Rechts,2,
,dotcolour,dotcolour,xotask,10,1,70,370,training,negativefb,75,hard,41,0.6166800000000876,['c'],1,left,['9'],5,0.18452160000015283,,,,,,,,28,18,Vrouw,Rechts,2,
,dotcolour,dotcolour,xotask,11,1,71,371,training,negativefb,27,average,27,0.8336935999996058,['c'],0,right,['9'],5,0.5121771000003719,,,,,,,,28,18,Vrouw,Rechts,2,
,dotcolour,dotcolour,xotask,12,1,72,372,training,negativefb,31,average,25,0.7166357000005519,['n'],1,right,['9'],5,0.1999069999992571,,,,,,,,28,18,Vrouw,Rechts,2,
,dotcolour,dotcolour,xotask,13,1,73,373,training,negativefb,76,hard,36,0.8336837000006199,['n'],1,right,['9'],5,0.2376453999995647,,,,,,,,28,18,Vrouw,Rechts,2,
,dotcolour,dotcolour,xotask,14,1,74,374,training,negativefb,51,easy,15,0.6832993000007264,['n'],1,right,['9'],5,0.19297759999972186,,,,,,,,28,18,Vrouw,Rechts,2,
,dotcolour,dotcolour,xotask,15,1,75,375,training,negativefb,63,easy,16,0.634664199999861,['n'],1,right,['9'],5,0.1924752000004446,,,,,,,,28,18,Vrouw,Rechts,2,
,dotcolour,dotcolour,xotask,16,1,76,376,training,negativefb,79,easy,62,0.7154864000003727,['c'],1,left,['9'],5,0.19684239999969577,,,,,,,,28,18,Vrouw,Rechts,2,
,dotcolour,dotcolour,xotask,17,1,77,377,training,negativefb,65,hard,41,0.6658269999998083,['c'],1,left,['8'],4,0.23443159999987984,,,,,,,,28,18,Vrouw,Rechts,2,
,dotcolour,dotcolour,xotask,18,1,78,378,training,negativefb,46,easy,65,0.4498015999997733,['c'],1,left,['9'],5,0.2555469999997513,,,,,,,,28,18,Vrouw,Rechts,2,
,dotcolour,dotcolour,xotask,19,1,79,379,training,negativefb,44,average,25,0.6999379999997473,['n'],1,right,['9'],5,0.20865870000034192,,,,,,,,28,18,Vrouw,Rechts,2,
,dotcolour,dotcolour,xotask,20,1,80,380,training,negativefb,35,easy,19,0.6003580000005968,['n'],1,right,['9'],5,0.1929736000001867,,,,,,,,28,18,Vrouw,Rechts,2,
,dotcolour,dotcolour,xotask,21,1,81,381,training,negativefb,90,hard,45,0.6176400999993348,['c'],1,left,['9'],5,0.20139889999973093,,,,,,,,28,18,Vrouw,Rechts,2,
,dotcolour,dotcolour,xotask,22,1,82,382,training,negativefb,51,easy,17,0.6840362000002642,['n'],1,right,['9'],5,0.22170089999963238,,,,,,,,28,18,Vrouw,Rechts,2,
,dotcolour,dotcolour,xotask,23,1,83,383,training,negativefb,78,easy,17,0.5505803000005471,['n'],1,right,['9'],5,0.19945069999994303,,,,,,,,28,18,Vrouw,Rechts,2,
,dotcolour,dotcolour,xotask,24,1,84,384,training,negativefb,38,easy,62,0.6341328999997131,['c'],1,left,['9'],5,0.16549100000065664,,,,,,,,28,18,Vrouw,Rechts,2,
,dotcolour,dotcolour,xotask,25,1,85,385,training,negativefb,81,easy,19,0.5332369999996445,['n'],1,right,['9'],5,0.2334883000003174,,,,,,,,28,18,Vrouw,Rechts,2,
,dotcolour,dotcolour,xotask,26,1,86,386,training,negativefb,54,hard,38,0.7166255000001911,['c'],0,right,['9'],5,0.2436398999998346,,,,,,,,28,18,Vrouw,Rechts,2,
,dotcolour,dotcolour,xotask,27,1,87,387,training,negativefb,58,hard,42,1.0171623000005638,['c'],1,left,['9'],5,0.1623714999996082,,,,,,,,28,18,Vrouw,Rechts,2,
,dotcolour,dotcolour,xotask,28,1,88,388,training,negativefb,65,hard,39,0.7493542999991405,['n'],1,right,['9'],5,0.19033309999940684,,,,,,,,28,18,Vrouw,Rechts,2,
,dotcolour,dotcolour,xotask,29,1,89,389,training,negativefb,71,easy,15,0.6510210000005827,['n'],1,right,['9'],5,0.20477329999994254,,,,,,,,28,18,Vrouw,Rechts,2,
,dotcolour,dotcolour,xotask,30,1,90,390,training,negativefb,84,average,29,0.5334831000000122,['c'],0,right,['9'],5,0.18380249999972875,,,,,,,,28,18,Vrouw,Rechts,2,
,dotcolour,dotcolour,xotask,31,1,91,391,training,negativefb,54,hard,41,0.5836438999995153,['n'],0,left,['9'],5,0.21710299999995186,,,,,,,,28,18,Vrouw,Rechts,2,
,dotcolour,dotcolour,xotask,32,1,92,392,training,negativefb,57,hard,38,0.4492872000000716,['c'],0,right,['9'],5,0.17405049999979383,,,,,,,,28,18,Vrouw,Rechts,2,
,dotcolour,dotcolour,xotask,33,1,93,393,training,negativefb,70,average,52,0.6339545999999245,['c'],1,left,['9'],5,0.19865799999934097,,,,,,,,28,18,Vrouw,Rechts,2,
,dotcolour,dotcolour,xotask,34,1,94,394,training,negativefb,71,average,54,0.349511700000221,['c'],1,left,['9'],5,0.20020219999969413,,,,,,,,28,18,Vrouw,Rechts,2,
,dotcolour,dotcolour,xotask,35,1,95,395,training,negativefb,42,average,54,0.4007480000000214,['c'],1,left,['0'],6,0.14428610000049957,,,,,,,,28,18,Vrouw,Rechts,2,
,dotcolour,dotcolour,xotask,36,1,96,396,training,negativefb,72,easy,62,0.3667464000000109,['c'],1,left,['0'],6,0.18048340000041208,,,,,,,,28,18,Vrouw,Rechts,2,
,dotcolour,dotcolour,xotask,37,1,97,397,training,negativefb,58,hard,36,0.41639279999981227,['c'],0,right,['0'],6,0.2842549999995754,,,,,,,,28,18,Vrouw,Rechts,2,
,dotcolour,dotcolour,xotask,38,1,98,398,training,negativefb,97,easy,65,0.5158651000001555,['c'],1,left,['0'],6,0.34883739999986574,,,,,,,,28,18,Vrouw,Rechts,2,
,dotcolour,dotcolour,xotask,39,1,99,399,training,negativefb,46,hard,38,0.29987460000029387,['c'],0,right,['9'],5,0.22725629999968078,,,,,,,,28,18,Vrouw,Rechts,2,
,dotcolour,dotcolour,xotask,40,1,100,400,training,negativefb,82,average,25,0.5497102999997878,['n'],1,right,['0'],6,0.22829030000048078,,,,,,,,28,18,Vrouw,Rechts,2,
,dotcolour,dotcolour,xotask,41,1,101,401,training,negativefb,18,average,26,0.5669663000007858,['n'],1,right,['9'],5,0.22914490000039223,,,,,,,,28,18,Vrouw,Rechts,2,
,dotcolour,dotcolour,xotask,42,1,102,402,training,negativefb,94,easy,18,0.451600999999755,['n'],1,right,['9'],5,0.2743393999999171,,,,,,,,28,18,Vrouw,Rechts,2,
,dotcolour,dotcolour,xotask,43,1,103,403,training,negativefb,48,average,53,0.6838645999996515,['c'],1,left,['9'],5,0.1717161999995369,,,,,,,,28,18,Vrouw,Rechts,2,
,dotcolour,dotcolour,xotask,44,1,104,404,training,negativefb,87,easy,62,0.7673811999993632,['c'],1,left,['9'],5,0.407399799999439,,,,,,,,28,18,Vrouw,Rechts,2,
,dotcolour,dotcolour,xotask,45,1,105,405,training,negativefb,84,hard,42,0.3496089000000211,['c'],1,left,['9'],5,0.20105030000013357,,,,,,,,28,18,Vrouw,Rechts,2,
,dotcolour,dotcolour,xotask,46,1,106,406,training,negativefb,66,easy,64,0.5495813999996244,['c'],1,left,['9'],5,0.1870160999997097,,,,,,,,28,18,Vrouw,Rechts,2,
,dotcolour,dotcolour,xotask,47,1,107,407,training,negativefb,72,average,28,0.7341247000003932,['n'],1,right,['9'],5,0.17421310000008816,,,,,,,,28,18,Vrouw,Rechts,2,
,dotcolour,dotcolour,xotask,48,1,108,408,training,negativefb,64,average,55,0.5828265000000101,['c'],1,left,['9'],5,0.2088949999997567,,,,,,,,28,18,Vrouw,Rechts,2,
,dotcolour,dotcolour,xotask,49,1,109,409,training,negativefb,69,easy,19,0.5670713999998043,['n'],1,right,['9'],5,0.20183409999935975,,,,,,,,28,18,Vrouw,Rechts,2,
,dotcolour,dotcolour,xotask,50,1,110,410,training,negativefb,75,average,54,0.41749179999987973,['c'],1,left,['9'],5,0.21722870000030525,,,,,,,,28,18,Vrouw,Rechts,2,
,dotcolour,dotcolour,xotask,51,1,111,411,training,negativefb,62,average,29,0.8174802000003183,['n'],1,right,['9'],5,0.17588789999990695,,,,,,,,28,18,Vrouw,Rechts,2,
,dotcolour,dotcolour,xotask,52,1,112,412,training,negativefb,74,hard,43,0.5680413999998564,['c'],1,left,['9'],5,0.16225829999984853,,,,,,,,28,18,Vrouw,Rechts,2,
,dotcolour,dotcolour,xotask,53,1,113,413,training,negativefb,43,hard,38,0.5827759000003425,['c'],0,right,['9'],5,0.10892249999960768,,,,,,,,28,18,Vrouw,Rechts,2,
,dotcolour,dotcolour,xotask,54,1,114,414,training,negativefb,83,average,52,0.6663450999994893,['c'],1,left,['9'],5,0.1822636999995666,,,,,,,,28,18,Vrouw,Rechts,2,
,dotcolour,dotcolour,xotask,55,1,115,415,training,negativefb,34,hard,38,0.5993266999994376,['c'],0,right,['9'],5,0.19927540000026056,,,,,,,,28,18,Vrouw,Rechts,2,
,dotcolour,dotcolour,xotask,56,1,116,416,training,negativefb,45,average,29,0.7667277000000468,['n'],1,right,['9'],5,0.17581350000000384,,,,,,,,28,18,Vrouw,Rechts,2,
,dotcolour,dotcolour,xotask,57,1,117,417,training,negativefb,57,hard,45,0.5008616000004622,['c'],1,left,['9'],5,0.15742880000016157,,,,,,,,28,18,Vrouw,Rechts,2,
,dotcolour,dotcolour,xotask,58,1,118,418,training,negativefb,36,average,29,0.5166921999998522,['c'],0,right,['9'],5,0.15506120000009105,,,,,,,,28,18,Vrouw,Rechts,2,
,dotcolour,dotcolour,xotask,59,1,119,419,training,negativefb,72,hard,44,0.8498013999997056,['c'],1,left,['9'],5,0.17937820000042848,,,,,,,,28,18,Vrouw,Rechts,2,
,dotcolour,dotcolour,xotask,0,2,120,420,main,negativefb,-99,easy,17,0.9844935999999507,['n'],1,right,['0'],6,0.12673009999980422,,,,,,,,28,18,Vrouw,Rechts,2,
,dotcolour,dotcolour,xotask,1,2,121,421,main,negativefb,-99,hard,42,0.6841076000000612,['c'],1,left,['9'],5,0.1910905000004277,,,,,,,,28,18,Vrouw,Rechts,2,
,dotcolour,dotcolour,xotask,2,2,122,422,main,negativefb,-99,easy,18,0.6509690000002593,['n'],1,right,['9'],5,0.2625947999995333,,,,,,,,28,18,Vrouw,Rechts,2,
,dotcolour,dotcolour,xotask,3,2,123,423,main,negativefb,-99,easy,64,0.6512391000005664,['c'],1,left,['9'],5,0.21924209999997402,,,,,,,,28,18,Vrouw,Rechts,2,
,dotcolour,dotcolour,xotask,4,2,124,424,main,negativefb,-99,hard,36,0.7683999000000767,['c'],0,right,['9'],5,0.1648328000001129,,,,,,,,28,18,Vrouw,Rechts,2,
,dotcolour,dotcolour,xotask,5,2,125,425,main,negativefb,-99,easy,18,0.4340220000003683,['c'],0,right,['9'],5,0.30114450000019133,,,,,,,,28,18,Vrouw,Rechts,2,
,dotcolour,dotcolour,xotask,6,2,126,426,main,negativefb,-99,average,52,0.8181923999991341,['c'],1,left,['9'],5,0.12954529999933584,,,,,,,,28,18,Vrouw,Rechts,2,
,dotcolour,dotcolour,xotask,7,2,127,427,main,negativefb,-99,hard,39,0.35016340000038326,['n'],1,right,['9'],5,0.22316659999978583,,,,,,,,28,18,Vrouw,Rechts,2,
,dotcolour,dotcolour,xotask,8,2,128,428,main,negativefb,-99,average,27,0.9170946000003823,['n'],1,right,['9'],5,0.24237390000052983,,,,,,,,28,18,Vrouw,Rechts,2,
,dotcolour,dotcolour,xotask,9,2,129,429,main,negativefb,-99,hard,43,0.7339253000000099,['c'],1,left,['9'],5,0.14839309999933903,,,,,,,,28,18,Vrouw,Rechts,2,
,dotcolour,dotcolour,xotask,10,2,130,430,main,negativefb,-99,hard,43,0.6343627999995078,['c'],1,left,['9'],5,0.25404729999991105,,,,,,,,28,18,Vrouw,Rechts,2,
,dotcolour,dotcolour,xotask,11,2,131,431,main,negativefb,-99,easy,61,0.5509226000003764,['c'],1,left,['9'],5,0.20643919999929494,,,,,,,,28,18,Vrouw,Rechts,2,
,dotcolour,dotcolour,xotask,12,2,132,432,main,negativefb,-99,easy,61,1.2340734000008524,['c'],1,left,['9'],5,0.12583570000060718,,,,,,,,28,18,Vrouw,Rechts,2,
,dotcolour,dotcolour,xotask,13,2,133,433,main,negativefb,-99,average,26,0.8009845999995377,['n'],1,right,['0'],6,0.34547850000035396,,,,,,,,28,18,Vrouw,Rechts,2,
,dotcolour,dotcolour,xotask,14,2,134,434,main,negativefb,-99,easy,65,0.6676255000002129,['c'],1,left,['9'],5,0.194654900000387,,,,,,,,28,18,Vrouw,Rechts,2,
,dotcolour,dotcolour,xotask,15,2,135,435,main,negativefb,-99,hard,38,0.48475240000061603,['n'],1,right,['9'],5,0.2161578000004738,,,,,,,,28,18,Vrouw,Rechts,2,
,dotcolour,dotcolour,xotask,16,2,136,436,main,negativefb,-99,hard,38,0.48362249999991036,['c'],0,right,['9'],5,0.26183579999997164,,,,,,,,28,18,Vrouw,Rechts,2,
,dotcolour,dotcolour,xotask,17,2,137,437,main,negativefb,-99,hard,43,0.5340633000005255,['c'],1,left,['9'],5,0.21464759999980743,,,,,,,,28,18,Vrouw,Rechts,2,
,dotcolour,dotcolour,xotask,18,2,138,438,main,negativefb,-99,hard,37,0.4679705999997168,['c'],0,right,['9'],5,0.21152419999998529,,,,,,,,28,18,Vrouw,Rechts,2,
,dotcolour,dotcolour,xotask,19,2,139,439,main,negativefb,-99,average,27,0.6341370999998617,['n'],1,right,['9'],5,0.2032296999996106,,,,,,,,28,18,Vrouw,Rechts,2,
,dotcolour,dotcolour,xotask,20,2,140,440,main,negativefb,-99,average,55,0.4680088999994041,['c'],1,left,['9'],5,0.2009437999995498,,,,,,,,28,18,Vrouw,Rechts,2,
,dotcolour,dotcolour,xotask,21,2,141,441,main,negativefb,-99,easy,19,0.8513610999998491,['n'],1,right,['9'],5,0.151936499999465,,,,,,,,28,18,Vrouw,Rechts,2,
,dotcolour,dotcolour,xotask,22,2,142,442,main,negativefb,-99,average,54,0.4677910000000338,['c'],1,left,['9'],5,0.3275152000005619,,,,,,,,28,18,Vrouw,Rechts,2,
,dotcolour,dotcolour,xotask,23,2,143,443,main,negativefb,-99,average,26,0.6840534000002663,['n'],1,right,['9'],5,0.16894690000026458,,,,,,,,28,18,Vrouw,Rechts,2,
,dotcolour,dotcolour,xotask,24,2,144,444,main,negativefb,-99,hard,45,0.6843613999999434,['c'],1,left,['0'],6,0.5107404999998835,,,,,,,,28,18,Vrouw,Rechts,2,
,dotcolour,dotcolour,xotask,25,2,145,445,main,negativefb,-99,average,26,0.9174596999991991,['n'],1,right,['9'],5,0.2953201000000263,,,,,,,,28,18,Vrouw,Rechts,2,
,dotcolour,dotcolour,xotask,26,2,146,446,main,negativefb,-99,easy,18,0.7176368000000366,['c'],0,right,['9'],5,0.2397251000002143,,,,,,,,28,18,Vrouw,Rechts,2,
,dotcolour,dotcolour,xotask,27,2,147,447,main,negativefb,-99,average,54,0.6669500000007247,['c'],1,left,['9'],5,0.16463829999975133,,,,,,,,28,18,Vrouw,Rechts,2,
,dotcolour,dotcolour,xotask,28,2,148,448,main,negativefb,-99,hard,45,0.6508962999996584,['c'],1,left,['9'],5,0.18833700000050158,,,,,,,,28,18,Vrouw,Rechts,2,
,dotcolour,dotcolour,xotask,29,2,149,449,main,negativefb,-99,hard,37,0.568321300000207,['c'],0,right,['9'],5,0.1835707000000184,,,,,,,,28,18,Vrouw,Rechts,2,
,dotcolour,dotcolour,xotask,30,2,150,450,main,negativefb,-99,average,28,0.8010856000000786,['n'],1,right,['9'],5,0.2164665000000241,,,,,,,,28,18,Vrouw,Rechts,2,
,dotcolour,dotcolour,xotask,31,2,151,451,main,negativefb,-99,easy,18,0.5177689000001919,['n'],1,right,['9'],5,0.22761409999930038,,,,,,,,28,18,Vrouw,Rechts,2,
,dotcolour,dotcolour,xotask,32,2,152,452,main,negativefb,-99,easy,19,0.5500558000003366,['n'],1,right,['9'],5,0.20584950000011304,,,,,,,,28,18,Vrouw,Rechts,2,
,dotcolour,dotcolour,xotask,33,2,153,453,main,negativefb,-99,average,28,1.0011317999997118,['n'],1,right,['9'],5,0.21452059999955964,,,,,,,,28,18,Vrouw,Rechts,2,
,dotcolour,dotcolour,xotask,34,2,154,454,main,negativefb,-99,easy,17,0.7830739000000904,['n'],1,right,['9'],5,0.19924300000002404,,,,,,,,28,18,Vrouw,Rechts,2,
,dotcolour,dotcolour,xotask,35,2,155,455,main,negativefb,-99,hard,35,1.3012774999997418,['n'],1,right,['9'],5,0.20431660000031115,,,,,,,,28,18,Vrouw,Rechts,2,
,dotcolour,dotcolour,xotask,36,2,156,456,main,negativefb,-99,easy,65,0.7504251000000295,['c'],1,left,['9'],5,0.18282799999997223,,,,,,,,28,18,Vrouw,Rechts,2,
,dotcolour,dotcolour,xotask,37,2,157,457,main,negativefb,-99,easy,16,1.3013510999999198,['n'],1,right,['9'],5,0.14032010000028095,,,,,,,,28,18,Vrouw,Rechts,2,
,dotcolour,dotcolour,xotask,38,2,158,458,main,negativefb,-99,hard,45,0.600785999999971,['c'],1,left,['9'],5,0.1995638999997027,,,,,,,,28,18,Vrouw,Rechts,2,
,dotcolour,dotcolour,xotask,39,2,159,459,main,negativefb,-99,average,54,0.6838318999998592,['c'],1,left,['9'],5,0.18893100000059349,,,,,,,,28,18,Vrouw,Rechts,2,
,dotcolour,dotcolour,xotask,40,2,160,460,main,negativefb,-99,average,54,0.5178267000001142,['c'],1,left,['9'],5,0.1452339999996184,,,,,,,,28,18,Vrouw,Rechts,2,
,dotcolour,dotcolour,xotask,41,2,161,461,main,negativefb,-99,hard,39,0.7336879999993471,['c'],0,right,['9'],5,0.1839335000004212,,,,,,,,28,18,Vrouw,Rechts,2,
,dotcolour,dotcolour,xotask,42,2,162,462,main,negativefb,-99,easy,63,0.7002752000007604,['c'],1,left,['9'],5,0.1967573000001721,,,,,,,,28,18,Vrouw,Rechts,2,
,dotcolour,dotcolour,xotask,43,2,163,463,main,negativefb,-99,average,29,0.8336907000002611,['n'],1,right,['9'],5,0.3168047999997725,,,,,,,,28,18,Vrouw,Rechts,2,
,dotcolour,dotcolour,xotask,44,2,164,464,main,negativefb,-99,easy,61,0.6504367999996248,['c'],1,left,['9'],5,0.1831065000005765,,,,,,,,28,18,Vrouw,Rechts,2,
,dotcolour,dotcolour,xotask,45,2,165,465,main,negativefb,-99,easy,65,0.5509327999998277,['c'],1,left,['9'],5,0.17793669999991835,,,,,,,,28,18,Vrouw,Rechts,2,
,dotcolour,dotcolour,xotask,46,2,166,466,main,negativefb,-99,average,55,0.5341211999993902,['c'],1,left,['9'],5,0.20723519999955897,,,,,,,,28,18,Vrouw,Rechts,2,
,dotcolour,dotcolour,xotask,47,2,167,467,main,negativefb,-99,average,25,0.8842395000001488,['n'],1,right,['9'],5,0.17214160000003176,,,,,,,,28,18,Vrouw,Rechts,2,
,dotcolour,dotcolour,xotask,48,2,168,468,main,negativefb,-99,hard,37,0.867401599999539,['n'],1,right,['9'],5,0.21974700000009761,,,,,,,,28,18,Vrouw,Rechts,2,
,dotcolour,dotcolour,xotask,49,2,169,469,main,negativefb,-99,hard,45,0.8682380999998713,['c'],1,left,['9'],5,1.0408377000003384,,,,,,,,28,18,Vrouw,Rechts,2,
,dotcolour,dotcolour,xotask,50,2,170,470,main,negativefb,-99,easy,64,0.701552399999855,['c'],1,left,['9'],5,0.24377960000038001,,,,,,,,28,18,Vrouw,Rechts,2,
,dotcolour,dotcolour,xotask,51,2,171,471,main,negativefb,-99,average,53,0.6177029999998922,['c'],1,left,['8'],4,0.2508659999994052,,,,,,,,28,18,Vrouw,Rechts,2,
,dotcolour,dotcolour,xotask,52,2,172,472,main,negativefb,-99,hard,38,0.6843177000000651,['c'],0,right,['9'],5,0.19813239999984944,,,,,,,,28,18,Vrouw,Rechts,2,
,dotcolour,dotcolour,xotask,53,2,173,473,main,negativefb,-99,average,27,0.6336731999999756,['n'],1,right,['9'],5,0.22155500000008033,,,,,,,,28,18,Vrouw,Rechts,2,
,dotcolour,dotcolour,xotask,54,2,174,474,main,negativefb,-99,average,51,0.6338251999995919,['c'],1,left,['9'],5,0.20477949999985867,,,,,,,,28,18,Vrouw,Rechts,2,
,dotcolour,dotcolour,xotask,55,2,175,475,main,negativefb,-99,average,54,0.8339102000009007,['c'],1,left,['9'],5,0.17919830000028014,,,,,,,,28,18,Vrouw,Rechts,2,
,dotcolour,dotcolour,xotask,56,2,176,476,main,negativefb,-99,easy,16,0.6512821000005715,['n'],1,right,['9'],5,0.23513790000015433,,,,,,,,28,18,Vrouw,Rechts,2,
,dotcolour,dotcolour,xotask,57,2,177,477,main,negativefb,-99,easy,63,0.6851716000001034,['c'],1,left,['9'],5,0.19999900000038906,,,,,,,,28,18,Vrouw,Rechts,2,
,dotcolour,dotcolour,xotask,58,2,178,478,main,negativefb,-99,hard,42,0.7009092000007513,['c'],1,left,['9'],5,0.20419410000067728,,,,,,,,28,18,Vrouw,Rechts,2,
,dotcolour,dotcolour,xotask,59,2,179,479,main,negativefb,-99,hard,43,0.8676238999996713,['n'],0,left,['9'],5,0.19447589999981574,,,,,,,,28,18,Vrouw,Rechts,2,
,dotcolour,dotcolour,xotask,0,3,180,480,main,negativefb,-99,hard,38,1.367439299999205,['n'],1,right,['0'],6,0.1521856999997908,,,,,,,,28,18,Vrouw,Rechts,2,
,dotcolour,dotcolour,xotask,1,3,181,481,main,negativefb,-99,average,54,1.0006530999999086,['c'],1,left,['9'],5,0.17902919999960432,,,,,,,,28,18,Vrouw,Rechts,2,
,dotcolour,dotcolour,xotask,2,3,182,482,main,negativefb,-99,average,54,0.5677879000004395,['c'],1,left,['9'],5,0.1985371999999188,,,,,,,,28,18,Vrouw,Rechts,2,
,dotcolour,dotcolour,xotask,3,3,183,483,main,negativefb,-99,hard,36,0.46629140000004554,['n'],1,right,['9'],5,0.20389520000026096,,,,,,,,28,18,Vrouw,Rechts,2,
,dotcolour,dotcolour,xotask,4,3,184,484,main,negativefb,-99,average,55,0.783863200000269,['c'],1,left,['9'],5,0.14135620000070048,,,,,,,,28,18,Vrouw,Rechts,2,
,dotcolour,dotcolour,xotask,5,3,185,485,main,negativefb,-99,average,28,0.6503008999998201,['c'],0,right,['9'],5,0.19086440000046423,,,,,,,,28,18,Vrouw,Rechts,2,
,dotcolour,dotcolour,xotask,6,3,186,486,main,negativefb,-99,average,28,0.7179751000003307,['n'],1,right,['9'],5,0.19581660000039847,,,,,,,,28,18,Vrouw,Rechts,2,
,dotcolour,dotcolour,xotask,7,3,187,487,main,negativefb,-99,easy,17,0.7673274999997375,['n'],1,right,['9'],5,0.16649219999999332,,,,,,,,28,18,Vrouw,Rechts,2,
,dotcolour,dotcolour,xotask,8,3,188,488,main,negativefb,-99,hard,39,0.6673657000001185,['c'],0,right,['9'],5,0.1733367000006183,,,,,,,,28,18,Vrouw,Rechts,2,
,dotcolour,dotcolour,xotask,9,3,189,489,main,negativefb,-99,easy,15,0.4672430999999051,['c'],0,right,['9'],5,0.2450804000000062,,,,,,,,28,18,Vrouw,Rechts,2,
,dotcolour,dotcolour,xotask,10,3,190,490,main,negativefb,-99,easy,61,0.7013580999991973,['c'],1,left,['9'],5,0.21600799999941955,,,,,,,,28,18,Vrouw,Rechts,2,
,dotcolour,dotcolour,xotask,11,3,191,491,main,negativefb,-99,average,52,0.6339327000005142,['c'],1,left,['9'],5,0.19852440000067872,,,,,,,,28,18,Vrouw,Rechts,2,
,dotcolour,dotcolour,xotask,12,3,192,492,main,negativefb,-99,average,53,0.35084159999951225,['c'],1,left,['9'],5,0.24926030000005994,,,,,,,,28,18,Vrouw,Rechts,2,
,dotcolour,dotcolour,xotask,13,3,193,493,main,negativefb,-99,hard,44,0.5514286000006905,['c'],1,left,['9'],5,0.21836100000018632,,,,,,,,28,18,Vrouw,Rechts,2,
,dotcolour,dotcolour,xotask,14,3,194,494,main,negativefb,-99,average,29,0.850303599999279,['n'],1,right,['9'],5,0.19997439999951894,,,,,,,,28,18,Vrouw,Rechts,2,
,dotcolour,dotcolour,xotask,15,3,195,495,main,negativefb,-99,hard,43,0.6506630000003497,['c'],1,left,['9'],5,0.17557870000018738,,,,,,,,28,18,Vrouw,Rechts,2,
,dotcolour,dotcolour,xotask,16,3,196,496,main,negativefb,-99,easy,61,0.7012219999996887,['c'],1,left,['9'],5,0.2048623000000589,,,,,,,,28,18,Vrouw,Rechts,2,
,dotcolour,dotcolour,xotask,17,3,197,497,main,negativefb,-99,hard,45,0.45193639999979496,['c'],1,left,['9'],5,0.6592997999996442,,,,,,,,28,18,Vrouw,Rechts,2,
,dotcolour,dotcolour,xotask,18,3,198,498,main,negativefb,-99,hard,39,0.5346427000004041,['c'],0,right,['9'],5,0.09298300000045856,,,,,,,,28,18,Vrouw,Rechts,2,
,dotcolour,dotcolour,xotask,19,3,199,499,main,negativefb,-99,easy,17,0.7676630000005389,['n'],1,right,['9'],5,0.16319579999981215,,,,,,,,28,18,Vrouw,Rechts,2,
,dotcolour,dotcolour,xotask,20,3,200,500,main,negativefb,-99,hard,39,0.7336041999997178,['c'],0,right,['9'],5,0.12887250000039785,,,,,,,,28,18,Vrouw,Rechts,2,
,dotcolour,dotcolour,xotask,21,3,201,501,main,negativefb,-99,hard,41,0.3852852999998504,['c'],1,left,['9'],5,0.22965500000009342,,,,,,,,28,18,Vrouw,Rechts,2,
,dotcolour,dotcolour,xotask,22,3,202,502,main,negativefb,-99,easy,62,0.784216899999592,['c'],1,left,['9'],5,0.1416214000000764,,,,,,,,28,18,Vrouw,Rechts,2,
,dotcolour,dotcolour,xotask,23,3,203,503,main,negativefb,-99,hard,43,0.9178933999992296,['c'],1,left,['9'],5,0.13288039999952161,,,,,,,,28,18,Vrouw,Rechts,2,
,dotcolour,dotcolour,xotask,24,3,204,504,main,negativefb,-99,easy,65,0.5846639000001232,['c'],1,left,['9'],5,0.201214899999286,,,,,,,,28,18,Vrouw,Rechts,2,
,dotcolour,dotcolour,xotask,25,3,205,505,main,negativefb,-99,average,55,0.48483519999990676,['c'],1,left,['9'],5,0.14261859999987792,,,,,,,,28,18,Vrouw,Rechts,2,
,dotcolour,dotcolour,xotask,26,3,206,506,main,negativefb,-99,easy,19,0.8511170000001584,['n'],1,right,['9'],5,0.18409580000025016,,,,,,,,28,18,Vrouw,Rechts,2,
,dotcolour,dotcolour,xotask,27,3,207,507,main,negativefb,-99,average,25,0.6009106999999858,['n'],1,right,['9'],5,0.22491689999969822,,,,,,,,28,18,Vrouw,Rechts,2,
,dotcolour,dotcolour,xotask,28,3,208,508,main,negativefb,-99,average,54,0.8012543000004371,['c'],1,left,['9'],5,0.13683399999990797,,,,,,,,28,18,Vrouw,Rechts,2,
,dotcolour,dotcolour,xotask,29,3,209,509,main,negativefb,-99,easy,62,0.5507649999999558,['c'],1,left,['9'],5,0.21430749999944965,,,,,,,,28,18,Vrouw,Rechts,2,
,dotcolour,dotcolour,xotask,30,3,210,510,main,negativefb,-99,easy,62,0.4001051000004736,['c'],1,left,['9'],5,0.22268950000034238,,,,,,,,28,18,Vrouw,Rechts,2,
,dotcolour,dotcolour,xotask,31,3,211,511,main,negativefb,-99,hard,44,0.38280870000016876,['c'],1,left,['0'],6,0.22296499999993102,,,,,,,,28,18,Vrouw,Rechts,2,
,dotcolour,dotcolour,xotask,32,3,212,512,main,negativefb,-99,average,29,0.7012039999999615,['n'],1,right,['9'],5,0.2107230999999956,,,,,,,,28,18,Vrouw,Rechts,2,
,dotcolour,dotcolour,xotask,33,3,213,513,main,negativefb,-99,easy,63,0.6178537000005235,['c'],1,left,['9'],5,0.17900040000040462,,,,,,,,28,18,Vrouw,Rechts,2,
,dotcolour,dotcolour,xotask,34,3,214,514,main,negativefb,-99,hard,38,0.4344944000004034,['c'],0,right,['9'],5,0.275818099999924,,,,,,,,28,18,Vrouw,Rechts,2,
,dotcolour,dotcolour,xotask,35,3,215,515,main,negativefb,-99,easy,63,0.5185314999998809,['c'],1,left,['9'],5,0.22929819999990286,,,,,,,,28,18,Vrouw,Rechts,2,
,dotcolour,dotcolour,xotask,36,3,216,516,main,negativefb,-99,average,55,0.5680956000005608,['c'],1,left,['9'],5,0.23047630000019126,,,,,,,,28,18,Vrouw,Rechts,2,
,dotcolour,dotcolour,xotask,37,3,217,517,main,negativefb,-99,average,51,0.43386239999927056,['c'],1,left,['9'],5,0.15655969999897934,,,,,,,,28,18,Vrouw,Rechts,2,
,dotcolour,dotcolour,xotask,38,3,218,518,main,negativefb,-99,hard,41,0.4341057000001456,['c'],1,left,['9'],5,0.22254079999947862,,,,,,,,28,18,Vrouw,Rechts,2,
,dotcolour,dotcolour,xotask,39,3,219,519,main,negativefb,-99,average,27,0.6011302000006253,['n'],1,right,['9'],5,0.17450760000065202,,,,,,,,28,18,Vrouw,Rechts,2,
,dotcolour,dotcolour,xotask,40,3,220,520,main,negativefb,-99,average,26,0.7673724000014772,['n'],1,right,['9'],5,0.16988270000001648,,,,,,,,28,18,Vrouw,Rechts,2,
,dotcolour,dotcolour,xotask,41,3,221,521,main,negativefb,-99,easy,19,0.5011667999988276,['n'],1,right,['0'],6,0.40008210000087274,,,,,,,,28,18,Vrouw,Rechts,2,
,dotcolour,dotcolour,xotask,42,3,222,522,main,negativefb,-99,easy,62,0.5845146000010573,['c'],1,left,['9'],5,0.24113299999953597,,,,,,,,28,18,Vrouw,Rechts,2,
,dotcolour,dotcolour,xotask,43,3,223,523,main,negativefb,-99,average,55,0.4015982000000804,['c'],1,left,['9'],5,0.21655169999939972,,,,,,,,28,18,Vrouw,Rechts,2,
,dotcolour,dotcolour,xotask,44,3,224,524,main,negativefb,-99,hard,45,1.0188496999999188,['n'],0,left,['8'],4,0.503920900000594,,,,,,,,28,18,Vrouw,Rechts,2,
,dotcolour,dotcolour,xotask,45,3,225,525,main,negativefb,-99,hard,38,0.8834378999999899,['n'],1,right,['8'],4,0.22508540000126231,,,,,,,,28,18,Vrouw,Rechts,2,
,dotcolour,dotcolour,xotask,46,3,226,526,main,negativefb,-99,easy,15,0.550456299999496,['n'],1,right,['0'],6,0.24287180000101216,,,,,,,,28,18,Vrouw,Rechts,2,
,dotcolour,dotcolour,xotask,47,3,227,527,main,negativefb,-99,hard,36,0.7850968000002467,['n'],1,right,['9'],5,0.2113783999993757,,,,,,,,28,18,Vrouw,Rechts,2,
,dotcolour,dotcolour,xotask,48,3,228,528,main,negativefb,-99,hard,45,0.618156700000327,['n'],0,left,['9'],5,0.23467320000054315,,,,,,,,28,18,Vrouw,Rechts,2,
,dotcolour,dotcolour,xotask,49,3,229,529,main,negativefb,-99,easy,19,0.31692520000069635,['c'],0,right,['9'],5,0.18139929999961169,,,,,,,,28,18,Vrouw,Rechts,2,
,dotcolour,dotcolour,xotask,50,3,230,530,main,negativefb,-99,easy,62,1.0020239999994374,['n'],0,left,['9'],5,0.19132239999999,,,,,,,,28,18,Vrouw,Rechts,2,
,dotcolour,dotcolour,xotask,51,3,231,531,main,negativefb,-99,average,28,1.2835458999998082,['n'],1,right,['9'],5,0.21253550000074029,,,,,,,,28,18,Vrouw,Rechts,2,
,dotcolour,dotcolour,xotask,52,3,232,532,main,negativefb,-99,easy,18,0.65075650000108,['n'],1,right,['9'],5,0.19581839999955264,,,,,,,,28,18,Vrouw,Rechts,2,
,dotcolour,dotcolour,xotask,53,3,233,533,main,negativefb,-99,average,26,0.6002021999993303,['n'],1,right,['9'],5,0.19682939999984228,,,,,,,,28,18,Vrouw,Rechts,2,
,dotcolour,dotcolour,xotask,54,3,234,534,main,negativefb,-99,average,25,0.701376999999411,['n'],1,right,['9'],5,0.23511770000004617,,,,,,,,28,18,Vrouw,Rechts,2,
,dotcolour,dotcolour,xotask,55,3,235,535,main,negativefb,-99,hard,42,0.5005101000006107,['n'],0,left,['9'],5,0.21394650000002002,,,,,,,,28,18,Vrouw,Rechts,2,
,dotcolour,dotcolour,xotask,56,3,236,536,main,negativefb,-99,hard,38,0.700644900000043,['n'],1,right,['9'],5,0.22661189999962517,,,,,,,,28,18,Vrouw,Rechts,2,
,dotcolour,dotcolour,xotask,57,3,237,537,main,negativefb,-99,easy,15,0.45089869999901566,['n'],1,right,['9'],5,0.2245229999989533,,,,,,,,28,18,Vrouw,Rechts,2,
,dotcolour,dotcolour,xotask,58,3,238,538,main,negativefb,-99,hard,37,0.5172167000000627,['n'],1,right,['9'],5,0.32463110000026063,,,,,,,,28,18,Vrouw,Rechts,2,
,dotcolour,dotcolour,xotask,59,3,239,539,main,negativefb,-99,easy,17,0.9011903999999049,['n'],1,right,['9'],5,0.2037097000011272,,,,,,,,28,18,Vrouw,Rechts,2,
,dotcolour,dotcolour,xotask,0,4,240,540,main,negativefb,-99,average,26,0.8342260999997961,['n'],1,right,['9'],5,0.2270929000005708,,,,,,,,28,18,Vrouw,Rechts,2,
,dotcolour,dotcolour,xotask,1,4,241,541,main,negativefb,-99,easy,65,0.6847589999997581,['c'],1,left,['9'],5,0.15179489999900397,,,,,,,,28,18,Vrouw,Rechts,2,
,dotcolour,dotcolour,xotask,2,4,242,542,main,negativefb,-99,average,25,0.5674770000005083,['c'],0,right,['0'],6,0.595598500000051,,,,,,,,28,18,Vrouw,Rechts,2,
,dotcolour,dotcolour,xotask,3,4,243,543,main,negativefb,-99,hard,39,1.4844976000003953,['c'],0,right,['8'],4,0.24177770000096643,,,,,,,,28,18,Vrouw,Rechts,2,
,dotcolour,dotcolour,xotask,4,4,244,544,main,negativefb,-99,easy,19,0.9173880999987887,['n'],1,right,['0'],6,0.3884522000007564,,,,,,,,28,18,Vrouw,Rechts,2,
,dotcolour,dotcolour,xotask,5,4,245,545,main,negativefb,-99,average,26,0.6846728999989864,['n'],1,right,['9'],5,0.17091099999925063,,,,,,,,28,18,Vrouw,Rechts,2,
,dotcolour,dotcolour,xotask,6,4,246,546,main,negativefb,-99,hard,42,0.80004419999932,['n'],0,left,['0'],6,0.1887226999988343,,,,,,,,28,18,Vrouw,Rechts,2,
,dotcolour,dotcolour,xotask,7,4,247,547,main,negativefb,-99,hard,37,0.9502260000008391,['n'],1,right,['9'],5,0.5443546999995306,,,,,,,,28,18,Vrouw,Rechts,2,
,dotcolour,dotcolour,xotask,8,4,248,548,main,negativefb,-99,easy,61,0.6351072999987082,['c'],1,left,['9'],5,0.1701850999997987,,,,,,,,28,18,Vrouw,Rechts,2,
,dotcolour,dotcolour,xotask,9,4,249,549,main,negativefb,-99,hard,45,0.6837827999988804,['c'],1,left,['9'],5,0.17730519999895478,,,,,,,,28,18,Vrouw,Rechts,2,
,dotcolour,dotcolour,xotask,10,4,250,550,main,negativefb,-99,easy,17,0.5837005000012141,['n'],1,right,['8'],4,0.22740460000022722,,,,,,,,28,18,Vrouw,Rechts,2,
,dotcolour,dotcolour,xotask,11,4,251,551,main,negativefb,-99,hard,43,0.9342735999998695,['c'],1,left,['9'],5,0.16619250000076136,,,,,,,,28,18,Vrouw,Rechts,2,
,dotcolour,dotcolour,xotask,12,4,252,552,main,negativefb,-99,average,29,0.5678926000000502,['c'],0,right,['8'],4,1.8970193000004656,,,,,,,,28,18,Vrouw,Rechts,2,
,dotcolour,dotcolour,xotask,13,4,253,553,main,negativefb,-99,average,27,0.6013992999996844,['n'],1,right,['9'],5,0.5666657999991003,,,,,,,,28,18,Vrouw,Rechts,2,
,dotcolour,dotcolour,xotask,14,4,254,554,main,negativefb,-99,easy,15,0.5171506999995472,['n'],1,right,['9'],5,0.23609919999944395,,,,,,,,28,18,Vrouw,Rechts,2,
,dotcolour,dotcolour,xotask,15,4,255,555,main,negativefb,-99,hard,45,0.9020478000002186,['c'],1,left,['8'],4,0.19900669999879028,,,,,,,,28,18,Vrouw,Rechts,2,
,dotcolour,dotcolour,xotask,16,4,256,556,main,negativefb,-99,easy,62,1.0678785000000062,['c'],1,left,['9'],5,0.2848850999998831,,,,,,,,28,18,Vrouw,Rechts,2,
,dotcolour,dotcolour,xotask,17,4,257,557,main,negativefb,-99,hard,41,0.3175074999999197,['n'],0,left,['9'],5,0.2381495999998151,,,,,,,,28,18,Vrouw,Rechts,2,
,dotcolour,dotcolour,xotask,18,4,258,558,main,negativefb,-99,average,54,0.4522980000001553,['c'],1,left,['9'],5,0.2995580000006157,,,,,,,,28,18,Vrouw,Rechts,2,
,dotcolour,dotcolour,xotask,19,4,259,559,main,negativefb,-99,average,53,0.5682355000008101,['c'],1,left,['9'],5,0.3054200000005949,,,,,,,,28,18,Vrouw,Rechts,2,
,dotcolour,dotcolour,xotask,20,4,260,560,main,negativefb,-99,hard,38,0.4013513999998395,['c'],0,right,['9'],5,0.1743903999995382,,,,,,,,28,18,Vrouw,Rechts,2,
,dotcolour,dotcolour,xotask,21,4,261,561,main,negativefb,-99,average,51,0.33423689999835915,['n'],0,left,['9'],5,0.19425009999940812,,,,,,,,28,18,Vrouw,Rechts,2,
,dotcolour,dotcolour,xotask,22,4,262,562,main,negativefb,-99,hard,35,0.7850386999998591,['n'],1,right,['9'],5,0.22067509999942558,,,,,,,,28,18,Vrouw,Rechts,2,
,dotcolour,dotcolour,xotask,23,4,263,563,main,negativefb,-99,hard,35,0.3514597000012145,['n'],1,right,['9'],5,0.15916159999869706,,,,,,,,28,18,Vrouw,Rechts,2,
,dotcolour,dotcolour,xotask,24,4,264,564,main,negativefb,-99,hard,41,0.3004017000002932,['n'],0,left,['9'],5,0.1976546000005328,,,,,,,,28,18,Vrouw,Rechts,2,
,dotcolour,dotcolour,xotask,25,4,265,565,main,negativefb,-99,average,52,0.3509487999999692,['c'],1,left,['9'],5,0.160557000001063,,,,,,,,28,18,Vrouw,Rechts,2,
,dotcolour,dotcolour,xotask,26,4,266,566,main,negativefb,-99,hard,38,0.4838799999997718,['c'],0,right,['9'],5,0.19266640000023472,,,,,,,,28,18,Vrouw,Rechts,2,
,dotcolour,dotcolour,xotask,27,4,267,567,main,negativefb,-99,hard,41,0.45118600000023434,['c'],1,left,['9'],5,0.12690909999946598,,,,,,,,28,18,Vrouw,Rechts,2,
,dotcolour,dotcolour,xotask,28,4,268,568,main,negativefb,-99,hard,39,0.6174441000002844,['c'],0,right,['9'],5,0.3633138000004692,,,,,,,,28,18,Vrouw,Rechts,2,
,dotcolour,dotcolour,xotask,29,4,269,569,main,negativefb,-99,easy,18,0.46730679999927816,['n'],1,right,['9'],5,0.1783091000015702,,,,,,,,28,18,Vrouw,Rechts,2,
,dotcolour,dotcolour,xotask,30,4,270,570,main,negativefb,-99,easy,19,0.4174457999997685,['c'],0,right,['9'],5,0.16453700000056415,,,,,,,,28,18,Vrouw,Rechts,2,
,dotcolour,dotcolour,xotask,31,4,271,571,main,negativefb,-99,easy,62,1.0007002999991528,['c'],1,left,['9'],5,0.23783539999931236,,,,,,,,28,18,Vrouw,Rechts,2,
,dotcolour,dotcolour,xotask,32,4,272,572,main,negativefb,-99,average,51,0.8346725000010338,['c'],1,left,['9'],5,0.22038319999956002,,,,,,,,28,18,Vrouw,Rechts,2,
,dotcolour,dotcolour,xotask,33,4,273,573,main,negativefb,-99,average,28,2.6174320000009175,['c'],0,right,['9'],5,0.1073433000001387,,,,,,,,28,18,Vrouw,Rechts,2,
,dotcolour,dotcolour,xotask,34,4,274,574,main,negativefb,-99,average,28,1.0837773000002926,['n'],1,right,['9'],5,0.16484610000043176,,,,,,,,28,18,Vrouw,Rechts,2,
,dotcolour,dotcolour,xotask,35,4,275,575,main,negativefb,-99,average,51,0.583547099999123,['c'],1,left,['9'],5,0.16712100000040664,,,,,,,,28,18,Vrouw,Rechts,2,
,dotcolour,dotcolour,xotask,36,4,276,576,main,negativefb,-99,easy,19,0.46755230000053416,['c'],0,right,['8'],4,0.8543305000002874,,,,,,,,28,18,Vrouw,Rechts,2,
,dotcolour,dotcolour,xotask,37,4,277,577,main,negativefb,-99,hard,39,1.4018405999995593,['c'],0,right,['9'],5,0.18208960000083607,,,,,,,,28,18,Vrouw,Rechts,2,
,dotcolour,dotcolour,xotask,38,4,278,578,main,negativefb,-99,average,51,0.6841750999992655,['c'],1,left,['9'],5,0.18745280000075581,,,,,,,,28,18,Vrouw,Rechts,2,
,dotcolour,dotcolour,xotask,39,4,279,579,main,negativefb,-99,average,55,0.48520319999988715,['c'],1,left,['9'],5,0.19440779999968072,,,,,,,,28,18,Vrouw,Rechts,2,
,dotcolour,dotcolour,xotask,40,4,280,580,main,negativefb,-99,easy,65,0.518055299999105,['c'],1,left,['9'],5,0.16623880000042845,,,,,,,,28,18,Vrouw,Rechts,2,
,dotcolour,dotcolour,xotask,41,4,281,581,main,negativefb,-99,hard,43,0.3838684000002104,['c'],1,left,['9'],5,0.25631459999931394,,,,,,,,28,18,Vrouw,Rechts,2,
,dotcolour,dotcolour,xotask,42,4,282,582,main,negativefb,-99,average,51,0.3672544000000926,['n'],0,left,['9'],5,0.2010004999992816,,,,,,,,28,18,Vrouw,Rechts,2,
,dotcolour,dotcolour,xotask,43,4,283,583,main,negativefb,-99,average,29,0.3173754999988887,['c'],0,right,['9'],5,0.26883660000021337,,,,,,,,28,18,Vrouw,Rechts,2,
,dotcolour,dotcolour,xotask,44,4,284,584,main,negativefb,-99,easy,19,0.5182256000007328,['n'],1,right,['9'],5,0.2225190000008297,,,,,,,,28,18,Vrouw,Rechts,2,
,dotcolour,dotcolour,xotask,45,4,285,585,main,negativefb,-99,average,29,0.6511680999992677,['n'],1,right,['0'],6,0.356443799999397,,,,,,,,28,18,Vrouw,Rechts,2,
,dotcolour,dotcolour,xotask,46,4,286,586,main,negativefb,-99,easy,18,0.73350869999922,['n'],1,right,['0'],6,0.20949259999906644,,,,,,,,28,18,Vrouw,Rechts,2,
,dotcolour,dotcolour,xotask,47,4,287,587,main,negativefb,-99,easy,61,0.4503820000009,['c'],1,left,['9'],5,0.21671489999971527,,,,,,,,28,18,Vrouw,Rechts,2,
,dotcolour,dotcolour,xotask,48,4,288,588,main,negativefb,-99,easy,63,0.38423820000025444,['c'],1,left,['9'],5,0.16927709999981744,,,,,,,,28,18,Vrouw,Rechts,2,
,dotcolour,dotcolour,xotask,49,4,289,589,main,negativefb,-99,hard,45,0.35145249999914085,['c'],1,left,['0'],6,0.14868269999897166,,,,,,,,28,18,Vrouw,Rechts,2,
,dotcolour,dotcolour,xotask,50,4,290,590,main,negativefb,-99,hard,35,0.4677014999997482,['c'],0,right,['8'],4,0.8049348000004102,,,,,,,,28,18,Vrouw,Rechts,2,
,dotcolour,dotcolour,xotask,51,4,291,591,main,negativefb,-99,hard,38,0.48540649999995367,['c'],0,right,['8'],4,0.18663070000002335,,,,,,,,28,18,Vrouw,Rechts,2,
,dotcolour,dotcolour,xotask,52,4,292,592,main,negativefb,-99,average,25,0.43401040000026114,['c'],0,right,['8'],4,1.0984592999993765,,,,,,,,28,18,Vrouw,Rechts,2,
,dotcolour,dotcolour,xotask,53,4,293,593,main,negativefb,-99,average,52,0.8515250000000378,['c'],1,left,['0'],6,0.7486293000001751,,,,,,,,28,18,Vrouw,Rechts,2,
,dotcolour,dotcolour,xotask,54,4,294,594,main,negativefb,-99,easy,18,0.7008058000010351,['n'],1,right,['9'],5,0.2194830999997066,,,,,,,,28,18,Vrouw,Rechts,2,
,dotcolour,dotcolour,xotask,55,4,295,595,main,negativefb,-99,easy,62,0.5510740999998234,['c'],1,left,['9'],5,0.2051964999991469,,,,,,,,28,18,Vrouw,Rechts,2,
,dotcolour,dotcolour,xotask,56,4,296,596,main,negativefb,-99,easy,61,0.44999259999895,['c'],1,left,['9'],5,0.39643489999980375,,,,,,,,28,18,Vrouw,Rechts,2,
,dotcolour,dotcolour,xotask,57,4,297,597,main,negativefb,-99,hard,42,1.1344251000009535,['c'],1,left,['9'],5,2.1526331000004575,,,,,,,,28,18,Vrouw,Rechts,2,
,dotcolour,dotcolour,xotask,58,4,298,598,main,negativefb,-99,easy,19,0.8838460999995732,['n'],1,right,['9'],5,0.16759230000025127,,,,,,,,28,18,Vrouw,Rechts,2,
,dotcolour,dotcolour,xotask,59,4,299,599,main,negativefb,-99,easy,61,0.5836863000004087,['c'],1,left,['9'],5,0.17819630000121833,,,,,,,,28,18,Vrouw,Rechts,2,
,dotcolour,dotcolour,xotask,0,0,0,600,training,negativefb,52,average,28,0.8510934000005363,['n'],1,right,['9'],5,0.15371930000037537,,,,,,,,28,18,Vrouw,Rechts,2,
,dotcolour,dotcolour,xotask,1,0,1,601,training,negativefb,43,average,51,0.600015699999858,['c'],1,left,['9'],5,0.16393710000011197,,,,,,,,28,18,Vrouw,Rechts,2,
,dotcolour,dotcolour,xotask,2,0,2,602,training,negativefb,23,hard,42,0.2835049999994226,['c'],1,left,['9'],5,0.19438760000048205,,,,,,,,28,18,Vrouw,Rechts,2,
,dotcolour,dotcolour,xotask,3,0,3,603,training,negativefb,35,hard,39,0.33328959999926155,['c'],0,right,['9'],5,0.19737960000020394,,,,,,,,28,18,Vrouw,Rechts,2,
,dotcolour,dotcolour,xotask,4,0,4,604,training,negativefb,94,easy,15,0.6495281000006798,['n'],1,right,['8'],4,0.18829700000060257,,,,,,,,28,18,Vrouw,Rechts,2,
,dotcolour,dotcolour,xotask,5,0,5,605,training,negativefb,83,easy,63,0.5178584000004776,['c'],1,left,['9'],5,0.23963060000096448,,,,,,,,28,18,Vrouw,Rechts,2,
,dotcolour,dotcolour,xotask,6,0,6,606,training,negativefb,62,average,28,0.23303449999912118,['c'],0,right,['9'],5,0.2292527000008704,,,,,,,,28,18,Vrouw,Rechts,2,
,dotcolour,dotcolour,xotask,7,0,7,607,training,negativefb,96,average,54,0.5669570000009116,['c'],1,left,['9'],5,0.21369510000113223,,,,,,,,28,18,Vrouw,Rechts,2,
,dotcolour,dotcolour,xotask,8,0,8,608,training,negativefb,29,average,29,0.4668813999996928,['c'],0,right,['9'],5,0.23469479999948817,,,,,,,,28,18,Vrouw,Rechts,2,
,dotcolour,dotcolour,xotask,9,0,9,609,training,negativefb,44,average,51,0.6335775999996258,['c'],1,left,['8'],4,0.2405817000017123,,,,,,,,28,18,Vrouw,Rechts,2,
,dotcolour,dotcolour,xotask,10,0,10,610,training,negativefb,94,hard,36,0.5162700000000768,['c'],0,right,['9'],5,0.19463809999979276,,,,,,,,28,18,Vrouw,Rechts,2,
,dotcolour,dotcolour,xotask,11,0,11,611,training,negativefb,62,easy,17,0.38435719999870344,['c'],0,right,['9'],5,0.21956409999984317,,,,,,,,28,18,Vrouw,Rechts,2,
,dotcolour,dotcolour,xotask,12,0,12,612,training,negativefb,87,easy,65,0.7333494000013161,['c'],1,left,['9'],5,0.16577089999918826,,,,,,,,28,18,Vrouw,Rechts,2,
,dotcolour,dotcolour,xotask,13,0,13,613,training,negativefb,64,average,51,0.6005196000005526,['c'],1,left,['9'],5,0.1346021000008477,,,,,,,,28,18,Vrouw,Rechts,2,
,dotcolour,dotcolour,xotask,14,0,14,614,training,negativefb,80,average,27,0.5007380000006378,['n'],1,right,['9'],5,0.1419927999995707,,,,,,,,28,18,Vrouw,Rechts,2,
,dotcolour,dotcolour,xotask,15,0,15,615,training,negativefb,39,average,28,0.43382869999913964,['n'],1,right,['9'],5,0.1833264999986568,,,,,,,,28,18,Vrouw,Rechts,2,
,dotcolour,dotcolour,xotask,16,0,16,616,training,negativefb,94,easy,16,0.450570199998765,['n'],1,right,['9'],5,0.18117510000047332,,,,,,,,28,18,Vrouw,Rechts,2,
,dotcolour,dotcolour,xotask,17,0,17,617,training,negativefb,82,hard,35,0.46641920000001846,['n'],1,right,['9'],5,0.22783259999960137,,,,,,,,28,18,Vrouw,Rechts,2,
,dotcolour,dotcolour,xotask,18,0,18,618,training,negativefb,50,hard,37,0.33280590000140364,['n'],1,right,['9'],5,0.1740831999995862,,,,,,,,28,18,Vrouw,Rechts,2,
,dotcolour,dotcolour,xotask,19,0,19,619,training,negativefb,80,average,28,0.3163110000004963,['c'],0,right,['9'],5,0.2026002000002336,,,,,,,,28,18,Vrouw,Rechts,2,
,dotcolour,dotcolour,xotask,20,0,20,620,training,negativefb,86,hard,35,0.33306379999885394,['c'],0,right,['9'],5,0.19726540000010573,,,,,,,,28,18,Vrouw,Rechts,2,
,dotcolour,dotcolour,xotask,21,0,21,621,training,negativefb,32,hard,36,0.34925830000065616,['c'],0,right,['9'],5,0.16722789999948873,,,,,,,,28,18,Vrouw,Rechts,2,
,dotcolour,dotcolour,xotask,22,0,22,622,training,negativefb,64,average,25,0.900608399999328,['n'],1,right,['9'],5,0.1570811000001413,,,,,,,,28,18,Vrouw,Rechts,2,
,dotcolour,dotcolour,xotask,23,0,23,623,training,negativefb,74,hard,41,0.6332316000007268,['n'],0,left,['9'],5,0.19007260000034876,,,,,,,,28,18,Vrouw,Rechts,2,
,dotcolour,dotcolour,xotask,24,0,24,624,training,negativefb,58,easy,62,0.4664924000007886,['c'],1,left,['9'],5,0.15559089999987918,,,,,,,,28,18,Vrouw,Rechts,2,
,dotcolour,dotcolour,xotask,25,0,25,625,training,negativefb,48,average,27,0.3686539999998786,['c'],0,right,['0'],6,0.24749119999978575,,,,,,,,28,18,Vrouw,Rechts,2,
,dotcolour,dotcolour,xotask,26,0,26,626,training,negativefb,74,hard,43,0.6326623000004474,['c'],1,left,['9'],5,0.24467059999915364,,,,,,,,28,18,Vrouw,Rechts,2,
,dotcolour,dotcolour,xotask,27,0,27,627,training,negativefb,76,average,55,0.6331981000002997,['c'],1,left,['9'],5,0.1615877999993245,,,,,,,,28,18,Vrouw,Rechts,2,
