starttime,task,fbtask,firsttask,withinblocktrial,block,withintasktrial,trial,running,feedback,fbscore,difflevel,n_xes,rt,resp,cor,cresp,conf_press,cj,RTconf,reddots,stoptime,sub,age,gender,handedness,session,
1715070661,xotask,xotask,dotcolour,0,0,0,0,training,negativefb,92,easy,70,3.7009456000000682,['c'],1,left,['3'],3,2.661306100000047,,,27,18,Vrouw,Rechts,1,
,xotask,xotask,dotcolour,1,0,1,1,training,negativefb,4,average,63,1.8682395999999244,['n'],0,left,['3'],3,2.3745409999999083,,,27,18,Vrouw,Rechts,1,
,xotask,xotask,dotcolour,2,0,2,2,training,negativefb,59,hard,53,1.866084199999932,['c'],1,left,['8'],4,1.8452978000000257,,,27,18,Vrouw,Rechts,1,
,xotask,xotask,dotcolour,3,0,3,3,training,negativefb,66,average,16,1.3004433999999492,['n'],1,right,['8'],4,0.9751524999999219,,,27,18,Vrouw,Rechts,1,
,xotask,xotask,dotcolour,4,0,4,4,training,negativefb,98,easy,6,0.899769600000127,['n'],1,right,['9'],5,0.8040117999998984,,,27,18,Vrouw,Rechts,1,
,xotask,xotask,dotcolour,5,0,5,5,training,negativefb,71,hard,51,2.2832068000000163,['c'],1,left,['8'],4,0.5839574999999968,,,27,18,Vrouw,Rechts,1,
,xotask,xotask,dotcolour,6,0,6,6,training,negativefb,71,hard,53,2.166492699999935,['c'],1,left,['3'],3,0.5063652000001184,,,27,18,Vrouw,Rechts,1,
,xotask,xotask,dotcolour,7,0,7,7,training,negativefb,88,easy,5,1.2168503000000328,['n'],1,right,['9'],5,0.990594000000101,,,27,18,Vrouw,Rechts,1,
,xotask,xotask,dotcolour,8,0,8,8,training,negativefb,99,easy,70,1.067308099999991,['c'],1,left,['0'],6,1.4031666999999288,,,27,18,Vrouw,Rechts,1,
,xotask,xotask,dotcolour,9,0,9,9,training,negativefb,78,easy,74,1.7015827999998692,['c'],1,left,['9'],5,0.44667170000002443,,,27,18,Vrouw,Rechts,1,
,xotask,xotask,dotcolour,10,0,10,10,training,negativefb,98,average,64,2.617249799999854,['c'],1,left,['8'],4,1.3257782000000589,,,27,18,Vrouw,Rechts,1,
,xotask,xotask,dotcolour,11,0,11,11,training,negativefb,86,average,62,2.183741300000065,['c'],1,left,['3'],3,0.4480105000000094,,,27,18,Vrouw,Rechts,1,
,xotask,xotask,dotcolour,12,0,12,12,training,negativefb,28,hard,29,2.4331378999997924,['c'],0,right,['8'],4,0.5577634999999646,,,27,18,Vrouw,Rechts,1,
,xotask,xotask,dotcolour,13,0,13,13,training,negativefb,54,hard,54,2.2170092999999724,['c'],1,left,['8'],4,0.7427116000001206,,,27,18,Vrouw,Rechts,1,
,xotask,xotask,dotcolour,14,0,14,14,training,negativefb,87,easy,73,1.0821960999999192,['c'],1,left,['0'],6,0.6063740999998117,,,27,18,Vrouw,Rechts,1,
,xotask,xotask,dotcolour,15,0,15,15,training,negativefb,45,average,62,1.3680225000000519,['c'],1,left,['9'],5,0.6399290000001656,,,27,18,Vrouw,Rechts,1,
,xotask,xotask,dotcolour,16,0,16,16,training,negativefb,55,hard,26,0.650454899999886,['n'],1,right,['0'],6,1.004367000000002,,,27,18,Vrouw,Rechts,1,
,xotask,xotask,dotcolour,17,0,17,17,training,negativefb,64,average,18,0.7658301999999821,['n'],1,right,['9'],5,0.6296260999999959,,,27,18,Vrouw,Rechts,1,
,xotask,xotask,dotcolour,18,0,18,18,training,negativefb,92,easy,5,1.0004301999999825,['n'],1,right,['0'],6,0.4766097000001537,,,27,18,Vrouw,Rechts,1,
,xotask,xotask,dotcolour,19,0,19,19,training,negativefb,52,average,62,1.1322770000001583,['c'],1,left,['8'],4,0.5411325000000033,,,27,18,Vrouw,Rechts,1,
,xotask,xotask,dotcolour,20,0,20,20,training,negativefb,96,easy,5,0.9000111999998808,['n'],1,right,['0'],6,0.651869300000044,,,27,18,Vrouw,Rechts,1,
,xotask,xotask,dotcolour,21,0,21,21,training,negativefb,85,hard,51,0.950173599999971,['c'],1,left,['9'],5,0.44380580000006375,,,27,18,Vrouw,Rechts,1,
,xotask,xotask,dotcolour,22,0,22,22,training,negativefb,82,average,16,1.0162734999998975,['n'],1,right,['8'],4,0.6581982000000153,,,27,18,Vrouw,Rechts,1,
,xotask,xotask,dotcolour,23,0,23,23,training,negativefb,21,hard,27,0.9006532000000789,['c'],0,right,['8'],4,0.4758303999999498,,,27,18,Vrouw,Rechts,1,
,xotask,xotask,dotcolour,24,0,24,24,training,negativefb,80,easy,70,0.9008732999998301,['c'],1,left,['0'],6,0.6925279000001865,,,27,18,Vrouw,Rechts,1,
,xotask,xotask,dotcolour,25,0,25,25,training,negativefb,82,average,16,0.9324649000000136,['n'],1,right,['9'],5,0.6524645999998029,,,27,18,Vrouw,Rechts,1,
,xotask,xotask,dotcolour,26,0,26,26,training,negativefb,41,hard,53,0.8337945000000673,['c'],1,left,['9'],5,0.4092458000000079,,,27,18,Vrouw,Rechts,1,
,xotask,xotask,dotcolour,27,0,27,27,training,negativefb,84,hard,50,1.350041800000099,['c'],1,left,['8'],4,0.5152708999999049,,,27,18,Vrouw,Rechts,1,
,xotask,xotask,dotcolour,28,0,28,28,training,negativefb,67,average,19,1.0008610999998382,['n'],1,right,['8'],4,0.5903296000001319,,,27,18,Vrouw,Rechts,1,
,xotask,xotask,dotcolour,29,0,29,29,training,negativefb,51,average,63,0.9834406999998464,['c'],1,left,['9'],5,0.5922977999998693,,,27,18,Vrouw,Rechts,1,
,xotask,xotask,dotcolour,30,0,30,30,training,negativefb,73,average,60,0.8337020000001303,['c'],1,left,['8'],4,0.39100150000012945,,,27,18,Vrouw,Rechts,1,
,xotask,xotask,dotcolour,31,0,31,31,training,negativefb,33,average,63,1.2997873000001618,['c'],1,left,['0'],6,0.6675238000000263,,,27,18,Vrouw,Rechts,1,
,xotask,xotask,dotcolour,32,0,32,32,training,negativefb,51,hard,27,1.6832792000000154,['n'],1,right,['8'],4,0.3737811999999394,,,27,18,Vrouw,Rechts,1,
,xotask,xotask,dotcolour,33,0,33,33,training,negativefb,88,easy,74,1.3497984999999062,['c'],1,left,['0'],6,0.8492235000001074,,,27,18,Vrouw,Rechts,1,
,xotask,xotask,dotcolour,34,0,34,34,training,negativefb,60,hard,51,1.1342865999999958,['c'],1,left,['8'],4,0.38561729999992167,,,27,18,Vrouw,Rechts,1,
,xotask,xotask,dotcolour,35,0,35,35,training,negativefb,25,hard,51,1.2348254000000907,['c'],1,left,['8'],4,1.185403899999983,,,27,18,Vrouw,Rechts,1,
,xotask,xotask,dotcolour,36,0,36,36,training,negativefb,89,easy,7,1.9999814000000242,['n'],1,right,['0'],6,0.7858832999997958,,,27,18,Vrouw,Rechts,1,
,xotask,xotask,dotcolour,37,0,37,37,training,negativefb,9,hard,29,1.1173613999999361,['n'],1,right,['8'],4,0.3489385000000311,,,27,18,Vrouw,Rechts,1,
,xotask,xotask,dotcolour,38,0,38,38,training,negativefb,58,easy,9,1.6156823999999688,['n'],1,right,['9'],5,0.9740451000000121,,,27,18,Vrouw,Rechts,1,
,xotask,xotask,dotcolour,39,0,39,39,training,negativefb,72,hard,28,1.7169541999999183,['n'],1,right,['9'],5,0.3556818999998086,,,27,18,Vrouw,Rechts,1,
,xotask,xotask,dotcolour,40,0,40,40,training,negativefb,31,average,18,1.0665195999999924,['n'],1,right,['8'],4,0.35520520000000033,,,27,18,Vrouw,Rechts,1,
,xotask,xotask,dotcolour,41,0,41,41,training,negativefb,85,easy,6,0.7674455000001217,['n'],1,right,['0'],6,0.453379699999914,,,27,18,Vrouw,Rechts,1,
,xotask,xotask,dotcolour,42,0,42,42,training,negativefb,90,easy,73,0.6332973000000948,['c'],1,left,['0'],6,0.5391022999999677,,,27,18,Vrouw,Rechts,1,
,xotask,xotask,dotcolour,43,0,43,43,training,negativefb,82,easy,72,1.1338619000000563,['c'],1,left,['9'],5,0.4563897000000452,,,27,18,Vrouw,Rechts,1,
,xotask,xotask,dotcolour,44,0,44,44,training,negativefb,68,average,19,0.7003299999998944,['n'],1,right,['9'],5,0.7223589000000175,,,27,18,Vrouw,Rechts,1,
,xotask,xotask,dotcolour,45,0,45,45,training,negativefb,77,average,15,0.8333893000001353,['n'],1,right,['0'],6,0.37245849999999336,,,27,18,Vrouw,Rechts,1,
,xotask,xotask,dotcolour,46,0,46,46,training,negativefb,95,easy,72,0.8173759000001155,['c'],1,left,['0'],6,0.48502029999986007,,,27,18,Vrouw,Rechts,1,
,xotask,xotask,dotcolour,47,0,47,47,training,negativefb,42,hard,51,1.832968899999969,['c'],1,left,['0'],6,0.36860619999993105,,,27,18,Vrouw,Rechts,1,
,xotask,xotask,dotcolour,48,0,48,48,training,negativefb,94,average,63,1.1002505999999812,['c'],1,left,['8'],4,0.5415214000001924,,,27,18,Vrouw,Rechts,1,
,xotask,xotask,dotcolour,49,0,49,49,training,negativefb,56,hard,29,0.9172253000001547,['n'],1,right,['9'],5,0.4198065000000497,,,27,18,Vrouw,Rechts,1,
,xotask,xotask,dotcolour,50,0,50,50,training,negativefb,20,easy,9,0.7852603999999701,['n'],1,right,['0'],6,0.2922688000001017,,,27,18,Vrouw,Rechts,1,
,xotask,xotask,dotcolour,51,0,51,51,training,negativefb,61,hard,29,1.733713699999953,['n'],1,right,['8'],4,0.35573619999991024,,,27,18,Vrouw,Rechts,1,
,xotask,xotask,dotcolour,52,0,52,52,training,negativefb,47,hard,28,1.1838608999998996,['n'],1,right,['9'],5,0.49320250000005217,,,27,18,Vrouw,Rechts,1,
,xotask,xotask,dotcolour,53,0,53,53,training,negativefb,85,average,18,0.8995747000001302,['n'],1,right,['0'],6,0.5027308999999605,,,27,18,Vrouw,Rechts,1,
,xotask,xotask,dotcolour,54,0,54,54,training,negativefb,33,easy,7,0.7009935000000951,['n'],1,right,['0'],6,0.3986026000000038,,,27,18,Vrouw,Rechts,1,
,xotask,xotask,dotcolour,55,0,55,55,training,negativefb,51,hard,28,1.7343531999999868,['n'],1,right,['8'],4,0.33749809999994795,,,27,18,Vrouw,Rechts,1,
,xotask,xotask,dotcolour,56,0,56,56,training,negativefb,92,average,16,0.7506178000001,['n'],1,right,['9'],5,0.3980953000000227,,,27,18,Vrouw,Rechts,1,
,xotask,xotask,dotcolour,57,0,57,57,training,negativefb,70,easy,70,0.5670168999999987,['c'],1,left,['0'],6,0.45599939999988237,,,27,18,Vrouw,Rechts,1,
,xotask,xotask,dotcolour,58,0,58,58,training,negativefb,76,easy,7,0.8004825999998957,['n'],1,right,['0'],6,0.43012580000004164,,,27,18,Vrouw,Rechts,1,
,xotask,xotask,dotcolour,59,0,59,59,training,negativefb,62,average,63,0.8678330999998707,['c'],1,left,['0'],6,0.4267786000000342,,,27,18,Vrouw,Rechts,1,
,xotask,xotask,dotcolour,0,1,60,60,training,negativefb,77,average,61,0.8493836000000101,['c'],1,left,['0'],6,0.7388608999999633,,,27,18,Vrouw,Rechts,1,
,xotask,xotask,dotcolour,1,1,61,61,training,negativefb,98,hard,25,0.6671519000001354,['n'],1,right,['8'],4,0.4824745000000803,,,27,18,Vrouw,Rechts,1,
,xotask,xotask,dotcolour,2,1,62,62,training,negativefb,82,easy,73,0.6673625000000811,['c'],1,left,['0'],6,0.3408689999998842,,,27,18,Vrouw,Rechts,1,
,xotask,xotask,dotcolour,3,1,63,63,training,negativefb,83,average,15,0.9844561999998405,['n'],1,right,['9'],5,0.8481067000000166,,,27,18,Vrouw,Rechts,1,
,xotask,xotask,dotcolour,4,1,64,64,training,negativefb,74,easy,73,0.9995980999999574,['c'],1,left,['0'],6,0.3094902999998794,,,27,18,Vrouw,Rechts,1,
,xotask,xotask,dotcolour,5,1,65,65,training,negativefb,76,easy,73,0.7344054000000142,['c'],1,left,['0'],6,0.31699989999992795,,,27,18,Vrouw,Rechts,1,
,xotask,xotask,dotcolour,6,1,66,66,training,negativefb,77,easy,72,0.6666905000001861,['c'],1,left,['0'],6,0.3420347999999649,,,27,18,Vrouw,Rechts,1,
,xotask,xotask,dotcolour,7,1,67,67,training,negativefb,96,easy,9,0.5331552000000102,['n'],1,right,['0'],6,0.4588880000001154,,,27,18,Vrouw,Rechts,1,
,xotask,xotask,dotcolour,8,1,68,68,training,negativefb,3,easy,71,0.5668490999998994,['n'],0,left,['1'],1,1.6981872000001204,,,27,18,Vrouw,Rechts,1,
,xotask,xotask,dotcolour,9,1,69,69,training,negativefb,89,hard,54,0.9675053999999363,['c'],1,left,['9'],5,1.055201899999929,,,27,18,Vrouw,Rechts,1,
,xotask,xotask,dotcolour,10,1,70,70,training,negativefb,73,hard,27,1.1663853000000017,['n'],1,right,['9'],5,0.5505889999999454,,,27,18,Vrouw,Rechts,1,
,xotask,xotask,dotcolour,11,1,71,71,training,negativefb,77,easy,71,0.8831718000001274,['c'],1,left,['0'],6,0.3328762999999526,,,27,18,Vrouw,Rechts,1,
,xotask,xotask,dotcolour,12,1,72,72,training,negativefb,33,hard,50,1.0499911000001703,['c'],1,left,['0'],6,0.357215799999949,,,27,18,Vrouw,Rechts,1,
,xotask,xotask,dotcolour,13,1,73,73,training,negativefb,64,hard,26,0.8663931999999477,['n'],1,right,['9'],5,0.4927867999999762,,,27,18,Vrouw,Rechts,1,
,xotask,xotask,dotcolour,14,1,74,74,training,negativefb,44,average,17,1.0499211999999716,['n'],1,right,['0'],6,0.42407719999982874,,,27,18,Vrouw,Rechts,1,
,xotask,xotask,dotcolour,15,1,75,75,training,negativefb,77,average,17,1.400310200000149,['c'],0,right,['8'],4,0.382577000000083,,,27,18,Vrouw,Rechts,1,
,xotask,xotask,dotcolour,16,1,76,76,training,negativefb,89,easy,71,0.9339176999999381,['c'],1,left,['0'],6,0.7382241000000249,,,27,18,Vrouw,Rechts,1,
,xotask,xotask,dotcolour,17,1,77,77,training,negativefb,60,hard,51,1.033789200000001,['c'],1,left,['8'],4,0.5071794000000409,,,27,18,Vrouw,Rechts,1,
,xotask,xotask,dotcolour,18,1,78,78,training,negativefb,78,easy,70,0.7005722999999762,['c'],1,left,['0'],6,0.2914505999999619,,,27,18,Vrouw,Rechts,1,
,xotask,xotask,dotcolour,19,1,79,79,training,negativefb,32,easy,71,0.5496767999998156,['c'],1,left,['0'],6,0.33841430000006767,,,27,18,Vrouw,Rechts,1,
,xotask,xotask,dotcolour,20,1,80,80,training,negativefb,93,average,61,0.8171695999999429,['c'],1,left,['9'],5,0.44368020000001707,,,27,18,Vrouw,Rechts,1,
,xotask,xotask,dotcolour,21,1,81,81,training,negativefb,47,hard,52,0.8005998000001,['c'],1,left,['8'],4,0.4673953999999867,,,27,18,Vrouw,Rechts,1,
,xotask,xotask,dotcolour,22,1,82,82,training,negativefb,58,average,62,0.8518986999999925,['c'],1,left,['8'],4,0.39857009999991533,,,27,18,Vrouw,Rechts,1,
,xotask,xotask,dotcolour,23,1,83,83,training,negativefb,94,easy,5,0.6337910999998257,['n'],1,right,['0'],6,0.5491987000000336,,,27,18,Vrouw,Rechts,1,
,xotask,xotask,dotcolour,24,1,84,84,training,negativefb,79,average,63,0.7837862999999743,['c'],1,left,['9'],5,0.6151128999999855,,,27,18,Vrouw,Rechts,1,
,xotask,xotask,dotcolour,25,1,85,85,training,negativefb,90,average,62,0.81692309999994,['c'],1,left,['9'],5,0.41493549999995594,,,27,18,Vrouw,Rechts,1,
,xotask,xotask,dotcolour,26,1,86,86,training,negativefb,62,hard,52,1.3833169999998063,['c'],1,left,['8'],4,0.6943467000000965,,,27,18,Vrouw,Rechts,1,
,xotask,xotask,dotcolour,27,1,87,87,training,negativefb,31,hard,25,1.6665067999999792,['c'],0,right,['3'],3,1.3767654999999195,,,27,18,Vrouw,Rechts,1,
,xotask,xotask,dotcolour,28,1,88,88,training,negativefb,54,hard,29,1.5003527000001213,['n'],1,right,['8'],4,0.42865340000003016,,,27,18,Vrouw,Rechts,1,
,xotask,xotask,dotcolour,29,1,89,89,training,negativefb,80,hard,52,0.9324914000001172,['c'],1,left,['8'],4,0.9188110000000052,,,27,18,Vrouw,Rechts,1,
,xotask,xotask,dotcolour,30,1,90,90,training,negativefb,47,hard,53,1.1493514000001142,['c'],1,left,['8'],4,0.3798338999999942,,,27,18,Vrouw,Rechts,1,
,xotask,xotask,dotcolour,31,1,91,91,training,negativefb,70,average,19,0.7157961999998861,['n'],1,right,['9'],5,0.6496179000000666,,,27,18,Vrouw,Rechts,1,
,xotask,xotask,dotcolour,32,1,92,92,training,negativefb,36,average,60,1.6329674999999497,['n'],0,left,['8'],4,0.5413805000000593,,,27,18,Vrouw,Rechts,1,
,xotask,xotask,dotcolour,33,1,93,93,training,negativefb,78,easy,6,0.8325728999998319,['n'],1,right,['0'],6,0.4065576999998939,,,27,18,Vrouw,Rechts,1,
,xotask,xotask,dotcolour,34,1,94,94,training,negativefb,62,easy,8,0.6669438999999784,['n'],1,right,['0'],6,0.38910580000015216,,,27,18,Vrouw,Rechts,1,
,xotask,xotask,dotcolour,35,1,95,95,training,negativefb,61,average,17,0.9169409999999516,['n'],1,right,['9'],5,1.3934183000001212,,,27,18,Vrouw,Rechts,1,
,xotask,xotask,dotcolour,36,1,96,96,training,negativefb,73,hard,50,1.4665683999999146,['c'],1,left,['8'],4,0.6534379999998237,,,27,18,Vrouw,Rechts,1,
,xotask,xotask,dotcolour,37,1,97,97,training,negativefb,90,average,17,0.7664925000001404,['n'],1,right,['0'],6,0.37348880000013196,,,27,18,Vrouw,Rechts,1,
,xotask,xotask,dotcolour,38,1,98,98,training,negativefb,92,easy,9,0.6668213999998898,['n'],1,right,['9'],5,0.47617779999995946,,,27,18,Vrouw,Rechts,1,
,xotask,xotask,dotcolour,39,1,99,99,training,negativefb,96,average,62,0.8334525000000212,['c'],1,left,['9'],5,0.5680463000001055,,,27,18,Vrouw,Rechts,1,
,xotask,xotask,dotcolour,40,1,100,100,training,negativefb,88,easy,9,0.6825721000000158,['n'],1,right,['9'],5,0.42206660000010743,,,27,18,Vrouw,Rechts,1,
,xotask,xotask,dotcolour,41,1,101,101,training,negativefb,14,hard,26,1.0666833000000224,['c'],0,right,['8'],4,0.6746631000000889,,,27,18,Vrouw,Rechts,1,
,xotask,xotask,dotcolour,42,1,102,102,training,negativefb,80,average,15,1.0002062000000933,['n'],1,right,['9'],5,0.5836462999998275,,,27,18,Vrouw,Rechts,1,
,xotask,xotask,dotcolour,43,1,103,103,training,negativefb,35,hard,29,0.9501887999999781,['n'],1,right,['9'],5,0.4671963999999207,,,27,18,Vrouw,Rechts,1,
,xotask,xotask,dotcolour,44,1,104,104,training,negativefb,68,hard,25,0.9665035000000444,['n'],1,right,['8'],4,0.44143830000007256,,,27,18,Vrouw,Rechts,1,
,xotask,xotask,dotcolour,45,1,105,105,training,negativefb,95,average,63,0.7998353999998926,['c'],1,left,['9'],5,0.6717963000000964,,,27,18,Vrouw,Rechts,1,
,xotask,xotask,dotcolour,46,1,106,106,training,negativefb,18,hard,27,1.5667567000000417,['c'],0,right,['8'],4,0.35930999999982305,,,27,18,Vrouw,Rechts,1,
,xotask,xotask,dotcolour,47,1,107,107,training,negativefb,68,hard,51,1.7665655000000697,['c'],1,left,['8'],4,0.4422503000000688,,,27,18,Vrouw,Rechts,1,
,xotask,xotask,dotcolour,48,1,108,108,training,negativefb,76,average,62,0.8167553000002954,['c'],1,left,['8'],4,0.42393170000013924,,,27,18,Vrouw,Rechts,1,
,xotask,xotask,dotcolour,49,1,109,109,training,negativefb,60,average,62,0.9002745000002506,['c'],1,left,['9'],5,0.3875089000002845,,,27,18,Vrouw,Rechts,1,
,xotask,xotask,dotcolour,50,1,110,110,training,negativefb,53,easy,5,0.9002038999997239,['n'],1,right,['0'],6,0.6160777000000053,,,27,18,Vrouw,Rechts,1,
,xotask,xotask,dotcolour,51,1,111,111,training,negativefb,54,hard,54,1.4163650999998936,['c'],1,left,['9'],5,0.5990016000000651,,,27,18,Vrouw,Rechts,1,
,xotask,xotask,dotcolour,52,1,112,112,training,negativefb,91,easy,5,0.6332948999997825,['n'],1,right,['9'],5,0.6454481000000669,,,27,18,Vrouw,Rechts,1,
,xotask,xotask,dotcolour,53,1,113,113,training,negativefb,43,hard,28,0.9666281999998318,['n'],1,right,['9'],5,0.6062322000002496,,,27,18,Vrouw,Rechts,1,
,xotask,xotask,dotcolour,54,1,114,114,training,negativefb,73,average,16,1.267560400000093,['n'],1,right,['9'],5,0.5712745000000723,,,27,18,Vrouw,Rechts,1,
,xotask,xotask,dotcolour,55,1,115,115,training,negativefb,96,easy,8,0.7006115999997746,['n'],1,right,['0'],6,0.4882673000001887,,,27,18,Vrouw,Rechts,1,
,xotask,xotask,dotcolour,56,1,116,116,training,negativefb,37,average,15,0.6674299000001156,['n'],1,right,['9'],5,0.5462618000001385,,,27,18,Vrouw,Rechts,1,
,xotask,xotask,dotcolour,57,1,117,117,training,negativefb,92,easy,71,1.7007437000002028,['c'],1,left,['9'],5,1.0095243000000664,,,27,18,Vrouw,Rechts,1,
,xotask,xotask,dotcolour,58,1,118,118,training,negativefb,44,average,16,0.8838022999998429,['n'],1,right,['9'],5,0.46188130000018646,,,27,18,Vrouw,Rechts,1,
,xotask,xotask,dotcolour,59,1,119,119,training,negativefb,53,easy,6,1.0503429000000324,['n'],1,right,['9'],5,0.4257944999999381,,,27,18,Vrouw,Rechts,1,
,dotcolour,xotask,dotcolour,0,2,120,120,main,negativefb,-99,hard,,1.133917499999825,['n'],1,right,['9'],5,1.0388198999999076,35,,27,18,Vrouw,Rechts,1,
,dotcolour,xotask,dotcolour,1,2,121,121,main,negativefb,-99,easy,,0.7011013000001185,['n'],1,right,['9'],5,0.49130909999985306,19,,27,18,Vrouw,Rechts,1,
,dotcolour,xotask,dotcolour,2,2,122,122,main,negativefb,-99,average,,0.45083279999971637,['c'],1,left,['9'],5,0.7820897000001423,52,,27,18,Vrouw,Rechts,1,
,dotcolour,xotask,dotcolour,3,2,123,123,main,negativefb,-99,hard,,0.6504802999997992,['n'],1,right,['9'],5,0.4212023999998564,35,,27,18,Vrouw,Rechts,1,
,dotcolour,xotask,dotcolour,4,2,124,124,main,negativefb,-99,hard,,0.7172315000002527,['c'],0,right,['9'],5,0.40079759999980524,38,,27,18,Vrouw,Rechts,1,
,dotcolour,xotask,dotcolour,5,2,125,125,main,negativefb,-99,average,,0.8684856999998374,['c'],1,left,['9'],5,0.4076144000000568,52,,27,18,Vrouw,Rechts,1,
,dotcolour,xotask,dotcolour,6,2,126,126,main,negativefb,-99,average,,0.6839503000001059,['c'],1,left,['9'],5,0.3724395999997796,52,,27,18,Vrouw,Rechts,1,
,dotcolour,xotask,dotcolour,7,2,127,127,main,negativefb,-99,easy,,1.1682620000001407,['n'],1,right,['9'],5,0.5033332999996674,17,,27,18,Vrouw,Rechts,1,
,dotcolour,xotask,dotcolour,8,2,128,128,main,negativefb,-99,hard,,1.0835213000000294,['n'],0,left,['9'],5,0.4568906999998035,43,,27,18,Vrouw,Rechts,1,
,dotcolour,xotask,dotcolour,9,2,129,129,main,negativefb,-99,hard,,1.5343602000002647,['n'],0,left,['8'],4,0.4342458999999508,45,,27,18,Vrouw,Rechts,1,
,dotcolour,xotask,dotcolour,10,2,130,130,main,negativefb,-99,easy,,0.7340282000000116,['c'],1,left,['0'],6,0.4760065000000395,63,,27,18,Vrouw,Rechts,1,
,dotcolour,xotask,dotcolour,11,2,131,131,main,negativefb,-99,easy,,0.9675656999997955,['n'],1,right,['0'],6,0.3634812999998758,15,,27,18,Vrouw,Rechts,1,
,dotcolour,xotask,dotcolour,12,2,132,132,main,negativefb,-99,hard,,0.9842241999999715,['c'],1,left,['0'],6,0.3347897000003286,45,,27,18,Vrouw,Rechts,1,
,dotcolour,xotask,dotcolour,13,2,133,133,main,negativefb,-99,average,,0.9343647999999121,['n'],1,right,['0'],6,0.388741399999617,28,,27,18,Vrouw,Rechts,1,
,dotcolour,xotask,dotcolour,14,2,134,134,main,negativefb,-99,average,,0.8836273000001711,['c'],1,left,['9'],5,0.6266292000000249,55,,27,18,Vrouw,Rechts,1,
,dotcolour,xotask,dotcolour,15,2,135,135,main,negativefb,-99,easy,,0.9676011000001381,['c'],1,left,['0'],6,0.38825779999979204,62,,27,18,Vrouw,Rechts,1,
,dotcolour,xotask,dotcolour,16,2,136,136,main,negativefb,-99,easy,,1.3166304000001219,['n'],1,right,['0'],6,0.7368579999997564,17,,27,18,Vrouw,Rechts,1,
,dotcolour,xotask,dotcolour,17,2,137,137,main,negativefb,-99,hard,,1.034605400000146,['n'],1,right,['9'],5,0.418998399999964,36,,27,18,Vrouw,Rechts,1,
,dotcolour,xotask,dotcolour,18,2,138,138,main,negativefb,-99,easy,,1.0848071000000346,['n'],1,right,['9'],5,0.4714942999999039,19,,27,18,Vrouw,Rechts,1,
,dotcolour,xotask,dotcolour,19,2,139,139,main,negativefb,-99,average,,1.0010058000002573,['n'],0,left,['3'],3,1.2778769000001375,55,,27,18,Vrouw,Rechts,1,
,dotcolour,xotask,dotcolour,20,2,140,140,main,negativefb,-99,easy,,0.8179454000000987,['c'],1,left,['9'],5,0.48313939999979993,65,,27,18,Vrouw,Rechts,1,
,dotcolour,xotask,dotcolour,21,2,141,141,main,negativefb,-99,easy,,1.134133500000189,['n'],1,right,['0'],6,0.6275101999999606,18,,27,18,Vrouw,Rechts,1,
,dotcolour,xotask,dotcolour,22,2,142,142,main,negativefb,-99,average,,0.868612100000064,['c'],1,left,['8'],4,1.0323742000000493,51,,27,18,Vrouw,Rechts,1,
,dotcolour,xotask,dotcolour,23,2,143,143,main,negativefb,-99,hard,,1.0508700999998837,['n'],1,right,['9'],5,0.4692104000000654,35,,27,18,Vrouw,Rechts,1,
,dotcolour,xotask,dotcolour,24,2,144,144,main,negativefb,-99,hard,,1.3842085000001134,['n'],1,right,['8'],4,0.3165426999998999,37,,27,18,Vrouw,Rechts,1,
,dotcolour,xotask,dotcolour,25,2,145,145,main,negativefb,-99,easy,,0.817544700000326,['c'],1,left,['9'],5,0.5114534999997886,63,,27,18,Vrouw,Rechts,1,
,dotcolour,xotask,dotcolour,26,2,146,146,main,negativefb,-99,easy,,0.8176662000000761,['c'],1,left,['9'],5,0.38755040000023655,64,,27,18,Vrouw,Rechts,1,
,dotcolour,xotask,dotcolour,27,2,147,147,main,negativefb,-99,average,,0.9839128999997229,['c'],1,left,['9'],5,0.5417477999999392,51,,27,18,Vrouw,Rechts,1,
,dotcolour,xotask,dotcolour,28,2,148,148,main,negativefb,-99,hard,,0.8345861000002515,['c'],1,left,['9'],5,0.39178839999976844,43,,27,18,Vrouw,Rechts,1,
,dotcolour,xotask,dotcolour,29,2,149,149,main,negativefb,-99,average,,0.7838557999998557,['n'],1,right,['9'],5,0.4495495999999548,25,,27,18,Vrouw,Rechts,1,
,dotcolour,xotask,dotcolour,30,2,150,150,main,negativefb,-99,average,,0.6680747000000338,['c'],1,left,['9'],5,0.46150489999990896,54,,27,18,Vrouw,Rechts,1,
,dotcolour,xotask,dotcolour,31,2,151,151,main,negativefb,-99,hard,,0.8348541000000296,['c'],1,left,['9'],5,0.5069100000000617,43,,27,18,Vrouw,Rechts,1,
,dotcolour,xotask,dotcolour,32,2,152,152,main,negativefb,-99,easy,,0.9005342000000383,['c'],1,left,['9'],5,0.4434308999998393,65,,27,18,Vrouw,Rechts,1,
,dotcolour,xotask,dotcolour,33,2,153,153,main,negativefb,-99,hard,,1.4514887000000272,['n'],1,right,['8'],4,0.5215640999999778,39,,27,18,Vrouw,Rechts,1,
,dotcolour,xotask,dotcolour,34,2,154,154,main,negativefb,-99,average,,1.101220099999864,['n'],1,right,['8'],4,0.44133160000001226,28,,27,18,Vrouw,Rechts,1,
,dotcolour,xotask,dotcolour,35,2,155,155,main,negativefb,-99,average,,0.7510865000003832,['n'],1,right,['9'],5,0.3865866000001006,26,,27,18,Vrouw,Rechts,1,
,dotcolour,xotask,dotcolour,36,2,156,156,main,negativefb,-99,average,,0.78451750000022,['n'],1,right,['9'],5,0.5007759000000078,28,,27,18,Vrouw,Rechts,1,
,dotcolour,xotask,dotcolour,37,2,157,157,main,negativefb,-99,hard,,0.9164369000000079,['n'],1,right,['9'],5,0.4689752999997836,35,,27,18,Vrouw,Rechts,1,
,dotcolour,xotask,dotcolour,38,2,158,158,main,negativefb,-99,average,,0.9181664000002456,['n'],1,right,['9'],5,0.3504424000002473,27,,27,18,Vrouw,Rechts,1,
,dotcolour,xotask,dotcolour,39,2,159,159,main,negativefb,-99,average,,1.2496710999998868,['n'],1,right,['8'],4,0.4071296000001894,28,,27,18,Vrouw,Rechts,1,
,dotcolour,xotask,dotcolour,40,2,160,160,main,negativefb,-99,easy,,0.7514783999999963,['n'],1,right,['9'],5,0.3380399999996371,15,,27,18,Vrouw,Rechts,1,
,dotcolour,xotask,dotcolour,41,2,161,161,main,negativefb,-99,hard,,1.1009678999998869,['c'],1,left,['9'],5,0.7442112999997335,43,,27,18,Vrouw,Rechts,1,
,dotcolour,xotask,dotcolour,42,2,162,162,main,negativefb,-99,hard,,1.3671551000002182,['c'],0,right,['8'],4,0.3093880999999783,36,,27,18,Vrouw,Rechts,1,
,dotcolour,xotask,dotcolour,43,2,163,163,main,negativefb,-99,hard,,1.2344422999999551,['n'],0,left,['9'],5,0.6571257000000514,41,,27,18,Vrouw,Rechts,1,
,dotcolour,xotask,dotcolour,44,2,164,164,main,negativefb,-99,easy,,0.833658099999866,['n'],1,right,['9'],5,0.43831930000033026,16,,27,18,Vrouw,Rechts,1,
,dotcolour,xotask,dotcolour,45,2,165,165,main,negativefb,-99,easy,,0.700386299999991,['c'],1,left,['0'],6,0.6417440999998689,64,,27,18,Vrouw,Rechts,1,
,dotcolour,xotask,dotcolour,46,2,166,166,main,negativefb,-99,easy,,0.9846791999998459,['n'],1,right,['9'],5,1.4810982999997577,15,,27,18,Vrouw,Rechts,1,
,dotcolour,xotask,dotcolour,47,2,167,167,main,negativefb,-99,average,,0.8001153999998678,['n'],1,right,['9'],5,0.4551275000003443,29,,27,18,Vrouw,Rechts,1,
,dotcolour,xotask,dotcolour,48,2,168,168,main,negativefb,-99,hard,,1.8006615000003876,['n'],0,left,['8'],4,0.565840599999774,45,,27,18,Vrouw,Rechts,1,
,dotcolour,xotask,dotcolour,49,2,169,169,main,negativefb,-99,easy,,0.8179949000000306,['c'],1,left,['9'],5,0.9107356999998046,62,,27,18,Vrouw,Rechts,1,
,dotcolour,xotask,dotcolour,50,2,170,170,main,negativefb,-99,easy,,2.2842466000001878,['n'],0,left,['8'],4,0.5679683000003024,65,,27,18,Vrouw,Rechts,1,
,dotcolour,xotask,dotcolour,51,2,171,171,main,negativefb,-99,average,,0.7340475999999398,['c'],1,left,['9'],5,0.4447132000000238,52,,27,18,Vrouw,Rechts,1,
,dotcolour,xotask,dotcolour,52,2,172,172,main,negativefb,-99,hard,,1.0682723999998416,['n'],1,right,['8'],4,0.44928440000012415,37,,27,18,Vrouw,Rechts,1,
,dotcolour,xotask,dotcolour,53,2,173,173,main,negativefb,-99,hard,,1.7845725000001949,['n'],0,left,['8'],4,0.297002600000269,41,,27,18,Vrouw,Rechts,1,
,dotcolour,xotask,dotcolour,54,2,174,174,main,negativefb,-99,easy,,0.8509454000000005,['c'],1,left,['9'],5,0.403748799999903,62,,27,18,Vrouw,Rechts,1,
,dotcolour,xotask,dotcolour,55,2,175,175,main,negativefb,-99,hard,,1.1675020999996377,['c'],1,left,['8'],4,0.2618376000000353,45,,27,18,Vrouw,Rechts,1,
,dotcolour,xotask,dotcolour,56,2,176,176,main,negativefb,-99,easy,,0.9005400000000918,['n'],1,right,['9'],5,0.5134014999998726,19,,27,18,Vrouw,Rechts,1,
,dotcolour,xotask,dotcolour,57,2,177,177,main,negativefb,-99,average,,1.2666806000001998,['c'],1,left,['8'],4,1.0987998999999036,51,,27,18,Vrouw,Rechts,1,
,dotcolour,xotask,dotcolour,58,2,178,178,main,negativefb,-99,average,,1.41759890000003,['n'],1,right,['9'],5,0.607224099999712,26,,27,18,Vrouw,Rechts,1,
,dotcolour,xotask,dotcolour,59,2,179,179,main,negativefb,-99,average,,0.9502380999997513,['n'],1,right,['9'],5,0.3380071000001408,27,,27,18,Vrouw,Rechts,1,
,dotcolour,xotask,dotcolour,0,3,180,180,main,negativefb,-99,easy,,0.6841884999998911,['c'],1,left,['9'],5,0.6577454999996917,65,,27,18,Vrouw,Rechts,1,
,dotcolour,xotask,dotcolour,1,3,181,181,main,negativefb,-99,easy,,0.6345307000001412,['c'],1,left,['0'],6,0.6796011999999791,61,,27,18,Vrouw,Rechts,1,
,dotcolour,xotask,dotcolour,2,3,182,182,main,negativefb,-99,average,,0.8170368999999482,['n'],1,right,['9'],5,0.9730688000004193,27,,27,18,Vrouw,Rechts,1,
,dotcolour,xotask,dotcolour,3,3,183,183,main,negativefb,-99,easy,,0.7838317999999163,['n'],1,right,['9'],5,0.39156279999997423,18,,27,18,Vrouw,Rechts,1,
,dotcolour,xotask,dotcolour,4,3,184,184,main,negativefb,-99,hard,,1.5831669999997757,['c'],1,left,['8'],4,0.38513220000004367,43,,27,18,Vrouw,Rechts,1,
,dotcolour,xotask,dotcolour,5,3,185,185,main,negativefb,-99,hard,,0.9837088999997832,['n'],1,right,['9'],5,0.49131249999982174,35,,27,18,Vrouw,Rechts,1,
,dotcolour,xotask,dotcolour,6,3,186,186,main,negativefb,-99,average,,0.9342595999996774,['n'],1,right,['0'],6,0.2747509999999238,25,,27,18,Vrouw,Rechts,1,
,dotcolour,xotask,dotcolour,7,3,187,187,main,negativefb,-99,hard,,1.1840271999999459,['c'],1,left,['8'],4,0.3213329000000158,43,,27,18,Vrouw,Rechts,1,
,dotcolour,xotask,dotcolour,8,3,188,188,main,negativefb,-99,easy,,0.8346000000001368,['n'],1,right,['9'],5,0.7570780999999442,18,,27,18,Vrouw,Rechts,1,
,dotcolour,xotask,dotcolour,9,3,189,189,main,negativefb,-99,average,,1.401379100000213,['c'],1,left,['8'],4,0.3832879999999932,55,,27,18,Vrouw,Rechts,1,
,dotcolour,xotask,dotcolour,10,3,190,190,main,negativefb,-99,hard,,1.2843143999998574,['c'],1,left,['9'],5,0.47718710000026476,45,,27,18,Vrouw,Rechts,1,
,dotcolour,xotask,dotcolour,11,3,191,191,main,negativefb,-99,easy,,0.7508324000000357,['n'],1,right,['9'],5,0.973265199999787,16,,27,18,Vrouw,Rechts,1,
,dotcolour,xotask,dotcolour,12,3,192,192,main,negativefb,-99,hard,,1.1670294999998987,['n'],1,right,['9'],5,0.5442224999997052,36,,27,18,Vrouw,Rechts,1,
,dotcolour,xotask,dotcolour,13,3,193,193,main,negativefb,-99,average,,1.3014382000001206,['n'],1,right,['0'],6,0.9839139999999134,27,,27,18,Vrouw,Rechts,1,
,dotcolour,xotask,dotcolour,14,3,194,194,main,negativefb,-99,average,,0.9003468999999313,['n'],1,right,['0'],6,0.4374214999998003,28,,27,18,Vrouw,Rechts,1,
,dotcolour,xotask,dotcolour,15,3,195,195,main,negativefb,-99,average,,0.8838885000000118,['n'],1,right,['0'],6,0.4334733000000597,26,,27,18,Vrouw,Rechts,1,
,dotcolour,xotask,dotcolour,16,3,196,196,main,negativefb,-99,hard,,1.5510935000002064,['c'],1,left,['8'],4,0.4667733000001135,42,,27,18,Vrouw,Rechts,1,
,dotcolour,xotask,dotcolour,17,3,197,197,main,negativefb,-99,easy,,1.0178452999998626,['n'],1,right,['0'],6,0.4477561999997306,17,,27,18,Vrouw,Rechts,1,
,dotcolour,xotask,dotcolour,18,3,198,198,main,negativefb,-99,average,,1.5845868999999766,['c'],1,left,['8'],4,0.4794752000002518,55,,27,18,Vrouw,Rechts,1,
,dotcolour,xotask,dotcolour,19,3,199,199,main,negativefb,-99,easy,,0.7851067999999941,['c'],1,left,['0'],6,0.3739986000000499,65,,27,18,Vrouw,Rechts,1,
,dotcolour,xotask,dotcolour,20,3,200,200,main,negativefb,-99,average,,0.751518699999906,['c'],1,left,['9'],5,0.37862159999986034,54,,27,18,Vrouw,Rechts,1,
,dotcolour,xotask,dotcolour,21,3,201,201,main,negativefb,-99,easy,,0.8509080999997423,['n'],1,right,['0'],6,0.410747899999933,17,,27,18,Vrouw,Rechts,1,
,dotcolour,xotask,dotcolour,22,3,202,202,main,negativefb,-99,hard,,1.700803399999586,['c'],0,right,['8'],4,0.6144160999997439,38,,27,18,Vrouw,Rechts,1,
,dotcolour,xotask,dotcolour,23,3,203,203,main,negativefb,-99,hard,,1.151391600000352,['n'],0,left,['8'],4,0.6167577000001074,42,,27,18,Vrouw,Rechts,1,
,dotcolour,xotask,dotcolour,24,3,204,204,main,negativefb,-99,average,,1.9005178999996133,['c'],1,left,['8'],4,1.1734098000001723,54,,27,18,Vrouw,Rechts,1,
,dotcolour,xotask,dotcolour,25,3,205,205,main,negativefb,-99,hard,,1.5670273000000634,['c'],1,left,['8'],4,0.3518546000000242,45,,27,18,Vrouw,Rechts,1,
,dotcolour,xotask,dotcolour,26,3,206,206,main,negativefb,-99,average,,0.7997438000002148,['n'],1,right,['9'],5,0.4434369999999035,29,,27,18,Vrouw,Rechts,1,
,dotcolour,xotask,dotcolour,27,3,207,207,main,negativefb,-99,easy,,0.7671596999998656,['c'],1,left,['9'],5,0.42842789999986053,61,,27,18,Vrouw,Rechts,1,
,dotcolour,xotask,dotcolour,28,3,208,208,main,negativefb,-99,hard,,1.1506967999998778,['n'],1,right,['9'],5,0.55833900000016,36,,27,18,Vrouw,Rechts,1,
,dotcolour,xotask,dotcolour,29,3,209,209,main,negativefb,-99,easy,,0.8675913000001856,['n'],1,right,['9'],5,0.4770986999997149,18,,27,18,Vrouw,Rechts,1,
,dotcolour,xotask,dotcolour,30,3,210,210,main,negativefb,-99,easy,,0.7338867999997092,['c'],1,left,['9'],5,1.4471229000000676,63,,27,18,Vrouw,Rechts,1,
,dotcolour,xotask,dotcolour,31,3,211,211,main,negativefb,-99,average,,1.2341922999999042,['c'],1,left,['8'],4,1.02092360000006,52,,27,18,Vrouw,Rechts,1,
,dotcolour,xotask,dotcolour,32,3,212,212,main,negativefb,-99,easy,,0.8846773999998732,['n'],1,right,['0'],6,0.48933860000033746,16,,27,18,Vrouw,Rechts,1,
,dotcolour,xotask,dotcolour,33,3,213,213,main,negativefb,-99,average,,2.1848782000001847,['c'],0,right,['8'],4,0.4151317000000745,27,,27,18,Vrouw,Rechts,1,
,dotcolour,xotask,dotcolour,34,3,214,214,main,negativefb,-99,hard,,1.4672025999998368,['n'],0,left,['8'],4,0.3324182999999721,44,,27,18,Vrouw,Rechts,1,
,dotcolour,xotask,dotcolour,35,3,215,215,main,negativefb,-99,hard,,1.201019599999654,['n'],1,right,['9'],5,0.4960144000001492,38,,27,18,Vrouw,Rechts,1,
,dotcolour,xotask,dotcolour,36,3,216,216,main,negativefb,-99,easy,,1.2001165000001492,['n'],1,right,['0'],6,0.47748179999962304,19,,27,18,Vrouw,Rechts,1,
,dotcolour,xotask,dotcolour,37,3,217,217,main,negativefb,-99,hard,,1.3344500000002881,['n'],1,right,['9'],5,0.9102133000001231,36,,27,18,Vrouw,Rechts,1,
,dotcolour,xotask,dotcolour,38,3,218,218,main,negativefb,-99,average,,0.8187086000002637,['n'],1,right,['9'],5,0.3772735000002285,26,,27,18,Vrouw,Rechts,1,
,dotcolour,xotask,dotcolour,39,3,219,219,main,negativefb,-99,easy,,0.7506718999998157,['c'],1,left,['0'],6,0.38197390000004816,65,,27,18,Vrouw,Rechts,1,
,dotcolour,xotask,dotcolour,40,3,220,220,main,negativefb,-99,easy,,1.8836873999998716,['c'],1,left,['0'],6,0.443392600000152,64,,27,18,Vrouw,Rechts,1,
,dotcolour,xotask,dotcolour,41,3,221,221,main,negativefb,-99,average,,0.9672381000000314,['c'],1,left,['9'],5,0.6682363999998415,52,,27,18,Vrouw,Rechts,1,
,dotcolour,xotask,dotcolour,42,3,222,222,main,negativefb,-99,hard,,1.5175446999996893,['c'],1,left,['8'],4,0.5897718999999597,45,,27,18,Vrouw,Rechts,1,
,dotcolour,xotask,dotcolour,43,3,223,223,main,negativefb,-99,hard,,0.950205200000255,['n'],1,right,['9'],5,0.7285106999997879,36,,27,18,Vrouw,Rechts,1,
,dotcolour,xotask,dotcolour,44,3,224,224,main,negativefb,-99,average,,0.8512586000001647,['n'],1,right,['9'],5,0.4431678999999349,27,,27,18,Vrouw,Rechts,1,
,dotcolour,xotask,dotcolour,45,3,225,225,main,negativefb,-99,hard,,1.7170266999996784,['n'],0,left,['8'],4,0.3498154999997496,41,,27,18,Vrouw,Rechts,1,
,dotcolour,xotask,dotcolour,46,3,226,226,main,negativefb,-99,hard,,1.0843343999999888,['n'],1,right,['8'],4,0.4693115999998554,39,,27,18,Vrouw,Rechts,1,
,dotcolour,xotask,dotcolour,47,3,227,227,main,negativefb,-99,easy,,1.0180976000001465,['c'],1,left,['9'],5,0.55478549999998,62,,27,18,Vrouw,Rechts,1,
,dotcolour,xotask,dotcolour,48,3,228,228,main,negativefb,-99,hard,,1.4004782000001796,['n'],1,right,['8'],4,0.3735045000003083,38,,27,18,Vrouw,Rechts,1,
,dotcolour,xotask,dotcolour,49,3,229,229,main,negativefb,-99,average,,0.96724230000018,['c'],1,left,['0'],6,0.6243150000000242,52,,27,18,Vrouw,Rechts,1,
,dotcolour,xotask,dotcolour,50,3,230,230,main,negativefb,-99,average,,2.6674204999999347,['c'],1,left,['8'],4,0.5983240999998998,52,,27,18,Vrouw,Rechts,1,
,dotcolour,xotask,dotcolour,51,3,231,231,main,negativefb,-99,average,,1.4336418000002595,['n'],0,left,['8'],4,0.5173135999998522,52,,27,18,Vrouw,Rechts,1,
,dotcolour,xotask,dotcolour,52,3,232,232,main,negativefb,-99,hard,,0.8846462000001338,['n'],1,right,['9'],5,0.39845860000014,36,,27,18,Vrouw,Rechts,1,
,dotcolour,xotask,dotcolour,53,3,233,233,main,negativefb,-99,easy,,0.9338585000000421,['n'],1,right,['0'],6,0.36118190000024697,19,,27,18,Vrouw,Rechts,1,
,dotcolour,xotask,dotcolour,54,3,234,234,main,negativefb,-99,average,,1.1843791999999667,['c'],1,left,['9'],5,0.4611807000001136,55,,27,18,Vrouw,Rechts,1,
,dotcolour,xotask,dotcolour,55,3,235,235,main,negativefb,-99,hard,,1.668547100000069,['c'],1,left,['8'],4,0.6490442999997867,44,,27,18,Vrouw,Rechts,1,
,dotcolour,xotask,dotcolour,56,3,236,236,main,negativefb,-99,average,,1.8338320000002568,['n'],1,right,['8'],4,0.982240499999989,26,,27,18,Vrouw,Rechts,1,
,dotcolour,xotask,dotcolour,57,3,237,237,main,negativefb,-99,easy,,1.1670203000003312,['n'],1,right,['9'],5,0.4650821000000178,15,,27,18,Vrouw,Rechts,1,
,dotcolour,xotask,dotcolour,58,3,238,238,main,negativefb,-99,easy,,0.9504027000002679,['c'],1,left,['0'],6,1.112228800000139,63,,27,18,Vrouw,Rechts,1,
,dotcolour,xotask,dotcolour,59,3,239,239,main,negativefb,-99,easy,,0.800891099999717,['c'],1,left,['0'],6,0.44535670000004757,61,,27,18,Vrouw,Rechts,1,
,dotcolour,xotask,dotcolour,0,4,240,240,main,negativefb,-99,average,,0.7177279999996244,['c'],1,left,['9'],5,0.9684938999998849,55,,27,18,Vrouw,Rechts,1,
,dotcolour,xotask,dotcolour,1,4,241,241,main,negativefb,-99,hard,,1.2006592999996428,['n'],1,right,['8'],4,0.627085900000111,38,,27,18,Vrouw,Rechts,1,
,dotcolour,xotask,dotcolour,2,4,242,242,main,negativefb,-99,hard,,1.1838441999998395,['c'],1,left,['9'],5,0.5882633999999598,43,,27,18,Vrouw,Rechts,1,
,dotcolour,xotask,dotcolour,3,4,243,243,main,negativefb,-99,hard,,1.1352984999998625,['c'],1,left,['9'],5,1.319918400000006,43,,27,18,Vrouw,Rechts,1,
,dotcolour,xotask,dotcolour,4,4,244,244,main,negativefb,-99,easy,,0.8344079000003148,['n'],1,right,['0'],6,0.6499213000001873,17,,27,18,Vrouw,Rechts,1,
,dotcolour,xotask,dotcolour,5,4,245,245,main,negativefb,-99,easy,,1.0187730000002375,['c'],1,left,['0'],6,0.6159145999999964,64,,27,18,Vrouw,Rechts,1,
,dotcolour,xotask,dotcolour,6,4,246,246,main,negativefb,-99,easy,,0.8516475999999784,['c'],1,left,['0'],6,0.4306636000001163,65,,27,18,Vrouw,Rechts,1,
,dotcolour,xotask,dotcolour,7,4,247,247,main,negativefb,-99,hard,,1.1022566000001461,['n'],1,right,['9'],5,0.7463516000002528,37,,27,18,Vrouw,Rechts,1,
,dotcolour,xotask,dotcolour,8,4,248,248,main,negativefb,-99,average,,0.9672764000001735,['c'],1,left,['9'],5,0.6070211999999628,54,,27,18,Vrouw,Rechts,1,
,dotcolour,xotask,dotcolour,9,4,249,249,main,negativefb,-99,easy,,0.8674698999998327,['c'],0,right,['3'],3,1.5488061000000926,15,,27,18,Vrouw,Rechts,1,
,dotcolour,xotask,dotcolour,10,4,250,250,main,negativefb,-99,easy,,0.9844169999996666,['c'],1,left,['9'],5,0.8725055999998403,62,,27,18,Vrouw,Rechts,1,
,dotcolour,xotask,dotcolour,11,4,251,251,main,negativefb,-99,hard,,1.083753500000057,['n'],1,right,['8'],4,0.8193037000000913,36,,27,18,Vrouw,Rechts,1,
,dotcolour,xotask,dotcolour,12,4,252,252,main,negativefb,-99,average,,0.9842904000001909,['c'],1,left,['9'],5,0.4762935000003381,55,,27,18,Vrouw,Rechts,1,
,dotcolour,xotask,dotcolour,13,4,253,253,main,negativefb,-99,easy,,0.9015113000000383,['n'],1,right,['0'],6,0.43751560000009704,16,,27,18,Vrouw,Rechts,1,
,dotcolour,xotask,dotcolour,14,4,254,254,main,negativefb,-99,easy,,0.8998426999996809,['c'],1,left,['0'],6,0.41688650000014604,62,,27,18,Vrouw,Rechts,1,
,dotcolour,xotask,dotcolour,15,4,255,255,main,negativefb,-99,easy,,0.7844334999999774,['n'],1,right,['0'],6,0.4255580000003647,18,,27,18,Vrouw,Rechts,1,
,dotcolour,xotask,dotcolour,16,4,256,256,main,negativefb,-99,hard,,0.9679619999997158,['n'],1,right,['0'],6,0.4587954999997237,36,,27,18,Vrouw,Rechts,1,
,dotcolour,xotask,dotcolour,17,4,257,257,main,negativefb,-99,hard,,0.9010809000001245,['n'],1,right,['0'],6,0.5258427999997366,35,,27,18,Vrouw,Rechts,1,
,dotcolour,xotask,dotcolour,18,4,258,258,main,negativefb,-99,hard,,1.0015323000002354,['c'],1,left,['8'],4,0.5219240999999784,45,,27,18,Vrouw,Rechts,1,
,dotcolour,xotask,dotcolour,19,4,259,259,main,negativefb,-99,easy,,0.6843463000000156,['c'],1,left,['0'],6,0.6271792000002279,65,,27,18,Vrouw,Rechts,1,
,dotcolour,xotask,dotcolour,20,4,260,260,main,negativefb,-99,hard,,1.7012233999998898,['n'],0,left,['8'],4,0.6551656999999977,45,,27,18,Vrouw,Rechts,1,
,dotcolour,xotask,dotcolour,21,4,261,261,main,negativefb,-99,easy,,0.9333323000000746,['n'],1,right,['0'],6,0.5437760999998318,19,,27,18,Vrouw,Rechts,1,
,dotcolour,xotask,dotcolour,22,4,262,262,main,negativefb,-99,hard,,1.2167922999997245,['n'],1,right,['9'],5,0.4266978000000563,35,,27,18,Vrouw,Rechts,1,
,dotcolour,xotask,dotcolour,23,4,263,263,main,negativefb,-99,easy,,0.8342390999996496,['c'],1,left,['0'],6,0.48938040000030014,64,,27,18,Vrouw,Rechts,1,
,dotcolour,xotask,dotcolour,24,4,264,264,main,negativefb,-99,average,,0.98528959999976,['n'],1,right,['9'],5,0.9349982999997337,28,,27,18,Vrouw,Rechts,1,
,dotcolour,xotask,dotcolour,25,4,265,265,main,negativefb,-99,average,,0.7009174999998322,['n'],1,right,['0'],6,0.7583608999998432,26,,27,18,Vrouw,Rechts,1,
,dotcolour,xotask,dotcolour,26,4,266,266,main,negativefb,-99,easy,,0.767106700000113,['c'],1,left,['0'],6,0.7307805000000371,65,,27,18,Vrouw,Rechts,1,
,dotcolour,xotask,dotcolour,27,4,267,267,main,negativefb,-99,easy,,0.7011051999998017,['n'],1,right,['9'],5,0.6427442999997766,19,,27,18,Vrouw,Rechts,1,
,dotcolour,xotask,dotcolour,28,4,268,268,main,negativefb,-99,hard,,1.7670278000000508,['n'],1,right,['0'],6,0.49946829999998954,39,,27,18,Vrouw,Rechts,1,
,dotcolour,xotask,dotcolour,29,4,269,269,main,negativefb,-99,average,,0.801046800000222,['n'],1,right,['0'],6,0.8319308999998611,28,,27,18,Vrouw,Rechts,1,
,dotcolour,xotask,dotcolour,30,4,270,270,main,negativefb,-99,easy,,0.7517210999999406,['n'],1,right,['0'],6,0.43352169999980106,19,,27,18,Vrouw,Rechts,1,
,dotcolour,xotask,dotcolour,31,4,271,271,main,negativefb,-99,hard,,1.6507981999998265,['c'],1,left,['8'],4,0.47827959999995073,45,,27,18,Vrouw,Rechts,1,
,dotcolour,xotask,dotcolour,32,4,272,272,main,negativefb,-99,easy,,0.8019356999998308,['c'],1,left,['0'],6,0.33324910000010277,65,,27,18,Vrouw,Rechts,1,
,dotcolour,xotask,dotcolour,33,4,273,273,main,negativefb,-99,average,,0.7833776000002217,['n'],1,right,['0'],6,0.36893309999959456,26,,27,18,Vrouw,Rechts,1,
,dotcolour,xotask,dotcolour,34,4,274,274,main,negativefb,-99,average,,0.9334460000000036,['c'],1,left,['0'],6,0.35804860000007466,53,,27,18,Vrouw,Rechts,1,
,dotcolour,xotask,dotcolour,35,4,275,275,main,negativefb,-99,average,,1.7335068000002138,['c'],1,left,['8'],4,1.0667007000001831,52,,27,18,Vrouw,Rechts,1,
,dotcolour,xotask,dotcolour,36,4,276,276,main,negativefb,-99,average,,0.8345981000002212,['n'],1,right,['9'],5,0.7914979000001949,25,,27,18,Vrouw,Rechts,1,
,dotcolour,xotask,dotcolour,37,4,277,277,main,negativefb,-99,average,,0.9510212999998657,['c'],1,left,['9'],5,0.5469422000001032,55,,27,18,Vrouw,Rechts,1,
,dotcolour,xotask,dotcolour,38,4,278,278,main,negativefb,-99,easy,,0.9175442000000658,['n'],1,right,['0'],6,0.3856255999999121,17,,27,18,Vrouw,Rechts,1,
,dotcolour,xotask,dotcolour,39,4,279,279,main,negativefb,-99,hard,,1.7174018000000615,['n'],0,left,['8'],4,0.39857979999987947,44,,27,18,Vrouw,Rechts,1,
,dotcolour,xotask,dotcolour,40,4,280,280,main,negativefb,-99,hard,,1.3841217999997752,['n'],1,right,['8'],4,0.32765470000003916,37,,27,18,Vrouw,Rechts,1,
,dotcolour,xotask,dotcolour,41,4,281,281,main,negativefb,-99,average,,1.4183513000002677,['c'],1,left,['8'],4,0.3225938999999016,51,,27,18,Vrouw,Rechts,1,
,dotcolour,xotask,dotcolour,42,4,282,282,main,negativefb,-99,average,,1.4174321999998938,['c'],1,left,['8'],4,0.3266466000000037,51,,27,18,Vrouw,Rechts,1,
,dotcolour,xotask,dotcolour,43,4,283,283,main,negativefb,-99,average,,1.3679769999998825,['n'],1,right,['8'],4,0.8759374999999636,25,,27,18,Vrouw,Rechts,1,
,dotcolour,xotask,dotcolour,44,4,284,284,main,negativefb,-99,easy,,1.1009957000001123,['c'],1,left,['9'],5,0.39776849999998376,61,,27,18,Vrouw,Rechts,1,
,dotcolour,xotask,dotcolour,45,4,285,285,main,negativefb,-99,average,,0.6670312000001104,['n'],1,right,['9'],5,0.3478752999999415,28,,27,18,Vrouw,Rechts,1,
,dotcolour,xotask,dotcolour,46,4,286,286,main,negativefb,-99,average,,1.233888400000069,['c'],1,left,['9'],5,0.4129640000001018,54,,27,18,Vrouw,Rechts,1,
,dotcolour,xotask,dotcolour,47,4,287,287,main,negativefb,-99,hard,,0.9503646000002846,['c'],1,left,['9'],5,0.4155118000003313,41,,27,18,Vrouw,Rechts,1,
,dotcolour,xotask,dotcolour,48,4,288,288,main,negativefb,-99,hard,,2.3183164000001852,['n'],0,left,['8'],4,0.3794456000000537,43,,27,18,Vrouw,Rechts,1,
,dotcolour,xotask,dotcolour,49,4,289,289,main,negativefb,-99,hard,,0.8675881999997728,['n'],1,right,['9'],5,0.3782234000000244,37,,27,18,Vrouw,Rechts,1,
,dotcolour,xotask,dotcolour,50,4,290,290,main,negativefb,-99,average,,0.8508214000003136,['n'],1,right,['9'],5,0.39388400000007096,28,,27,18,Vrouw,Rechts,1,
,dotcolour,xotask,dotcolour,51,4,291,291,main,negativefb,-99,easy,,0.9510974999998325,['n'],1,right,['0'],6,0.310599099999763,18,,27,18,Vrouw,Rechts,1,
,dotcolour,xotask,dotcolour,52,4,292,292,main,negativefb,-99,average,,0.7353990000001431,['n'],1,right,['0'],6,0.3892804000001888,29,,27,18,Vrouw,Rechts,1,
,dotcolour,xotask,dotcolour,53,4,293,293,main,negativefb,-99,hard,,1.350906500000292,['c'],1,left,['8'],4,0.648952399999871,42,,27,18,Vrouw,Rechts,1,
,dotcolour,xotask,dotcolour,54,4,294,294,main,negativefb,-99,easy,,0.8678255999998328,['n'],1,right,['0'],6,0.39672310000014477,16,,27,18,Vrouw,Rechts,1,
,dotcolour,xotask,dotcolour,55,4,295,295,main,negativefb,-99,average,,0.7846158000002106,['c'],1,left,['0'],6,0.4307290000001558,55,,27,18,Vrouw,Rechts,1,
,dotcolour,xotask,dotcolour,56,4,296,296,main,negativefb,-99,easy,,0.8677249000002121,['c'],1,left,['0'],6,0.5000534999999218,65,,27,18,Vrouw,Rechts,1,
,dotcolour,xotask,dotcolour,57,4,297,297,main,negativefb,-99,hard,,1.4007772999998451,['c'],1,left,['0'],6,0.29680259999986447,42,,27,18,Vrouw,Rechts,1,
,dotcolour,xotask,dotcolour,58,4,298,298,main,negativefb,-99,hard,,1.7179668000003403,['c'],0,right,['8'],4,0.4968957999999475,37,,27,18,Vrouw,Rechts,1,
,dotcolour,xotask,dotcolour,59,4,299,299,main,negativefb,-99,average,,0.7013672000002771,['n'],1,right,['0'],6,0.4107112000001507,25,,27,18,Vrouw,Rechts,1,
,xotask,xotask,dotcolour,0,0,0,300,training,negativefb,63,hard,53,1.2836373999998614,['c'],1,left,['8'],4,0.8501566999998431,,,27,18,Vrouw,Rechts,1,
,xotask,xotask,dotcolour,1,0,1,301,training,negativefb,93,average,19,1.299690300000293,['n'],1,right,['9'],5,0.5567648999999619,,,27,18,Vrouw,Rechts,1,
,xotask,xotask,dotcolour,2,0,2,302,training,negativefb,84,easy,5,0.6997155999997631,['n'],1,right,['9'],5,0.33829210000021703,,,27,18,Vrouw,Rechts,1,
,xotask,xotask,dotcolour,3,0,3,303,training,negativefb,81,easy,5,0.9675216999999066,['n'],1,right,['0'],6,0.3739565999999286,,,27,18,Vrouw,Rechts,1,
,xotask,xotask,dotcolour,4,0,4,304,training,negativefb,85,average,16,0.6674448999997367,['n'],1,right,['9'],5,0.37412819999963176,,,27,18,Vrouw,Rechts,1,
,xotask,xotask,dotcolour,5,0,5,305,training,negativefb,83,average,61,0.7173627000001943,['c'],1,left,['9'],5,0.4824050000001989,,,27,18,Vrouw,Rechts,1,
,xotask,xotask,dotcolour,6,0,6,306,training,negativefb,96,average,17,0.6337856999998621,['n'],1,right,['9'],5,0.42950710000013714,,,27,18,Vrouw,Rechts,1,
,xotask,xotask,dotcolour,7,0,7,307,training,negativefb,54,hard,29,1.3010463999999047,['c'],0,right,['8'],4,0.36060029999998733,,,27,18,Vrouw,Rechts,1,
,xotask,xotask,dotcolour,8,0,8,308,training,negativefb,44,hard,29,1.3335641999997279,['n'],1,right,['8'],4,0.5974802000000636,,,27,18,Vrouw,Rechts,1,
,xotask,xotask,dotcolour,9,0,9,309,training,negativefb,19,hard,51,1.3494642000000567,['c'],1,left,['8'],4,0.3593230000001313,,,27,18,Vrouw,Rechts,1,
,xotask,xotask,dotcolour,10,0,10,310,training,negativefb,80,average,63,1.0827446999996937,['c'],1,left,['9'],5,0.3666961000003539,,,27,18,Vrouw,Rechts,1,
,xotask,xotask,dotcolour,11,0,11,311,training,negativefb,71,hard,54,0.7168022000000747,['c'],1,left,['0'],6,0.33902450000005047,,,27,18,Vrouw,Rechts,1,
,xotask,xotask,dotcolour,12,0,12,312,training,negativefb,75,average,62,0.6670137000000977,['c'],1,left,['9'],5,0.5629212000003463,,,27,18,Vrouw,Rechts,1,
,xotask,xotask,dotcolour,13,0,13,313,training,negativefb,24,hard,52,0.5332126999996945,['c'],1,left,['9'],5,0.47220659999993586,,,27,18,Vrouw,Rechts,1,
,xotask,xotask,dotcolour,14,0,14,314,training,negativefb,57,average,15,0.7332056999998713,['n'],1,right,['9'],5,0.5914868999998362,,,27,18,Vrouw,Rechts,1,
,xotask,xotask,dotcolour,15,0,15,315,training,negativefb,55,easy,71,0.600492800000211,['c'],1,left,['0'],6,0.49667760000011185,,,27,18,Vrouw,Rechts,1,
,xotask,xotask,dotcolour,16,0,16,316,training,negativefb,70,hard,50,0.9679146999997101,['c'],1,left,['8'],4,0.7824378000000252,,,27,18,Vrouw,Rechts,1,
,xotask,xotask,dotcolour,17,0,17,317,training,negativefb,95,easy,74,0.6172109999997701,['c'],1,left,['9'],5,0.5744694999998501,,,27,18,Vrouw,Rechts,1,
,xotask,xotask,dotcolour,18,0,18,318,training,negativefb,10,average,16,0.8344481999997697,['n'],1,right,['9'],5,0.44618639999998777,,,27,18,Vrouw,Rechts,1,
,xotask,xotask,dotcolour,19,0,19,319,training,negativefb,71,easy,6,0.916413299999931,['n'],1,right,['0'],6,0.7846180000001368,,,27,18,Vrouw,Rechts,1,
,xotask,xotask,dotcolour,20,0,20,320,training,negativefb,91,hard,53,0.7005945999999312,['c'],1,left,['9'],5,0.6852500999998483,,,27,18,Vrouw,Rechts,1,
,xotask,xotask,dotcolour,21,0,21,321,training,negativefb,89,average,18,0.7334206999998969,['n'],1,right,['0'],6,0.4130126999998538,,,27,18,Vrouw,Rechts,1,
,xotask,xotask,dotcolour,22,0,22,322,training,negativefb,71,easy,6,0.7167422000002261,['n'],1,right,['0'],6,0.37551740000026257,,,27,18,Vrouw,Rechts,1,
,xotask,xotask,dotcolour,23,0,23,323,training,negativefb,50,easy,71,0.7338810000001104,['c'],1,left,['0'],6,0.8114497999999912,,,27,18,Vrouw,Rechts,1,
,xotask,xotask,dotcolour,24,0,24,324,training,negativefb,50,hard,25,0.7662231999997857,['n'],1,right,['9'],5,0.4694368000000395,,,27,18,Vrouw,Rechts,1,
,xotask,xotask,dotcolour,25,0,25,325,training,negativefb,21,average,60,1.1505741999999373,['n'],0,left,['8'],4,1.1244610999997349,,,27,18,Vrouw,Rechts,1,
,xotask,xotask,dotcolour,26,0,26,326,training,negativefb,97,hard,53,0.6511531999999534,['c'],1,left,['9'],5,0.8213839999998527,,,27,18,Vrouw,Rechts,1,
,xotask,xotask,dotcolour,27,0,27,327,training,negativefb,59,hard,26,0.7164496000000327,['n'],1,right,['9'],5,0.3756752000003871,,,27,18,Vrouw,Rechts,1,
,xotask,xotask,dotcolour,28,0,28,328,training,negativefb,72,hard,26,0.883407900000293,['n'],1,right,['9'],5,0.5101739999995516,,,27,18,Vrouw,Rechts,1,
,xotask,xotask,dotcolour,29,0,29,329,training,negativefb,77,easy,73,1.1169907999997122,['c'],1,left,['9'],5,0.8612170000001242,,,27,18,Vrouw,Rechts,1,
,xotask,xotask,dotcolour,30,0,30,330,training,negativefb,94,average,62,0.7007993000001989,['c'],1,left,['9'],5,0.35927829999991445,,,27,18,Vrouw,Rechts,1,
,xotask,xotask,dotcolour,31,0,31,331,training,negativefb,95,hard,25,0.6839478000001691,['n'],1,right,['8'],4,0.5739107999997941,,,27,18,Vrouw,Rechts,1,
,xotask,xotask,dotcolour,32,0,32,332,training,negativefb,23,hard,27,0.8841852000000472,['n'],1,right,['9'],5,0.8525305000002845,,,27,18,Vrouw,Rechts,1,
,xotask,xotask,dotcolour,33,0,33,333,training,negativefb,93,easy,73,0.9671386999998504,['c'],1,left,['8'],4,1.107760099999723,,,27,18,Vrouw,Rechts,1,
,xotask,xotask,dotcolour,34,0,34,334,training,negativefb,59,average,18,1.2003210000002582,['n'],1,right,['8'],4,0.29499230000010357,,,27,18,Vrouw,Rechts,1,
,xotask,xotask,dotcolour,35,0,35,335,training,negativefb,85,average,17,1.0508724999999686,['n'],1,right,['9'],5,0.3625415999999859,,,27,18,Vrouw,Rechts,1,
,xotask,xotask,dotcolour,36,0,36,336,training,negativefb,52,hard,51,0.7504447999999684,['c'],1,left,['9'],5,0.4302102999999988,,,27,18,Vrouw,Rechts,1,
,xotask,xotask,dotcolour,37,0,37,337,training,negativefb,53,easy,6,0.7827759000001606,['n'],1,right,['0'],6,0.3659474000000955,,,27,18,Vrouw,Rechts,1,
,xotask,xotask,dotcolour,38,0,38,338,training,negativefb,91,easy,72,0.7498757000003025,['c'],1,left,['9'],5,0.8171907000000829,,,27,18,Vrouw,Rechts,1,
,xotask,xotask,dotcolour,39,0,39,339,training,negativefb,26,hard,54,1.4167445000002772,['c'],1,left,['9'],5,0.6163621999999123,,,27,18,Vrouw,Rechts,1,
,xotask,xotask,dotcolour,40,0,40,340,training,negativefb,90,average,16,0.7177073000002565,['n'],1,right,['9'],5,0.40215500000022075,,,27,18,Vrouw,Rechts,1,
,xotask,xotask,dotcolour,41,0,41,341,training,negativefb,74,hard,54,0.8504095999996935,['n'],0,left,['8'],4,0.41685000000006767,,,27,18,Vrouw,Rechts,1,
,xotask,xotask,dotcolour,42,0,42,342,training,negativefb,81,easy,71,0.7161126000000877,['c'],1,left,['9'],5,0.40324080000027607,,,27,18,Vrouw,Rechts,1,
,xotask,xotask,dotcolour,43,0,43,343,training,negativefb,94,easy,71,0.8678195000002233,['c'],1,left,['9'],5,0.9692235999996228,,,27,18,Vrouw,Rechts,1,
,xotask,xotask,dotcolour,44,0,44,344,training,negativefb,71,average,61,0.6661041000002115,['c'],1,left,['0'],6,0.5435536999998476,,,27,18,Vrouw,Rechts,1,
,xotask,xotask,dotcolour,45,0,45,345,training,negativefb,98,average,61,0.7004484000003686,['c'],1,left,['0'],6,0.3350180999996155,,,27,18,Vrouw,Rechts,1,
,xotask,xotask,dotcolour,46,0,46,346,training,negativefb,86,easy,5,0.7673276999998961,['n'],1,right,['0'],6,0.3864785999999185,,,27,18,Vrouw,Rechts,1,
,xotask,xotask,dotcolour,47,0,47,347,training,negativefb,87,easy,9,1.0508703999998943,['n'],1,right,['8'],4,0.3926799000000756,,,27,18,Vrouw,Rechts,1,
,xotask,xotask,dotcolour,48,0,48,348,training,negativefb,62,easy,9,0.7830419000001712,['n'],1,right,['0'],6,0.3864125000000058,,,27,18,Vrouw,Rechts,1,
,xotask,xotask,dotcolour,49,0,49,349,training,negativefb,88,average,60,1.1489897999999812,['c'],1,left,['0'],6,0.46906799999987925,,,27,18,Vrouw,Rechts,1,
,xotask,xotask,dotcolour,50,0,50,350,training,negativefb,91,easy,71,0.6000116999998681,['c'],1,left,['0'],6,0.3230489000002308,,,27,18,Vrouw,Rechts,1,
,xotask,xotask,dotcolour,51,0,51,351,training,negativefb,41,hard,27,0.7999417999999423,['n'],1,right,['0'],6,0.2537849999998798,,,27,18,Vrouw,Rechts,1,
,xotask,xotask,dotcolour,52,0,52,352,training,negativefb,89,easy,74,0.6167220000002089,['c'],1,left,['0'],6,0.30694869999979346,,,27,18,Vrouw,Rechts,1,
,xotask,xotask,dotcolour,53,0,53,353,training,negativefb,87,easy,9,0.866220500000054,['n'],1,right,['9'],5,0.7718976999999541,,,27,18,Vrouw,Rechts,1,
,xotask,xotask,dotcolour,54,0,54,354,training,negativefb,52,average,64,0.7667022999999062,['c'],1,left,['9'],5,0.36688249999997424,,,27,18,Vrouw,Rechts,1,
,xotask,xotask,dotcolour,55,0,55,355,training,negativefb,62,average,15,0.7001344999998764,['n'],1,right,['9'],5,0.42043839999996635,,,27,18,Vrouw,Rechts,1,
,xotask,xotask,dotcolour,56,0,56,356,training,negativefb,78,easy,9,0.7663485000002765,['n'],1,right,['9'],5,0.4690293000003294,,,27,18,Vrouw,Rechts,1,
,xotask,xotask,dotcolour,57,0,57,357,training,negativefb,93,hard,27,0.7166474000000562,['n'],1,right,['8'],4,0.7180541000002449,,,27,18,Vrouw,Rechts,1,
,xotask,xotask,dotcolour,58,0,58,358,training,negativefb,35,average,60,0.8832689999999275,['c'],1,left,['9'],5,0.4537819999995918,,,27,18,Vrouw,Rechts,1,
,xotask,xotask,dotcolour,59,0,59,359,training,negativefb,45,hard,28,1.04952510000021,['n'],1,right,['8'],4,0.36206170000014026,,,27,18,Vrouw,Rechts,1,
,xotask,xotask,dotcolour,0,1,60,360,training,negativefb,17,hard,28,1.134153100000276,['c'],0,right,['3'],3,4.6666097999996055,,,27,18,Vrouw,Rechts,1,
,xotask,xotask,dotcolour,1,1,61,361,training,negativefb,96,hard,26,1.0340733000002729,['n'],1,right,['8'],4,1.1327977999999348,,,27,18,Vrouw,Rechts,1,
,xotask,xotask,dotcolour,2,1,62,362,training,negativefb,79,hard,28,1.3843464999999924,['n'],1,right,['8'],4,0.7515177999998741,,,27,18,Vrouw,Rechts,1,
,xotask,xotask,dotcolour,3,1,63,363,training,negativefb,88,easy,5,1.3677416000000449,['n'],1,right,['9'],5,0.5784155999999712,,,27,18,Vrouw,Rechts,1,
,xotask,xotask,dotcolour,4,1,64,364,training,negativefb,29,hard,52,0.7164779999998245,['c'],1,left,['9'],5,0.47117649999972855,,,27,18,Vrouw,Rechts,1,
,xotask,xotask,dotcolour,5,1,65,365,training,negativefb,71,hard,53,1.482795200000055,['c'],1,left,['8'],4,0.40095659999997224,,,27,18,Vrouw,Rechts,1,
,xotask,xotask,dotcolour,6,1,66,366,training,negativefb,89,easy,6,0.666863800000101,['n'],1,right,['9'],5,0.6230826999999408,,,27,18,Vrouw,Rechts,1,
,xotask,xotask,dotcolour,7,1,67,367,training,negativefb,70,easy,74,0.7997763999997005,['c'],1,left,['0'],6,0.36637560000008307,,,27,18,Vrouw,Rechts,1,
,xotask,xotask,dotcolour,8,1,68,368,training,negativefb,79,average,16,1.018038499999875,['n'],1,right,['0'],6,0.687037700000019,,,27,18,Vrouw,Rechts,1,
,xotask,xotask,dotcolour,9,1,69,369,training,negativefb,50,average,19,1.0166260999999395,['n'],1,right,['0'],6,0.6352476000001843,,,27,18,Vrouw,Rechts,1,
,xotask,xotask,dotcolour,10,1,70,370,training,negativefb,62,easy,74,1.100744400000167,['c'],1,left,['0'],6,0.8221791000000849,,,27,18,Vrouw,Rechts,1,
,xotask,xotask,dotcolour,11,1,71,371,training,negativefb,45,average,19,0.7509664999997767,['n'],1,right,['0'],6,0.775451399999838,,,27,18,Vrouw,Rechts,1,
,xotask,xotask,dotcolour,12,1,72,372,training,negativefb,31,hard,28,0.7670822999998563,['n'],1,right,['9'],5,0.5614190000001145,,,27,18,Vrouw,Rechts,1,
,xotask,xotask,dotcolour,13,1,73,373,training,negativefb,55,easy,8,0.8006620000001021,['n'],1,right,['9'],5,0.4276777000000038,,,27,18,Vrouw,Rechts,1,
,xotask,xotask,dotcolour,14,1,74,374,training,negativefb,89,easy,8,0.683801499999845,['n'],1,right,['8'],4,0.47225269999989905,,,27,18,Vrouw,Rechts,1,
,xotask,xotask,dotcolour,15,1,75,375,training,negativefb,53,hard,54,1.3328385999998318,['c'],1,left,['9'],5,0.6158283999998275,,,27,18,Vrouw,Rechts,1,
,xotask,xotask,dotcolour,16,1,76,376,training,negativefb,89,easy,72,1.2493553999997857,['c'],1,left,['9'],5,0.4369547000001148,,,27,18,Vrouw,Rechts,1,
,xotask,xotask,dotcolour,17,1,77,377,training,negativefb,75,easy,7,0.7997888999998395,['n'],1,right,['9'],5,0.6443538000003173,,,27,18,Vrouw,Rechts,1,
,xotask,xotask,dotcolour,18,1,78,378,training,negativefb,81,hard,50,1.4002454000001308,['c'],1,left,['8'],4,0.4667002000001048,,,27,18,Vrouw,Rechts,1,
,xotask,xotask,dotcolour,19,1,79,379,training,negativefb,58,average,64,1.4329588000000513,['c'],1,left,['9'],5,0.374293200000011,,,27,18,Vrouw,Rechts,1,
,xotask,xotask,dotcolour,20,1,80,380,training,negativefb,56,hard,27,1.7164526999999907,['c'],0,right,['8'],4,0.32295320000002903,,,27,18,Vrouw,Rechts,1,
,xotask,xotask,dotcolour,21,1,81,381,training,negativefb,49,hard,27,1.1176510999998754,['n'],1,right,['9'],5,1.0181910999999673,,,27,18,Vrouw,Rechts,1,
,xotask,xotask,dotcolour,22,1,82,382,training,negativefb,57,average,16,1.200738999999885,['n'],1,right,['9'],5,0.5853933999997025,,,27,18,Vrouw,Rechts,1,
,xotask,xotask,dotcolour,23,1,83,383,training,negativefb,99,easy,74,0.7672545999998874,['c'],1,left,['9'],5,1.780207999999675,,,27,18,Vrouw,Rechts,1,
,xotask,xotask,dotcolour,24,1,84,384,training,negativefb,29,hard,51,1.1165938999997707,['c'],1,left,['8'],4,0.4072682999999415,,,27,18,Vrouw,Rechts,1,
,xotask,xotask,dotcolour,25,1,85,385,training,negativefb,74,average,63,0.7670935999999529,['c'],1,left,['8'],4,1.2165777999998681,,,27,18,Vrouw,Rechts,1,
,xotask,xotask,dotcolour,26,1,86,386,training,negativefb,87,easy,70,0.8000773999997364,['c'],1,left,['9'],5,0.37561619999996765,,,27,18,Vrouw,Rechts,1,
,xotask,xotask,dotcolour,27,1,87,387,training,negativefb,70,average,18,1.033936399999675,['n'],1,right,['8'],4,0.41556800000034855,,,27,18,Vrouw,Rechts,1,
,xotask,xotask,dotcolour,28,1,88,388,training,negativefb,57,hard,27,1.3821110999997472,['n'],1,right,['8'],4,0.41515849999996135,,,27,18,Vrouw,Rechts,1,
,xotask,xotask,dotcolour,29,1,89,389,training,negativefb,81,easy,74,0.7329800000002251,['c'],1,left,['9'],5,0.5052789999999732,,,27,18,Vrouw,Rechts,1,
,xotask,xotask,dotcolour,30,1,90,390,training,negativefb,45,average,18,0.9992768000001888,['n'],1,right,['9'],5,0.4212413000000197,,,27,18,Vrouw,Rechts,1,
,xotask,xotask,dotcolour,31,1,91,391,training,negativefb,83,hard,52,1.333943999999974,['c'],1,left,['8'],4,0.3194069999999556,,,27,18,Vrouw,Rechts,1,
,xotask,xotask,dotcolour,32,1,92,392,training,negativefb,95,average,62,0.8670775000000503,['c'],1,left,['9'],5,0.61637090000022,,,27,18,Vrouw,Rechts,1,
,xotask,xotask,dotcolour,33,1,93,393,training,negativefb,63,average,63,0.9010832999997547,['c'],1,left,['9'],5,0.47554519999994227,,,27,18,Vrouw,Rechts,1,
,xotask,xotask,dotcolour,34,1,94,394,training,negativefb,48,hard,29,1.4503483999997115,['n'],1,right,['9'],5,0.46285870000019713,,,27,18,Vrouw,Rechts,1,
,xotask,xotask,dotcolour,35,1,95,395,training,negativefb,64,average,16,1.251672399999734,['n'],1,right,['9'],5,0.6026876999999331,,,27,18,Vrouw,Rechts,1,
,xotask,xotask,dotcolour,36,1,96,396,training,negativefb,62,easy,74,0.9494046999998318,['c'],1,left,['9'],5,0.8291352000001098,,,27,18,Vrouw,Rechts,1,
,xotask,xotask,dotcolour,37,1,97,397,training,negativefb,77,easy,71,0.9495531999996274,['c'],1,left,['0'],6,0.358652500000062,,,27,18,Vrouw,Rechts,1,
,xotask,xotask,dotcolour,38,1,98,398,training,negativefb,81,easy,7,0.882535100000041,['n'],1,right,['9'],5,0.5165515999997297,,,27,18,Vrouw,Rechts,1,
,xotask,xotask,dotcolour,39,1,99,399,training,negativefb,79,easy,71,0.9996608000001288,['c'],1,left,['0'],6,0.6247655999995914,,,27,18,Vrouw,Rechts,1,
,xotask,xotask,dotcolour,40,1,100,400,training,negativefb,24,hard,29,0.8323722000000089,['n'],1,right,['8'],4,0.5586609000001772,,,27,18,Vrouw,Rechts,1,
,xotask,xotask,dotcolour,41,1,101,401,training,negativefb,98,hard,54,0.9664748000000145,['c'],1,left,['8'],4,1.3698254999999335,,,27,18,Vrouw,Rechts,1,
,xotask,xotask,dotcolour,42,1,102,402,training,negativefb,72,average,64,1.2491132000000107,['c'],1,left,['8'],4,0.3762576999997691,,,27,18,Vrouw,Rechts,1,
,xotask,xotask,dotcolour,43,1,103,403,training,negativefb,91,hard,29,0.6996209999997518,['n'],1,right,['9'],5,0.6619762000000264,,,27,18,Vrouw,Rechts,1,
,xotask,xotask,dotcolour,44,1,104,404,training,negativefb,99,easy,5,1.1337960999999268,['n'],1,right,['9'],5,1.094493400000374,,,27,18,Vrouw,Rechts,1,
,xotask,xotask,dotcolour,45,1,105,405,training,negativefb,89,hard,52,1.5004243999997016,['c'],1,left,['8'],4,0.4236865000002581,,,27,18,Vrouw,Rechts,1,
,xotask,xotask,dotcolour,46,1,106,406,training,negativefb,60,average,61,0.7996430999996846,['c'],1,left,['8'],4,0.33486579999998867,,,27,18,Vrouw,Rechts,1,
,xotask,xotask,dotcolour,47,1,107,407,training,negativefb,43,easy,5,0.6499378000003162,['n'],1,right,['9'],5,0.495226300000013,,,27,18,Vrouw,Rechts,1,
,xotask,xotask,dotcolour,48,1,108,408,training,negativefb,41,average,15,0.9491714000000684,['n'],1,right,['8'],4,0.4860019000002467,,,27,18,Vrouw,Rechts,1,
,xotask,xotask,dotcolour,49,1,109,409,training,negativefb,87,easy,6,0.7667516999999862,['n'],1,right,['8'],4,0.8196914000000106,,,27,18,Vrouw,Rechts,1,
,xotask,xotask,dotcolour,50,1,110,410,training,negativefb,75,average,62,0.8664106000001084,['c'],1,left,['8'],4,0.4810578000001442,,,27,18,Vrouw,Rechts,1,
,xotask,xotask,dotcolour,51,1,111,411,training,negativefb,69,hard,52,0.8670305999999073,['c'],1,left,['8'],4,0.4506771999999728,,,27,18,Vrouw,Rechts,1,
,xotask,xotask,dotcolour,52,1,112,412,training,negativefb,93,easy,6,1.0340678999996271,['n'],1,right,['9'],5,0.5674628000001576,,,27,18,Vrouw,Rechts,1,
,xotask,xotask,dotcolour,53,1,113,413,training,negativefb,77,average,64,1.0834826000000248,['c'],1,left,['9'],5,0.7172802000000047,,,27,18,Vrouw,Rechts,1,
,xotask,xotask,dotcolour,54,1,114,414,training,negativefb,74,easy,71,0.783639900000253,['c'],1,left,['9'],5,0.697520700000041,,,27,18,Vrouw,Rechts,1,
,xotask,xotask,dotcolour,55,1,115,415,training,negativefb,69,hard,51,0.9327531999997518,['c'],1,left,['9'],5,0.39964039999995293,,,27,18,Vrouw,Rechts,1,
,xotask,xotask,dotcolour,56,1,116,416,training,negativefb,72,average,18,1.1845659999999043,['n'],1,right,['8'],4,0.408676099999866,,,27,18,Vrouw,Rechts,1,
,xotask,xotask,dotcolour,57,1,117,417,training,negativefb,51,average,16,1.350099499999942,['n'],1,right,['8'],4,0.3392852000001767,,,27,18,Vrouw,Rechts,1,
,xotask,xotask,dotcolour,58,1,118,418,training,negativefb,24,average,62,0.6836819000000105,['c'],1,left,['9'],5,0.5779391999999461,,,27,18,Vrouw,Rechts,1,
,xotask,xotask,dotcolour,59,1,119,419,training,negativefb,40,average,64,0.9667404000001625,['n'],0,left,['8'],4,0.38908859999992274,,,27,18,Vrouw,Rechts,1,
,xotask,xotask,dotcolour,0,2,120,420,main,negativefb,-99,hard,50,1.2006369000000632,['c'],1,left,['9'],5,1.8560684999997648,,,27,18,Vrouw,Rechts,1,
,xotask,xotask,dotcolour,1,2,121,421,main,negativefb,-99,hard,50,0.8680397000002813,['c'],1,left,['8'],4,0.40458970000008776,,,27,18,Vrouw,Rechts,1,
,xotask,xotask,dotcolour,2,2,122,422,main,negativefb,-99,hard,52,1.5847097999999278,['c'],1,left,['8'],4,0.5021612000000459,,,27,18,Vrouw,Rechts,1,
,xotask,xotask,dotcolour,3,2,123,423,main,negativefb,-99,easy,74,0.851148700000067,['c'],1,left,['9'],5,0.26446789999999964,,,27,18,Vrouw,Rechts,1,
,xotask,xotask,dotcolour,4,2,124,424,main,negativefb,-99,easy,70,0.7174533000002157,['c'],1,left,['0'],6,0.23366269999996803,,,27,18,Vrouw,Rechts,1,
,xotask,xotask,dotcolour,5,2,125,425,main,negativefb,-99,average,17,0.73393920000035,['n'],1,right,['9'],5,0.8835361000001285,,,27,18,Vrouw,Rechts,1,
,xotask,xotask,dotcolour,6,2,126,426,main,negativefb,-99,hard,28,1.4681542999996964,['c'],0,right,['8'],4,0.3506083000002036,,,27,18,Vrouw,Rechts,1,
,xotask,xotask,dotcolour,7,2,127,427,main,negativefb,-99,hard,52,1.2681346999997913,['n'],0,left,['8'],4,0.3666505999999572,,,27,18,Vrouw,Rechts,1,
,xotask,xotask,dotcolour,8,2,128,428,main,negativefb,-99,easy,74,0.7507120000000214,['c'],1,left,['9'],5,0.4106512000003022,,,27,18,Vrouw,Rechts,1,
,xotask,xotask,dotcolour,9,2,129,429,main,negativefb,-99,easy,5,0.6852708999999777,['n'],1,right,['0'],6,0.6960810000000492,,,27,18,Vrouw,Rechts,1,
,xotask,xotask,dotcolour,10,2,130,430,main,negativefb,-99,average,61,1.2172668000002886,['c'],1,left,['8'],4,0.42115270000022065,,,27,18,Vrouw,Rechts,1,
,xotask,xotask,dotcolour,11,2,131,431,main,negativefb,-99,average,19,1.5182494999999108,['n'],1,right,['8'],4,0.3440306000002238,,,27,18,Vrouw,Rechts,1,
,xotask,xotask,dotcolour,12,2,132,432,main,negativefb,-99,easy,7,0.7837571000000025,['n'],1,right,['9'],5,0.3320557000001827,,,27,18,Vrouw,Rechts,1,
,xotask,xotask,dotcolour,13,2,133,433,main,negativefb,-99,easy,71,0.8344710999999734,['c'],1,left,['9'],5,0.30998619999991206,,,27,18,Vrouw,Rechts,1,
,xotask,xotask,dotcolour,14,2,134,434,main,negativefb,-99,average,60,1.8352115000002414,['n'],0,left,['8'],4,0.42520260000037524,,,27,18,Vrouw,Rechts,1,
,xotask,xotask,dotcolour,15,2,135,435,main,negativefb,-99,hard,26,1.084354699999949,['c'],0,right,['8'],4,0.48632899999984147,,,27,18,Vrouw,Rechts,1,
,xotask,xotask,dotcolour,16,2,136,436,main,negativefb,-99,easy,5,0.8168839999998454,['n'],1,right,['0'],6,0.5950531999997111,,,27,18,Vrouw,Rechts,1,
,xotask,xotask,dotcolour,17,2,137,437,main,negativefb,-99,easy,72,0.9009185000004436,['c'],1,left,['0'],6,0.4724018000001706,,,27,18,Vrouw,Rechts,1,
,xotask,xotask,dotcolour,18,2,138,438,main,negativefb,-99,hard,54,0.9347505000000638,['c'],1,left,['8'],4,0.5123173000001771,,,27,18,Vrouw,Rechts,1,
,xotask,xotask,dotcolour,19,2,139,439,main,negativefb,-99,average,18,0.768498300000374,['n'],1,right,['9'],5,0.46294750000015483,,,27,18,Vrouw,Rechts,1,
,xotask,xotask,dotcolour,20,2,140,440,main,negativefb,-99,average,17,1.1671003999999812,['n'],1,right,['9'],5,0.43856289999985165,,,27,18,Vrouw,Rechts,1,
,xotask,xotask,dotcolour,21,2,141,441,main,negativefb,-99,easy,9,1.0178322000001572,['n'],1,right,['9'],5,0.5256128000000899,,,27,18,Vrouw,Rechts,1,
,xotask,xotask,dotcolour,22,2,142,442,main,negativefb,-99,hard,52,0.9513329999999769,['c'],1,left,['9'],5,0.46011689999977534,,,27,18,Vrouw,Rechts,1,
,xotask,xotask,dotcolour,23,2,143,443,main,negativefb,-99,average,62,1.2680952999999135,['n'],0,left,['8'],4,0.6079110999999102,,,27,18,Vrouw,Rechts,1,
,xotask,xotask,dotcolour,24,2,144,444,main,negativefb,-99,hard,29,1.2007588000001306,['c'],0,right,['9'],5,0.6004412000002048,,,27,18,Vrouw,Rechts,1,
,xotask,xotask,dotcolour,25,2,145,445,main,negativefb,-99,hard,54,1.75145590000011,['n'],0,left,['9'],5,1.0113182999998571,,,27,18,Vrouw,Rechts,1,
,xotask,xotask,dotcolour,26,2,146,446,main,negativefb,-99,average,64,0.967547900000227,['c'],1,left,['9'],5,0.5403227000001607,,,27,18,Vrouw,Rechts,1,
,xotask,xotask,dotcolour,27,2,147,447,main,negativefb,-99,easy,72,0.7679675000003954,['c'],1,left,['0'],6,0.35358369999994466,,,27,18,Vrouw,Rechts,1,
,xotask,xotask,dotcolour,28,2,148,448,main,negativefb,-99,easy,9,0.7168729999998504,['n'],1,right,['0'],6,0.4394628999998531,,,27,18,Vrouw,Rechts,1,
,xotask,xotask,dotcolour,29,2,149,449,main,negativefb,-99,easy,6,0.800639499999761,['n'],1,right,['0'],6,0.46320090000017444,,,27,18,Vrouw,Rechts,1,
,xotask,xotask,dotcolour,30,2,150,450,main,negativefb,-99,hard,29,0.7352217000002383,['n'],1,right,['0'],6,0.5764309000001049,,,27,18,Vrouw,Rechts,1,
,xotask,xotask,dotcolour,31,2,151,451,main,negativefb,-99,hard,51,1.0682309000003443,['c'],1,left,['8'],4,1.200228100000004,,,27,18,Vrouw,Rechts,1,
,xotask,xotask,dotcolour,32,2,152,452,main,negativefb,-99,easy,72,0.9000393999999687,['c'],1,left,['0'],6,0.3806632000000718,,,27,18,Vrouw,Rechts,1,
,xotask,xotask,dotcolour,33,2,153,453,main,negativefb,-99,average,64,1.4006521000001158,['c'],1,left,['8'],4,0.4064394000001812,,,27,18,Vrouw,Rechts,1,
,xotask,xotask,dotcolour,34,2,154,454,main,negativefb,-99,average,17,1.3514027000001079,['n'],1,right,['8'],4,0.37714580000010756,,,27,18,Vrouw,Rechts,1,
,xotask,xotask,dotcolour,35,2,155,455,main,negativefb,-99,hard,53,1.7514119999996183,['n'],0,left,['8'],4,0.36444410000012795,,,27,18,Vrouw,Rechts,1,
,xotask,xotask,dotcolour,36,2,156,456,main,negativefb,-99,hard,52,0.8340782000000218,['c'],1,left,['8'],4,0.2693891999997504,,,27,18,Vrouw,Rechts,1,
,xotask,xotask,dotcolour,37,2,157,457,main,negativefb,-99,hard,26,0.8681659999997464,['n'],1,right,['9'],5,0.4015570999999909,,,27,18,Vrouw,Rechts,1,
,xotask,xotask,dotcolour,38,2,158,458,main,negativefb,-99,easy,5,0.8175696999996944,['n'],1,right,['0'],6,0.3212007000001904,,,27,18,Vrouw,Rechts,1,
,xotask,xotask,dotcolour,39,2,159,459,main,negativefb,-99,hard,26,0.7673789999998917,['n'],1,right,['9'],5,0.34198419999984253,,,27,18,Vrouw,Rechts,1,
,xotask,xotask,dotcolour,40,2,160,460,main,negativefb,-99,easy,70,1.301034300000083,['c'],1,left,['9'],5,0.32549109999990833,,,27,18,Vrouw,Rechts,1,
,xotask,xotask,dotcolour,41,2,161,461,main,negativefb,-99,average,19,0.7679796999996142,['n'],1,right,['9'],5,0.3553434999998899,,,27,18,Vrouw,Rechts,1,
,xotask,xotask,dotcolour,42,2,162,462,main,negativefb,-99,easy,71,0.7347709999999097,['c'],1,left,['9'],5,0.36068729999988136,,,27,18,Vrouw,Rechts,1,
,xotask,xotask,dotcolour,43,2,163,463,main,negativefb,-99,hard,25,1.2340666999998575,['n'],1,right,['9'],5,0.43348390000028303,,,27,18,Vrouw,Rechts,1,
,xotask,xotask,dotcolour,44,2,164,464,main,negativefb,-99,average,61,0.8510830000000169,['c'],1,left,['9'],5,0.7035885000000235,,,27,18,Vrouw,Rechts,1,
,xotask,xotask,dotcolour,45,2,165,465,main,negativefb,-99,easy,70,1.6177709999997205,['c'],1,left,['8'],4,0.42750299999988783,,,27,18,Vrouw,Rechts,1,
,xotask,xotask,dotcolour,46,2,166,466,main,negativefb,-99,average,19,0.8171769999999015,['n'],1,right,['9'],5,0.4189755000002151,,,27,18,Vrouw,Rechts,1,
,xotask,xotask,dotcolour,47,2,167,467,main,negativefb,-99,hard,29,1.3844307000003937,['n'],1,right,['8'],4,0.37988240000004225,,,27,18,Vrouw,Rechts,1,
,xotask,xotask,dotcolour,48,2,168,468,main,negativefb,-99,average,15,0.8854102000000239,['n'],1,right,['9'],5,0.34620040000027075,,,27,18,Vrouw,Rechts,1,
,xotask,xotask,dotcolour,49,2,169,469,main,negativefb,-99,hard,29,0.701714599999832,['n'],1,right,['8'],4,0.3288809000000583,,,27,18,Vrouw,Rechts,1,
,xotask,xotask,dotcolour,50,2,170,470,main,negativefb,-99,average,19,1.0853736999997636,['n'],1,right,['8'],4,0.30641879999984667,,,27,18,Vrouw,Rechts,1,
,xotask,xotask,dotcolour,51,2,171,471,main,negativefb,-99,easy,7,1.6676261000002341,['n'],1,right,['9'],5,0.2920426000000589,,,27,18,Vrouw,Rechts,1,
,xotask,xotask,dotcolour,52,2,172,472,main,negativefb,-99,average,63,0.8180935000000318,['c'],1,left,['8'],4,0.5526926000002277,,,27,18,Vrouw,Rechts,1,
,xotask,xotask,dotcolour,53,2,173,473,main,negativefb,-99,average,61,0.9171603999998297,['c'],1,left,['8'],4,0.7352062999998452,,,27,18,Vrouw,Rechts,1,
,xotask,xotask,dotcolour,54,2,174,474,main,negativefb,-99,average,60,1.0515482000000702,['c'],1,left,['9'],5,0.32804510000005394,,,27,18,Vrouw,Rechts,1,
,xotask,xotask,dotcolour,55,2,175,475,main,negativefb,-99,easy,8,0.8178839000001972,['n'],1,right,['0'],6,0.7788542999996935,,,27,18,Vrouw,Rechts,1,
,xotask,xotask,dotcolour,56,2,176,476,main,negativefb,-99,average,15,0.9346353000000818,['n'],1,right,['9'],5,0.4158886000000166,,,27,18,Vrouw,Rechts,1,
,xotask,xotask,dotcolour,57,2,177,477,main,negativefb,-99,easy,9,1.1838866000002781,['n'],1,right,['9'],5,0.4247645000000375,,,27,18,Vrouw,Rechts,1,
,xotask,xotask,dotcolour,58,2,178,478,main,negativefb,-99,hard,27,0.884517699999833,['n'],1,right,['9'],5,0.5738807999996425,,,27,18,Vrouw,Rechts,1,
,xotask,xotask,dotcolour,59,2,179,479,main,negativefb,-99,average,62,1.2841207000001305,['n'],0,left,['8'],4,0.5560236000001169,,,27,18,Vrouw,Rechts,1,
,xotask,xotask,dotcolour,0,3,180,480,main,negativefb,-99,hard,51,0.9507672999998249,['c'],1,left,['9'],5,0.6549723999996786,,,27,18,Vrouw,Rechts,1,
,xotask,xotask,dotcolour,1,3,181,481,main,negativefb,-99,hard,52,0.7513243000003058,['c'],1,left,['9'],5,0.7825093999999808,,,27,18,Vrouw,Rechts,1,
,xotask,xotask,dotcolour,2,3,182,482,main,negativefb,-99,easy,9,0.9849780999998075,['n'],1,right,['9'],5,0.4335320000000138,,,27,18,Vrouw,Rechts,1,
,xotask,xotask,dotcolour,3,3,183,483,main,negativefb,-99,easy,9,0.7010991000001923,['n'],1,right,['9'],5,0.44419749999997293,,,27,18,Vrouw,Rechts,1,
,xotask,xotask,dotcolour,4,3,184,484,main,negativefb,-99,easy,73,0.6671706000001905,['c'],1,left,['0'],6,0.49652530000003026,,,27,18,Vrouw,Rechts,1,
,xotask,xotask,dotcolour,5,3,185,485,main,negativefb,-99,hard,25,0.7845053000000917,['c'],0,right,['8'],4,0.47821939999994356,,,27,18,Vrouw,Rechts,1,
,xotask,xotask,dotcolour,6,3,186,486,main,negativefb,-99,easy,9,0.6501137000000199,['n'],1,right,['9'],5,0.3394321000000673,,,27,18,Vrouw,Rechts,1,
,xotask,xotask,dotcolour,7,3,187,487,main,negativefb,-99,easy,72,0.7666939000000639,['c'],1,left,['9'],5,0.35187489999998434,,,27,18,Vrouw,Rechts,1,
,xotask,xotask,dotcolour,8,3,188,488,main,negativefb,-99,average,16,1.0515150000001086,['n'],1,right,['8'],4,0.5202371000000312,,,27,18,Vrouw,Rechts,1,
,xotask,xotask,dotcolour,9,3,189,489,main,negativefb,-99,hard,53,1.0679581999997936,['c'],1,left,['8'],4,0.33005650000040987,,,27,18,Vrouw,Rechts,1,
,xotask,xotask,dotcolour,10,3,190,490,main,negativefb,-99,average,60,1.0511750000000575,['c'],1,left,['9'],5,0.36396730000024036,,,27,18,Vrouw,Rechts,1,
,xotask,xotask,dotcolour,11,3,191,491,main,negativefb,-99,average,63,0.6169514000002891,['c'],1,left,['9'],5,0.35699220000014975,,,27,18,Vrouw,Rechts,1,
,xotask,xotask,dotcolour,12,3,192,492,main,negativefb,-99,average,63,1.3170023000002402,['c'],1,left,['8'],4,0.3476368999999977,,,27,18,Vrouw,Rechts,1,
,xotask,xotask,dotcolour,13,3,193,493,main,negativefb,-99,easy,8,0.8681080999999722,['n'],1,right,['9'],5,0.5792690999996921,,,27,18,Vrouw,Rechts,1,
,xotask,xotask,dotcolour,14,3,194,494,main,negativefb,-99,average,62,1.168045500000062,['c'],1,left,['9'],5,0.2626135999998951,,,27,18,Vrouw,Rechts,1,
,xotask,xotask,dotcolour,15,3,195,495,main,negativefb,-99,easy,7,0.9512700000000223,['n'],1,right,['8'],4,0.31958099999974365,,,27,18,Vrouw,Rechts,1,
,xotask,xotask,dotcolour,16,3,196,496,main,negativefb,-99,easy,6,1.20157109999991,['n'],1,right,['8'],4,0.3072513000001891,,,27,18,Vrouw,Rechts,1,
,xotask,xotask,dotcolour,17,3,197,497,main,negativefb,-99,average,63,1.0183587000001353,['c'],1,left,['9'],5,0.40833569999995234,,,27,18,Vrouw,Rechts,1,
,xotask,xotask,dotcolour,18,3,198,498,main,negativefb,-99,easy,71,0.7347095999998601,['c'],1,left,['9'],5,0.6991978999999446,,,27,18,Vrouw,Rechts,1,
,xotask,xotask,dotcolour,19,3,199,499,main,negativefb,-99,easy,74,0.5836599999997816,['c'],1,left,['9'],5,0.49617040000021007,,,27,18,Vrouw,Rechts,1,
,xotask,xotask,dotcolour,20,3,200,500,main,negativefb,-99,average,19,1.0344777999998769,['n'],1,right,['9'],5,0.9808526000001621,,,27,18,Vrouw,Rechts,1,
,xotask,xotask,dotcolour,21,3,201,501,main,negativefb,-99,easy,71,0.8186430000000655,['c'],1,left,['9'],5,0.4934327000000849,,,27,18,Vrouw,Rechts,1,
,xotask,xotask,dotcolour,22,3,202,502,main,negativefb,-99,average,17,0.8012821999996049,['n'],1,right,['9'],5,0.3866417999997793,,,27,18,Vrouw,Rechts,1,
,xotask,xotask,dotcolour,23,3,203,503,main,negativefb,-99,hard,50,1.1519690999998602,['c'],1,left,['9'],5,0.41395150000016656,,,27,18,Vrouw,Rechts,1,
,xotask,xotask,dotcolour,24,3,204,504,main,negativefb,-99,average,63,1.18415640000012,['c'],1,left,['9'],5,0.5752965000001495,,,27,18,Vrouw,Rechts,1,
,xotask,xotask,dotcolour,25,3,205,505,main,negativefb,-99,average,19,0.7678723000003629,['n'],1,right,['9'],5,0.37810429999990447,,,27,18,Vrouw,Rechts,1,
,xotask,xotask,dotcolour,26,3,206,506,main,negativefb,-99,hard,50,0.8671694999998181,['c'],1,left,['8'],4,0.3935492999999042,,,27,18,Vrouw,Rechts,1,
,xotask,xotask,dotcolour,27,3,207,507,main,negativefb,-99,hard,51,0.9003026999998838,['c'],1,left,['9'],5,0.38355030000002444,,,27,18,Vrouw,Rechts,1,
,xotask,xotask,dotcolour,28,3,208,508,main,negativefb,-99,easy,73,0.8334230000000389,['c'],1,left,['9'],5,0.3834068999999545,,,27,18,Vrouw,Rechts,1,
,xotask,xotask,dotcolour,29,3,209,509,main,negativefb,-99,average,18,1.3836191000000326,['n'],1,right,['8'],4,1.224951499999861,,,27,18,Vrouw,Rechts,1,
,xotask,xotask,dotcolour,30,3,210,510,main,negativefb,-99,average,18,1.2169315000001006,['n'],1,right,['9'],5,0.5045700000000579,,,27,18,Vrouw,Rechts,1,
,xotask,xotask,dotcolour,31,3,211,511,main,negativefb,-99,average,18,0.6514532999999574,['n'],1,right,['9'],5,0.4911078999998608,,,27,18,Vrouw,Rechts,1,
,xotask,xotask,dotcolour,32,3,212,512,main,negativefb,-99,hard,53,0.7346463999997468,['c'],1,left,['9'],5,0.3313858999999866,,,27,18,Vrouw,Rechts,1,
,xotask,xotask,dotcolour,33,3,213,513,main,negativefb,-99,hard,26,1.167755699999816,['n'],1,right,['9'],5,0.4955259000003025,,,27,18,Vrouw,Rechts,1,
,xotask,xotask,dotcolour,34,3,214,514,main,negativefb,-99,average,62,0.7505876000000171,['c'],1,left,['9'],5,0.9990789000003133,,,27,18,Vrouw,Rechts,1,
,xotask,xotask,dotcolour,35,3,215,515,main,negativefb,-99,easy,73,0.7341267000001608,['c'],1,left,['9'],5,0.3225373000000218,,,27,18,Vrouw,Rechts,1,
,xotask,xotask,dotcolour,36,3,216,516,main,negativefb,-99,easy,5,0.7184476000002178,['n'],1,right,['9'],5,0.5144710999998097,,,27,18,Vrouw,Rechts,1,
,xotask,xotask,dotcolour,37,3,217,517,main,negativefb,-99,hard,26,1.1008295999999973,['n'],1,right,['9'],5,0.6264030999996066,,,27,18,Vrouw,Rechts,1,
,xotask,xotask,dotcolour,38,3,218,518,main,negativefb,-99,hard,51,1.6843294000000242,['n'],0,left,['9'],5,0.6155126000003293,,,27,18,Vrouw,Rechts,1,
,xotask,xotask,dotcolour,39,3,219,519,main,negativefb,-99,hard,27,0.8171204000000216,['n'],1,right,['9'],5,0.5427273999998761,,,27,18,Vrouw,Rechts,1,
,xotask,xotask,dotcolour,40,3,220,520,main,negativefb,-99,average,63,0.9509080000002541,['c'],1,left,['9'],5,0.4442113000000063,,,27,18,Vrouw,Rechts,1,
,xotask,xotask,dotcolour,41,3,221,521,main,negativefb,-99,hard,26,1.4179464999997435,['n'],1,right,['9'],5,0.6110182000002169,,,27,18,Vrouw,Rechts,1,
,xotask,xotask,dotcolour,42,3,222,522,main,negativefb,-99,easy,74,0.7847812999998496,['c'],1,left,['9'],5,0.5641851000000315,,,27,18,Vrouw,Rechts,1,
,xotask,xotask,dotcolour,43,3,223,523,main,negativefb,-99,average,62,0.7837585000002036,['c'],1,left,['9'],5,0.3517550999999912,,,27,18,Vrouw,Rechts,1,
,xotask,xotask,dotcolour,44,3,224,524,main,negativefb,-99,hard,27,0.7833541999998488,['n'],1,right,['9'],5,0.4755480000003445,,,27,18,Vrouw,Rechts,1,
,xotask,xotask,dotcolour,45,3,225,525,main,negativefb,-99,average,17,0.9183029000000715,['n'],1,right,['9'],5,0.37976260000004913,,,27,18,Vrouw,Rechts,1,
,xotask,xotask,dotcolour,46,3,226,526,main,negativefb,-99,average,18,0.8842380999999477,['n'],1,right,['9'],5,0.4429003999998713,,,27,18,Vrouw,Rechts,1,
,xotask,xotask,dotcolour,47,3,227,527,main,negativefb,-99,hard,51,1.8511145000002216,['n'],0,left,['8'],4,0.4959601999998995,,,27,18,Vrouw,Rechts,1,
,xotask,xotask,dotcolour,48,3,228,528,main,negativefb,-99,easy,6,1.001399400000082,['n'],1,right,['9'],5,0.5257286000000931,,,27,18,Vrouw,Rechts,1,
,xotask,xotask,dotcolour,49,3,229,529,main,negativefb,-99,hard,27,0.7012023000002046,['n'],1,right,['9'],5,0.4051374000000578,,,27,18,Vrouw,Rechts,1,
,xotask,xotask,dotcolour,50,3,230,530,main,negativefb,-99,hard,53,0.8671997000001284,['c'],1,left,['9'],5,0.3869832000000315,,,27,18,Vrouw,Rechts,1,
,xotask,xotask,dotcolour,51,3,231,531,main,negativefb,-99,average,63,1.0174160000001393,['n'],0,left,['8'],4,0.6123152000000118,,,27,18,Vrouw,Rechts,1,
,xotask,xotask,dotcolour,52,3,232,532,main,negativefb,-99,easy,73,0.6849233000002641,['c'],1,left,['9'],5,0.3773434999998244,,,27,18,Vrouw,Rechts,1,
,xotask,xotask,dotcolour,53,3,233,533,main,negativefb,-99,easy,73,0.7837635000000773,['c'],1,left,['9'],5,0.8202205000002323,,,27,18,Vrouw,Rechts,1,
,xotask,xotask,dotcolour,54,3,234,534,main,negativefb,-99,hard,26,1.733696400000099,['n'],1,right,['8'],4,0.6070254999999634,,,27,18,Vrouw,Rechts,1,
,xotask,xotask,dotcolour,55,3,235,535,main,negativefb,-99,easy,5,1.2507971999998517,['n'],1,right,['9'],5,0.3583056999996188,,,27,18,Vrouw,Rechts,1,
,xotask,xotask,dotcolour,56,3,236,536,main,negativefb,-99,average,17,0.7499377000003733,['n'],1,right,['9'],5,0.4671629999998004,,,27,18,Vrouw,Rechts,1,
,xotask,xotask,dotcolour,57,3,237,537,main,negativefb,-99,easy,7,1.2516716000000088,['n'],1,right,['9'],5,0.510125600000265,,,27,18,Vrouw,Rechts,1,
,xotask,xotask,dotcolour,58,3,238,538,main,negativefb,-99,hard,27,1.1511600999997427,['n'],1,right,['9'],5,0.43688509999992675,,,27,18,Vrouw,Rechts,1,
,xotask,xotask,dotcolour,59,3,239,539,main,negativefb,-99,hard,28,0.7170507999999245,['n'],1,right,['9'],5,0.839592299999822,,,27,18,Vrouw,Rechts,1,
,xotask,xotask,dotcolour,0,4,240,540,main,negativefb,-99,easy,9,1.0669183999998495,['n'],1,right,['9'],5,0.5109126000002107,,,27,18,Vrouw,Rechts,1,
,xotask,xotask,dotcolour,1,4,241,541,main,negativefb,-99,average,16,0.9681734000000688,['n'],1,right,['9'],5,0.5892102000002524,,,27,18,Vrouw,Rechts,1,
,xotask,xotask,dotcolour,2,4,242,542,main,negativefb,-99,hard,54,0.8000320999999531,['c'],1,left,['9'],5,0.43044319999989966,,,27,18,Vrouw,Rechts,1,
,xotask,xotask,dotcolour,3,4,243,543,main,negativefb,-99,hard,53,0.8170891999998275,['n'],0,left,['9'],5,0.36553989999993064,,,27,18,Vrouw,Rechts,1,
,xotask,xotask,dotcolour,4,4,244,544,main,negativefb,-99,easy,9,0.984258200000113,['n'],1,right,['9'],5,0.41650739999977304,,,27,18,Vrouw,Rechts,1,
,xotask,xotask,dotcolour,5,4,245,545,main,negativefb,-99,average,62,0.8681055000001834,['c'],1,left,['9'],5,0.30992420000029597,,,27,18,Vrouw,Rechts,1,
,xotask,xotask,dotcolour,6,4,246,546,main,negativefb,-99,average,17,0.6998671000001195,['n'],1,right,['9'],5,0.3505337999999938,,,27,18,Vrouw,Rechts,1,
,xotask,xotask,dotcolour,7,4,247,547,main,negativefb,-99,average,61,1.017728000000261,['c'],1,left,['8'],4,0.38469350000013947,,,27,18,Vrouw,Rechts,1,
,xotask,xotask,dotcolour,8,4,248,548,main,negativefb,-99,hard,28,0.800156600000264,['n'],1,right,['9'],5,0.30559790000006615,,,27,18,Vrouw,Rechts,1,
,xotask,xotask,dotcolour,9,4,249,549,main,negativefb,-99,average,16,1.217871699999705,['n'],1,right,['9'],5,0.3979905000001054,,,27,18,Vrouw,Rechts,1,
,xotask,xotask,dotcolour,10,4,250,550,main,negativefb,-99,average,61,0.7842580000001362,['c'],1,left,['9'],5,0.39907169999969483,,,27,18,Vrouw,Rechts,1,
,xotask,xotask,dotcolour,11,4,251,551,main,negativefb,-99,hard,54,1.3672285999996348,['c'],1,left,['9'],5,0.45767290000003413,,,27,18,Vrouw,Rechts,1,
,xotask,xotask,dotcolour,12,4,252,552,main,negativefb,-99,easy,5,0.6180065999997169,['n'],1,right,['9'],5,0.3279130000000805,,,27,18,Vrouw,Rechts,1,
,xotask,xotask,dotcolour,13,4,253,553,main,negativefb,-99,average,62,0.8008252000004177,['c'],1,left,['9'],5,0.411471999999776,,,27,18,Vrouw,Rechts,1,
,xotask,xotask,dotcolour,14,4,254,554,main,negativefb,-99,easy,73,0.7496898999997939,['c'],1,left,['9'],5,0.34252620000006573,,,27,18,Vrouw,Rechts,1,
,xotask,xotask,dotcolour,15,4,255,555,main,negativefb,-99,average,19,0.9510561000001871,['n'],1,right,['9'],5,0.3713474999999562,,,27,18,Vrouw,Rechts,1,
,xotask,xotask,dotcolour,16,4,256,556,main,negativefb,-99,hard,54,1.2680335999998533,['c'],1,left,['9'],5,0.5947552999996333,,,27,18,Vrouw,Rechts,1,
,xotask,xotask,dotcolour,17,4,257,557,main,negativefb,-99,average,61,0.7180548999999701,['c'],1,left,['9'],5,0.34345489999986967,,,27,18,Vrouw,Rechts,1,
,xotask,xotask,dotcolour,18,4,258,558,main,negativefb,-99,average,16,0.7340129999997771,['n'],1,right,['9'],5,0.31682649999993373,,,27,18,Vrouw,Rechts,1,
,xotask,xotask,dotcolour,19,4,259,559,main,negativefb,-99,easy,9,0.8667763999997078,['n'],1,right,['9'],5,0.47867189999988113,,,27,18,Vrouw,Rechts,1,
,xotask,xotask,dotcolour,20,4,260,560,main,negativefb,-99,hard,52,1.3669597999996768,['c'],1,left,['8'],4,0.4219152999999096,,,27,18,Vrouw,Rechts,1,
,xotask,xotask,dotcolour,21,4,261,561,main,negativefb,-99,easy,72,1.134431300000415,['n'],0,left,['3'],3,1.0326881999999387,,,27,18,Vrouw,Rechts,1,
,xotask,xotask,dotcolour,22,4,262,562,main,negativefb,-99,easy,74,0.8512004999997771,['c'],1,left,['9'],5,0.4139767000001484,,,27,18,Vrouw,Rechts,1,
,xotask,xotask,dotcolour,23,4,263,563,main,negativefb,-99,hard,25,0.9837689000000864,['n'],1,right,['9'],5,0.34320110000044224,,,27,18,Vrouw,Rechts,1,
,xotask,xotask,dotcolour,24,4,264,564,main,negativefb,-99,hard,26,0.9677068000000872,['c'],0,right,['8'],4,0.4284493999998631,,,27,18,Vrouw,Rechts,1,
,xotask,xotask,dotcolour,25,4,265,565,main,negativefb,-99,hard,54,1.051665899999989,['c'],1,left,['8'],4,0.4260585999995783,,,27,18,Vrouw,Rechts,1,
,xotask,xotask,dotcolour,26,4,266,566,main,negativefb,-99,average,63,0.6515415999997458,['c'],1,left,['9'],5,0.3519288999996206,,,27,18,Vrouw,Rechts,1,
,xotask,xotask,dotcolour,27,4,267,567,main,negativefb,-99,hard,52,0.9671441000000414,['c'],1,left,['8'],4,0.3235130000002755,,,27,18,Vrouw,Rechts,1,
,xotask,xotask,dotcolour,28,4,268,568,main,negativefb,-99,average,16,0.8677933000003577,['n'],1,right,['8'],4,0.5498563000001013,,,27,18,Vrouw,Rechts,1,
,xotask,xotask,dotcolour,29,4,269,569,main,negativefb,-99,hard,51,1.2020489999999882,['c'],1,left,['8'],4,0.5117093999997451,,,27,18,Vrouw,Rechts,1,
,xotask,xotask,dotcolour,30,4,270,570,main,negativefb,-99,average,63,0.9174932999999328,['c'],1,left,['9'],5,0.2964507000001504,,,27,18,Vrouw,Rechts,1,
,xotask,xotask,dotcolour,31,4,271,571,main,negativefb,-99,average,60,0.9019145000002027,['c'],1,left,['9'],5,0.5854732000002514,,,27,18,Vrouw,Rechts,1,
,xotask,xotask,dotcolour,32,4,272,572,main,negativefb,-99,hard,29,0.9174146000000292,['n'],1,right,['9'],5,0.3183383999999023,,,27,18,Vrouw,Rechts,1,
,xotask,xotask,dotcolour,33,4,273,573,main,negativefb,-99,easy,74,1.2015077999999448,['c'],1,left,['8'],4,0.6501702999998997,,,27,18,Vrouw,Rechts,1,
,xotask,xotask,dotcolour,34,4,274,574,main,negativefb,-99,hard,52,1.8349739999998746,['n'],0,left,['8'],4,0.42349590000003445,,,27,18,Vrouw,Rechts,1,
,xotask,xotask,dotcolour,35,4,275,575,main,negativefb,-99,easy,9,1.1503420999997616,['n'],1,right,['9'],5,0.4424985000000561,,,27,18,Vrouw,Rechts,1,
,xotask,xotask,dotcolour,36,4,276,576,main,negativefb,-99,easy,74,1.1677786999998716,['c'],1,left,['9'],5,0.6738796999998158,,,27,18,Vrouw,Rechts,1,
,xotask,xotask,dotcolour,37,4,277,577,main,negativefb,-99,average,63,0.9668252999999822,['c'],1,left,['9'],5,0.8821530999998686,,,27,18,Vrouw,Rechts,1,
,xotask,xotask,dotcolour,38,4,278,578,main,negativefb,-99,easy,8,0.916827000000012,['n'],1,right,['9'],5,0.7469399000001431,,,27,18,Vrouw,Rechts,1,
,xotask,xotask,dotcolour,39,4,279,579,main,negativefb,-99,easy,9,0.7494883000003938,['n'],1,right,['0'],6,0.40824930000007953,,,27,18,Vrouw,Rechts,1,
,xotask,xotask,dotcolour,40,4,280,580,main,negativefb,-99,average,17,0.9837993999999526,['n'],1,right,['0'],6,0.6496070000002874,,,27,18,Vrouw,Rechts,1,
,xotask,xotask,dotcolour,41,4,281,581,main,negativefb,-99,easy,70,0.8676752999999735,['c'],1,left,['9'],5,0.3974974999996448,,,27,18,Vrouw,Rechts,1,
,xotask,xotask,dotcolour,42,4,282,582,main,negativefb,-99,hard,26,0.9847786000000269,['c'],0,right,['8'],4,1.1111928000000262,,,27,18,Vrouw,Rechts,1,
,xotask,xotask,dotcolour,43,4,283,583,main,negativefb,-99,hard,26,0.9012168999997812,['n'],1,right,['8'],4,0.41590679999990243,,,27,18,Vrouw,Rechts,1,
,xotask,xotask,dotcolour,44,4,284,584,main,negativefb,-99,easy,74,0.8672080999999707,['c'],1,left,['0'],6,0.35715310000023237,,,27,18,Vrouw,Rechts,1,
,xotask,xotask,dotcolour,45,4,285,585,main,negativefb,-99,easy,70,0.8342375000001994,['c'],1,left,['9'],5,0.28584549999959563,,,27,18,Vrouw,Rechts,1,
,xotask,xotask,dotcolour,46,4,286,586,main,negativefb,-99,hard,26,1.4846275999998397,['n'],1,right,['9'],5,0.5202189999999973,,,27,18,Vrouw,Rechts,1,
,xotask,xotask,dotcolour,47,4,287,587,main,negativefb,-99,easy,6,0.9178729000000203,['n'],1,right,['9'],5,0.41562019999992117,,,27,18,Vrouw,Rechts,1,
,xotask,xotask,dotcolour,48,4,288,588,main,negativefb,-99,hard,53,1.2670659000000342,['c'],1,left,['8'],4,0.43787109999993845,,,27,18,Vrouw,Rechts,1,
,xotask,xotask,dotcolour,49,4,289,589,main,negativefb,-99,easy,72,1.0845542000001842,['c'],1,left,['9'],5,0.28143469999986337,,,27,18,Vrouw,Rechts,1,
,xotask,xotask,dotcolour,50,4,290,590,main,negativefb,-99,average,19,0.8329770000000281,['n'],1,right,['0'],6,0.3889369999997143,,,27,18,Vrouw,Rechts,1,
,xotask,xotask,dotcolour,51,4,291,591,main,negativefb,-99,hard,27,1.750813599999674,['c'],0,right,['8'],4,0.3608676999997442,,,27,18,Vrouw,Rechts,1,
,xotask,xotask,dotcolour,52,4,292,592,main,negativefb,-99,average,62,1.200268099999903,['c'],1,left,['8'],4,0.3788841999999022,,,27,18,Vrouw,Rechts,1,
,xotask,xotask,dotcolour,53,4,293,593,main,negativefb,-99,easy,74,0.8842972000002192,['c'],1,left,['0'],6,0.6258766000000833,,,27,18,Vrouw,Rechts,1,
,xotask,xotask,dotcolour,54,4,294,594,main,negativefb,-99,easy,7,0.7175810000003366,['n'],1,right,['0'],6,0.41398130000015954,,,27,18,Vrouw,Rechts,1,
,xotask,xotask,dotcolour,55,4,295,595,main,negativefb,-99,hard,29,0.9847235000002001,['n'],1,right,['9'],5,0.35869430000002467,,,27,18,Vrouw,Rechts,1,
,xotask,xotask,dotcolour,56,4,296,596,main,negativefb,-99,average,16,1.1678391000000374,['n'],1,right,['9'],5,0.4988282000003892,,,27,18,Vrouw,Rechts,1,
,xotask,xotask,dotcolour,57,4,297,597,main,negativefb,-99,easy,5,0.8507515000001149,['n'],1,right,['9'],5,0.5812280000000101,,,27,18,Vrouw,Rechts,1,
,xotask,xotask,dotcolour,58,4,298,598,main,negativefb,-99,average,17,1.0500056999999288,['n'],1,right,['9'],5,0.4290929000003416,,,27,18,Vrouw,Rechts,1,
,xotask,xotask,dotcolour,59,4,299,599,main,negativefb,-99,hard,28,0.7852216000001135,['n'],1,right,['9'],5,0.38109280000026047,,,27,18,Vrouw,Rechts,1,
,xotask,xotask,dotcolour,0,0,0,600,training,negativefb,69,hard,50,1.13469699999996,['n'],0,left,['8'],4,0.9608358000000408,,,27,18,Vrouw,Rechts,1,
,xotask,xotask,dotcolour,1,0,1,601,training,negativefb,53,easy,8,0.7671794000002592,['n'],1,right,['9'],5,0.731381699999929,,,27,18,Vrouw,Rechts,1,
,xotask,xotask,dotcolour,2,0,2,602,training,negativefb,23,average,62,0.8011960000003455,['n'],0,left,['9'],5,0.5661101999999119,,,27,18,Vrouw,Rechts,1,
,xotask,xotask,dotcolour,3,0,3,603,training,negativefb,96,average,18,0.7507854999998926,['n'],1,right,['9'],5,0.5215763000001061,,,27,18,Vrouw,Rechts,1,
,xotask,xotask,dotcolour,4,0,4,604,training,negativefb,83,hard,28,0.6844640999997864,['n'],1,right,['9'],5,0.49786409999978787,,,27,18,Vrouw,Rechts,1,
,xotask,xotask,dotcolour,5,0,5,605,training,negativefb,80,hard,28,0.9829554000002645,['n'],1,right,['9'],5,0.44602789999999004,,,27,18,Vrouw,Rechts,1,
,xotask,xotask,dotcolour,6,0,6,606,training,negativefb,83,hard,27,0.6499502000001485,['n'],1,right,['9'],5,0.4112052999998923,,,27,18,Vrouw,Rechts,1,
,xotask,xotask,dotcolour,7,0,7,607,training,negativefb,72,easy,74,0.8167494999997871,['c'],1,left,['9'],5,0.4421583000003011,,,27,18,Vrouw,Rechts,1,
,xotask,xotask,dotcolour,8,0,8,608,training,negativefb,95,easy,6,0.7848926000001484,['n'],1,right,['9'],5,0.33732099999997445,,,27,18,Vrouw,Rechts,1,
,xotask,xotask,dotcolour,9,0,9,609,training,negativefb,78,easy,8,0.9500004999999874,['n'],1,right,['9'],5,0.4539946999998392,,,27,18,Vrouw,Rechts,1,
,xotask,xotask,dotcolour,10,0,10,610,training,negativefb,27,average,19,1.9678216000002067,['c'],0,right,['8'],4,0.26169030000028215,,,27,18,Vrouw,Rechts,1,
,xotask,xotask,dotcolour,11,0,11,611,training,negativefb,75,easy,73,0.766939800000273,['c'],1,left,['9'],5,0.397046600000067,,,27,18,Vrouw,Rechts,1,
,xotask,xotask,dotcolour,12,0,12,612,training,negativefb,76,easy,70,1.1502181999999266,['c'],1,left,['9'],5,0.3522934000002351,,,27,18,Vrouw,Rechts,1,
,xotask,xotask,dotcolour,13,0,13,613,training,negativefb,81,average,19,0.7518972000002577,['n'],1,right,['9'],5,0.3967472999997881,,,27,18,Vrouw,Rechts,1,
,xotask,xotask,dotcolour,14,0,14,614,training,negativefb,42,hard,54,1.216805099999874,['c'],1,left,['8'],4,0.4679460000002109,,,27,18,Vrouw,Rechts,1,
,xotask,xotask,dotcolour,15,0,15,615,training,negativefb,39,hard,27,0.6342551999996431,['n'],1,right,['8'],4,0.8313140999998723,,,27,18,Vrouw,Rechts,1,
,xotask,xotask,dotcolour,16,0,16,616,training,negativefb,82,hard,50,0.7159378000001198,['c'],1,left,['9'],5,0.2895707000002403,,,27,18,Vrouw,Rechts,1,
,xotask,xotask,dotcolour,17,0,17,617,training,negativefb,92,average,61,1.0501103999999941,['c'],1,left,['9'],5,0.9492460999999821,,,27,18,Vrouw,Rechts,1,
,xotask,xotask,dotcolour,18,0,18,618,training,negativefb,63,hard,29,0.9005475000003571,['n'],1,right,['8'],4,0.35427919999983715,,,27,18,Vrouw,Rechts,1,
,xotask,xotask,dotcolour,19,0,19,619,training,negativefb,15,average,63,0.7996506999998019,['c'],1,left,['8'],4,0.42030890000023646,,,27,18,Vrouw,Rechts,1,
,xotask,xotask,dotcolour,20,0,20,620,training,negativefb,88,average,16,0.9664546999997583,['n'],1,right,['9'],5,1.2697087000001375,,,27,18,Vrouw,Rechts,1,
,xotask,xotask,dotcolour,21,0,21,621,training,negativefb,64,hard,51,1.4675326000001405,['n'],0,left,['8'],4,0.3035921000000599,,,27,18,Vrouw,Rechts,1,
,xotask,xotask,dotcolour,22,0,22,622,training,negativefb,17,hard,51,1.1676330000000235,['n'],0,left,['8'],4,0.29280389999985346,,,27,18,Vrouw,Rechts,1,
,xotask,xotask,dotcolour,23,0,23,623,training,negativefb,56,hard,53,1.0992994999996881,['c'],1,left,['8'],4,0.3818264999999883,,,27,18,Vrouw,Rechts,1,
,xotask,xotask,dotcolour,24,0,24,624,training,negativefb,87,easy,8,0.7836357000001044,['n'],1,right,['9'],5,0.3433178999998745,,,27,18,Vrouw,Rechts,1,
,xotask,xotask,dotcolour,25,0,25,625,training,negativefb,59,average,61,0.7008434999997917,['c'],1,left,['9'],5,0.40561109999998735,,,27,18,Vrouw,Rechts,1,
,xotask,xotask,dotcolour,26,0,26,626,training,negativefb,74,average,63,0.8497850999997354,['c'],1,left,['9'],5,0.3638634999997521,,,27,18,Vrouw,Rechts,1,
,xotask,xotask,dotcolour,27,0,27,627,training,negativefb,23,hard,25,0.8500463000000309,['n'],1,right,['9'],5,0.4274955000000773,,,27,18,Vrouw,Rechts,1,
,xotask,xotask,dotcolour,28,0,28,628,training,negativefb,55,hard,54,0.7667334000002484,['c'],1,left,['9'],5,0.3481323999999404,,,27,18,Vrouw,Rechts,1,
,xotask,xotask,dotcolour,29,0,29,629,training,negativefb,92,easy,5,0.7675852999996096,['n'],1,right,['9'],5,0.28753740000001926,,,27,18,Vrouw,Rechts,1,
,xotask,xotask,dotcolour,30,0,30,630,training,negativefb,69,average,64,0.7004443999999239,['c'],1,left,['8'],4,0.47229719999995723,,,27,18,Vrouw,Rechts,1,
,xotask,xotask,dotcolour,31,0,31,631,training,negativefb,95,easy,9,0.5840170000001308,['n'],1,right,['9'],5,0.366253499999857,,,27,18,Vrouw,Rechts,1,
,xotask,xotask,dotcolour,32,0,32,632,training,negativefb,97,average,16,0.5503172999997332,['n'],1,right,['8'],4,0.4974695000000793,,,27,18,Vrouw,Rechts,1,
,xotask,xotask,dotcolour,33,0,33,633,training,negativefb,31,average,17,1.6160979999999654,['c'],0,right,['8'],4,0.30984449999959907,,,27,18,Vrouw,Rechts,1,
,xotask,xotask,dotcolour,34,0,34,634,training,negativefb,70,easy,7,0.6671295999999529,['n'],1,right,['9'],5,0.31094309999980396,,,27,18,Vrouw,Rechts,1,
,xotask,xotask,dotcolour,35,0,35,635,training,negativefb,79,easy,70,0.6000641000000542,['c'],1,left,['9'],5,0.2747158000001946,,,27,18,Vrouw,Rechts,1,
,xotask,xotask,dotcolour,36,0,36,636,training,negativefb,54,easy,74,0.6662185000000136,['c'],1,left,['9'],5,0.3176861000001736,,,27,18,Vrouw,Rechts,1,
,xotask,xotask,dotcolour,37,0,37,637,training,negativefb,35,hard,27,0.9334348000002137,['n'],1,right,['9'],5,0.4912841999998818,,,27,18,Vrouw,Rechts,1,
,xotask,xotask,dotcolour,38,0,38,638,training,negativefb,67,average,19,0.7511658000003081,['c'],0,right,['9'],5,0.4903220999999576,,,27,18,Vrouw,Rechts,1,
,xotask,xotask,dotcolour,39,0,39,639,training,negativefb,86,average,16,1.216854400000102,['n'],1,right,['9'],5,0.5099463000001379,,,27,18,Vrouw,Rechts,1,
,xotask,xotask,dotcolour,40,0,40,640,training,negativefb,69,average,64,0.7169720000001689,['c'],1,left,['9'],5,0.34229770000001736,,,27,18,Vrouw,Rechts,1,
,xotask,xotask,dotcolour,41,0,41,641,training,negativefb,53,easy,7,0.7829761000002691,['n'],1,right,['9'],5,0.6011539999999513,,,27,18,Vrouw,Rechts,1,
,xotask,xotask,dotcolour,42,0,42,642,training,negativefb,74,easy,73,0.6496624999999767,['c'],1,left,['9'],5,0.41524180000033084,,,27,18,Vrouw,Rechts,1,
,xotask,xotask,dotcolour,43,0,43,643,training,negativefb,28,average,61,0.7507017999996606,['c'],1,left,['8'],4,0.36094169999978476,,,27,18,Vrouw,Rechts,1,
,xotask,xotask,dotcolour,44,0,44,644,training,negativefb,39,average,16,0.8331388999999945,['n'],1,right,['8'],4,0.44123579999995854,,,27,18,Vrouw,Rechts,1,
,xotask,xotask,dotcolour,45,0,45,645,training,negativefb,59,hard,54,1.4347308999999768,['c'],1,left,['8'],4,0.6147152000003189,,,27,18,Vrouw,Rechts,1,
,xotask,xotask,dotcolour,46,0,46,646,training,negativefb,51,easy,7,0.6998389999998835,['n'],1,right,['9'],5,0.37776239999993777,,,27,18,Vrouw,Rechts,1,
,xotask,xotask,dotcolour,47,0,47,647,training,negativefb,51,average,16,0.6346828999999161,['n'],1,right,['9'],5,0.30530210000006264,,,27,18,Vrouw,Rechts,1,
,xotask,xotask,dotcolour,48,0,48,648,training,negativefb,86,average,60,1.2167775999996593,['c'],1,left,['8'],4,1.285613800000192,,,27,18,Vrouw,Rechts,1,
,xotask,xotask,dotcolour,49,0,49,649,training,negativefb,100,easy,74,1.2667553000001135,['c'],1,left,['9'],5,1.6071901999998772,,,27,18,Vrouw,Rechts,1,
,xotask,xotask,dotcolour,50,0,50,650,training,negativefb,71,average,64,1.401165100000071,['c'],1,left,['9'],5,0.4304741999999351,,,27,18,Vrouw,Rechts,1,
,xotask,xotask,dotcolour,51,0,51,651,training,negativefb,85,easy,71,0.6497250000002168,['c'],1,left,['9'],5,0.9154027000004135,,,27,18,Vrouw,Rechts,1,
,xotask,xotask,dotcolour,52,0,52,652,training,negativefb,61,easy,71,0.7170713999998952,['c'],1,left,['9'],5,0.33831019999979617,,,27,18,Vrouw,Rechts,1,
,xotask,xotask,dotcolour,53,0,53,653,training,negativefb,53,hard,26,1.0170680999999604,['n'],1,right,['8'],4,0.3482524999999441,,,27,18,Vrouw,Rechts,1,
,xotask,xotask,dotcolour,54,0,54,654,training,negativefb,77,hard,29,1.1841053999996802,['n'],1,right,['8'],4,0.5352090999999746,,,27,18,Vrouw,Rechts,1,
,xotask,xotask,dotcolour,55,0,55,655,training,negativefb,40,hard,51,1.1675930999999764,['c'],1,left,['8'],4,0.6831256000000394,,,27,18,Vrouw,Rechts,1,
,xotask,xotask,dotcolour,56,0,56,656,training,negativefb,71,hard,51,1.1161428999998861,['c'],1,left,['8'],4,0.3227985000003173,,,27,18,Vrouw,Rechts,1,
