starttime,task,fbtask,firsttask,withinblocktrial,block,withintasktrial,trial,running,feedback,fbscore,difflevel,reddots,rt,resp,cor,cresp,conf_press,cj,RTconf,n_xes,stoptime,sub,age,gender,handedness,session,
1714984294,dotcolour,dotcolour,dotcolour,0,0,0,0,training,positivefb,3,easy,16,3.934080400000312,['c'],0,right,['8'],3,2.920229399999698,,,21,21,Man,Rechts,1,
,dotcolour,dotcolour,dotcolour,1,0,1,1,training,positivefb,90,hard,36,2.749888800000008,['n'],1,right,['3'],4,1.5479345000003377,,,21,21,Man,Rechts,1,
,dotcolour,dotcolour,dotcolour,2,0,2,2,training,positivefb,98,easy,19,1.3821997000004558,['n'],1,right,['2'],5,2.014040200000636,,,21,21,Man,Rechts,1,
,dotcolour,dotcolour,dotcolour,3,0,3,3,training,positivefb,80,easy,64,1.7500835999999254,['c'],1,left,['2'],5,0.8797159999994619,,,21,21,Man,Rechts,1,
,dotcolour,dotcolour,dotcolour,4,0,4,4,training,positivefb,92,hard,42,2.665762900000118,['n'],0,left,['3'],4,1.042279199999939,,,21,21,Man,Rechts,1,
,dotcolour,dotcolour,dotcolour,5,0,5,5,training,positivefb,33,average,52,2.6679283000003124,['n'],0,left,['3'],4,1.277746499999921,,,21,21,Man,Rechts,1,
,dotcolour,dotcolour,dotcolour,6,0,6,6,training,positivefb,85,easy,15,1.2005825000005643,['n'],1,right,['2'],5,1.139865600000121,,,21,21,Man,Rechts,1,
,dotcolour,dotcolour,dotcolour,7,0,7,7,training,positivefb,75,hard,36,1.1166644999993878,['n'],1,right,['2'],5,0.5054570000002059,,,21,21,Man,Rechts,1,
,dotcolour,dotcolour,dotcolour,8,0,8,8,training,positivefb,36,hard,37,3.0162866999999096,['c'],0,right,['3'],4,1.0686441999996532,,,21,21,Man,Rechts,1,
,dotcolour,dotcolour,dotcolour,9,0,9,9,training,positivefb,99,average,26,1.1012698999993518,['n'],1,right,['2'],5,0.8546206000000893,,,21,21,Man,Rechts,1,
,dotcolour,dotcolour,dotcolour,10,0,10,10,training,positivefb,95,hard,39,1.6670366999996986,['n'],1,right,['2'],5,0.5457925999999134,,,21,21,Man,Rechts,1,
,dotcolour,dotcolour,dotcolour,11,0,11,11,training,positivefb,92,easy,64,1.1493512000006376,['c'],1,left,['2'],5,0.9259152000004178,,,21,21,Man,Rechts,1,
,dotcolour,dotcolour,dotcolour,12,0,12,12,training,positivefb,98,easy,62,1.266790800000308,['c'],1,left,['1'],6,1.2306078999999954,,,21,21,Man,Rechts,1,
,dotcolour,dotcolour,dotcolour,13,0,13,13,training,positivefb,87,hard,39,1.6332345000000714,['c'],0,right,['2'],5,0.4923085999998875,,,21,21,Man,Rechts,1,
,dotcolour,dotcolour,dotcolour,14,0,14,14,training,positivefb,95,easy,18,0.8827948999996806,['n'],1,right,['2'],5,0.4699325999999928,,,21,21,Man,Rechts,1,
,dotcolour,dotcolour,dotcolour,15,0,15,15,training,positivefb,91,hard,39,1.3832634000000326,['n'],1,right,['2'],5,0.5236350000004677,,,21,21,Man,Rechts,1,
,dotcolour,dotcolour,dotcolour,16,0,16,16,training,positivefb,74,average,51,1.3998928000000888,['c'],1,left,['2'],5,0.4389688000001115,,,21,21,Man,Rechts,1,
,dotcolour,dotcolour,dotcolour,17,0,17,17,training,positivefb,84,hard,43,2.284233999999742,['c'],1,left,['2'],5,0.265935399999762,,,21,21,Man,Rechts,1,
,dotcolour,dotcolour,dotcolour,18,0,18,18,training,positivefb,99,easy,18,0.8000217000007979,['n'],1,right,['2'],5,0.3521261999994749,,,21,21,Man,Rechts,1,
,dotcolour,dotcolour,dotcolour,19,0,19,19,training,positivefb,95,easy,63,1.0835368999996717,['c'],1,left,['1'],6,0.5666165000002366,,,21,21,Man,Rechts,1,
,dotcolour,dotcolour,dotcolour,20,0,20,20,training,positivefb,99,easy,62,1.1007417999999234,['c'],1,left,['2'],5,0.6917121000005864,,,21,21,Man,Rechts,1,
,dotcolour,dotcolour,dotcolour,21,0,21,21,training,positivefb,74,easy,16,0.7337393999996493,['n'],1,right,['2'],5,0.7472755999997389,,,21,21,Man,Rechts,1,
,dotcolour,dotcolour,dotcolour,22,0,22,22,training,positivefb,74,hard,44,2.250017200000002,['n'],0,left,['2'],5,0.9719404999996186,,,21,21,Man,Rechts,1,
,dotcolour,dotcolour,dotcolour,23,0,23,23,training,positivefb,99,average,26,0.9343648000003668,['n'],1,right,['2'],5,0.5118993999994927,,,21,21,Man,Rechts,1,
,dotcolour,dotcolour,dotcolour,24,0,24,24,training,positivefb,94,average,55,0.900390900000275,['c'],1,left,['2'],5,0.31197080000038113,,,21,21,Man,Rechts,1,
,dotcolour,dotcolour,dotcolour,25,0,25,25,training,positivefb,39,hard,45,1.266874299999472,['n'],0,left,['2'],5,0.5690377000000808,,,21,21,Man,Rechts,1,
,dotcolour,dotcolour,dotcolour,26,0,26,26,training,positivefb,92,average,51,1.4674838999999338,['c'],1,left,['2'],5,0.3919284000003245,,,21,21,Man,Rechts,1,
,dotcolour,dotcolour,dotcolour,27,0,27,27,training,positivefb,97,average,28,0.7989362999996956,['n'],1,right,['2'],5,0.329125500000373,,,21,21,Man,Rechts,1,
,dotcolour,dotcolour,dotcolour,28,0,28,28,training,positivefb,86,easy,18,1.2840021000001798,['n'],1,right,['2'],5,0.2804588999997577,,,21,21,Man,Rechts,1,
,dotcolour,dotcolour,dotcolour,29,0,29,29,training,positivefb,68,average,51,3.900647200000094,['c'],1,left,['3'],4,0.6421153000001141,,,21,21,Man,Rechts,1,
,dotcolour,dotcolour,dotcolour,30,0,30,30,training,positivefb,91,average,52,1.6174271999998382,['c'],1,left,['3'],4,0.4158853999997518,,,21,21,Man,Rechts,1,
,dotcolour,dotcolour,dotcolour,31,0,31,31,training,positivefb,87,easy,16,0.7497852999995303,['n'],1,right,['2'],5,0.41763890000038373,,,21,21,Man,Rechts,1,
,dotcolour,dotcolour,dotcolour,32,0,32,32,training,positivefb,80,average,25,1.2000075000005381,['n'],1,right,['3'],4,0.5122535000000425,,,21,21,Man,Rechts,1,
,dotcolour,dotcolour,dotcolour,33,0,33,33,training,positivefb,97,easy,17,6.58371999999963,['n'],1,right,['8'],3,0.9732643000006647,,,21,21,Man,Rechts,1,
,dotcolour,dotcolour,dotcolour,34,0,34,34,training,positivefb,98,average,28,2.5499549000005572,['n'],1,right,['3'],4,0.8082630999997491,,,21,21,Man,Rechts,1,
,dotcolour,dotcolour,dotcolour,35,0,35,35,training,positivefb,96,average,51,2.000390100000004,['c'],1,left,['3'],4,0.8486588000005213,,,21,21,Man,Rechts,1,
,dotcolour,dotcolour,dotcolour,36,0,36,36,training,positivefb,96,average,28,0.9331133000005138,['n'],1,right,['2'],5,4.249527599999965,,,21,21,Man,Rechts,1,
,dotcolour,dotcolour,dotcolour,37,0,37,37,training,positivefb,98,average,27,0.9997116000004098,['n'],1,right,['2'],5,1.149839400000019,,,21,21,Man,Rechts,1,
,dotcolour,dotcolour,dotcolour,38,0,38,38,training,positivefb,55,average,51,1.300074300000233,['n'],0,left,['2'],5,0.4277078999994046,,,21,21,Man,Rechts,1,
,dotcolour,dotcolour,dotcolour,39,0,39,39,training,positivefb,83,hard,45,2.6320056000004115,['n'],0,left,['3'],4,1.8099958000002516,,,21,21,Man,Rechts,1,
,dotcolour,dotcolour,dotcolour,40,0,40,40,training,positivefb,44,average,51,2.467265600000246,['n'],0,left,['8'],3,3.534808499999599,,,21,21,Man,Rechts,1,
,dotcolour,dotcolour,dotcolour,41,0,41,41,training,positivefb,94,easy,62,1.517047100000127,['c'],1,left,['2'],5,0.4361619999999675,,,21,21,Man,Rechts,1,
,dotcolour,dotcolour,dotcolour,42,0,42,42,training,positivefb,97,easy,17,1.2001821000003474,['n'],1,right,['2'],5,0.37036669999997684,,,21,21,Man,Rechts,1,
,dotcolour,dotcolour,dotcolour,43,0,43,43,training,positivefb,95,average,28,0.8497653999993418,['n'],1,right,['2'],5,0.34631030000036844,,,21,21,Man,Rechts,1,
,dotcolour,dotcolour,dotcolour,44,0,44,44,training,positivefb,98,average,25,1.1330081999994945,['n'],1,right,['2'],5,0.19158470000002126,,,21,21,Man,Rechts,1,
,dotcolour,dotcolour,dotcolour,45,0,45,45,training,positivefb,88,easy,62,0.9990390000002662,['c'],1,left,['1'],6,0.35212269999919954,,,21,21,Man,Rechts,1,
,dotcolour,dotcolour,dotcolour,46,0,46,46,training,positivefb,94,easy,61,1.267634800000451,['c'],1,left,['1'],6,0.3111085999998977,,,21,21,Man,Rechts,1,
,dotcolour,dotcolour,dotcolour,47,0,47,47,training,positivefb,89,hard,42,1.1000083999997514,['c'],1,left,['2'],5,0.63113710000016,,,21,21,Man,Rechts,1,
,dotcolour,dotcolour,dotcolour,48,0,48,48,training,positivefb,98,hard,39,1.1662086999995154,['n'],1,right,['2'],5,0.9592178000002605,,,21,21,Man,Rechts,1,
,dotcolour,dotcolour,dotcolour,49,0,49,49,training,positivefb,94,easy,63,1.4329695000005813,['c'],1,left,['2'],5,0.8317636000001585,,,21,21,Man,Rechts,1,
,dotcolour,dotcolour,dotcolour,50,0,50,50,training,positivefb,91,hard,41,0.9330216999996992,['c'],1,left,['2'],5,0.321657999999843,,,21,21,Man,Rechts,1,
,dotcolour,dotcolour,dotcolour,51,0,51,51,training,positivefb,90,average,55,0.9832852999998067,['c'],1,left,['2'],5,0.30198380000001634,,,21,21,Man,Rechts,1,
,dotcolour,dotcolour,dotcolour,52,0,52,52,training,positivefb,63,hard,44,0.9991896999999881,['n'],0,left,['3'],4,1.1292296000001443,,,21,21,Man,Rechts,1,
,dotcolour,dotcolour,dotcolour,53,0,53,53,training,positivefb,99,hard,38,0.9163578999996389,['n'],1,right,['2'],5,0.7843861000001198,,,21,21,Man,Rechts,1,
,dotcolour,dotcolour,dotcolour,54,0,54,54,training,positivefb,92,hard,41,0.9837019999995391,['n'],0,left,['2'],5,0.7452305999995588,,,21,21,Man,Rechts,1,
,dotcolour,dotcolour,dotcolour,55,0,55,55,training,positivefb,84,hard,45,1.9175406000003932,['c'],1,left,['3'],4,0.6958221000004414,,,21,21,Man,Rechts,1,
,dotcolour,dotcolour,dotcolour,56,0,56,56,training,positivefb,84,hard,36,0.8834539999998015,['n'],1,right,['2'],5,1.3774005000004763,,,21,21,Man,Rechts,1,
,dotcolour,dotcolour,dotcolour,57,0,57,57,training,positivefb,89,hard,39,1.0667262000006303,['n'],1,right,['2'],5,0.4474385000003167,,,21,21,Man,Rechts,1,
,dotcolour,dotcolour,dotcolour,58,0,58,58,training,positivefb,92,easy,61,1.0656428000002052,['c'],1,left,['2'],5,0.21920920000047772,,,21,21,Man,Rechts,1,
,dotcolour,dotcolour,dotcolour,59,0,59,59,training,positivefb,98,average,29,0.7164169999996375,['n'],1,right,['2'],5,0.30238659999940865,,,21,21,Man,Rechts,1,
,dotcolour,dotcolour,dotcolour,0,1,60,60,training,positivefb,75,hard,42,5.235573200000545,['c'],1,left,['2'],5,0.42261230000076466,,,21,21,Man,Rechts,1,
,dotcolour,dotcolour,dotcolour,1,1,61,61,training,positivefb,72,average,51,0.8507566999996925,['c'],1,left,['2'],5,0.5958737999999357,,,21,21,Man,Rechts,1,
,dotcolour,dotcolour,dotcolour,2,1,62,62,training,positivefb,46,hard,44,0.7341511000004175,['n'],0,left,['2'],5,0.49492040000041015,,,21,21,Man,Rechts,1,
,dotcolour,dotcolour,dotcolour,3,1,63,63,training,positivefb,69,hard,38,1.0840508000001137,['n'],1,right,['2'],5,0.3371613999997862,,,21,21,Man,Rechts,1,
,dotcolour,dotcolour,dotcolour,4,1,64,64,training,positivefb,93,average,27,0.816776800000298,['n'],1,right,['2'],5,0.4107168000000456,,,21,21,Man,Rechts,1,
,dotcolour,dotcolour,dotcolour,5,1,65,65,training,positivefb,86,average,28,0.7675922999997056,['n'],1,right,['2'],5,0.5235835000003135,,,21,21,Man,Rechts,1,
,dotcolour,dotcolour,dotcolour,6,1,66,66,training,positivefb,99,average,54,1.0344015000000581,['c'],1,left,['2'],5,0.38151469999957044,,,21,21,Man,Rechts,1,
,dotcolour,dotcolour,dotcolour,7,1,67,67,training,positivefb,96,average,55,0.9173887000006289,['c'],1,left,['2'],5,0.3215290999996796,,,21,21,Man,Rechts,1,
,dotcolour,dotcolour,dotcolour,8,1,68,68,training,positivefb,95,hard,41,0.8847488999999769,['n'],0,left,['2'],5,0.36213130000032834,,,21,21,Man,Rechts,1,
,dotcolour,dotcolour,dotcolour,9,1,69,69,training,positivefb,92,easy,65,0.8843858999998702,['c'],1,left,['1'],6,0.25671889999921405,,,21,21,Man,Rechts,1,
,dotcolour,dotcolour,dotcolour,10,1,70,70,training,positivefb,94,average,25,0.7999733999995442,['n'],1,right,['2'],5,0.3746652999998332,,,21,21,Man,Rechts,1,
,dotcolour,dotcolour,dotcolour,11,1,71,71,training,positivefb,96,average,28,0.7174173000003066,['n'],1,right,['2'],5,0.3554208000005019,,,21,21,Man,Rechts,1,
,dotcolour,dotcolour,dotcolour,12,1,72,72,training,positivefb,97,easy,61,0.8839605000002848,['c'],1,left,['2'],5,0.258344699999725,,,21,21,Man,Rechts,1,
,dotcolour,dotcolour,dotcolour,13,1,73,73,training,positivefb,96,easy,18,0.7828109000001859,['n'],1,right,['1'],6,0.2571081000005506,,,21,21,Man,Rechts,1,
,dotcolour,dotcolour,dotcolour,14,1,74,74,training,positivefb,96,easy,61,0.950582100000247,['c'],1,left,['1'],6,0.4168106000006446,,,21,21,Man,Rechts,1,
,dotcolour,dotcolour,dotcolour,15,1,75,75,training,positivefb,20,hard,41,0.766038199999457,['n'],0,left,['2'],5,0.7216320000006817,,,21,21,Man,Rechts,1,
,dotcolour,dotcolour,dotcolour,16,1,76,76,training,positivefb,34,average,54,2.716309700000238,['n'],0,left,['3'],4,1.1203895999997258,,,21,21,Man,Rechts,1,
,dotcolour,dotcolour,dotcolour,17,1,77,77,training,positivefb,78,hard,37,0.7670461999996405,['n'],1,right,['3'],4,0.9487279000004492,,,21,21,Man,Rechts,1,
,dotcolour,dotcolour,dotcolour,18,1,78,78,training,positivefb,96,easy,65,0.8991542000003392,['c'],1,left,['1'],6,0.3947180000004664,,,21,21,Man,Rechts,1,
,dotcolour,dotcolour,dotcolour,19,1,79,79,training,positivefb,97,average,26,0.6493893999995635,['n'],1,right,['1'],6,0.44973579999987123,,,21,21,Man,Rechts,1,
,dotcolour,dotcolour,dotcolour,20,1,80,80,training,positivefb,95,average,52,0.8335594000000128,['c'],1,left,['2'],5,0.3100623000000269,,,21,21,Man,Rechts,1,
,dotcolour,dotcolour,dotcolour,21,1,81,81,training,positivefb,99,easy,16,0.6162653000001228,['n'],1,right,['1'],6,0.5291718999997101,,,21,21,Man,Rechts,1,
,dotcolour,dotcolour,dotcolour,22,1,82,82,training,positivefb,86,hard,45,2.483425299999908,['c'],1,left,['3'],4,0.2338062999997419,,,21,21,Man,Rechts,1,
,dotcolour,dotcolour,dotcolour,23,1,83,83,training,positivefb,96,easy,16,0.81662950000009,['n'],1,right,['1'],6,0.27960320000056527,,,21,21,Man,Rechts,1,
,dotcolour,dotcolour,dotcolour,24,1,84,84,training,positivefb,91,hard,42,1.6332805000001827,['n'],0,left,['3'],4,0.8914541000003737,,,21,21,Man,Rechts,1,
,dotcolour,dotcolour,dotcolour,25,1,85,85,training,positivefb,86,easy,65,1.0337472000001071,['c'],1,left,['1'],6,0.23071359999994456,,,21,21,Man,Rechts,1,
,dotcolour,dotcolour,dotcolour,26,1,86,86,training,positivefb,98,average,26,0.6665646000001288,['n'],1,right,['1'],6,0.2752989999999045,,,21,21,Man,Rechts,1,
,dotcolour,dotcolour,dotcolour,27,1,87,87,training,positivefb,98,easy,16,0.9835729999995237,['n'],1,right,['1'],6,0.23395630000050005,,,21,21,Man,Rechts,1,
,dotcolour,dotcolour,dotcolour,28,1,88,88,training,positivefb,96,average,27,1.00034930000038,['n'],1,right,['2'],5,0.2561689000003753,,,21,21,Man,Rechts,1,
,dotcolour,dotcolour,dotcolour,29,1,89,89,training,positivefb,88,easy,16,1.5333433999994668,['n'],1,right,['2'],5,0.4571629000001849,,,21,21,Man,Rechts,1,
,dotcolour,dotcolour,dotcolour,30,1,90,90,training,positivefb,74,hard,38,2.1180199999998877,['n'],1,right,['2'],5,0.2580753000002005,,,21,21,Man,Rechts,1,
,dotcolour,dotcolour,dotcolour,31,1,91,91,training,positivefb,93,easy,62,1.0665435000000798,['c'],1,left,['2'],5,0.2618131999997786,,,21,21,Man,Rechts,1,
,dotcolour,dotcolour,dotcolour,32,1,92,92,training,positivefb,97,hard,35,0.7164183000004414,['n'],1,right,['2'],5,0.2625404000000344,,,21,21,Man,Rechts,1,
,dotcolour,dotcolour,dotcolour,33,1,93,93,training,positivefb,98,hard,42,1.484389999999621,['c'],1,left,['3'],4,0.5695747999998275,,,21,21,Man,Rechts,1,
,dotcolour,dotcolour,dotcolour,34,1,94,94,training,positivefb,88,average,54,0.9499980999999025,['c'],1,left,['1'],6,0.5088292999998885,,,21,21,Man,Rechts,1,
,dotcolour,dotcolour,dotcolour,35,1,95,95,training,positivefb,69,average,28,0.5833373999994365,['n'],1,right,['1'],6,0.2571760999999242,,,21,21,Man,Rechts,1,
,dotcolour,dotcolour,dotcolour,36,1,96,96,training,positivefb,96,easy,17,0.634671800000433,['n'],1,right,['1'],6,0.20587720000003173,,,21,21,Man,Rechts,1,
,dotcolour,dotcolour,dotcolour,37,1,97,97,training,positivefb,65,hard,44,1.682915100000173,['c'],1,left,['2'],5,0.2592040999998062,,,21,21,Man,Rechts,1,
,dotcolour,dotcolour,dotcolour,38,1,98,98,training,positivefb,83,average,27,0.8337974000005488,['n'],1,right,['1'],6,0.31178580000050715,,,21,21,Man,Rechts,1,
,dotcolour,dotcolour,dotcolour,39,1,99,99,training,positivefb,98,easy,19,0.6339260999993712,['n'],1,right,['1'],6,0.22601690000010421,,,21,21,Man,Rechts,1,
,dotcolour,dotcolour,dotcolour,40,1,100,100,training,positivefb,88,hard,43,1.3013543999995818,['n'],0,left,['2'],5,0.20510919999924226,,,21,21,Man,Rechts,1,
,dotcolour,dotcolour,dotcolour,41,1,101,101,training,positivefb,94,easy,18,0.5834077999998044,['n'],1,right,['1'],6,0.206677000000127,,,21,21,Man,Rechts,1,
,dotcolour,dotcolour,dotcolour,42,1,102,102,training,positivefb,86,easy,63,1.700966100000187,['c'],1,left,['2'],5,0.3948619000002509,,,21,21,Man,Rechts,1,
,dotcolour,dotcolour,dotcolour,43,1,103,103,training,positivefb,96,average,54,1.2838290999998208,['c'],1,left,['2'],5,0.23992189999989932,,,21,21,Man,Rechts,1,
,dotcolour,dotcolour,dotcolour,44,1,104,104,training,positivefb,95,easy,16,0.7666808999993009,['n'],1,right,['1'],6,0.14387100000021746,,,21,21,Man,Rechts,1,
,dotcolour,dotcolour,dotcolour,45,1,105,105,training,positivefb,91,average,53,1.133026499999687,['c'],1,left,['2'],5,0.25287089999983436,,,21,21,Man,Rechts,1,
,dotcolour,dotcolour,dotcolour,46,1,106,106,training,positivefb,69,easy,64,0.8002328000002308,['c'],1,left,['2'],5,0.5473587999995289,,,21,21,Man,Rechts,1,
,dotcolour,dotcolour,dotcolour,47,1,107,107,training,positivefb,92,easy,65,0.9835794999999052,['c'],1,left,['2'],5,0.27869449999980134,,,21,21,Man,Rechts,1,
,dotcolour,dotcolour,dotcolour,48,1,108,108,training,positivefb,78,hard,41,1.3337478000003102,['n'],0,left,['2'],5,0.22266579999995884,,,21,21,Man,Rechts,1,
,dotcolour,dotcolour,dotcolour,49,1,109,109,training,positivefb,97,hard,37,0.5998805999997785,['n'],1,right,['2'],5,0.261745200000405,,,21,21,Man,Rechts,1,
,dotcolour,dotcolour,dotcolour,50,1,110,110,training,positivefb,89,hard,35,0.933915600000546,['n'],1,right,['2'],5,0.22291099999984,,,21,21,Man,Rechts,1,
,dotcolour,dotcolour,dotcolour,51,1,111,111,training,positivefb,84,average,52,1.1510745000005045,['c'],1,left,['2'],5,0.33538250000037806,,,21,21,Man,Rechts,1,
,dotcolour,dotcolour,dotcolour,52,1,112,112,training,positivefb,95,easy,61,1.2663416999994297,['c'],1,left,['2'],5,0.1913150999998834,,,21,21,Man,Rechts,1,
,dotcolour,dotcolour,dotcolour,53,1,113,113,training,positivefb,95,easy,19,0.6161809999994148,['n'],1,right,['1'],6,0.1753017999999429,,,21,21,Man,Rechts,1,
,dotcolour,dotcolour,dotcolour,54,1,114,114,training,positivefb,91,hard,38,1.0836626000000251,['n'],1,right,['2'],5,0.15777600000001257,,,21,21,Man,Rechts,1,
,dotcolour,dotcolour,dotcolour,55,1,115,115,training,positivefb,83,average,53,1.0335674999996627,['c'],1,left,['2'],5,0.21508510000057868,,,21,21,Man,Rechts,1,
,dotcolour,dotcolour,dotcolour,56,1,116,116,training,positivefb,94,hard,35,1.0001724000003378,['n'],1,right,['3'],4,0.8459585999999035,,,21,21,Man,Rechts,1,
,dotcolour,dotcolour,dotcolour,57,1,117,117,training,positivefb,98,average,26,0.6672671999995146,['n'],1,right,['2'],5,0.26585569999951986,,,21,21,Man,Rechts,1,
,dotcolour,dotcolour,dotcolour,58,1,118,118,training,positivefb,92,hard,39,1.0002857999998014,['c'],0,right,['2'],5,0.2794724999994287,,,21,21,Man,Rechts,1,
,dotcolour,dotcolour,dotcolour,59,1,119,119,training,positivefb,84,hard,36,1.5991684000000532,['n'],1,right,['3'],4,0.37233109999942826,,,21,21,Man,Rechts,1,
,dotcolour,dotcolour,dotcolour,0,2,120,120,main,positivefb,-99,easy,17,2.0010237000005873,['n'],1,right,['1'],6,0.7597298999999111,,,21,21,Man,Rechts,1,
,dotcolour,dotcolour,dotcolour,1,2,121,121,main,positivefb,-99,easy,15,0.6177207999999155,['n'],1,right,['1'],6,0.26656439999987924,,,21,21,Man,Rechts,1,
,dotcolour,dotcolour,dotcolour,2,2,122,122,main,positivefb,-99,hard,37,0.7335723000005601,['n'],1,right,['1'],6,0.21841930000027787,,,21,21,Man,Rechts,1,
,dotcolour,dotcolour,dotcolour,3,2,123,123,main,positivefb,-99,hard,35,1.5511927000006835,['n'],1,right,['2'],5,0.22872129999996105,,,21,21,Man,Rechts,1,
,dotcolour,dotcolour,dotcolour,4,2,124,124,main,positivefb,-99,average,28,0.8509012999993502,['n'],1,right,['2'],5,0.8666907000006177,,,21,21,Man,Rechts,1,
,dotcolour,dotcolour,dotcolour,5,2,125,125,main,positivefb,-99,hard,42,0.834190700000363,['n'],0,left,['3'],4,0.25497420000010607,,,21,21,Man,Rechts,1,
,dotcolour,dotcolour,dotcolour,6,2,126,126,main,positivefb,-99,average,54,1.3169160999996166,['c'],1,left,['3'],4,0.2890502000000197,,,21,21,Man,Rechts,1,
,dotcolour,dotcolour,dotcolour,7,2,127,127,main,positivefb,-99,easy,19,0.7849298999999519,['n'],1,right,['1'],6,0.23106250000000728,,,21,21,Man,Rechts,1,
,dotcolour,dotcolour,dotcolour,8,2,128,128,main,positivefb,-99,hard,45,0.8178103999998712,['n'],0,left,['2'],5,0.8940596000002188,,,21,21,Man,Rechts,1,
,dotcolour,dotcolour,dotcolour,9,2,129,129,main,positivefb,-99,hard,37,1.7847177000003285,['n'],1,right,['3'],4,0.2359956999998758,,,21,21,Man,Rechts,1,
,dotcolour,dotcolour,dotcolour,10,2,130,130,main,positivefb,-99,hard,41,1.6184849000001122,['n'],0,left,['3'],4,0.4107995000003939,,,21,21,Man,Rechts,1,
,dotcolour,dotcolour,dotcolour,11,2,131,131,main,positivefb,-99,easy,17,2.7177835000002233,['n'],1,right,['3'],4,0.27084449999983917,,,21,21,Man,Rechts,1,
,dotcolour,dotcolour,dotcolour,12,2,132,132,main,positivefb,-99,hard,36,2.584009600000172,['c'],0,right,['3'],4,0.35718529999940074,,,21,21,Man,Rechts,1,
,dotcolour,dotcolour,dotcolour,13,2,133,133,main,positivefb,-99,hard,43,4.618441300000086,['n'],0,left,['2'],5,0.6715546999994331,,,21,21,Man,Rechts,1,
,dotcolour,dotcolour,dotcolour,14,2,134,134,main,positivefb,-99,average,53,1.2343942000006791,['c'],1,left,['2'],5,0.2208000999999058,,,21,21,Man,Rechts,1,
,dotcolour,dotcolour,dotcolour,15,2,135,135,main,positivefb,-99,easy,19,0.6342395000001488,['n'],1,right,['2'],5,0.290595200000098,,,21,21,Man,Rechts,1,
,dotcolour,dotcolour,dotcolour,16,2,136,136,main,positivefb,-99,hard,37,1.0340951000007408,['n'],1,right,['2'],5,0.27947219999987283,,,21,21,Man,Rechts,1,
,dotcolour,dotcolour,dotcolour,17,2,137,137,main,positivefb,-99,average,27,0.8669815000002927,['n'],1,right,['1'],6,0.27422000000024127,,,21,21,Man,Rechts,1,
,dotcolour,dotcolour,dotcolour,18,2,138,138,main,positivefb,-99,average,28,0.6353516999997737,['n'],1,right,['1'],6,0.19044229999963136,,,21,21,Man,Rechts,1,
,dotcolour,dotcolour,dotcolour,19,2,139,139,main,positivefb,-99,hard,43,2.0502574000001914,['n'],0,left,['1'],6,0.1827869999997347,,,21,21,Man,Rechts,1,
,dotcolour,dotcolour,dotcolour,20,2,140,140,main,positivefb,-99,easy,62,0.7347010000003138,['c'],1,left,['1'],6,0.25022900000021764,,,21,21,Man,Rechts,1,
,dotcolour,dotcolour,dotcolour,21,2,141,141,main,positivefb,-99,average,26,0.5838696999999229,['n'],1,right,['1'],6,0.1933865999999398,,,21,21,Man,Rechts,1,
,dotcolour,dotcolour,dotcolour,22,2,142,142,main,positivefb,-99,average,54,1.7355703000002904,['c'],1,left,['2'],5,0.46140729999933683,,,21,21,Man,Rechts,1,
,dotcolour,dotcolour,dotcolour,23,2,143,143,main,positivefb,-99,easy,17,0.7185461999997642,['n'],1,right,['1'],6,0.1431613999993715,,,21,21,Man,Rechts,1,
,dotcolour,dotcolour,dotcolour,24,2,144,144,main,positivefb,-99,average,55,2.1513961000000563,['c'],1,left,['2'],5,0.30944890000046144,,,21,21,Man,Rechts,1,
,dotcolour,dotcolour,dotcolour,25,2,145,145,main,positivefb,-99,hard,42,2.5680631000004723,['c'],1,left,['2'],5,0.2273666000000958,,,21,21,Man,Rechts,1,
,dotcolour,dotcolour,dotcolour,26,2,146,146,main,positivefb,-99,easy,61,0.7341339999993579,['c'],1,left,['1'],6,0.2613199000006716,,,21,21,Man,Rechts,1,
,dotcolour,dotcolour,dotcolour,27,2,147,147,main,positivefb,-99,hard,35,0.7828374000000622,['n'],1,right,['1'],6,0.15676640000037878,,,21,21,Man,Rechts,1,
,dotcolour,dotcolour,dotcolour,28,2,148,148,main,positivefb,-99,hard,45,2.6339520000001357,['n'],0,left,['3'],4,0.6060840000000098,,,21,21,Man,Rechts,1,
,dotcolour,dotcolour,dotcolour,29,2,149,149,main,positivefb,-99,easy,61,0.7839222000002337,['c'],1,left,['3'],4,0.2960138000007646,,,21,21,Man,Rechts,1,
,dotcolour,dotcolour,dotcolour,30,2,150,150,main,positivefb,-99,hard,35,1.2507333999992625,['n'],1,right,['2'],5,0.6586677000004784,,,21,21,Man,Rechts,1,
,dotcolour,dotcolour,dotcolour,31,2,151,151,main,positivefb,-99,easy,62,1.0685201999995115,['c'],1,left,['1'],6,1.126901500000713,,,21,21,Man,Rechts,1,
,dotcolour,dotcolour,dotcolour,32,2,152,152,main,positivefb,-99,hard,45,2.2848155000001498,['n'],0,left,['3'],4,0.4239292000002024,,,21,21,Man,Rechts,1,
,dotcolour,dotcolour,dotcolour,33,2,153,153,main,positivefb,-99,average,27,0.6509136000004219,['n'],1,right,['1'],6,0.23005910000028962,,,21,21,Man,Rechts,1,
,dotcolour,dotcolour,dotcolour,34,2,154,154,main,positivefb,-99,hard,42,1.501262200000383,['n'],0,left,['2'],5,0.20938459999979386,,,21,21,Man,Rechts,1,
,dotcolour,dotcolour,dotcolour,35,2,155,155,main,positivefb,-99,average,52,1.351206600000296,['c'],1,left,['2'],5,0.1880615999998554,,,21,21,Man,Rechts,1,
,dotcolour,dotcolour,dotcolour,36,2,156,156,main,positivefb,-99,average,55,0.8515912000002572,['c'],1,left,['1'],6,0.19566959999974642,,,21,21,Man,Rechts,1,
,dotcolour,dotcolour,dotcolour,37,2,157,157,main,positivefb,-99,easy,64,0.7006541999999172,['c'],1,left,['1'],6,0.20936649999930523,,,21,21,Man,Rechts,1,
,dotcolour,dotcolour,dotcolour,38,2,158,158,main,positivefb,-99,easy,61,0.7177901000004567,['c'],1,left,['1'],6,0.2447729999994408,,,21,21,Man,Rechts,1,
,dotcolour,dotcolour,dotcolour,39,2,159,159,main,positivefb,-99,average,25,0.8339974000000439,['n'],1,right,['1'],6,0.2672229999998308,,,21,21,Man,Rechts,1,
,dotcolour,dotcolour,dotcolour,40,2,160,160,main,positivefb,-99,hard,35,0.7851982000001954,['n'],1,right,['1'],6,0.20962130000043544,,,21,21,Man,Rechts,1,
,dotcolour,dotcolour,dotcolour,41,2,161,161,main,positivefb,-99,average,25,0.7344672999997783,['n'],1,right,['1'],6,0.2613793999998961,,,21,21,Man,Rechts,1,
,dotcolour,dotcolour,dotcolour,42,2,162,162,main,positivefb,-99,easy,62,0.9844251000004078,['c'],1,left,['1'],6,0.16427370000019437,,,21,21,Man,Rechts,1,
,dotcolour,dotcolour,dotcolour,43,2,163,163,main,positivefb,-99,hard,36,0.6846937999998772,['n'],1,right,['1'],6,0.851403399999981,,,21,21,Man,Rechts,1,
,dotcolour,dotcolour,dotcolour,44,2,164,164,main,positivefb,-99,easy,61,1.467749299999923,['c'],1,left,['2'],5,0.19917940000050294,,,21,21,Man,Rechts,1,
,dotcolour,dotcolour,dotcolour,45,2,165,165,main,positivefb,-99,average,51,1.017621599999984,['c'],1,left,['2'],5,0.2152265000004263,,,21,21,Man,Rechts,1,
,dotcolour,dotcolour,dotcolour,46,2,166,166,main,positivefb,-99,easy,16,0.8003811999997197,['n'],1,right,['1'],6,0.15967360000013286,,,21,21,Man,Rechts,1,
,dotcolour,dotcolour,dotcolour,47,2,167,167,main,positivefb,-99,average,52,1.2681106,['c'],1,left,['2'],5,0.3345009000004211,,,21,21,Man,Rechts,1,
,dotcolour,dotcolour,dotcolour,48,2,168,168,main,positivefb,-99,average,28,0.5853029999998398,['n'],1,right,['1'],6,0.2435446999998021,,,21,21,Man,Rechts,1,
,dotcolour,dotcolour,dotcolour,49,2,169,169,main,positivefb,-99,average,28,0.7179691000001185,['n'],1,right,['1'],6,0.3016021000003093,,,21,21,Man,Rechts,1,
,dotcolour,dotcolour,dotcolour,50,2,170,170,main,positivefb,-99,easy,19,0.8504466000003958,['n'],1,right,['1'],6,0.17681290000018635,,,21,21,Man,Rechts,1,
,dotcolour,dotcolour,dotcolour,51,2,171,171,main,positivefb,-99,easy,15,0.5170590999996421,['n'],1,right,['1'],6,0.20555809999950725,,,21,21,Man,Rechts,1,
,dotcolour,dotcolour,dotcolour,52,2,172,172,main,positivefb,-99,easy,16,0.5173377999999502,['n'],1,right,['1'],6,0.17037950000030833,,,21,21,Man,Rechts,1,
,dotcolour,dotcolour,dotcolour,53,2,173,173,main,positivefb,-99,average,51,0.967672699999639,['c'],1,left,['2'],5,0.22070329999951355,,,21,21,Man,Rechts,1,
,dotcolour,dotcolour,dotcolour,54,2,174,174,main,positivefb,-99,average,26,0.5837046999995437,['n'],1,right,['1'],6,0.19772959999954764,,,21,21,Man,Rechts,1,
,dotcolour,dotcolour,dotcolour,55,2,175,175,main,positivefb,-99,hard,42,1.4674981999996817,['n'],0,left,['2'],5,0.2681860000002416,,,21,21,Man,Rechts,1,
,dotcolour,dotcolour,dotcolour,56,2,176,176,main,positivefb,-99,easy,64,0.8835338999997475,['c'],1,left,['2'],5,0.24714510000012524,,,21,21,Man,Rechts,1,
,dotcolour,dotcolour,dotcolour,57,2,177,177,main,positivefb,-99,average,52,1.3176942000000054,['c'],1,left,['2'],5,0.32979720000003,,,21,21,Man,Rechts,1,
,dotcolour,dotcolour,dotcolour,58,2,178,178,main,positivefb,-99,easy,64,0.5505152999994607,['c'],1,left,['2'],5,0.222855800000616,,,21,21,Man,Rechts,1,
,dotcolour,dotcolour,dotcolour,59,2,179,179,main,positivefb,-99,hard,39,1.3173864000000322,['n'],1,right,['1'],6,0.2662737999999081,,,21,21,Man,Rechts,1,
,dotcolour,dotcolour,dotcolour,0,3,180,180,main,positivefb,-99,hard,38,0.9335559000001012,['c'],0,right,['2'],5,0.1906381999997393,,,21,21,Man,Rechts,1,
,dotcolour,dotcolour,dotcolour,1,3,181,181,main,positivefb,-99,average,27,0.9837315999993734,['n'],1,right,['2'],5,0.20052310000028228,,,21,21,Man,Rechts,1,
,dotcolour,dotcolour,dotcolour,2,3,182,182,main,positivefb,-99,hard,42,1.40171459999965,['c'],1,left,['2'],5,0.26500340000075084,,,21,21,Man,Rechts,1,
,dotcolour,dotcolour,dotcolour,3,3,183,183,main,positivefb,-99,hard,39,1.1844151000004786,['c'],0,right,['2'],5,0.1995403000000806,,,21,21,Man,Rechts,1,
,dotcolour,dotcolour,dotcolour,4,3,184,184,main,positivefb,-99,average,25,0.6834005999999135,['n'],1,right,['2'],5,0.3648118000000977,,,21,21,Man,Rechts,1,
,dotcolour,dotcolour,dotcolour,5,3,185,185,main,positivefb,-99,average,26,0.5346399999998539,['n'],1,right,['1'],6,0.2742606000001615,,,21,21,Man,Rechts,1,
,dotcolour,dotcolour,dotcolour,6,3,186,186,main,positivefb,-99,average,53,0.7184759000001577,['c'],1,left,['2'],5,0.25132510000003094,,,21,21,Man,Rechts,1,
,dotcolour,dotcolour,dotcolour,7,3,187,187,main,positivefb,-99,hard,38,1.3506767999997464,['c'],0,right,['2'],5,0.13188179999997374,,,21,21,Man,Rechts,1,
,dotcolour,dotcolour,dotcolour,8,3,188,188,main,positivefb,-99,easy,18,0.583627200000592,['n'],1,right,['1'],6,0.18414000000029773,,,21,21,Man,Rechts,1,
,dotcolour,dotcolour,dotcolour,9,3,189,189,main,positivefb,-99,hard,41,0.734704800000145,['n'],0,left,['1'],6,0.17955910000000586,,,21,21,Man,Rechts,1,
,dotcolour,dotcolour,dotcolour,10,3,190,190,main,positivefb,-99,easy,18,1.550937399999384,['n'],1,right,['1'],6,0.12040280000019266,,,21,21,Man,Rechts,1,
,dotcolour,dotcolour,dotcolour,11,3,191,191,main,positivefb,-99,average,28,0.549150599999848,['n'],1,right,['1'],6,0.13397830000030808,,,21,21,Man,Rechts,1,
,dotcolour,dotcolour,dotcolour,12,3,192,192,main,positivefb,-99,hard,39,1.4015989999998055,['c'],0,right,['2'],5,0.13697270000011486,,,21,21,Man,Rechts,1,
,dotcolour,dotcolour,dotcolour,13,3,193,193,main,positivefb,-99,average,54,0.9676731999998083,['c'],1,left,['2'],5,0.1499085000004925,,,21,21,Man,Rechts,1,
,dotcolour,dotcolour,dotcolour,14,3,194,194,main,positivefb,-99,hard,38,1.4349382000000332,['n'],1,right,['2'],5,0.31887899999946967,,,21,21,Man,Rechts,1,
,dotcolour,dotcolour,dotcolour,15,3,195,195,main,positivefb,-99,hard,41,0.8839517000005799,['n'],0,left,['2'],5,0.20036499999969237,,,21,21,Man,Rechts,1,
,dotcolour,dotcolour,dotcolour,16,3,196,196,main,positivefb,-99,easy,61,1.800580600000103,['c'],1,left,['2'],5,0.21659809999982826,,,21,21,Man,Rechts,1,
,dotcolour,dotcolour,dotcolour,17,3,197,197,main,positivefb,-99,easy,64,0.7853338000004442,['c'],1,left,['2'],5,0.25783210000008694,,,21,21,Man,Rechts,1,
,dotcolour,dotcolour,dotcolour,18,3,198,198,main,positivefb,-99,hard,41,1.1503712999992786,['n'],0,left,['1'],6,0.25838740000017424,,,21,21,Man,Rechts,1,
,dotcolour,dotcolour,dotcolour,19,3,199,199,main,positivefb,-99,easy,18,0.7513472999999067,['n'],1,right,['1'],6,0.17036869999992632,,,21,21,Man,Rechts,1,
,dotcolour,dotcolour,dotcolour,20,3,200,200,main,positivefb,-99,average,52,0.8175380000002406,['c'],1,left,['2'],5,0.16409240000029968,,,21,21,Man,Rechts,1,
,dotcolour,dotcolour,dotcolour,21,3,201,201,main,positivefb,-99,hard,45,1.7014853999999104,['c'],1,left,['2'],5,0.19481590000032156,,,21,21,Man,Rechts,1,
,dotcolour,dotcolour,dotcolour,22,3,202,202,main,positivefb,-99,average,53,0.7344152999994549,['c'],1,left,['2'],5,0.2148352000003797,,,21,21,Man,Rechts,1,
,dotcolour,dotcolour,dotcolour,23,3,203,203,main,positivefb,-99,easy,65,0.768739999999525,['c'],1,left,['1'],6,0.18405929999971704,,,21,21,Man,Rechts,1,
,dotcolour,dotcolour,dotcolour,24,3,204,204,main,positivefb,-99,average,29,1.567914600000222,['n'],1,right,['1'],6,0.2666471000002275,,,21,21,Man,Rechts,1,
,dotcolour,dotcolour,dotcolour,25,3,205,205,main,positivefb,-99,average,52,1.234822599999461,['c'],1,left,['2'],5,0.15912419999949634,,,21,21,Man,Rechts,1,
,dotcolour,dotcolour,dotcolour,26,3,206,206,main,positivefb,-99,easy,65,0.9014555000003384,['c'],1,left,['1'],6,0.18171989999973448,,,21,21,Man,Rechts,1,
,dotcolour,dotcolour,dotcolour,27,3,207,207,main,positivefb,-99,easy,63,0.6018794999999955,['c'],1,left,['1'],6,0.2798670000001948,,,21,21,Man,Rechts,1,
,dotcolour,dotcolour,dotcolour,28,3,208,208,main,positivefb,-99,average,27,0.9848938999994061,['n'],1,right,['1'],6,0.6779252999995151,,,21,21,Man,Rechts,1,
,dotcolour,dotcolour,dotcolour,29,3,209,209,main,positivefb,-99,hard,43,1.133747000000767,['n'],0,left,['2'],5,0.4071006000003763,,,21,21,Man,Rechts,1,
,dotcolour,dotcolour,dotcolour,30,3,210,210,main,positivefb,-99,average,26,0.6690363000006982,['n'],1,right,['2'],5,0.324411799999325,,,21,21,Man,Rechts,1,
,dotcolour,dotcolour,dotcolour,31,3,211,211,main,positivefb,-99,average,27,0.6007061999998768,['n'],1,right,['2'],5,0.25698060000013356,,,21,21,Man,Rechts,1,
,dotcolour,dotcolour,dotcolour,32,3,212,212,main,positivefb,-99,easy,65,0.7848071999997046,['c'],1,left,['1'],6,0.2960872000003292,,,21,21,Man,Rechts,1,
,dotcolour,dotcolour,dotcolour,33,3,213,213,main,positivefb,-99,average,55,0.617119300000013,['c'],1,left,['1'],6,0.11711970000033034,,,21,21,Man,Rechts,1,
,dotcolour,dotcolour,dotcolour,34,3,214,214,main,positivefb,-99,average,51,0.7667608000001565,['c'],1,left,['1'],6,0.21019869999963703,,,21,21,Man,Rechts,1,
,dotcolour,dotcolour,dotcolour,35,3,215,215,main,positivefb,-99,hard,43,1.117656800000077,['n'],0,left,['2'],5,0.19819450000068173,,,21,21,Man,Rechts,1,
,dotcolour,dotcolour,dotcolour,36,3,216,216,main,positivefb,-99,easy,16,0.617980200000602,['n'],1,right,['1'],6,0.23842319999948813,,,21,21,Man,Rechts,1,
,dotcolour,dotcolour,dotcolour,37,3,217,217,main,positivefb,-99,average,55,1.2676409999994576,['c'],1,left,['2'],5,0.5949295000000347,,,21,21,Man,Rechts,1,
,dotcolour,dotcolour,dotcolour,38,3,218,218,main,positivefb,-99,easy,64,0.7845895000000382,['c'],1,left,['2'],5,0.17275679999966087,,,21,21,Man,Rechts,1,
,dotcolour,dotcolour,dotcolour,39,3,219,219,main,positivefb,-99,hard,36,1.4010168999993766,['n'],1,right,['2'],5,0.17482099999961065,,,21,21,Man,Rechts,1,
,dotcolour,dotcolour,dotcolour,40,3,220,220,main,positivefb,-99,easy,61,0.7177459000004092,['c'],1,left,['1'],6,0.14802760000020498,,,21,21,Man,Rechts,1,
,dotcolour,dotcolour,dotcolour,41,3,221,221,main,positivefb,-99,easy,15,1.1014138999998977,['n'],1,right,['1'],6,0.22678739999992104,,,21,21,Man,Rechts,1,
,dotcolour,dotcolour,dotcolour,42,3,222,222,main,positivefb,-99,hard,43,1.1346684000000096,['c'],1,left,['1'],6,0.13367379999999685,,,21,21,Man,Rechts,1,
,dotcolour,dotcolour,dotcolour,43,3,223,223,main,positivefb,-99,hard,38,1.1003489000004265,['c'],0,right,['2'],5,0.19655989999955636,,,21,21,Man,Rechts,1,
,dotcolour,dotcolour,dotcolour,44,3,224,224,main,positivefb,-99,hard,45,0.9506971999999223,['n'],0,left,['2'],5,0.4166341999998622,,,21,21,Man,Rechts,1,
,dotcolour,dotcolour,dotcolour,45,3,225,225,main,positivefb,-99,easy,62,0.9512658000003285,['c'],1,left,['1'],6,0.32231249999949796,,,21,21,Man,Rechts,1,
,dotcolour,dotcolour,dotcolour,46,3,226,226,main,positivefb,-99,easy,64,0.8012331999998423,['c'],1,left,['1'],6,0.1819007000003694,,,21,21,Man,Rechts,1,
,dotcolour,dotcolour,dotcolour,47,3,227,227,main,positivefb,-99,easy,16,0.7681155999998737,['n'],1,right,['2'],5,0.20108359999994718,,,21,21,Man,Rechts,1,
,dotcolour,dotcolour,dotcolour,48,3,228,228,main,positivefb,-99,average,29,1.0340511999993396,['n'],1,right,['2'],5,0.2401482000004762,,,21,21,Man,Rechts,1,
,dotcolour,dotcolour,dotcolour,49,3,229,229,main,positivefb,-99,hard,35,0.7847641999996995,['n'],1,right,['1'],6,0.3284433999997418,,,21,21,Man,Rechts,1,
,dotcolour,dotcolour,dotcolour,50,3,230,230,main,positivefb,-99,hard,35,0.7504287000001568,['n'],1,right,['1'],6,0.08620570000039152,,,21,21,Man,Rechts,1,
,dotcolour,dotcolour,dotcolour,51,3,231,231,main,positivefb,-99,hard,43,1.149837199999638,['c'],1,left,['2'],5,0.1170828000003894,,,21,21,Man,Rechts,1,
,dotcolour,dotcolour,dotcolour,52,3,232,232,main,positivefb,-99,average,52,1.0841475999995964,['c'],1,left,['2'],5,0.1906274000002668,,,21,21,Man,Rechts,1,
,dotcolour,dotcolour,dotcolour,53,3,233,233,main,positivefb,-99,easy,15,0.7827816999997594,['n'],1,right,['1'],6,0.11251619999984541,,,21,21,Man,Rechts,1,
,dotcolour,dotcolour,dotcolour,54,3,234,234,main,positivefb,-99,easy,18,1.5158375999999407,['n'],1,right,['1'],6,0.08750010000039765,,,21,21,Man,Rechts,1,
,dotcolour,dotcolour,dotcolour,55,3,235,235,main,positivefb,-99,average,28,0.6513895999996748,['n'],1,right,['1'],6,0.11570190000020375,,,21,21,Man,Rechts,1,
,dotcolour,dotcolour,dotcolour,56,3,236,236,main,positivefb,-99,hard,37,1.38381709999976,['n'],1,right,['2'],5,0.16809490000014193,,,21,21,Man,Rechts,1,
,dotcolour,dotcolour,dotcolour,57,3,237,237,main,positivefb,-99,average,54,0.9007805999999619,['c'],1,left,['2'],5,0.19031950000044162,,,21,21,Man,Rechts,1,
,dotcolour,dotcolour,dotcolour,58,3,238,238,main,positivefb,-99,easy,17,0.7675565999998071,['n'],1,right,['1'],6,0.42447399999946356,,,21,21,Man,Rechts,1,
,dotcolour,dotcolour,dotcolour,59,3,239,239,main,positivefb,-99,easy,15,0.667136500000197,['n'],1,right,['1'],6,0.15073000000029424,,,21,21,Man,Rechts,1,
,dotcolour,dotcolour,dotcolour,0,4,240,240,main,positivefb,-99,average,26,1.7840311999998448,['n'],1,right,['2'],5,0.11748790000001463,,,21,21,Man,Rechts,1,
,dotcolour,dotcolour,dotcolour,1,4,241,241,main,positivefb,-99,average,25,0.7173469999997906,['n'],1,right,['2'],5,0.13256520000049932,,,21,21,Man,Rechts,1,
,dotcolour,dotcolour,dotcolour,2,4,242,242,main,positivefb,-99,average,29,6.833170500000051,['n'],1,right,['2'],5,0.2542079000004378,,,21,21,Man,Rechts,1,
,dotcolour,dotcolour,dotcolour,3,4,243,243,main,positivefb,-99,hard,35,1.0005800999997518,['n'],1,right,['2'],5,0.22085639999932027,,,21,21,Man,Rechts,1,
,dotcolour,dotcolour,dotcolour,4,4,244,244,main,positivefb,-99,easy,17,0.6516627000000881,['n'],1,right,['1'],6,0.8110778999998729,,,21,21,Man,Rechts,1,
,dotcolour,dotcolour,dotcolour,5,4,245,245,main,positivefb,-99,easy,62,0.9676903999998103,['c'],1,left,['1'],6,0.14923129999988305,,,21,21,Man,Rechts,1,
,dotcolour,dotcolour,dotcolour,6,4,246,246,main,positivefb,-99,hard,39,7.517684700000245,['c'],0,right,['2'],5,0.20315500000015163,,,21,21,Man,Rechts,1,
,dotcolour,dotcolour,dotcolour,7,4,247,247,main,positivefb,-99,hard,39,0.834507599999597,['c'],0,right,['2'],5,0.2102337999995143,,,21,21,Man,Rechts,1,
,dotcolour,dotcolour,dotcolour,8,4,248,248,main,positivefb,-99,average,29,0.7500987000003079,['c'],0,right,['2'],5,1.2687720000003537,,,21,21,Man,Rechts,1,
,dotcolour,dotcolour,dotcolour,9,4,249,249,main,positivefb,-99,hard,45,1.4010837999994692,['c'],1,left,['2'],5,0.18692120000014256,,,21,21,Man,Rechts,1,
,dotcolour,dotcolour,dotcolour,10,4,250,250,main,positivefb,-99,hard,42,0.8685429999995904,['c'],1,left,['2'],5,0.41828929999974207,,,21,21,Man,Rechts,1,
,dotcolour,dotcolour,dotcolour,11,4,251,251,main,positivefb,-99,hard,42,0.7006426000007195,['n'],0,left,['2'],5,0.6703655000001163,,,21,21,Man,Rechts,1,
,dotcolour,dotcolour,dotcolour,12,4,252,252,main,positivefb,-99,easy,16,0.5508881999994628,['n'],1,right,['1'],6,0.2698265999997602,,,21,21,Man,Rechts,1,
,dotcolour,dotcolour,dotcolour,13,4,253,253,main,positivefb,-99,average,51,0.8340812999995251,['c'],1,left,['1'],6,0.3303128999996261,,,21,21,Man,Rechts,1,
,dotcolour,dotcolour,dotcolour,14,4,254,254,main,positivefb,-99,average,55,1.0337792999998783,['c'],1,left,['2'],5,0.24511430000075052,,,21,21,Man,Rechts,1,
,dotcolour,dotcolour,dotcolour,15,4,255,255,main,positivefb,-99,hard,36,0.9840500000000247,['n'],1,right,['2'],5,0.21314589999929012,,,21,21,Man,Rechts,1,
,dotcolour,dotcolour,dotcolour,16,4,256,256,main,positivefb,-99,hard,44,1.0163767000003645,['c'],1,left,['2'],5,0.14957090000007156,,,21,21,Man,Rechts,1,
,dotcolour,dotcolour,dotcolour,17,4,257,257,main,positivefb,-99,average,51,0.8676292999998623,['c'],1,left,['2'],5,0.4775896000001012,,,21,21,Man,Rechts,1,
,dotcolour,dotcolour,dotcolour,18,4,258,258,main,positivefb,-99,average,54,5.051602499999717,['n'],0,left,['2'],5,0.24075249999987136,,,21,21,Man,Rechts,1,
,dotcolour,dotcolour,dotcolour,19,4,259,259,main,positivefb,-99,easy,63,1.8515608000006978,['c'],1,left,['1'],6,0.2940554999995584,,,21,21,Man,Rechts,1,
,dotcolour,dotcolour,dotcolour,20,4,260,260,main,positivefb,-99,hard,39,1.0846195999993142,['n'],1,right,['2'],5,0.17693579999922804,,,21,21,Man,Rechts,1,
,dotcolour,dotcolour,dotcolour,21,4,261,261,main,positivefb,-99,easy,18,0.7679701999995814,['n'],1,right,['2'],5,0.3560805999995864,,,21,21,Man,Rechts,1,
,dotcolour,dotcolour,dotcolour,22,4,262,262,main,positivefb,-99,easy,15,0.8006470000000263,['n'],1,right,['1'],6,0.17456190000029892,,,21,21,Man,Rechts,1,
,dotcolour,dotcolour,dotcolour,23,4,263,263,main,positivefb,-99,easy,61,0.7841906000003291,['c'],1,left,['2'],5,0.18534730000010313,,,21,21,Man,Rechts,1,
,dotcolour,dotcolour,dotcolour,24,4,264,264,main,positivefb,-99,easy,19,1.6005494999999428,['n'],1,right,['1'],6,0.26635970000006637,,,21,21,Man,Rechts,1,
,dotcolour,dotcolour,dotcolour,25,4,265,265,main,positivefb,-99,easy,16,0.5508150000005116,['n'],1,right,['1'],6,0.20306759999948554,,,21,21,Man,Rechts,1,
,dotcolour,dotcolour,dotcolour,26,4,266,266,main,positivefb,-99,average,29,0.5355496000001949,['n'],1,right,['1'],6,0.38232070000049134,,,21,21,Man,Rechts,1,
,dotcolour,dotcolour,dotcolour,27,4,267,267,main,positivefb,-99,average,27,0.6174818999998024,['n'],1,right,['1'],6,0.23822130000007746,,,21,21,Man,Rechts,1,
,dotcolour,dotcolour,dotcolour,28,4,268,268,main,positivefb,-99,hard,39,0.9509529999995721,['n'],1,right,['2'],5,0.20015090000015334,,,21,21,Man,Rechts,1,
,dotcolour,dotcolour,dotcolour,29,4,269,269,main,positivefb,-99,hard,43,0.9006761000000552,['c'],1,left,['2'],5,0.16468259999965085,,,21,21,Man,Rechts,1,
,dotcolour,dotcolour,dotcolour,30,4,270,270,main,positivefb,-99,average,29,0.6508365999998205,['n'],1,right,['1'],6,0.2046189000002414,,,21,21,Man,Rechts,1,
,dotcolour,dotcolour,dotcolour,31,4,271,271,main,positivefb,-99,easy,16,0.5350555000004533,['n'],1,right,['1'],6,0.16062920000058512,,,21,21,Man,Rechts,1,
,dotcolour,dotcolour,dotcolour,32,4,272,272,main,positivefb,-99,easy,62,0.7518642000004547,['c'],1,left,['1'],6,0.4044376000001648,,,21,21,Man,Rechts,1,
,dotcolour,dotcolour,dotcolour,33,4,273,273,main,positivefb,-99,average,54,1.25104040000042,['c'],1,left,['2'],5,0.27541440000004513,,,21,21,Man,Rechts,1,
,dotcolour,dotcolour,dotcolour,34,4,274,274,main,positivefb,-99,hard,41,1.0188749999997526,['n'],0,left,['2'],5,0.2729888999992909,,,21,21,Man,Rechts,1,
,dotcolour,dotcolour,dotcolour,35,4,275,275,main,positivefb,-99,hard,41,1.0506917000002431,['c'],1,left,['2'],5,0.19638530000065657,,,21,21,Man,Rechts,1,
,dotcolour,dotcolour,dotcolour,36,4,276,276,main,positivefb,-99,average,51,1.28557550000005,['c'],1,left,['2'],5,0.2823981999999887,,,21,21,Man,Rechts,1,
,dotcolour,dotcolour,dotcolour,37,4,277,277,main,positivefb,-99,hard,43,0.885500299999876,['c'],1,left,['2'],5,0.22076300000026094,,,21,21,Man,Rechts,1,
,dotcolour,dotcolour,dotcolour,38,4,278,278,main,positivefb,-99,easy,62,0.6173693999999159,['c'],1,left,['1'],6,0.39609740000014426,,,21,21,Man,Rechts,1,
,dotcolour,dotcolour,dotcolour,39,4,279,279,main,positivefb,-99,easy,65,0.5514407000000574,['c'],1,left,['1'],6,0.22349109999959182,,,21,21,Man,Rechts,1,
,dotcolour,dotcolour,dotcolour,40,4,280,280,main,positivefb,-99,easy,61,0.6187074999998003,['c'],1,left,['1'],6,0.206754899999396,,,21,21,Man,Rechts,1,
,dotcolour,dotcolour,dotcolour,41,4,281,281,main,positivefb,-99,hard,35,0.7012912000000142,['c'],0,right,['1'],6,0.22809719999986555,,,21,21,Man,Rechts,1,
,dotcolour,dotcolour,dotcolour,42,4,282,282,main,positivefb,-99,easy,19,0.7014226000001145,['n'],1,right,['2'],5,0.2714251000006698,,,21,21,Man,Rechts,1,
,dotcolour,dotcolour,dotcolour,43,4,283,283,main,positivefb,-99,hard,38,0.8834765000001426,['n'],1,right,['2'],5,0.3778529000001072,,,21,21,Man,Rechts,1,
,dotcolour,dotcolour,dotcolour,44,4,284,284,main,positivefb,-99,average,54,0.8344215000006443,['c'],1,left,['2'],5,0.15508539999973436,,,21,21,Man,Rechts,1,
,dotcolour,dotcolour,dotcolour,45,4,285,285,main,positivefb,-99,hard,37,2.517894999999953,['n'],1,right,['2'],5,0.592475800000102,,,21,21,Man,Rechts,1,
,dotcolour,dotcolour,dotcolour,46,4,286,286,main,positivefb,-99,average,26,1.701908299999559,['n'],1,right,['2'],5,0.325767100000121,,,21,21,Man,Rechts,1,
,dotcolour,dotcolour,dotcolour,47,4,287,287,main,positivefb,-99,hard,42,1.6673003000005338,['n'],0,left,['3'],4,0.5200340999999753,,,21,21,Man,Rechts,1,
,dotcolour,dotcolour,dotcolour,48,4,288,288,main,positivefb,-99,average,55,0.9180481000003056,['c'],1,left,['2'],5,0.1910081000005448,,,21,21,Man,Rechts,1,
,dotcolour,dotcolour,dotcolour,49,4,289,289,main,positivefb,-99,easy,15,0.6341410999993968,['n'],1,right,['1'],6,0.19036400000004505,,,21,21,Man,Rechts,1,
,dotcolour,dotcolour,dotcolour,50,4,290,290,main,positivefb,-99,average,52,0.8348457000001872,['c'],1,left,['2'],5,0.2865494999996372,,,21,21,Man,Rechts,1,
,dotcolour,dotcolour,dotcolour,51,4,291,291,main,positivefb,-99,easy,18,1.0348776999999245,['n'],1,right,['2'],5,0.2425081000001228,,,21,21,Man,Rechts,1,
,dotcolour,dotcolour,dotcolour,52,4,292,292,main,positivefb,-99,average,29,0.5347523999998884,['n'],1,right,['2'],5,0.2692809000000125,,,21,21,Man,Rechts,1,
,dotcolour,dotcolour,dotcolour,53,4,293,293,main,positivefb,-99,easy,63,1.1169644999999946,['c'],1,left,['2'],5,0.23020379999979923,,,21,21,Man,Rechts,1,
,dotcolour,dotcolour,dotcolour,54,4,294,294,main,positivefb,-99,hard,35,0.6173515999998926,['n'],1,right,['2'],5,0.17325849999997445,,,21,21,Man,Rechts,1,
,dotcolour,dotcolour,dotcolour,55,4,295,295,main,positivefb,-99,average,55,1.000767000000451,['c'],1,left,['2'],5,0.14323270000022603,,,21,21,Man,Rechts,1,
,dotcolour,dotcolour,dotcolour,56,4,296,296,main,positivefb,-99,easy,63,0.8017663000000539,['c'],1,left,['1'],6,0.17124190000049566,,,21,21,Man,Rechts,1,
,dotcolour,dotcolour,dotcolour,57,4,297,297,main,positivefb,-99,hard,43,1.6683709999997518,['c'],1,left,['2'],5,0.1864890999995623,,,21,21,Man,Rechts,1,
,dotcolour,dotcolour,dotcolour,58,4,298,298,main,positivefb,-99,easy,63,1.1842384999999922,['c'],1,left,['2'],5,0.14827169999989565,,,21,21,Man,Rechts,1,
,dotcolour,dotcolour,dotcolour,59,4,299,299,main,positivefb,-99,average,28,0.7680093999997553,['n'],1,right,['2'],5,0.15987380000024132,,,21,21,Man,Rechts,1,
,dotcolour,dotcolour,dotcolour,0,0,0,300,training,positivefb,74,hard,35,0.88418830000046,['n'],1,right,['2'],5,0.23819770000045537,,,21,21,Man,Rechts,1,
,dotcolour,dotcolour,dotcolour,1,0,1,301,training,positivefb,98,average,27,0.5500960999997915,['n'],1,right,['2'],5,0.15115940000032424,,,21,21,Man,Rechts,1,
,dotcolour,dotcolour,dotcolour,2,0,2,302,training,positivefb,89,hard,39,0.9168977999997878,['c'],0,right,['2'],5,0.14814900000055786,,,21,21,Man,Rechts,1,
,dotcolour,dotcolour,dotcolour,3,0,3,303,training,positivefb,95,average,51,0.9004355999995823,['c'],1,left,['2'],5,0.16187629999967612,,,21,21,Man,Rechts,1,
,dotcolour,dotcolour,dotcolour,4,0,4,304,training,positivefb,86,hard,35,0.5833101000007446,['n'],1,right,['2'],5,0.24461239999982354,,,21,21,Man,Rechts,1,
,dotcolour,dotcolour,dotcolour,5,0,5,305,training,positivefb,95,hard,35,0.5510088000000906,['n'],1,right,['2'],5,0.12466739999945275,,,21,21,Man,Rechts,1,
,dotcolour,dotcolour,dotcolour,6,0,6,306,training,positivefb,96,easy,15,0.5675830000000133,['n'],1,right,['1'],6,0.3780169999999998,,,21,21,Man,Rechts,1,
,dotcolour,dotcolour,dotcolour,7,0,7,307,training,positivefb,98,easy,16,0.5164601999995284,['n'],1,right,['1'],6,0.13451420000001235,,,21,21,Man,Rechts,1,
,dotcolour,dotcolour,dotcolour,8,0,8,308,training,positivefb,93,average,28,0.6997669000002134,['n'],1,right,['2'],5,0.14929490000031365,,,21,21,Man,Rechts,1,
,dotcolour,dotcolour,dotcolour,9,0,9,309,training,positivefb,88,hard,36,0.4338447999998607,['n'],1,right,['2'],5,0.1580682000003435,,,21,21,Man,Rechts,1,
,dotcolour,dotcolour,dotcolour,10,0,10,310,training,positivefb,96,easy,64,0.6496649999999136,['c'],1,left,['2'],5,0.13409370000044873,,,21,21,Man,Rechts,1,
,dotcolour,dotcolour,dotcolour,11,0,11,311,training,positivefb,22,easy,61,0.6663607999998931,['n'],0,left,['0'],1,1.8542149000004429,,,21,21,Man,Rechts,1,
,dotcolour,dotcolour,dotcolour,12,0,12,312,training,positivefb,93,easy,63,1.1842333000004146,['c'],1,left,['2'],5,0.18012889999954496,,,21,21,Man,Rechts,1,
,dotcolour,dotcolour,dotcolour,13,0,13,313,training,positivefb,92,average,29,1.3673898000006375,['n'],1,right,['2'],5,0.20639629999914177,,,21,21,Man,Rechts,1,
,dotcolour,dotcolour,dotcolour,14,0,14,314,training,positivefb,70,average,28,1.0326206999998249,['n'],1,right,['2'],5,0.1812476000004608,,,21,21,Man,Rechts,1,
,dotcolour,dotcolour,dotcolour,15,0,15,315,training,positivefb,94,average,51,0.6998668999995061,['c'],1,left,['2'],5,0.1617366000000402,,,21,21,Man,Rechts,1,
,dotcolour,dotcolour,dotcolour,16,0,16,316,training,positivefb,92,hard,45,0.9667301999998017,['c'],1,left,['2'],5,0.1255855999997948,,,21,21,Man,Rechts,1,
,dotcolour,dotcolour,dotcolour,17,0,17,317,training,positivefb,98,hard,36,0.5837572000000364,['n'],1,right,['2'],5,0.36957389999952284,,,21,21,Man,Rechts,1,
,dotcolour,dotcolour,dotcolour,18,0,18,318,training,positivefb,98,easy,63,0.6824555999992299,['c'],1,left,['2'],5,0.11927860000014334,,,21,21,Man,Rechts,1,
,dotcolour,dotcolour,dotcolour,19,0,19,319,training,positivefb,98,hard,43,0.9328451999999743,['c'],1,left,['2'],5,0.22931710000011662,,,21,21,Man,Rechts,1,
,dotcolour,dotcolour,dotcolour,20,0,20,320,training,positivefb,95,hard,42,1.1343531000002258,['n'],0,left,['2'],5,0.17555360000005749,,,21,21,Man,Rechts,1,
,dotcolour,dotcolour,dotcolour,21,0,21,321,training,positivefb,96,hard,39,1.0334042000004047,['n'],1,right,['3'],4,0.5516035999999076,,,21,21,Man,Rechts,1,
,dotcolour,dotcolour,dotcolour,22,0,22,322,training,positivefb,91,hard,38,0.6836366999996244,['c'],0,right,['2'],5,0.15029000000049564,,,21,21,Man,Rechts,1,
,dotcolour,dotcolour,dotcolour,23,0,23,323,training,positivefb,82,easy,19,0.6333351000002949,['n'],1,right,['2'],5,0.2224249000000782,,,21,21,Man,Rechts,1,
,dotcolour,dotcolour,dotcolour,24,0,24,324,training,positivefb,96,easy,63,0.6830339999996795,['c'],1,left,['1'],6,0.17878959999961808,,,21,21,Man,Rechts,1,
,dotcolour,dotcolour,dotcolour,25,0,25,325,training,positivefb,98,average,52,0.6510209999996732,['c'],1,left,['1'],6,0.11383769999974902,,,21,21,Man,Rechts,1,
,dotcolour,dotcolour,dotcolour,26,0,26,326,training,positivefb,72,hard,39,2.250515699999596,['n'],1,right,['3'],4,0.2516507999998794,,,21,21,Man,Rechts,1,
,dotcolour,dotcolour,dotcolour,27,0,27,327,training,positivefb,96,average,27,0.5516687999997885,['n'],1,right,['2'],5,0.26776390000031824,,,21,21,Man,Rechts,1,
,dotcolour,dotcolour,dotcolour,28,0,28,328,training,positivefb,95,hard,42,0.666408500000216,['c'],1,left,['2'],5,0.10293959999944491,,,21,21,Man,Rechts,1,
,dotcolour,dotcolour,dotcolour,29,0,29,329,training,positivefb,98,easy,18,0.7004659000003812,['n'],1,right,['2'],5,0.7832189999999173,,,21,21,Man,Rechts,1,
,dotcolour,dotcolour,dotcolour,30,0,30,330,training,positivefb,90,average,51,0.8669196000000738,['c'],1,left,['2'],5,0.15690989999984595,,,21,21,Man,Rechts,1,
,dotcolour,dotcolour,dotcolour,31,0,31,331,training,positivefb,96,easy,61,0.6668083999993542,['c'],1,left,['2'],5,0.148332599999776,,,21,21,Man,Rechts,1,
,dotcolour,dotcolour,dotcolour,32,0,32,332,training,positivefb,94,hard,35,0.9840062000002945,['n'],1,right,['2'],5,0.10292979999940144,,,21,21,Man,Rechts,1,
,dotcolour,dotcolour,dotcolour,33,0,33,333,training,positivefb,95,average,29,0.8672813999992286,['n'],1,right,['3'],4,0.6245579000005819,,,21,21,Man,Rechts,1,
,dotcolour,dotcolour,dotcolour,34,0,34,334,training,positivefb,96,easy,61,0.6821862999995574,['c'],1,left,['2'],5,0.10801079999964713,,,21,21,Man,Rechts,1,
,dotcolour,dotcolour,dotcolour,35,0,35,335,training,positivefb,79,average,54,0.8834384000001592,['c'],1,left,['2'],5,0.1408504000000903,,,21,21,Man,Rechts,1,
,dotcolour,dotcolour,dotcolour,36,0,36,336,training,positivefb,98,easy,15,0.7509568000004947,['n'],1,right,['2'],5,0.13768920000075013,,,21,21,Man,Rechts,1,
,dotcolour,dotcolour,dotcolour,37,0,37,337,training,positivefb,97,hard,42,0.9335842999998931,['c'],1,left,['3'],4,0.3353500000002896,,,21,21,Man,Rechts,1,
,dotcolour,dotcolour,dotcolour,38,0,38,338,training,positivefb,97,easy,63,0.8000115000004371,['c'],1,left,['1'],6,0.24179519999961485,,,21,21,Man,Rechts,1,
,dotcolour,dotcolour,dotcolour,39,0,39,339,training,positivefb,96,average,54,0.8174582999999984,['c'],1,left,['2'],5,0.14371859999937442,,,21,21,Man,Rechts,1,
,dotcolour,dotcolour,dotcolour,40,0,40,340,training,positivefb,85,average,51,0.8818954999997004,['c'],1,left,['2'],5,0.14311220000035973,,,21,21,Man,Rechts,1,
,dotcolour,dotcolour,dotcolour,41,0,41,341,training,positivefb,95,easy,63,0.6831159000003026,['c'],1,left,['2'],5,0.16622980000011012,,,21,21,Man,Rechts,1,
,dotcolour,dotcolour,dotcolour,42,0,42,342,training,positivefb,95,average,28,1.3504698000006101,['n'],1,right,['8'],3,2.8339508999997634,,,21,21,Man,Rechts,1,
,dotcolour,dotcolour,dotcolour,43,0,43,343,training,positivefb,96,hard,45,0.9172611000003599,['c'],1,left,['2'],5,0.19528170000012324,,,21,21,Man,Rechts,1,
,dotcolour,dotcolour,dotcolour,44,0,44,344,training,positivefb,95,easy,18,0.6173899999994319,['n'],1,right,['8'],3,0.49085659999946074,,,21,21,Man,Rechts,1,
,dotcolour,dotcolour,dotcolour,45,0,45,345,training,positivefb,100,easy,15,0.6830960999996023,['n'],1,right,['1'],6,2.884613199999876,,,21,21,Man,Rechts,1,
,dotcolour,dotcolour,dotcolour,46,0,46,346,training,positivefb,93,average,28,0.7670250999999553,['n'],1,right,['2'],5,0.16185519999999087,,,21,21,Man,Rechts,1,
,dotcolour,dotcolour,dotcolour,47,0,47,347,training,positivefb,93,hard,43,1.1014659000002212,['c'],1,left,['2'],5,0.15130490000046848,,,21,21,Man,Rechts,1,
,dotcolour,dotcolour,dotcolour,48,0,48,348,training,positivefb,97,easy,18,0.6837925999998333,['n'],1,right,['2'],5,0.1580231999996613,,,21,21,Man,Rechts,1,
,dotcolour,dotcolour,dotcolour,49,0,49,349,training,positivefb,90,hard,44,0.8503399999999601,['c'],1,left,['2'],5,0.23805720000018482,,,21,21,Man,Rechts,1,
,dotcolour,dotcolour,dotcolour,50,0,50,350,training,positivefb,94,average,27,1.1678681000003053,['n'],1,right,['2'],5,0.1663635000004433,,,21,21,Man,Rechts,1,
,dotcolour,dotcolour,dotcolour,51,0,51,351,training,positivefb,92,easy,64,0.8830988999998226,['c'],1,left,['2'],5,0.1804587000005995,,,21,21,Man,Rechts,1,
,dotcolour,dotcolour,dotcolour,52,0,52,352,training,positivefb,94,average,51,0.7165657999994437,['c'],1,left,['2'],5,0.12861189999966882,,,21,21,Man,Rechts,1,
,dotcolour,dotcolour,dotcolour,53,0,53,353,training,positivefb,97,average,54,0.6013597999999547,['c'],1,left,['2'],5,0.16444419999970705,,,21,21,Man,Rechts,1,
,dotcolour,dotcolour,dotcolour,54,0,54,354,training,positivefb,93,average,28,0.5672140999995463,['n'],1,right,['2'],5,0.12775340000007418,,,21,21,Man,Rechts,1,
,dotcolour,dotcolour,dotcolour,55,0,55,355,training,positivefb,93,hard,45,0.9166347999998834,['c'],1,left,['1'],6,0.11036710000007588,,,21,21,Man,Rechts,1,
,dotcolour,dotcolour,dotcolour,56,0,56,356,training,positivefb,94,easy,18,0.499618200000441,['n'],1,right,['1'],6,0.10939380000036181,,,21,21,Man,Rechts,1,
,dotcolour,dotcolour,dotcolour,57,0,57,357,training,positivefb,97,easy,15,0.5343392000004314,['n'],1,right,['1'],6,0.04476169999998092,,,21,21,Man,Rechts,1,
,dotcolour,dotcolour,dotcolour,58,0,58,358,training,positivefb,89,average,51,0.799718500000381,['c'],1,left,['2'],5,0.1633053999994445,,,21,21,Man,Rechts,1,
,dotcolour,dotcolour,dotcolour,59,0,59,359,training,positivefb,53,hard,43,1.2993249999999534,['n'],0,left,['3'],4,0.31362170000011247,,,21,21,Man,Rechts,1,
,dotcolour,dotcolour,dotcolour,0,1,60,360,training,positivefb,96,easy,61,0.8169417999997677,['c'],1,left,['2'],5,0.15468150000015157,,,21,21,Man,Rechts,1,
,dotcolour,dotcolour,dotcolour,1,1,61,361,training,positivefb,94,easy,17,0.5679305000003296,['n'],1,right,['2'],5,0.14190819999930682,,,21,21,Man,Rechts,1,
,dotcolour,dotcolour,dotcolour,2,1,62,362,training,positivefb,88,easy,63,0.8331981000001178,['c'],1,left,['1'],6,0.09520689999953902,,,21,21,Man,Rechts,1,
,dotcolour,dotcolour,dotcolour,3,1,63,363,training,positivefb,95,easy,61,1.1657952000005025,['c'],1,left,['1'],6,0.10133630000018456,,,21,21,Man,Rechts,1,
,dotcolour,dotcolour,dotcolour,4,1,64,364,training,positivefb,72,average,28,0.5503097999999227,['n'],1,right,['1'],6,0.3316695000003165,,,21,21,Man,Rechts,1,
,dotcolour,dotcolour,dotcolour,5,1,65,365,training,positivefb,92,hard,44,0.9336950000006254,['c'],1,left,['2'],5,0.19265360000008513,,,21,21,Man,Rechts,1,
,dotcolour,dotcolour,dotcolour,6,1,66,366,training,positivefb,93,average,27,0.49999620000016876,['n'],1,right,['1'],6,0.1259463999995205,,,21,21,Man,Rechts,1,
,dotcolour,dotcolour,dotcolour,7,1,67,367,training,positivefb,94,easy,15,0.5171264999999039,['n'],1,right,['1'],6,0.07579189999978553,,,21,21,Man,Rechts,1,
,dotcolour,dotcolour,dotcolour,8,1,68,368,training,positivefb,95,easy,17,0.4500890999997864,['n'],1,right,['1'],6,0.09507140000005165,,,21,21,Man,Rechts,1,
,dotcolour,dotcolour,dotcolour,9,1,69,369,training,positivefb,83,hard,43,1.1502393999999185,['c'],1,left,['2'],5,0.08623460000035266,,,21,21,Man,Rechts,1,
,dotcolour,dotcolour,dotcolour,10,1,70,370,training,positivefb,98,average,26,0.5162835000000996,['n'],1,right,['1'],6,0.07823669999925187,,,21,21,Man,Rechts,1,
,dotcolour,dotcolour,dotcolour,11,1,71,371,training,positivefb,95,hard,42,0.8162575000005745,['c'],1,left,['2'],5,0.40351060000011785,,,21,21,Man,Rechts,1,
,dotcolour,dotcolour,dotcolour,12,1,72,372,training,positivefb,88,average,53,1.1998364000000947,['c'],1,left,['2'],5,0.11437409999962256,,,21,21,Man,Rechts,1,
,dotcolour,dotcolour,dotcolour,13,1,73,373,training,positivefb,98,average,26,0.6840750000001208,['n'],1,right,['1'],6,0.09067659999982425,,,21,21,Man,Rechts,1,
,dotcolour,dotcolour,dotcolour,14,1,74,374,training,positivefb,90,easy,64,0.7667566000000079,['c'],1,left,['2'],5,0.1283197000002474,,,21,21,Man,Rechts,1,
,dotcolour,dotcolour,dotcolour,15,1,75,375,training,positivefb,95,average,25,0.5341558999998597,['n'],1,right,['1'],6,0.13497060000008787,,,21,21,Man,Rechts,1,
,dotcolour,dotcolour,dotcolour,16,1,76,376,training,positivefb,95,easy,15,0.782732799999394,['n'],1,right,['1'],6,0.21767280000040046,,,21,21,Man,Rechts,1,
,dotcolour,dotcolour,dotcolour,17,1,77,377,training,positivefb,97,hard,39,0.449962400000004,['n'],1,right,['1'],6,0.10370239999974729,,,21,21,Man,Rechts,1,
,dotcolour,dotcolour,dotcolour,18,1,78,378,training,positivefb,97,easy,64,0.7004073999996763,['c'],1,left,['2'],5,0.12730050000027404,,,21,21,Man,Rechts,1,
,dotcolour,dotcolour,dotcolour,19,1,79,379,training,positivefb,98,easy,18,0.48412439999992785,['n'],1,right,['1'],6,0.15128590000040276,,,21,21,Man,Rechts,1,
,dotcolour,dotcolour,dotcolour,20,1,80,380,training,positivefb,93,hard,36,0.7348771999995733,['n'],1,right,['2'],5,0.4757406999997329,,,21,21,Man,Rechts,1,
,dotcolour,dotcolour,dotcolour,21,1,81,381,training,positivefb,75,hard,37,1.167637399999876,['c'],0,right,['2'],5,0.12321689999953378,,,21,21,Man,Rechts,1,
,dotcolour,dotcolour,dotcolour,22,1,82,382,training,positivefb,93,easy,61,0.6668765000003987,['c'],1,left,['1'],6,0.18760670000028767,,,21,21,Man,Rechts,1,
,dotcolour,dotcolour,dotcolour,23,1,83,383,training,positivefb,93,average,53,0.7501572000001033,['c'],1,left,['2'],5,0.2060394999998607,,,21,21,Man,Rechts,1,
,dotcolour,dotcolour,dotcolour,24,1,84,384,training,positivefb,96,easy,16,0.6167547000004561,['n'],1,right,['2'],5,0.18112399999972695,,,21,21,Man,Rechts,1,
,dotcolour,dotcolour,dotcolour,25,1,85,385,training,positivefb,96,average,27,0.8174300999999105,['n'],1,right,['2'],5,0.1658897999996043,,,21,21,Man,Rechts,1,
,dotcolour,dotcolour,dotcolour,26,1,86,386,training,positivefb,98,average,52,0.5503813000004811,['c'],1,left,['2'],5,0.1684425999992527,,,21,21,Man,Rechts,1,
,dotcolour,dotcolour,dotcolour,27,1,87,387,training,positivefb,98,easy,17,0.5511010999998689,['n'],1,right,['2'],5,0.15570910000042204,,,21,21,Man,Rechts,1,
,dotcolour,dotcolour,dotcolour,28,1,88,388,training,positivefb,94,hard,42,0.7673038000002634,['c'],1,left,['2'],5,0.11179559999982303,,,21,21,Man,Rechts,1,
,dotcolour,dotcolour,dotcolour,29,1,89,389,training,positivefb,89,average,53,1.5996878000005381,['c'],1,left,['2'],5,0.0602283999996871,,,21,21,Man,Rechts,1,
,dotcolour,dotcolour,dotcolour,30,1,90,390,training,positivefb,98,average,51,0.5831138000003193,['c'],1,left,['2'],5,0.11383410000053118,,,21,21,Man,Rechts,1,
,dotcolour,dotcolour,dotcolour,31,1,91,391,training,positivefb,93,hard,43,1.584425399999418,['c'],1,left,['2'],5,0.6380057000005763,,,21,21,Man,Rechts,1,
,dotcolour,dotcolour,dotcolour,32,1,92,392,training,positivefb,93,average,51,0.7177821999994194,['c'],1,left,['2'],5,0.1362474999996266,,,21,21,Man,Rechts,1,
,dotcolour,dotcolour,dotcolour,33,1,93,393,training,positivefb,88,hard,43,0.8160445000003165,['c'],1,left,['2'],5,0.12975529999948776,,,21,21,Man,Rechts,1,
,dotcolour,dotcolour,dotcolour,34,1,94,394,training,positivefb,94,easy,64,0.6005457999999635,['c'],1,left,['2'],5,0.1331409000003987,,,21,21,Man,Rechts,1,
,dotcolour,dotcolour,dotcolour,35,1,95,395,training,positivefb,94,average,53,0.6172004999998535,['c'],1,left,['2'],5,0.09566970000014408,,,21,21,Man,Rechts,1,
,dotcolour,dotcolour,dotcolour,36,1,96,396,training,positivefb,91,hard,43,0.9332894999997734,['c'],1,left,['2'],5,0.11924249999992753,,,21,21,Man,Rechts,1,
,dotcolour,dotcolour,dotcolour,37,1,97,397,training,positivefb,85,easy,15,0.5674469000005047,['n'],1,right,['1'],6,0.12342330000046786,,,21,21,Man,Rechts,1,
,dotcolour,dotcolour,dotcolour,38,1,98,398,training,positivefb,97,average,29,0.5675240000000485,['n'],1,right,['2'],5,0.1844091999992088,,,21,21,Man,Rechts,1,
,dotcolour,dotcolour,dotcolour,39,1,99,399,training,positivefb,75,average,54,1.083145899999181,['c'],1,left,['1'],6,0.2221244000002116,,,21,21,Man,Rechts,1,
,dotcolour,dotcolour,dotcolour,40,1,100,400,training,positivefb,95,easy,62,0.5999922000000879,['c'],1,left,['1'],6,0.1332654999996521,,,21,21,Man,Rechts,1,
,dotcolour,dotcolour,dotcolour,41,1,101,401,training,positivefb,93,hard,42,0.9168367000002036,['n'],0,left,['2'],5,0.13093899999967107,,,21,21,Man,Rechts,1,
,dotcolour,dotcolour,dotcolour,42,1,102,402,training,positivefb,97,average,28,0.4667974999993021,['n'],1,right,['2'],5,0.14746670000022277,,,21,21,Man,Rechts,1,
,dotcolour,dotcolour,dotcolour,43,1,103,403,training,positivefb,93,hard,38,0.6826258000000962,['c'],0,right,['2'],5,0.12229190000016388,,,21,21,Man,Rechts,1,
,dotcolour,dotcolour,dotcolour,44,1,104,404,training,positivefb,97,hard,38,0.6168849000005139,['n'],1,right,['2'],5,0.1899916000002122,,,21,21,Man,Rechts,1,
,dotcolour,dotcolour,dotcolour,45,1,105,405,training,positivefb,98,easy,17,1.233426399999189,['n'],1,right,['2'],5,0.18042659999991884,,,21,21,Man,Rechts,1,
,dotcolour,dotcolour,dotcolour,46,1,106,406,training,positivefb,96,hard,38,0.7499612999999954,['n'],1,right,['2'],5,0.16780050000033953,,,21,21,Man,Rechts,1,
,dotcolour,dotcolour,dotcolour,47,1,107,407,training,positivefb,80,average,26,0.715974599999754,['n'],1,right,['2'],5,0.2043995999993058,,,21,21,Man,Rechts,1,
,dotcolour,dotcolour,dotcolour,48,1,108,408,training,positivefb,95,average,28,0.4504277000005459,['n'],1,right,['2'],5,0.13003930000013497,,,21,21,Man,Rechts,1,
,dotcolour,dotcolour,dotcolour,49,1,109,409,training,positivefb,98,easy,16,0.4657925999999861,['n'],1,right,['2'],5,0.16290369999933318,,,21,21,Man,Rechts,1,
,dotcolour,dotcolour,dotcolour,50,1,110,410,training,positivefb,91,easy,63,0.5840325999997731,['c'],1,left,['1'],6,0.13339319999977306,,,21,21,Man,Rechts,1,
,dotcolour,dotcolour,dotcolour,51,1,111,411,training,positivefb,89,hard,39,0.5668925999998464,['n'],1,right,['2'],5,0.18616500000007363,,,21,21,Man,Rechts,1,
,dotcolour,dotcolour,dotcolour,52,1,112,412,training,positivefb,85,average,53,0.8663777000001573,['c'],1,left,['2'],5,0.11986630000046716,,,21,21,Man,Rechts,1,
,dotcolour,dotcolour,dotcolour,53,1,113,413,training,positivefb,97,hard,35,0.6007709000004979,['n'],1,right,['1'],6,0.1475882000004276,,,21,21,Man,Rechts,1,
,dotcolour,dotcolour,dotcolour,54,1,114,414,training,positivefb,84,hard,39,0.9329295999996248,['c'],0,right,['2'],5,0.13632759999927657,,,21,21,Man,Rechts,1,
,dotcolour,dotcolour,dotcolour,55,1,115,415,training,positivefb,74,average,52,2.000368900000467,['c'],1,left,['2'],5,0.19529160000001866,,,21,21,Man,Rechts,1,
,dotcolour,dotcolour,dotcolour,56,1,116,416,training,positivefb,92,hard,37,0.5666169999994963,['n'],1,right,['2'],5,0.3729434000006222,,,21,21,Man,Rechts,1,
,dotcolour,dotcolour,dotcolour,57,1,117,417,training,positivefb,91,hard,42,1.2998901000000842,['n'],0,left,['2'],5,0.45866490000025806,,,21,21,Man,Rechts,1,
,dotcolour,dotcolour,dotcolour,58,1,118,418,training,positivefb,81,hard,42,1.3161739999995916,['n'],0,left,['2'],5,0.2762964000003194,,,21,21,Man,Rechts,1,
,dotcolour,dotcolour,dotcolour,59,1,119,419,training,positivefb,94,easy,64,0.6825171999998929,['c'],1,left,['2'],5,0.11739680000027874,,,21,21,Man,Rechts,1,
,xotask,dotcolour,dotcolour,0,2,120,420,main,positivefb,-99,easy,,6.418791999999485,['c'],1,left,['3'],4,2.670239699999911,72,,21,21,Man,Rechts,1,
,xotask,dotcolour,dotcolour,1,2,121,421,main,positivefb,-99,easy,,1.7178723999995782,['n'],1,right,['2'],5,3.0952225999999428,5,,21,21,Man,Rechts,1,
,xotask,dotcolour,dotcolour,2,2,122,422,main,positivefb,-99,hard,,1.6348780999996961,['n'],1,right,['2'],5,0.6037946000005832,29,,21,21,Man,Rechts,1,
,xotask,dotcolour,dotcolour,3,2,123,423,main,positivefb,-99,easy,,0.9507383999998638,['n'],1,right,['2'],5,0.3500597000002017,8,,21,21,Man,Rechts,1,
,xotask,dotcolour,dotcolour,4,2,124,424,main,positivefb,-99,easy,,0.667799500000001,['n'],1,right,['2'],5,0.20593790000020817,9,,21,21,Man,Rechts,1,
,xotask,dotcolour,dotcolour,5,2,125,425,main,positivefb,-99,hard,,1.2512444000003597,['c'],1,left,['2'],5,0.18127029999959632,53,,21,21,Man,Rechts,1,
,xotask,dotcolour,dotcolour,6,2,126,426,main,positivefb,-99,easy,,0.8513655999995535,['c'],1,left,['2'],5,0.1408923999997569,73,,21,21,Man,Rechts,1,
,xotask,dotcolour,dotcolour,7,2,127,427,main,positivefb,-99,easy,,1.4351897999995344,['c'],0,right,['3'],4,0.17426290000003064,9,,21,21,Man,Rechts,1,
,xotask,dotcolour,dotcolour,8,2,128,428,main,positivefb,-99,average,,1.8846998999997595,['n'],0,left,['3'],4,0.21295049999935145,61,,21,21,Man,Rechts,1,
,xotask,dotcolour,dotcolour,9,2,129,429,main,positivefb,-99,hard,,1.1848700999998982,['c'],1,left,['3'],4,0.36576359999980923,52,,21,21,Man,Rechts,1,
,xotask,dotcolour,dotcolour,10,2,130,430,main,positivefb,-99,average,,1.2843029999994542,['c'],1,left,['3'],4,0.36428539999997156,61,,21,21,Man,Rechts,1,
,xotask,dotcolour,dotcolour,11,2,131,431,main,positivefb,-99,hard,,0.7844128999995519,['c'],1,left,['3'],4,0.2711693000001105,51,,21,21,Man,Rechts,1,
,xotask,dotcolour,dotcolour,12,2,132,432,main,positivefb,-99,hard,,0.9836445999999341,['n'],0,left,['3'],4,0.17387409999992087,52,,21,21,Man,Rechts,1,
,xotask,dotcolour,dotcolour,13,2,133,433,main,positivefb,-99,easy,,1.2006869999995615,['n'],1,right,['2'],5,0.16852060000019264,9,,21,21,Man,Rechts,1,
,xotask,dotcolour,dotcolour,14,2,134,434,main,positivefb,-99,hard,,1.1011214999998629,['n'],0,left,['3'],4,0.7425158000005467,51,,21,21,Man,Rechts,1,
,xotask,dotcolour,dotcolour,15,2,135,435,main,positivefb,-99,average,,0.8336108000003151,['n'],1,right,['2'],5,0.20857390000037412,18,,21,21,Man,Rechts,1,
,xotask,dotcolour,dotcolour,16,2,136,436,main,positivefb,-99,easy,,0.9006182000002809,['c'],1,left,['2'],5,0.18853479999961564,72,,21,21,Man,Rechts,1,
,xotask,dotcolour,dotcolour,17,2,137,437,main,positivefb,-99,average,,1.7015768999999636,['c'],1,left,['2'],5,0.13868790000014997,60,,21,21,Man,Rechts,1,
,xotask,dotcolour,dotcolour,18,2,138,438,main,positivefb,-99,average,,1.7835728000000017,['n'],0,left,['2'],5,0.16681480000079318,60,,21,21,Man,Rechts,1,
,xotask,dotcolour,dotcolour,19,2,139,439,main,positivefb,-99,hard,,1.1840644000003522,['n'],1,right,['2'],5,0.16105879999940953,26,,21,21,Man,Rechts,1,
,xotask,dotcolour,dotcolour,20,2,140,440,main,positivefb,-99,hard,,3.4344774000001053,['n'],1,right,['2'],5,0.09052919999976439,27,,21,21,Man,Rechts,1,
,xotask,dotcolour,dotcolour,21,2,141,441,main,positivefb,-99,hard,,1.067349799999647,['c'],1,left,['2'],5,0.1331010999992941,50,,21,21,Man,Rechts,1,
,xotask,dotcolour,dotcolour,22,2,142,442,main,positivefb,-99,easy,,0.6494658999999956,['c'],1,left,['2'],5,0.09400939999977709,71,,21,21,Man,Rechts,1,
,xotask,dotcolour,dotcolour,23,2,143,443,main,positivefb,-99,average,,0.7008138000001054,['n'],1,right,['2'],5,0.19154600000001665,17,,21,21,Man,Rechts,1,
,xotask,dotcolour,dotcolour,24,2,144,444,main,positivefb,-99,hard,,0.9513150000002497,['c'],1,left,['2'],5,0.2354221999994479,53,,21,21,Man,Rechts,1,
,xotask,dotcolour,dotcolour,25,2,145,445,main,positivefb,-99,easy,,1.3835895000001983,['n'],1,right,['2'],5,0.08305449999988923,7,,21,21,Man,Rechts,1,
,xotask,dotcolour,dotcolour,26,2,146,446,main,positivefb,-99,hard,,1.384593899999345,['n'],1,right,['1'],6,0.24106620000020484,28,,21,21,Man,Rechts,1,
,xotask,dotcolour,dotcolour,27,2,147,447,main,positivefb,-99,hard,,0.6503863999996611,['n'],1,right,['2'],5,0.2310272000004261,29,,21,21,Man,Rechts,1,
,xotask,dotcolour,dotcolour,28,2,148,448,main,positivefb,-99,hard,,0.6339587999991636,['n'],1,right,['2'],5,0.34869760000037786,29,,21,21,Man,Rechts,1,
,xotask,dotcolour,dotcolour,29,2,149,449,main,positivefb,-99,hard,,0.8842841999994562,['c'],1,left,['2'],5,0.13241589999961434,54,,21,21,Man,Rechts,1,
,xotask,dotcolour,dotcolour,30,2,150,450,main,positivefb,-99,average,,1.0343336000005365,['c'],1,left,['2'],5,0.13485250000030646,64,,21,21,Man,Rechts,1,
,xotask,dotcolour,dotcolour,31,2,151,451,main,positivefb,-99,easy,,0.7010285999995176,['n'],1,right,['2'],5,0.1334794000003967,6,,21,21,Man,Rechts,1,
,xotask,dotcolour,dotcolour,32,2,152,452,main,positivefb,-99,easy,,0.8674316000006002,['n'],1,right,['2'],5,0.19844369999918854,5,,21,21,Man,Rechts,1,
,xotask,dotcolour,dotcolour,33,2,153,453,main,positivefb,-99,average,,1.5511138000001665,['c'],1,left,['2'],5,0.2011795999997048,60,,21,21,Man,Rechts,1,
,xotask,dotcolour,dotcolour,34,2,154,454,main,positivefb,-99,average,,0.7507434999997713,['n'],1,right,['2'],5,0.13136589999976422,19,,21,21,Man,Rechts,1,
,xotask,dotcolour,dotcolour,35,2,155,455,main,positivefb,-99,average,,0.6509570000007443,['n'],1,right,['1'],6,0.3327409000003172,17,,21,21,Man,Rechts,1,
,xotask,dotcolour,dotcolour,36,2,156,456,main,positivefb,-99,average,,0.7348074999999881,['c'],1,left,['2'],5,0.12264540000069246,60,,21,21,Man,Rechts,1,
,xotask,dotcolour,dotcolour,37,2,157,457,main,positivefb,-99,average,,0.7337842999995701,['c'],1,left,['2'],5,0.18572320000021136,60,,21,21,Man,Rechts,1,
,xotask,dotcolour,dotcolour,38,2,158,458,main,positivefb,-99,hard,,0.8509407999999894,['c'],1,left,['2'],5,0.08172209999975166,53,,21,21,Man,Rechts,1,
,xotask,dotcolour,dotcolour,39,2,159,459,main,positivefb,-99,easy,,0.8177794000002905,['c'],1,left,['2'],5,0.13322809999954188,73,,21,21,Man,Rechts,1,
,xotask,dotcolour,dotcolour,40,2,160,460,main,positivefb,-99,average,,0.7013139999999112,['n'],1,right,['2'],5,0.18945810000059282,16,,21,21,Man,Rechts,1,
,xotask,dotcolour,dotcolour,41,2,161,461,main,positivefb,-99,hard,,0.5339514999996027,['n'],1,right,['2'],5,0.1455297000002247,29,,21,21,Man,Rechts,1,
,xotask,dotcolour,dotcolour,42,2,162,462,main,positivefb,-99,hard,,0.4996790000004694,['n'],1,right,['2'],5,0.3922282000003179,25,,21,21,Man,Rechts,1,
,xotask,dotcolour,dotcolour,43,2,163,463,main,positivefb,-99,average,,0.6174912999995286,['n'],1,right,['2'],5,0.15344499999991967,15,,21,21,Man,Rechts,1,
,xotask,dotcolour,dotcolour,44,2,164,464,main,positivefb,-99,hard,,1.4179047000006904,['c'],1,left,['2'],5,0.13145559999975376,53,,21,21,Man,Rechts,1,
,xotask,dotcolour,dotcolour,45,2,165,465,main,positivefb,-99,easy,,0.6010957999997117,['n'],1,right,['1'],6,0.16729539999960252,8,,21,21,Man,Rechts,1,
,xotask,dotcolour,dotcolour,46,2,166,466,main,positivefb,-99,average,,0.8012780999997631,['n'],1,right,['1'],6,0.10417779999988852,18,,21,21,Man,Rechts,1,
,xotask,dotcolour,dotcolour,47,2,167,467,main,positivefb,-99,easy,,0.9349734999996144,['c'],1,left,['2'],5,0.11926080000012007,71,,21,21,Man,Rechts,1,
,xotask,dotcolour,dotcolour,48,2,168,468,main,positivefb,-99,easy,,0.7345778999997492,['c'],1,left,['2'],5,0.10233740000057878,70,,21,21,Man,Rechts,1,
,xotask,dotcolour,dotcolour,49,2,169,469,main,positivefb,-99,hard,,0.8347387000003437,['n'],1,right,['2'],5,0.338036899999679,25,,21,21,Man,Rechts,1,
,xotask,dotcolour,dotcolour,50,2,170,470,main,positivefb,-99,easy,,0.7506874999999127,['c'],1,left,['1'],6,0.31082949999927223,72,,21,21,Man,Rechts,1,
,xotask,dotcolour,dotcolour,51,2,171,471,main,positivefb,-99,average,,0.917740099999719,['n'],1,right,['2'],5,0.1432264999994004,19,,21,21,Man,Rechts,1,
,xotask,dotcolour,dotcolour,52,2,172,472,main,positivefb,-99,average,,0.718171400000756,['n'],1,right,['2'],5,0.22174710000035702,19,,21,21,Man,Rechts,1,
,xotask,dotcolour,dotcolour,53,2,173,473,main,positivefb,-99,easy,,0.7842184000000998,['n'],1,right,['2'],5,0.11075129999971978,8,,21,21,Man,Rechts,1,
,xotask,dotcolour,dotcolour,54,2,174,474,main,positivefb,-99,hard,,0.9508636000000479,['c'],0,right,['2'],5,0.11684210000021267,25,,21,21,Man,Rechts,1,
,xotask,dotcolour,dotcolour,55,2,175,475,main,positivefb,-99,easy,,1.267115399999966,['c'],1,left,['2'],5,0.13465680000081193,74,,21,21,Man,Rechts,1,
,xotask,dotcolour,dotcolour,56,2,176,476,main,positivefb,-99,average,,0.6678865000003498,['c'],1,left,['1'],6,0.18290129999968485,62,,21,21,Man,Rechts,1,
,xotask,dotcolour,dotcolour,57,2,177,477,main,positivefb,-99,average,,0.6511103000002549,['c'],1,left,['1'],6,0.09445839999989403,63,,21,21,Man,Rechts,1,
,xotask,dotcolour,dotcolour,58,2,178,478,main,positivefb,-99,average,,0.6000648999997793,['n'],1,right,['2'],5,0.16401330000007874,15,,21,21,Man,Rechts,1,
,xotask,dotcolour,dotcolour,59,2,179,479,main,positivefb,-99,easy,,0.6349233000000822,['c'],1,left,['2'],5,0.27731949999997596,74,,21,21,Man,Rechts,1,
,xotask,dotcolour,dotcolour,0,3,180,480,main,positivefb,-99,average,,0.9350777999998172,['c'],1,left,['2'],5,0.09709740000016609,60,,21,21,Man,Rechts,1,
,xotask,dotcolour,dotcolour,1,3,181,481,main,positivefb,-99,average,,0.8336319000000003,['c'],1,left,['2'],5,0.14145639999969717,63,,21,21,Man,Rechts,1,
,xotask,dotcolour,dotcolour,2,3,182,482,main,positivefb,-99,easy,,0.6343028000001141,['n'],1,right,['2'],5,0.12689380000028905,6,,21,21,Man,Rechts,1,
,xotask,dotcolour,dotcolour,3,3,183,483,main,positivefb,-99,average,,0.5499945000001389,['n'],1,right,['2'],5,0.12521449999985634,18,,21,21,Man,Rechts,1,
,xotask,dotcolour,dotcolour,4,3,184,484,main,positivefb,-99,easy,,0.6017045999997208,['n'],1,right,['2'],5,0.15294269999958487,6,,21,21,Man,Rechts,1,
,xotask,dotcolour,dotcolour,5,3,185,485,main,positivefb,-99,easy,,0.7184895000000324,['n'],1,right,['2'],5,0.0792527000003247,8,,21,21,Man,Rechts,1,
,xotask,dotcolour,dotcolour,6,3,186,486,main,positivefb,-99,average,,0.6674536000000444,['c'],0,right,['2'],5,0.09824070000013307,19,,21,21,Man,Rechts,1,
,xotask,dotcolour,dotcolour,7,3,187,487,main,positivefb,-99,average,,0.9163699999999153,['c'],1,left,['1'],6,0.25069689999963884,61,,21,21,Man,Rechts,1,
,xotask,dotcolour,dotcolour,8,3,188,488,main,positivefb,-99,easy,,0.75184949999948,['c'],1,left,['2'],5,0.08297310000034486,73,,21,21,Man,Rechts,1,
,xotask,dotcolour,dotcolour,9,3,189,489,main,positivefb,-99,easy,,0.5685867000001963,['c'],1,left,['1'],6,0.09798880000016652,70,,21,21,Man,Rechts,1,
,xotask,dotcolour,dotcolour,10,3,190,490,main,positivefb,-99,hard,,1.5345645999996123,['c'],0,right,['2'],5,0.15335960000084015,27,,21,21,Man,Rechts,1,
,xotask,dotcolour,dotcolour,11,3,191,491,main,positivefb,-99,average,,0.6683619999994335,['n'],1,right,['2'],5,0.12122230000022682,18,,21,21,Man,Rechts,1,
,xotask,dotcolour,dotcolour,12,3,192,492,main,positivefb,-99,average,,0.7840657000006104,['c'],1,left,['1'],6,0.08572349999940343,60,,21,21,Man,Rechts,1,
,xotask,dotcolour,dotcolour,13,3,193,493,main,positivefb,-99,easy,,0.6511932000003071,['c'],1,left,['1'],6,0.12149159999989934,74,,21,21,Man,Rechts,1,
,xotask,dotcolour,dotcolour,14,3,194,494,main,positivefb,-99,average,,0.7344006000002992,['n'],1,right,['1'],6,0.37608910000017204,17,,21,21,Man,Rechts,1,
,xotask,dotcolour,dotcolour,15,3,195,495,main,positivefb,-99,hard,,0.7009419999994861,['n'],1,right,['1'],6,0.15796210000007704,26,,21,21,Man,Rechts,1,
,xotask,dotcolour,dotcolour,16,3,196,496,main,positivefb,-99,average,,0.9176554000005126,['c'],1,left,['2'],5,0.19634289999976318,61,,21,21,Man,Rechts,1,
,xotask,dotcolour,dotcolour,17,3,197,497,main,positivefb,-99,average,,0.7176414000005025,['c'],0,right,['2'],5,0.13638039999932516,18,,21,21,Man,Rechts,1,
,xotask,dotcolour,dotcolour,18,3,198,498,main,positivefb,-99,average,,0.8185665000000881,['n'],1,right,['2'],5,0.21133779999945546,17,,21,21,Man,Rechts,1,
,xotask,dotcolour,dotcolour,19,3,199,499,main,positivefb,-99,average,,1.0675859000002674,['c'],1,left,['2'],5,0.08919300000070507,64,,21,21,Man,Rechts,1,
,xotask,dotcolour,dotcolour,20,3,200,500,main,positivefb,-99,easy,,0.6160063999996055,['n'],1,right,['2'],5,0.12583249999988766,6,,21,21,Man,Rechts,1,
,xotask,dotcolour,dotcolour,21,3,201,501,main,positivefb,-99,average,,0.7175532000001112,['n'],0,left,['2'],5,0.1413617999996859,60,,21,21,Man,Rechts,1,
,xotask,dotcolour,dotcolour,22,3,202,502,main,positivefb,-99,hard,,0.8513573999998698,['n'],1,right,['1'],6,0.11852140000064537,27,,21,21,Man,Rechts,1,
,xotask,dotcolour,dotcolour,23,3,203,503,main,positivefb,-99,easy,,1.0988915000007182,['c'],1,left,['1'],6,0.19826760000069044,72,,21,21,Man,Rechts,1,
,xotask,dotcolour,dotcolour,24,3,204,504,main,positivefb,-99,easy,,0.5838009999997666,['n'],1,right,['2'],5,0.3999085000004925,9,,21,21,Man,Rechts,1,
,xotask,dotcolour,dotcolour,25,3,205,505,main,positivefb,-99,hard,,0.9021144000007553,['c'],1,left,['1'],6,0.12467150000065885,54,,21,21,Man,Rechts,1,
,xotask,dotcolour,dotcolour,26,3,206,506,main,positivefb,-99,easy,,1.9495549000002939,['n'],1,right,['2'],5,0.7628850000000966,7,,21,21,Man,Rechts,1,
,xotask,dotcolour,dotcolour,27,3,207,507,main,positivefb,-99,easy,,0.9018346000002566,['n'],1,right,['1'],6,0.35340219999943656,7,,21,21,Man,Rechts,1,
,xotask,dotcolour,dotcolour,28,3,208,508,main,positivefb,-99,easy,,0.868239899999935,['c'],1,left,['1'],6,0.08929989999978716,72,,21,21,Man,Rechts,1,
,xotask,dotcolour,dotcolour,29,3,209,509,main,positivefb,-99,average,,1.0004171000000497,['c'],1,left,['1'],6,0.08665079999991576,61,,21,21,Man,Rechts,1,
,xotask,dotcolour,dotcolour,30,3,210,510,main,positivefb,-99,hard,,2.150389599999471,['n'],0,left,['3'],4,0.7901082999997016,51,,21,21,Man,Rechts,1,
,xotask,dotcolour,dotcolour,31,3,211,511,main,positivefb,-99,average,,0.667668699999922,['n'],1,right,['2'],5,0.17284899999958725,18,,21,21,Man,Rechts,1,
,xotask,dotcolour,dotcolour,32,3,212,512,main,positivefb,-99,hard,,0.817591199999697,['c'],0,right,['2'],5,0.20600180000019463,27,,21,21,Man,Rechts,1,
,xotask,dotcolour,dotcolour,33,3,213,513,main,positivefb,-99,easy,,0.649845699999787,['n'],1,right,['1'],6,0.27639369999997143,5,,21,21,Man,Rechts,1,
,xotask,dotcolour,dotcolour,34,3,214,514,main,positivefb,-99,hard,,1.101298799999313,['c'],1,left,['2'],5,0.12687889999961044,54,,21,21,Man,Rechts,1,
,xotask,dotcolour,dotcolour,35,3,215,515,main,positivefb,-99,easy,,0.8331935000005615,['n'],1,right,['2'],5,0.2500783000004958,5,,21,21,Man,Rechts,1,
,xotask,dotcolour,dotcolour,36,3,216,516,main,positivefb,-99,average,,0.7009453000000576,['n'],1,right,['2'],5,0.2445225000001301,18,,21,21,Man,Rechts,1,
,xotask,dotcolour,dotcolour,37,3,217,517,main,positivefb,-99,hard,,1.1170988999992915,['c'],1,left,['1'],6,0.262454799999432,54,,21,21,Man,Rechts,1,
,xotask,dotcolour,dotcolour,38,3,218,518,main,positivefb,-99,hard,,1.384010899999339,['n'],0,left,['2'],5,0.11743920000026264,53,,21,21,Man,Rechts,1,
,xotask,dotcolour,dotcolour,39,3,219,519,main,positivefb,-99,hard,,0.884257499999876,['n'],1,right,['2'],5,0.1904404999995677,28,,21,21,Man,Rechts,1,
,xotask,dotcolour,dotcolour,40,3,220,520,main,positivefb,-99,hard,,0.850703600000088,['n'],0,left,['2'],5,0.11036119999971561,51,,21,21,Man,Rechts,1,
,xotask,dotcolour,dotcolour,41,3,221,521,main,positivefb,-99,hard,,0.5675851000005423,['c'],1,left,['2'],5,0.20458640000015293,50,,21,21,Man,Rechts,1,
,xotask,dotcolour,dotcolour,42,3,222,522,main,positivefb,-99,hard,,0.9341528999993898,['c'],0,right,['8'],3,1.4957051999999749,29,,21,21,Man,Rechts,1,
,xotask,dotcolour,dotcolour,43,3,223,523,main,positivefb,-99,easy,,2.5338575999994646,['c'],1,left,['2'],5,0.19100720000005822,71,,21,21,Man,Rechts,1,
,xotask,dotcolour,dotcolour,44,3,224,524,main,positivefb,-99,hard,,1.1013026000000536,['c'],1,left,['2'],5,0.15697559999989608,52,,21,21,Man,Rechts,1,
,xotask,dotcolour,dotcolour,45,3,225,525,main,positivefb,-99,easy,,0.8675789999997505,['c'],1,left,['2'],5,0.260562000000391,72,,21,21,Man,Rechts,1,
,xotask,dotcolour,dotcolour,46,3,226,526,main,positivefb,-99,average,,0.9674236000000747,['c'],1,left,['2'],5,0.1247654999997394,62,,21,21,Man,Rechts,1,
,xotask,dotcolour,dotcolour,47,3,227,527,main,positivefb,-99,average,,0.7505356000001484,['n'],1,right,['2'],5,0.15454159999990225,17,,21,21,Man,Rechts,1,
,xotask,dotcolour,dotcolour,48,3,228,528,main,positivefb,-99,average,,1.483729100000346,['c'],1,left,['3'],4,0.2984912000001714,64,,21,21,Man,Rechts,1,
,xotask,dotcolour,dotcolour,49,3,229,529,main,positivefb,-99,easy,,2.4839311999994607,['c'],1,left,['2'],5,0.2596256999995603,74,,21,21,Man,Rechts,1,
,xotask,dotcolour,dotcolour,50,3,230,530,main,positivefb,-99,hard,,0.9003594000005251,['n'],0,left,['2'],5,0.3102446000002601,52,,21,21,Man,Rechts,1,
,xotask,dotcolour,dotcolour,51,3,231,531,main,positivefb,-99,hard,,1.7176193000004787,['n'],1,right,['2'],5,0.15022739999949408,25,,21,21,Man,Rechts,1,
,xotask,dotcolour,dotcolour,52,3,232,532,main,positivefb,-99,average,,0.5669810999997935,['n'],1,right,['1'],6,0.42651399999977,19,,21,21,Man,Rechts,1,
,xotask,dotcolour,dotcolour,53,3,233,533,main,positivefb,-99,hard,,0.6682870000004186,['n'],1,right,['1'],6,0.1034960000006322,26,,21,21,Man,Rechts,1,
,xotask,dotcolour,dotcolour,54,3,234,534,main,positivefb,-99,easy,,0.9346097999996346,['c'],1,left,['2'],5,0.3664885999996841,71,,21,21,Man,Rechts,1,
,xotask,dotcolour,dotcolour,55,3,235,535,main,positivefb,-99,easy,,0.7507109999996828,['n'],1,right,['2'],5,0.19519360000049346,9,,21,21,Man,Rechts,1,
,xotask,dotcolour,dotcolour,56,3,236,536,main,positivefb,-99,hard,,1.0843599999998332,['c'],0,right,['2'],5,0.24110969999946974,28,,21,21,Man,Rechts,1,
,xotask,dotcolour,dotcolour,57,3,237,537,main,positivefb,-99,hard,,0.8843242000002647,['n'],0,left,['3'],4,1.6530276000003141,52,,21,21,Man,Rechts,1,
,xotask,dotcolour,dotcolour,58,3,238,538,main,positivefb,-99,easy,,0.8183640999995987,['c'],1,left,['2'],5,0.09866220000003523,74,,21,21,Man,Rechts,1,
,xotask,dotcolour,dotcolour,59,3,239,539,main,positivefb,-99,hard,,1.2675831999995353,['n'],1,right,['2'],5,0.1489400000000387,25,,21,21,Man,Rechts,1,
,xotask,dotcolour,dotcolour,0,4,240,540,main,positivefb,-99,easy,,0.8686210000014398,['c'],1,left,['2'],5,0.1682543999995687,74,,21,21,Man,Rechts,1,
,xotask,dotcolour,dotcolour,1,4,241,541,main,positivefb,-99,average,,0.7505978000008326,['c'],1,left,['2'],5,0.155627000000095,64,,21,21,Man,Rechts,1,
,xotask,dotcolour,dotcolour,2,4,242,542,main,positivefb,-99,hard,,0.6020594999990863,['n'],1,right,['2'],5,0.11829980000038631,28,,21,21,Man,Rechts,1,
,xotask,dotcolour,dotcolour,3,4,243,543,main,positivefb,-99,average,,0.6840405000002647,['c'],1,left,['2'],5,0.0871036999997159,64,,21,21,Man,Rechts,1,
,xotask,dotcolour,dotcolour,4,4,244,544,main,positivefb,-99,easy,,0.616807799999151,['c'],1,left,['2'],5,0.11574669999936305,73,,21,21,Man,Rechts,1,
,xotask,dotcolour,dotcolour,5,4,245,545,main,positivefb,-99,hard,,0.5852286000008462,['n'],1,right,['2'],5,0.12017480000031355,28,,21,21,Man,Rechts,1,
,xotask,dotcolour,dotcolour,6,4,246,546,main,positivefb,-99,average,,0.5508210999996663,['n'],1,right,['2'],5,0.13480340000023716,15,,21,21,Man,Rechts,1,
,xotask,dotcolour,dotcolour,7,4,247,547,main,positivefb,-99,average,,0.5009739000015543,['n'],1,right,['1'],6,0.1986429999997199,18,,21,21,Man,Rechts,1,
,xotask,dotcolour,dotcolour,8,4,248,548,main,positivefb,-99,average,,0.6682900999985577,['c'],1,left,['2'],5,0.0682368999987375,60,,21,21,Man,Rechts,1,
,xotask,dotcolour,dotcolour,9,4,249,549,main,positivefb,-99,easy,,0.5682474999994156,['n'],1,right,['1'],6,0.14730750000126136,5,,21,21,Man,Rechts,1,
,xotask,dotcolour,dotcolour,10,4,250,550,main,positivefb,-99,average,,0.6845489000006637,['c'],1,left,['1'],6,0.1391198000001168,60,,21,21,Man,Rechts,1,
,xotask,dotcolour,dotcolour,11,4,251,551,main,positivefb,-99,hard,,0.6003702999987581,['n'],1,right,['2'],5,0.12670249999973748,28,,21,21,Man,Rechts,1,
,xotask,dotcolour,dotcolour,12,4,252,552,main,positivefb,-99,easy,,0.6346441000005143,['n'],1,right,['2'],5,0.20152210000014747,6,,21,21,Man,Rechts,1,
,xotask,dotcolour,dotcolour,13,4,253,553,main,positivefb,-99,average,,0.5518508000004658,['n'],1,right,['1'],6,1.0357567000010022,16,,21,21,Man,Rechts,1,
,xotask,dotcolour,dotcolour,14,4,254,554,main,positivefb,-99,hard,,0.7005733000005421,['c'],1,left,['2'],5,0.20755159999862371,51,,21,21,Man,Rechts,1,
,xotask,dotcolour,dotcolour,15,4,255,555,main,positivefb,-99,hard,,0.7672750000001543,['c'],1,left,['2'],5,0.12081969999962894,53,,21,21,Man,Rechts,1,
,xotask,dotcolour,dotcolour,16,4,256,556,main,positivefb,-99,average,,0.816997399999309,['n'],1,right,['1'],6,0.16460279999955674,19,,21,21,Man,Rechts,1,
,xotask,dotcolour,dotcolour,17,4,257,557,main,positivefb,-99,easy,,0.6172392999997101,['n'],1,right,['1'],6,2.694090300001335,8,,21,21,Man,Rechts,1,
,xotask,dotcolour,dotcolour,18,4,258,558,main,positivefb,-99,hard,,0.8676261000000522,['c'],0,right,['2'],5,0.13648529999954917,28,,21,21,Man,Rechts,1,
,xotask,dotcolour,dotcolour,19,4,259,559,main,positivefb,-99,easy,,0.5338879999999335,['n'],1,right,['1'],6,0.1740895000002638,8,,21,21,Man,Rechts,1,
,xotask,dotcolour,dotcolour,20,4,260,560,main,positivefb,-99,average,,0.7670716000011453,['c'],1,left,['2'],5,0.17789780000020983,64,,21,21,Man,Rechts,1,
,xotask,dotcolour,dotcolour,21,4,261,561,main,positivefb,-99,hard,,0.5501853000005212,['c'],1,left,['2'],5,0.14979789999961213,53,,21,21,Man,Rechts,1,
,xotask,dotcolour,dotcolour,22,4,262,562,main,positivefb,-99,easy,,0.6352034999999887,['c'],1,left,['1'],6,0.13479019999977027,72,,21,21,Man,Rechts,1,
,xotask,dotcolour,dotcolour,23,4,263,563,main,positivefb,-99,easy,,0.700930300001346,['n'],1,right,['1'],6,0.13444089999939024,9,,21,21,Man,Rechts,1,
,xotask,dotcolour,dotcolour,24,4,264,564,main,positivefb,-99,easy,,1.3839562000011938,['n'],1,right,['1'],6,0.14650549999896612,7,,21,21,Man,Rechts,1,
,xotask,dotcolour,dotcolour,25,4,265,565,main,positivefb,-99,average,,0.5352815999995073,['n'],1,right,['1'],6,0.1287546999992628,19,,21,21,Man,Rechts,1,
,xotask,dotcolour,dotcolour,26,4,266,566,main,positivefb,-99,hard,,0.8847241999992548,['c'],0,right,['2'],5,0.16159329999936745,28,,21,21,Man,Rechts,1,
,xotask,dotcolour,dotcolour,27,4,267,567,main,positivefb,-99,hard,,0.5351533000011841,['n'],1,right,['1'],6,0.15050669999982347,25,,21,21,Man,Rechts,1,
,xotask,dotcolour,dotcolour,28,4,268,568,main,positivefb,-99,hard,,0.6836093000001711,['c'],1,left,['2'],5,0.1827599000007467,50,,21,21,Man,Rechts,1,
,xotask,dotcolour,dotcolour,29,4,269,569,main,positivefb,-99,average,,0.7013459999998304,['c'],0,right,['2'],5,0.13106780000089202,18,,21,21,Man,Rechts,1,
,xotask,dotcolour,dotcolour,30,4,270,570,main,positivefb,-99,easy,,0.7020435999984329,['c'],1,left,['2'],5,0.2824693999991723,74,,21,21,Man,Rechts,1,
,xotask,dotcolour,dotcolour,31,4,271,571,main,positivefb,-99,easy,,0.4349216999999044,['c'],1,left,['1'],6,0.14261090000036347,73,,21,21,Man,Rechts,1,
,xotask,dotcolour,dotcolour,32,4,272,572,main,positivefb,-99,easy,,0.5173286000008375,['c'],1,left,['1'],6,0.09350269999958982,72,,21,21,Man,Rechts,1,
,xotask,dotcolour,dotcolour,33,4,273,573,main,positivefb,-99,easy,,0.6018122999994375,['n'],1,right,['1'],6,0.1545343000016146,8,,21,21,Man,Rechts,1,
,xotask,dotcolour,dotcolour,34,4,274,574,main,positivefb,-99,average,,0.5682080999995378,['n'],1,right,['1'],6,0.14246189999903436,16,,21,21,Man,Rechts,1,
,xotask,dotcolour,dotcolour,35,4,275,575,main,positivefb,-99,easy,,0.43492870000045514,['n'],1,right,['1'],6,0.1283274999987043,8,,21,21,Man,Rechts,1,
,xotask,dotcolour,dotcolour,36,4,276,576,main,positivefb,-99,hard,,0.8681152999997721,['c'],1,left,['2'],5,0.1136915000006411,53,,21,21,Man,Rechts,1,
,xotask,dotcolour,dotcolour,37,4,277,577,main,positivefb,-99,hard,,0.7008823000014672,['c'],1,left,['2'],5,0.1305436999991798,51,,21,21,Man,Rechts,1,
,xotask,dotcolour,dotcolour,38,4,278,578,main,positivefb,-99,hard,,0.5836633999988408,['c'],1,left,['2'],5,0.1270686999996542,50,,21,21,Man,Rechts,1,
,xotask,dotcolour,dotcolour,39,4,279,579,main,positivefb,-99,average,,1.1678288000002794,['c'],0,right,['8'],3,1.0847558999994362,16,,21,21,Man,Rechts,1,
,xotask,dotcolour,dotcolour,40,4,280,580,main,positivefb,-99,easy,,0.9171291000002384,['c'],1,left,['2'],5,0.15622669999902428,72,,21,21,Man,Rechts,1,
,xotask,dotcolour,dotcolour,41,4,281,581,main,positivefb,-99,hard,,1.083673600000111,['c'],1,left,['2'],5,0.23592180000014196,51,,21,21,Man,Rechts,1,
,xotask,dotcolour,dotcolour,42,4,282,582,main,positivefb,-99,easy,,0.6342753999997512,['n'],1,right,['2'],5,0.19435510000039358,6,,21,21,Man,Rechts,1,
,xotask,dotcolour,dotcolour,43,4,283,583,main,positivefb,-99,hard,,0.4835134000004473,['n'],1,right,['1'],6,0.10414230000060343,25,,21,21,Man,Rechts,1,
,xotask,dotcolour,dotcolour,44,4,284,584,main,positivefb,-99,average,,1.2348203000001376,['c'],1,left,['2'],5,0.154569199999969,63,,21,21,Man,Rechts,1,
,xotask,dotcolour,dotcolour,45,4,285,585,main,positivefb,-99,average,,0.750520300000062,['c'],1,left,['1'],6,0.28831909999826166,61,,21,21,Man,Rechts,1,
,xotask,dotcolour,dotcolour,46,4,286,586,main,positivefb,-99,hard,,0.5682536999993317,['n'],1,right,['1'],6,0.09413539999877685,26,,21,21,Man,Rechts,1,
,xotask,dotcolour,dotcolour,47,4,287,587,main,positivefb,-99,average,,0.9675975999998627,['n'],1,right,['1'],6,0.06118679999963206,19,,21,21,Man,Rechts,1,
,xotask,dotcolour,dotcolour,48,4,288,588,main,positivefb,-99,average,,0.8518359999998211,['n'],1,right,['1'],6,0.017557099999976344,18,,21,21,Man,Rechts,1,
,xotask,dotcolour,dotcolour,49,4,289,589,main,positivefb,-99,hard,,1.2663976000003458,['c'],1,left,['3'],4,0.46355620000031195,53,,21,21,Man,Rechts,1,
,xotask,dotcolour,dotcolour,50,4,290,590,main,positivefb,-99,average,,0.9506230000006326,['n'],0,left,['3'],4,0.40809579999950074,60,,21,21,Man,Rechts,1,
,xotask,dotcolour,dotcolour,51,4,291,591,main,positivefb,-99,easy,,2.6180194999997184,['c'],1,left,['3'],4,0.2647828000008303,70,,21,21,Man,Rechts,1,
,xotask,dotcolour,dotcolour,52,4,292,592,main,positivefb,-99,easy,,0.9012228999999934,['n'],1,right,['2'],5,0.10636280000107945,7,,21,21,Man,Rechts,1,
,xotask,dotcolour,dotcolour,53,4,293,593,main,positivefb,-99,easy,,0.7179390999990574,['c'],1,left,['2'],5,0.17810540000027686,73,,21,21,Man,Rechts,1,
,xotask,dotcolour,dotcolour,54,4,294,594,main,positivefb,-99,easy,,0.8017112999987148,['c'],1,left,['2'],5,0.13236569999935455,71,,21,21,Man,Rechts,1,
,xotask,dotcolour,dotcolour,55,4,295,595,main,positivefb,-99,average,,1.1182917000005546,['c'],1,left,['2'],5,0.13836930000070424,60,,21,21,Man,Rechts,1,
,xotask,dotcolour,dotcolour,56,4,296,596,main,positivefb,-99,hard,,0.7498524000002362,['n'],1,right,['2'],5,0.11966899999970337,26,,21,21,Man,Rechts,1,
,xotask,dotcolour,dotcolour,57,4,297,597,main,positivefb,-99,hard,,0.43343540000023495,['n'],1,right,['1'],6,0.16348219999963476,26,,21,21,Man,Rechts,1,
,xotask,dotcolour,dotcolour,58,4,298,598,main,positivefb,-99,hard,,0.7351276999997935,['n'],0,left,['8'],3,0.6803415999984281,54,,21,21,Man,Rechts,1,
,xotask,dotcolour,dotcolour,59,4,299,599,main,positivefb,-99,average,,0.9342744999994466,['c'],1,left,['3'],4,0.10514789999979257,63,,21,21,Man,Rechts,1,
,dotcolour,dotcolour,dotcolour,0,0,0,600,training,positivefb,86,hard,36,3.7341978999993444,['n'],1,right,['2'],5,0.12780019999991055,,,21,21,Man,Rechts,1,
,dotcolour,dotcolour,dotcolour,1,0,1,601,training,positivefb,92,hard,41,1.0342233999999735,['n'],0,left,['2'],5,0.1218776000005164,,,21,21,Man,Rechts,1,
,dotcolour,dotcolour,dotcolour,2,0,2,602,training,positivefb,95,easy,19,0.5158021000006556,['n'],1,right,['2'],5,0.14460529999996652,,,21,21,Man,Rechts,1,
,dotcolour,dotcolour,dotcolour,3,0,3,603,training,positivefb,96,hard,38,0.6505161000004591,['n'],1,right,['1'],6,0.09710180000001856,,,21,21,Man,Rechts,1,
,dotcolour,dotcolour,dotcolour,4,0,4,604,training,positivefb,97,easy,16,0.5166566000007151,['n'],1,right,['1'],6,0.12983620000159135,,,21,21,Man,Rechts,1,
,dotcolour,dotcolour,dotcolour,5,0,5,605,training,positivefb,90,average,51,0.7511243999997532,['c'],1,left,['2'],5,0.11925849999897764,,,21,21,Man,Rechts,1,
,dotcolour,dotcolour,dotcolour,6,0,6,606,training,positivefb,83,hard,41,0.5506749999985914,['n'],0,left,['2'],5,0.19662829999833775,,,21,21,Man,Rechts,1,
,dotcolour,dotcolour,dotcolour,7,0,7,607,training,positivefb,95,average,27,0.46655850000024657,['n'],1,right,['2'],5,0.10646540000016103,,,21,21,Man,Rechts,1,
,dotcolour,dotcolour,dotcolour,8,0,8,608,training,positivefb,86,easy,63,0.7489647999991575,['c'],1,left,['2'],5,0.10403670000050624,,,21,21,Man,Rechts,1,
,dotcolour,dotcolour,dotcolour,9,0,9,609,training,positivefb,90,hard,42,0.6831131999988429,['n'],0,left,['2'],5,0.08914460000050894,,,21,21,Man,Rechts,1,
,dotcolour,dotcolour,dotcolour,10,0,10,610,training,positivefb,91,average,51,0.7999925000003714,['c'],1,left,['2'],5,0.1423092999993969,,,21,21,Man,Rechts,1,
,dotcolour,dotcolour,dotcolour,11,0,11,611,training,positivefb,92,easy,65,0.7334316999986186,['c'],1,left,['2'],5,0.13176190000012866,,,21,21,Man,Rechts,1,
,dotcolour,dotcolour,dotcolour,12,0,12,612,training,positivefb,92,hard,35,0.7172676999998657,['n'],1,right,['2'],5,0.40089789999910863,,,21,21,Man,Rechts,1,
,dotcolour,dotcolour,dotcolour,13,0,13,613,training,positivefb,95,easy,61,0.7843198999999004,['c'],1,left,['2'],5,0.20239399999991292,,,21,21,Man,Rechts,1,
,dotcolour,dotcolour,dotcolour,14,0,14,614,training,positivefb,88,average,29,0.7502383000010013,['n'],1,right,['2'],5,0.2759525000001304,,,21,21,Man,Rechts,1,
,dotcolour,dotcolour,dotcolour,15,0,15,615,training,positivefb,95,average,51,0.9332786999984819,['c'],1,left,['2'],5,0.16390940000019327,,,21,21,Man,Rechts,1,
,dotcolour,dotcolour,dotcolour,16,0,16,616,training,positivefb,91,average,51,1.0163622000000032,['c'],1,left,['2'],5,0.1487873000005493,,,21,21,Man,Rechts,1,
,dotcolour,dotcolour,dotcolour,17,0,17,617,training,positivefb,85,average,52,0.7832037999996828,['c'],1,left,['2'],5,0.3520274000002246,,,21,21,Man,Rechts,1,
,dotcolour,dotcolour,dotcolour,18,0,18,618,training,positivefb,99,average,25,0.4996286000005057,['n'],1,right,['2'],5,0.1017085000003135,,,21,21,Man,Rechts,1,
,dotcolour,dotcolour,dotcolour,19,0,19,619,training,positivefb,96,average,28,0.48332789999949455,['n'],1,right,['2'],5,0.16607780000049388,,,21,21,Man,Rechts,1,
,dotcolour,dotcolour,dotcolour,20,0,20,620,training,positivefb,99,easy,18,0.567163800000344,['n'],1,right,['2'],5,0.17725419999987935,,,21,21,Man,Rechts,1,
,dotcolour,dotcolour,dotcolour,21,0,21,621,training,positivefb,80,hard,42,0.6664581000004546,['n'],0,left,['2'],5,0.1672617000003811,,,21,21,Man,Rechts,1,
,dotcolour,dotcolour,dotcolour,22,0,22,622,training,positivefb,98,easy,64,0.700764999999592,['c'],1,left,['2'],5,0.18046750000030443,,,21,21,Man,Rechts,1,
,dotcolour,dotcolour,dotcolour,23,0,23,623,training,positivefb,93,hard,45,0.6338460000006307,['n'],0,left,['2'],5,0.12453099999947881,,,21,21,Man,Rechts,1,
,dotcolour,dotcolour,dotcolour,24,0,24,624,training,positivefb,97,hard,44,0.5163907000005565,['n'],0,left,['2'],5,0.15530460000081803,,,21,21,Man,Rechts,1,
,dotcolour,dotcolour,dotcolour,25,0,25,625,training,positivefb,96,hard,44,0.5996931999998196,['n'],0,left,['2'],5,0.14944220000143105,,,21,21,Man,Rechts,1,
,dotcolour,dotcolour,dotcolour,26,0,26,626,training,positivefb,97,easy,61,0.7680670999998256,['c'],1,left,['2'],5,0.12799620000077994,,,21,21,Man,Rechts,1,
,dotcolour,dotcolour,dotcolour,27,0,27,627,training,positivefb,88,hard,37,0.5680634000000282,['n'],1,right,['2'],5,0.12531680000029155,,,21,21,Man,Rechts,1,
,dotcolour,dotcolour,dotcolour,28,0,28,628,training,positivefb,81,hard,37,1.133395599999858,['c'],0,right,['2'],5,0.11524879999888071,,,21,21,Man,Rechts,1,
,dotcolour,dotcolour,dotcolour,29,0,29,629,training,positivefb,80,average,55,0.6671676000005391,['c'],1,left,['1'],6,0.156272700000045,,,21,21,Man,Rechts,1,
,dotcolour,dotcolour,dotcolour,30,0,30,630,training,positivefb,97,average,27,0.5161759999991773,['n'],1,right,['1'],6,0.193205499999749,,,21,21,Man,Rechts,1,
,dotcolour,dotcolour,dotcolour,31,0,31,631,training,positivefb,91,average,53,0.5165944000000309,['c'],1,left,['2'],5,0.10154500000135158,,,21,21,Man,Rechts,1,
,dotcolour,dotcolour,dotcolour,32,0,32,632,training,positivefb,100,average,25,0.5171307999989949,['n'],1,right,['1'],6,0.3568790999997873,,,21,21,Man,Rechts,1,
,dotcolour,dotcolour,dotcolour,33,0,33,633,training,positivefb,68,average,54,0.666515699998854,['c'],1,left,['2'],5,0.09994940000069619,,,21,21,Man,Rechts,1,
,dotcolour,dotcolour,dotcolour,34,0,34,634,training,positivefb,97,easy,65,0.6012291000006371,['c'],1,left,['2'],5,0.0959301000002597,,,21,21,Man,Rechts,1,
,dotcolour,dotcolour,dotcolour,35,0,35,635,training,positivefb,95,average,51,0.5164980999998079,['c'],1,left,['2'],5,0.1279924000009487,,,21,21,Man,Rechts,1,
,dotcolour,dotcolour,dotcolour,36,0,36,636,training,positivefb,96,easy,62,0.533806999999797,['c'],1,left,['1'],6,0.12632510000003094,,,21,21,Man,Rechts,1,
,dotcolour,dotcolour,dotcolour,37,0,37,637,training,positivefb,96,average,29,0.6673262999993312,['n'],1,right,['1'],6,0.1747125000001688,,,21,21,Man,Rechts,1,
,dotcolour,dotcolour,dotcolour,38,0,38,638,training,positivefb,98,hard,37,0.5005191000000195,['n'],1,right,['2'],5,0.2843616000009206,,,21,21,Man,Rechts,1,
,dotcolour,dotcolour,dotcolour,39,0,39,639,training,positivefb,93,hard,41,0.5169850000002043,['n'],0,left,['2'],5,0.23651189999873168,,,21,21,Man,Rechts,1,
,dotcolour,dotcolour,dotcolour,40,0,40,640,training,positivefb,86,average,28,0.43350359999931243,['n'],1,right,['1'],6,0.19397310000022117,,,21,21,Man,Rechts,1,
,dotcolour,dotcolour,dotcolour,41,0,41,641,training,positivefb,99,average,27,0.48381940000035684,['n'],1,right,['2'],5,0.1426289999999426,,,21,21,Man,Rechts,1,
,dotcolour,dotcolour,dotcolour,42,0,42,642,training,positivefb,97,easy,18,0.4655555999997887,['n'],1,right,['1'],6,0.18263049999950454,,,21,21,Man,Rechts,1,
,dotcolour,dotcolour,dotcolour,43,0,43,643,training,positivefb,90,hard,43,0.7501105999999709,['c'],1,left,['2'],5,0.11348939999879804,,,21,21,Man,Rechts,1,
,dotcolour,dotcolour,dotcolour,44,0,44,644,training,positivefb,94,hard,35,0.5507756999995763,['c'],0,right,['2'],5,0.13526359999923443,,,21,21,Man,Rechts,1,
