starttime,task,fbtask,firsttask,withinblocktrial,block,withintasktrial,trial,running,feedback,fbscore,difflevel,reddots,rt,resp,cor,cresp,conf_press,cj,RTconf,n_xes,post1,post2,post3,post4,post5,stoptime,sub,age,gender,handedness,session,
1715583560,dotcolour,dotcolour,dotcolour,0,0,0,0,training,positivefb,94,average,52,2.366965700000037,['c'],1,left,['8'],4,2.010192599999982,,,,,,,,15,18,Man,Rechts,2,
,dotcolour,dotcolour,dotcolour,1,0,1,1,training,positivefb,49,hard,38,1.615941199999952,['c'],0,right,['8'],4,1.4405592999999044,,,,,,,,15,18,Man,Rechts,2,
,dotcolour,dotcolour,dotcolour,2,0,2,2,training,positivefb,96,average,51,0.9169354000000567,['c'],1,left,['0'],6,0.8581527000001188,,,,,,,,15,18,Man,Rechts,2,
,dotcolour,dotcolour,dotcolour,3,0,3,3,training,positivefb,94,easy,18,0.7659886999999799,['n'],1,right,['0'],6,0.2098662000000786,,,,,,,,15,18,Man,Rechts,2,
,dotcolour,dotcolour,dotcolour,4,0,4,4,training,positivefb,97,hard,45,0.6667754000000059,['c'],1,left,['0'],6,0.19980379999992692,,,,,,,,15,18,Man,Rechts,2,
,dotcolour,dotcolour,dotcolour,5,0,5,5,training,positivefb,100,easy,18,0.4851665999999568,['n'],1,right,['0'],6,0.17281279999997423,,,,,,,,15,18,Man,Rechts,2,
,dotcolour,dotcolour,dotcolour,6,0,6,6,training,positivefb,85,hard,36,1.334153600000036,['c'],0,right,['8'],4,0.1365150999999969,,,,,,,,15,18,Man,Rechts,2,
,dotcolour,dotcolour,dotcolour,7,0,7,7,training,positivefb,91,hard,36,1.6508031999999275,['c'],0,right,['8'],4,0.3613242999999784,,,,,,,,15,18,Man,Rechts,2,
,dotcolour,dotcolour,dotcolour,8,0,8,8,training,positivefb,97,average,54,0.7993507999999565,['c'],1,left,['0'],6,0.3392813999998907,,,,,,,,15,18,Man,Rechts,2,
,dotcolour,dotcolour,dotcolour,9,0,9,9,training,positivefb,99,average,27,0.5498984999999266,['n'],1,right,['0'],6,0.22424869999986186,,,,,,,,15,18,Man,Rechts,2,
,dotcolour,dotcolour,dotcolour,10,0,10,10,training,positivefb,99,easy,61,0.548728600000004,['c'],1,left,['0'],6,0.23353369999995266,,,,,,,,15,18,Man,Rechts,2,
,dotcolour,dotcolour,dotcolour,11,0,11,11,training,positivefb,89,easy,19,0.5161759000000075,['n'],1,right,['0'],6,0.13150990000008278,,,,,,,,15,18,Man,Rechts,2,
,dotcolour,dotcolour,dotcolour,12,0,12,12,training,positivefb,97,easy,63,0.5510214999999334,['c'],1,left,['0'],6,0.18502039999998487,,,,,,,,15,18,Man,Rechts,2,
,dotcolour,dotcolour,dotcolour,13,0,13,13,training,positivefb,95,easy,17,0.8324021000000812,['n'],1,right,['0'],6,0.20838879999996607,,,,,,,,15,18,Man,Rechts,2,
,dotcolour,dotcolour,dotcolour,14,0,14,14,training,positivefb,84,easy,64,0.6161285999999109,['c'],1,left,['3'],3,0.1356622000000698,,,,,,,,15,18,Man,Rechts,2,
,dotcolour,dotcolour,dotcolour,15,0,15,15,training,positivefb,94,hard,44,0.7342019000000164,['c'],1,left,['0'],6,0.10107240000002093,,,,,,,,15,18,Man,Rechts,2,
,dotcolour,dotcolour,dotcolour,16,0,16,16,training,positivefb,87,hard,35,0.9823057999999492,['c'],0,right,['0'],6,0.1538476000000628,,,,,,,,15,18,Man,Rechts,2,
,dotcolour,dotcolour,dotcolour,17,0,17,17,training,positivefb,90,easy,64,0.6495614999998907,['c'],1,left,['0'],6,0.1218960999999581,,,,,,,,15,18,Man,Rechts,2,
,dotcolour,dotcolour,dotcolour,18,0,18,18,training,positivefb,97,average,25,0.48382600000013554,['n'],1,right,['0'],6,0.1295165999999881,,,,,,,,15,18,Man,Rechts,2,
,dotcolour,dotcolour,dotcolour,19,0,19,19,training,positivefb,96,hard,37,0.7176549999999224,['n'],1,right,['8'],4,0.47287119999987226,,,,,,,,15,18,Man,Rechts,2,
,dotcolour,dotcolour,dotcolour,20,0,20,20,training,positivefb,90,average,25,0.5994934999998804,['n'],1,right,['0'],6,0.1500144999999975,,,,,,,,15,18,Man,Rechts,2,
,dotcolour,dotcolour,dotcolour,21,0,21,21,training,positivefb,98,average,52,0.6016825000001518,['c'],1,left,['0'],6,0.15147700000011355,,,,,,,,15,18,Man,Rechts,2,
,dotcolour,dotcolour,dotcolour,22,0,22,22,training,positivefb,87,easy,19,0.649509099999932,['n'],1,right,['0'],6,0.19218380000006619,,,,,,,,15,18,Man,Rechts,2,
,dotcolour,dotcolour,dotcolour,23,0,23,23,training,positivefb,83,hard,37,0.816561800000045,['c'],0,right,['0'],6,0.14387620000002244,,,,,,,,15,18,Man,Rechts,2,
,dotcolour,dotcolour,dotcolour,24,0,24,24,training,positivefb,79,hard,43,1.2505882000000383,['c'],1,left,['8'],4,0.16903159999992567,,,,,,,,15,18,Man,Rechts,2,
,dotcolour,dotcolour,dotcolour,25,0,25,25,training,positivefb,81,average,52,0.8163162999999258,['c'],1,left,['9'],5,0.24171879999994417,,,,,,,,15,18,Man,Rechts,2,
,dotcolour,dotcolour,dotcolour,26,0,26,26,training,positivefb,98,average,55,0.4339635000001181,['c'],1,left,['0'],6,0.7662588000000596,,,,,,,,15,18,Man,Rechts,2,
,dotcolour,dotcolour,dotcolour,27,0,27,27,training,positivefb,97,average,25,0.632430099999965,['n'],1,right,['0'],6,0.11101280000002589,,,,,,,,15,18,Man,Rechts,2,
,dotcolour,dotcolour,dotcolour,28,0,28,28,training,positivefb,87,average,54,0.8164928999999574,['c'],1,left,['0'],6,0.13839129999996658,,,,,,,,15,18,Man,Rechts,2,
,dotcolour,dotcolour,dotcolour,29,0,29,29,training,positivefb,91,hard,42,1.0007248999997955,['c'],1,left,['9'],5,0.5485257000000274,,,,,,,,15,18,Man,Rechts,2,
,dotcolour,dotcolour,dotcolour,30,0,30,30,training,positivefb,94,easy,16,0.6836100000000442,['n'],1,right,['0'],6,0.14822789999993802,,,,,,,,15,18,Man,Rechts,2,
,dotcolour,dotcolour,dotcolour,31,0,31,31,training,positivefb,97,hard,43,0.6838908000001993,['c'],1,left,['0'],6,0.14717109999992317,,,,,,,,15,18,Man,Rechts,2,
,dotcolour,dotcolour,dotcolour,32,0,32,32,training,positivefb,97,average,55,0.6007807000000867,['c'],1,left,['0'],6,0.13334149999991496,,,,,,,,15,18,Man,Rechts,2,
,dotcolour,dotcolour,dotcolour,33,0,33,33,training,positivefb,81,easy,17,0.5164064999999027,['n'],1,right,['0'],6,0.15593220000005203,,,,,,,,15,18,Man,Rechts,2,
,dotcolour,dotcolour,dotcolour,34,0,34,34,training,positivefb,98,easy,16,0.5004352000000836,['n'],1,right,['0'],6,0.16954139999984363,,,,,,,,15,18,Man,Rechts,2,
,dotcolour,dotcolour,dotcolour,35,0,35,35,training,positivefb,98,hard,44,0.5997428999999102,['c'],1,left,['0'],6,0.15595889999985957,,,,,,,,15,18,Man,Rechts,2,
,dotcolour,dotcolour,dotcolour,36,0,36,36,training,positivefb,88,average,27,0.6997403000000304,['n'],1,right,['0'],6,0.11313580000000911,,,,,,,,15,18,Man,Rechts,2,
,dotcolour,dotcolour,dotcolour,37,0,37,37,training,positivefb,97,easy,65,0.5003621999999268,['c'],1,left,['0'],6,0.12965810000014244,,,,,,,,15,18,Man,Rechts,2,
,dotcolour,dotcolour,dotcolour,38,0,38,38,training,positivefb,98,hard,41,1.0183987000000343,['c'],1,left,['8'],4,0.7167976000000635,,,,,,,,15,18,Man,Rechts,2,
,dotcolour,dotcolour,dotcolour,39,0,39,39,training,positivefb,85,average,28,0.8505462000000534,['n'],1,right,['0'],6,0.16586559999996098,,,,,,,,15,18,Man,Rechts,2,
,dotcolour,dotcolour,dotcolour,40,0,40,40,training,positivefb,99,hard,44,0.5662904000000708,['c'],1,left,['9'],5,0.5363331999999446,,,,,,,,15,18,Man,Rechts,2,
,dotcolour,dotcolour,dotcolour,41,0,41,41,training,positivefb,86,hard,38,0.6845035999999709,['n'],1,right,['9'],5,0.9119776000000002,,,,,,,,15,18,Man,Rechts,2,
,dotcolour,dotcolour,dotcolour,42,0,42,42,training,positivefb,94,easy,64,0.5509153000000424,['c'],1,left,['9'],5,0.28615140000010797,,,,,,,,15,18,Man,Rechts,2,
,dotcolour,dotcolour,dotcolour,43,0,43,43,training,positivefb,96,easy,64,0.58400719999986,['c'],1,left,['0'],6,0.2193646999999146,,,,,,,,15,18,Man,Rechts,2,
,dotcolour,dotcolour,dotcolour,44,0,44,44,training,positivefb,96,hard,38,0.6330989999999019,['c'],0,right,['9'],5,0.23354619999986426,,,,,,,,15,18,Man,Rechts,2,
,dotcolour,dotcolour,dotcolour,45,0,45,45,training,positivefb,97,average,27,0.7835728000000017,['n'],1,right,['9'],5,0.17668419999995422,,,,,,,,15,18,Man,Rechts,2,
,dotcolour,dotcolour,dotcolour,46,0,46,46,training,positivefb,95,average,29,0.8668308999999681,['n'],1,right,['8'],4,0.1916495999998915,,,,,,,,15,18,Man,Rechts,2,
,dotcolour,dotcolour,dotcolour,47,0,47,47,training,positivefb,99,easy,17,0.4833591999999953,['n'],1,right,['8'],4,0.2370614999999816,,,,,,,,15,18,Man,Rechts,2,
,dotcolour,dotcolour,dotcolour,48,0,48,48,training,positivefb,91,easy,63,0.6669122999999217,['c'],1,left,['0'],6,0.16091159999996307,,,,,,,,15,18,Man,Rechts,2,
,dotcolour,dotcolour,dotcolour,49,0,49,49,training,positivefb,91,hard,38,1.1169095000000198,['n'],1,right,['8'],4,0.22226930000010725,,,,,,,,15,18,Man,Rechts,2,
,dotcolour,dotcolour,dotcolour,50,0,50,50,training,positivefb,94,easy,17,0.7830592000000252,['n'],1,right,['0'],6,0.15822050000019772,,,,,,,,15,18,Man,Rechts,2,
,dotcolour,dotcolour,dotcolour,51,0,51,51,training,positivefb,90,easy,63,0.7508569999999963,['c'],1,left,['0'],6,0.6984073999999509,,,,,,,,15,18,Man,Rechts,2,
,dotcolour,dotcolour,dotcolour,52,0,52,52,training,positivefb,82,hard,38,1.3664578999998866,['c'],0,right,['9'],5,0.19239310000011756,,,,,,,,15,18,Man,Rechts,2,
,dotcolour,dotcolour,dotcolour,53,0,53,53,training,positivefb,97,hard,43,0.6167625999999018,['c'],1,left,['8'],4,0.33676760000003014,,,,,,,,15,18,Man,Rechts,2,
,dotcolour,dotcolour,dotcolour,54,0,54,54,training,positivefb,93,average,55,0.9492347000000336,['c'],1,left,['0'],6,0.20533899999986716,,,,,,,,15,18,Man,Rechts,2,
,dotcolour,dotcolour,dotcolour,55,0,55,55,training,positivefb,95,easy,61,0.41611969999985376,['c'],1,left,['0'],6,0.14054600000008577,,,,,,,,15,18,Man,Rechts,2,
,dotcolour,dotcolour,dotcolour,56,0,56,56,training,positivefb,85,average,28,1.8333125999999993,['n'],1,right,['8'],4,0.35021039999992354,,,,,,,,15,18,Man,Rechts,2,
,dotcolour,dotcolour,dotcolour,57,0,57,57,training,positivefb,84,average,28,0.6831409000001258,['n'],1,right,['9'],5,0.276408100000026,,,,,,,,15,18,Man,Rechts,2,
,dotcolour,dotcolour,dotcolour,58,0,58,58,training,positivefb,88,average,53,1.1994995000000017,['c'],1,left,['0'],6,0.17027540000003683,,,,,,,,15,18,Man,Rechts,2,
,dotcolour,dotcolour,dotcolour,59,0,59,59,training,positivefb,98,hard,42,0.9322411999999076,['c'],1,left,['0'],6,0.2223877999999786,,,,,,,,15,18,Man,Rechts,2,
,dotcolour,dotcolour,dotcolour,0,1,60,60,training,positivefb,85,hard,36,1.7849633999999241,['n'],1,right,['8'],4,0.4050500999999258,,,,,,,,15,18,Man,Rechts,2,
,dotcolour,dotcolour,dotcolour,1,1,61,61,training,positivefb,43,hard,39,0.7824960000000374,['c'],0,right,['8'],4,0.4942742000000635,,,,,,,,15,18,Man,Rechts,2,
,dotcolour,dotcolour,dotcolour,2,1,62,62,training,positivefb,93,average,53,0.7490488000000823,['c'],1,left,['0'],6,0.2925288000001274,,,,,,,,15,18,Man,Rechts,2,
,dotcolour,dotcolour,dotcolour,3,1,63,63,training,positivefb,96,average,53,0.4821916999999303,['c'],1,left,['0'],6,0.19112870000003568,,,,,,,,15,18,Man,Rechts,2,
,dotcolour,dotcolour,dotcolour,4,1,64,64,training,positivefb,91,average,29,1.1662782999999308,['n'],1,right,['8'],4,0.256730399999924,,,,,,,,15,18,Man,Rechts,2,
,dotcolour,dotcolour,dotcolour,5,1,65,65,training,positivefb,95,easy,63,0.6172540000000026,['c'],1,left,['0'],6,0.2061330999999882,,,,,,,,15,18,Man,Rechts,2,
,dotcolour,dotcolour,dotcolour,6,1,66,66,training,positivefb,91,hard,36,0.816893299999947,['n'],1,right,['8'],4,0.2773693000001458,,,,,,,,15,18,Man,Rechts,2,
,dotcolour,dotcolour,dotcolour,7,1,67,67,training,positivefb,81,hard,41,1.0516035999999076,['c'],1,left,['8'],4,0.1928941000001032,,,,,,,,15,18,Man,Rechts,2,
,dotcolour,dotcolour,dotcolour,8,1,68,68,training,positivefb,77,hard,38,2.200252800000044,['n'],1,right,['8'],4,0.2583197999999811,,,,,,,,15,18,Man,Rechts,2,
,dotcolour,dotcolour,dotcolour,9,1,69,69,training,positivefb,94,hard,41,1.1338372000000163,['c'],1,left,['8'],4,0.25856999999996333,,,,,,,,15,18,Man,Rechts,2,
,dotcolour,dotcolour,dotcolour,10,1,70,70,training,positivefb,83,average,29,0.7995269000000462,['n'],1,right,['0'],6,0.14411589999986063,,,,,,,,15,18,Man,Rechts,2,
,dotcolour,dotcolour,dotcolour,11,1,71,71,training,positivefb,80,hard,38,1.1343495999999504,['n'],1,right,['8'],4,0.2057823999998618,,,,,,,,15,18,Man,Rechts,2,
,dotcolour,dotcolour,dotcolour,12,1,72,72,training,positivefb,92,average,52,0.932893599999943,['c'],1,left,['0'],6,0.2315112000001136,,,,,,,,15,18,Man,Rechts,2,
,dotcolour,dotcolour,dotcolour,13,1,73,73,training,positivefb,94,hard,43,1.1484453999999005,['c'],1,left,['9'],5,0.36959909999995944,,,,,,,,15,18,Man,Rechts,2,
,dotcolour,dotcolour,dotcolour,14,1,74,74,training,positivefb,92,hard,35,1.0668350999999348,['n'],1,right,['8'],4,0.2960558999998284,,,,,,,,15,18,Man,Rechts,2,
,dotcolour,dotcolour,dotcolour,15,1,75,75,training,positivefb,71,average,26,0.7001980000000003,['n'],1,right,['9'],5,0.31260699999984354,,,,,,,,15,18,Man,Rechts,2,
,dotcolour,dotcolour,dotcolour,16,1,76,76,training,positivefb,100,easy,16,0.36553200000003017,['n'],1,right,['0'],6,0.17383799999993244,,,,,,,,15,18,Man,Rechts,2,
,dotcolour,dotcolour,dotcolour,17,1,77,77,training,positivefb,99,easy,16,0.4497099000000162,['n'],1,right,['0'],6,0.13342139999986102,,,,,,,,15,18,Man,Rechts,2,
,dotcolour,dotcolour,dotcolour,18,1,78,78,training,positivefb,94,easy,17,0.4330324999998538,['n'],1,right,['0'],6,0.1354601000000457,,,,,,,,15,18,Man,Rechts,2,
,dotcolour,dotcolour,dotcolour,19,1,79,79,training,positivefb,95,easy,19,0.43459869999992407,['n'],1,right,['0'],6,0.14436750000004395,,,,,,,,15,18,Man,Rechts,2,
,dotcolour,dotcolour,dotcolour,20,1,80,80,training,positivefb,99,easy,15,0.3488402999998925,['n'],1,right,['0'],6,0.22090090000006057,,,,,,,,15,18,Man,Rechts,2,
,dotcolour,dotcolour,dotcolour,21,1,81,81,training,positivefb,79,hard,44,2.033472300000085,['n'],0,left,['8'],4,0.23549800000000687,,,,,,,,15,18,Man,Rechts,2,
,dotcolour,dotcolour,dotcolour,22,1,82,82,training,positivefb,90,average,25,0.5837789999998222,['n'],1,right,['0'],6,0.10687320000010914,,,,,,,,15,18,Man,Rechts,2,
,dotcolour,dotcolour,dotcolour,23,1,83,83,training,positivefb,96,easy,62,0.6667841999999382,['c'],1,left,['0'],6,0.2118279999999686,,,,,,,,15,18,Man,Rechts,2,
,dotcolour,dotcolour,dotcolour,24,1,84,84,training,positivefb,92,average,25,0.5496195000000625,['n'],1,right,['0'],6,0.126631899999893,,,,,,,,15,18,Man,Rechts,2,
,dotcolour,dotcolour,dotcolour,25,1,85,85,training,positivefb,87,easy,17,0.4836596999998619,['n'],1,right,['0'],6,0.12631690000011986,,,,,,,,15,18,Man,Rechts,2,
,dotcolour,dotcolour,dotcolour,26,1,86,86,training,positivefb,94,hard,44,0.8665564999998878,['c'],1,left,['8'],4,0.1909769999999753,,,,,,,,15,18,Man,Rechts,2,
,dotcolour,dotcolour,dotcolour,27,1,87,87,training,positivefb,98,easy,64,0.7331632000000354,['c'],1,left,['0'],6,0.18577560000017002,,,,,,,,15,18,Man,Rechts,2,
,dotcolour,dotcolour,dotcolour,28,1,88,88,training,positivefb,98,average,51,0.6504723999998987,['c'],1,left,['0'],6,0.19319199999995362,,,,,,,,15,18,Man,Rechts,2,
,dotcolour,dotcolour,dotcolour,29,1,89,89,training,positivefb,86,average,54,0.6682921000001443,['c'],1,left,['0'],6,0.11877279999998791,,,,,,,,15,18,Man,Rechts,2,
,dotcolour,dotcolour,dotcolour,30,1,90,90,training,positivefb,96,hard,45,0.8163428000000295,['n'],0,left,['8'],4,0.3614996000001156,,,,,,,,15,18,Man,Rechts,2,
,dotcolour,dotcolour,dotcolour,31,1,91,91,training,positivefb,69,average,29,0.6177096000001256,['n'],1,right,['9'],5,0.47495519999984026,,,,,,,,15,18,Man,Rechts,2,
,dotcolour,dotcolour,dotcolour,32,1,92,92,training,positivefb,94,easy,61,0.5494576999999481,['c'],1,left,['0'],6,0.17759720000003654,,,,,,,,15,18,Man,Rechts,2,
,dotcolour,dotcolour,dotcolour,33,1,93,93,training,positivefb,98,easy,61,0.3846111000000292,['c'],1,left,['0'],6,0.2044945000000098,,,,,,,,15,18,Man,Rechts,2,
,dotcolour,dotcolour,dotcolour,34,1,94,94,training,positivefb,85,average,54,0.41636610000000474,['c'],1,left,['0'],6,0.23491600000011204,,,,,,,,15,18,Man,Rechts,2,
,dotcolour,dotcolour,dotcolour,35,1,95,95,training,positivefb,98,average,29,0.5667272999999113,['n'],1,right,['0'],6,0.1317417000000205,,,,,,,,15,18,Man,Rechts,2,
,dotcolour,dotcolour,dotcolour,36,1,96,96,training,positivefb,89,easy,17,0.7841358999999102,['c'],0,right,['0'],6,0.2081126000000495,,,,,,,,15,18,Man,Rechts,2,
,dotcolour,dotcolour,dotcolour,37,1,97,97,training,positivefb,88,hard,42,1.2824884999999995,['n'],0,left,['9'],5,0.5812169999999242,,,,,,,,15,18,Man,Rechts,2,
,dotcolour,dotcolour,dotcolour,38,1,98,98,training,positivefb,96,easy,15,0.6001063000001068,['n'],1,right,['0'],6,0.15828290000013112,,,,,,,,15,18,Man,Rechts,2,
,dotcolour,dotcolour,dotcolour,39,1,99,99,training,positivefb,91,average,53,0.6997079000000213,['c'],1,left,['0'],6,1.428272399999969,,,,,,,,15,18,Man,Rechts,2,
,dotcolour,dotcolour,dotcolour,40,1,100,100,training,positivefb,82,average,25,0.4496753999999328,['n'],1,right,['0'],6,0.19359819999999672,,,,,,,,15,18,Man,Rechts,2,
,dotcolour,dotcolour,dotcolour,41,1,101,101,training,positivefb,85,hard,36,0.8171319000000494,['c'],0,right,['8'],4,0.23392200000012053,,,,,,,,15,18,Man,Rechts,2,
,dotcolour,dotcolour,dotcolour,42,1,102,102,training,positivefb,96,average,55,0.583537700000079,['c'],1,left,['0'],6,0.5207816999998158,,,,,,,,15,18,Man,Rechts,2,
,dotcolour,dotcolour,dotcolour,43,1,103,103,training,positivefb,91,easy,15,0.7822318000000905,['n'],1,right,['0'],6,0.15702909999981784,,,,,,,,15,18,Man,Rechts,2,
,dotcolour,dotcolour,dotcolour,44,1,104,104,training,positivefb,88,hard,45,0.9335088999998788,['c'],1,left,['8'],4,0.5460348999999951,,,,,,,,15,18,Man,Rechts,2,
,dotcolour,dotcolour,dotcolour,45,1,105,105,training,positivefb,95,easy,18,0.5512908999999127,['n'],1,right,['0'],6,0.23809179999989283,,,,,,,,15,18,Man,Rechts,2,
,dotcolour,dotcolour,dotcolour,46,1,106,106,training,positivefb,98,average,28,0.567142800000056,['n'],1,right,['0'],6,0.2545520999999553,,,,,,,,15,18,Man,Rechts,2,
,dotcolour,dotcolour,dotcolour,47,1,107,107,training,positivefb,87,hard,41,0.8178103999998712,['c'],1,left,['8'],4,0.2030182999999397,,,,,,,,15,18,Man,Rechts,2,
,dotcolour,dotcolour,dotcolour,48,1,108,108,training,positivefb,94,hard,39,1.1497710000001007,['c'],0,right,['8'],4,0.30226650000008704,,,,,,,,15,18,Man,Rechts,2,
,dotcolour,dotcolour,dotcolour,49,1,109,109,training,positivefb,84,hard,44,1.2991713999999774,['n'],0,left,['8'],4,0.30984859999989567,,,,,,,,15,18,Man,Rechts,2,
,dotcolour,dotcolour,dotcolour,50,1,110,110,training,positivefb,80,hard,37,1.1169605999998566,['c'],0,right,['8'],4,0.17325130000017452,,,,,,,,15,18,Man,Rechts,2,
,dotcolour,dotcolour,dotcolour,51,1,111,111,training,positivefb,97,easy,64,0.7489382999999634,['c'],1,left,['0'],6,0.17750860000001012,,,,,,,,15,18,Man,Rechts,2,
,dotcolour,dotcolour,dotcolour,52,1,112,112,training,positivefb,83,hard,39,2.148904899999934,['n'],1,right,['8'],4,0.340323699999999,,,,,,,,15,18,Man,Rechts,2,
,dotcolour,dotcolour,dotcolour,53,1,113,113,training,positivefb,98,average,54,0.6342380999999477,['c'],1,left,['0'],6,0.1493188999997983,,,,,,,,15,18,Man,Rechts,2,
,dotcolour,dotcolour,dotcolour,54,1,114,114,training,positivefb,90,average,51,0.43298689999983253,['c'],1,left,['0'],6,0.19051949999993667,,,,,,,,15,18,Man,Rechts,2,
,dotcolour,dotcolour,dotcolour,55,1,115,115,training,positivefb,96,easy,63,0.3002882999999201,['c'],1,left,['0'],6,0.21926400000006652,,,,,,,,15,18,Man,Rechts,2,
,dotcolour,dotcolour,dotcolour,56,1,116,116,training,positivefb,95,average,25,0.5825938000000406,['n'],1,right,['0'],6,0.1393778999999995,,,,,,,,15,18,Man,Rechts,2,
,dotcolour,dotcolour,dotcolour,57,1,117,117,training,positivefb,99,easy,63,0.5186492999998791,['c'],1,left,['0'],6,0.17752389999986917,,,,,,,,15,18,Man,Rechts,2,
,dotcolour,dotcolour,dotcolour,58,1,118,118,training,positivefb,99,easy,63,0.3670291000000816,['c'],1,left,['0'],6,0.19608089999996992,,,,,,,,15,18,Man,Rechts,2,
,dotcolour,dotcolour,dotcolour,59,1,119,119,training,positivefb,98,easy,63,0.3486131000001933,['c'],1,left,['0'],6,0.174563100000114,,,,,,,,15,18,Man,Rechts,2,
,dotcolour,dotcolour,dotcolour,0,2,120,120,main,positivefb,-99,average,55,0.5675610000000688,['c'],1,left,['0'],6,0.17365079999990485,,,,,,,,15,18,Man,Rechts,2,
,dotcolour,dotcolour,dotcolour,1,2,121,121,main,positivefb,-99,easy,15,0.5512622999999621,['n'],1,right,['0'],6,0.10584799999992356,,,,,,,,15,18,Man,Rechts,2,
,dotcolour,dotcolour,dotcolour,2,2,122,122,main,positivefb,-99,average,53,0.43489690000001247,['c'],1,left,['0'],6,0.10962480000011965,,,,,,,,15,18,Man,Rechts,2,
,dotcolour,dotcolour,dotcolour,3,2,123,123,main,positivefb,-99,hard,45,0.38397680000002765,['c'],1,left,['0'],6,0.1705666000000292,,,,,,,,15,18,Man,Rechts,2,
,dotcolour,dotcolour,dotcolour,4,2,124,124,main,positivefb,-99,hard,39,0.6671509000000242,['n'],1,right,['8'],4,0.225766700000122,,,,,,,,15,18,Man,Rechts,2,
,dotcolour,dotcolour,dotcolour,5,2,125,125,main,positivefb,-99,hard,37,1.118627399999923,['c'],0,right,['8'],4,0.14161919999992278,,,,,,,,15,18,Man,Rechts,2,
,dotcolour,dotcolour,dotcolour,6,2,126,126,main,positivefb,-99,easy,65,0.7512848000001213,['c'],1,left,['0'],6,0.15503990000001977,,,,,,,,15,18,Man,Rechts,2,
,dotcolour,dotcolour,dotcolour,7,2,127,127,main,positivefb,-99,easy,62,0.4168985999999677,['c'],1,left,['0'],6,0.20433539999999084,,,,,,,,15,18,Man,Rechts,2,
,dotcolour,dotcolour,dotcolour,8,2,128,128,main,positivefb,-99,easy,65,0.350953299999901,['c'],1,left,['0'],6,0.14294420000010177,,,,,,,,15,18,Man,Rechts,2,
,dotcolour,dotcolour,dotcolour,9,2,129,129,main,positivefb,-99,easy,18,0.5179845000000114,['n'],1,right,['0'],6,0.14147490000004836,,,,,,,,15,18,Man,Rechts,2,
,dotcolour,dotcolour,dotcolour,10,2,130,130,main,positivefb,-99,hard,41,0.5162196999999651,['c'],1,left,['8'],4,0.25361400000019785,,,,,,,,15,18,Man,Rechts,2,
,dotcolour,dotcolour,dotcolour,11,2,131,131,main,positivefb,-99,hard,36,1.4176311000001078,['c'],0,right,['9'],5,0.37135970000008456,,,,,,,,15,18,Man,Rechts,2,
,dotcolour,dotcolour,dotcolour,12,2,132,132,main,positivefb,-99,average,55,0.5682295999999951,['c'],1,left,['0'],6,0.19751620000010917,,,,,,,,15,18,Man,Rechts,2,
,dotcolour,dotcolour,dotcolour,13,2,133,133,main,positivefb,-99,easy,15,0.6004735000001347,['n'],1,right,['0'],6,0.09526060000007419,,,,,,,,15,18,Man,Rechts,2,
,dotcolour,dotcolour,dotcolour,14,2,134,134,main,positivefb,-99,hard,44,0.7681508999999096,['c'],1,left,['0'],6,0.22257310000009056,,,,,,,,15,18,Man,Rechts,2,
,dotcolour,dotcolour,dotcolour,15,2,135,135,main,positivefb,-99,average,52,0.6167058000000907,['c'],1,left,['0'],6,0.18260589999999866,,,,,,,,15,18,Man,Rechts,2,
,dotcolour,dotcolour,dotcolour,16,2,136,136,main,positivefb,-99,hard,39,1.0846378999999615,['c'],0,right,['0'],6,0.17126650000000154,,,,,,,,15,18,Man,Rechts,2,
,dotcolour,dotcolour,dotcolour,17,2,137,137,main,positivefb,-99,average,28,0.8511131999998724,['c'],0,right,['1'],1,1.6840088999999807,,,,,,,,15,18,Man,Rechts,2,
,dotcolour,dotcolour,dotcolour,18,2,138,138,main,positivefb,-99,easy,18,0.5838002999998935,['c'],0,right,['1'],1,0.9617264000000887,,,,,,,,15,18,Man,Rechts,2,
,dotcolour,dotcolour,dotcolour,19,2,139,139,main,positivefb,-99,hard,39,1.0846192999999857,['n'],1,right,['8'],4,0.20937739999999394,,,,,,,,15,18,Man,Rechts,2,
,dotcolour,dotcolour,dotcolour,20,2,140,140,main,positivefb,-99,hard,35,0.7671156999999766,['c'],0,right,['8'],4,0.2359248000000207,,,,,,,,15,18,Man,Rechts,2,
,dotcolour,dotcolour,dotcolour,21,2,141,141,main,positivefb,-99,easy,64,1.2170592999998462,['c'],1,left,['8'],4,0.2576392000000851,,,,,,,,15,18,Man,Rechts,2,
,dotcolour,dotcolour,dotcolour,22,2,142,142,main,positivefb,-99,average,28,0.5167987999998331,['n'],1,right,['8'],4,0.22764649999999165,,,,,,,,15,18,Man,Rechts,2,
,dotcolour,dotcolour,dotcolour,23,2,143,143,main,positivefb,-99,average,53,0.7004448000000139,['c'],1,left,['8'],4,0.23257669999998143,,,,,,,,15,18,Man,Rechts,2,
,dotcolour,dotcolour,dotcolour,24,2,144,144,main,positivefb,-99,average,54,0.8012922000000344,['c'],1,left,['8'],4,0.20780979999994997,,,,,,,,15,18,Man,Rechts,2,
,dotcolour,dotcolour,dotcolour,25,2,145,145,main,positivefb,-99,hard,42,0.5015034000000469,['c'],1,left,['8'],4,0.28446260000009715,,,,,,,,15,18,Man,Rechts,2,
,dotcolour,dotcolour,dotcolour,26,2,146,146,main,positivefb,-99,easy,62,0.6347488999999769,['c'],1,left,['9'],5,0.39986039999985223,,,,,,,,15,18,Man,Rechts,2,
,dotcolour,dotcolour,dotcolour,27,2,147,147,main,positivefb,-99,average,26,0.6676643000000695,['n'],1,right,['9'],5,0.2064900000000307,,,,,,,,15,18,Man,Rechts,2,
,dotcolour,dotcolour,dotcolour,28,2,148,148,main,positivefb,-99,average,54,0.6497858000000178,['n'],0,left,['9'],5,0.2682841000000735,,,,,,,,15,18,Man,Rechts,2,
,dotcolour,dotcolour,dotcolour,29,2,149,149,main,positivefb,-99,easy,18,1.9834356000001208,['n'],1,right,['8'],4,0.4512680000000273,,,,,,,,15,18,Man,Rechts,2,
,dotcolour,dotcolour,dotcolour,30,2,150,150,main,positivefb,-99,easy,16,0.6333962999999585,['n'],1,right,['0'],6,0.3610794999999598,,,,,,,,15,18,Man,Rechts,2,
,dotcolour,dotcolour,dotcolour,31,2,151,151,main,positivefb,-99,easy,64,1.3338051000000632,['c'],1,left,['0'],6,0.15801149999992958,,,,,,,,15,18,Man,Rechts,2,
,dotcolour,dotcolour,dotcolour,32,2,152,152,main,positivefb,-99,average,27,0.6502132000000529,['n'],1,right,['0'],6,0.23869029999991653,,,,,,,,15,18,Man,Rechts,2,
,dotcolour,dotcolour,dotcolour,33,2,153,153,main,positivefb,-99,average,28,0.8003023000001122,['n'],1,right,['0'],6,0.18247759999985647,,,,,,,,15,18,Man,Rechts,2,
,dotcolour,dotcolour,dotcolour,34,2,154,154,main,positivefb,-99,average,27,0.4504365999998754,['n'],1,right,['0'],6,0.24629579999987072,,,,,,,,15,18,Man,Rechts,2,
,dotcolour,dotcolour,dotcolour,35,2,155,155,main,positivefb,-99,average,25,0.45090940000000046,['n'],1,right,['0'],6,0.2356400000001031,,,,,,,,15,18,Man,Rechts,2,
,dotcolour,dotcolour,dotcolour,36,2,156,156,main,positivefb,-99,average,52,0.584019600000147,['c'],1,left,['0'],6,0.20370900000011716,,,,,,,,15,18,Man,Rechts,2,
,dotcolour,dotcolour,dotcolour,37,2,157,157,main,positivefb,-99,hard,38,0.9837841999999455,['n'],1,right,['0'],6,0.14100299999995514,,,,,,,,15,18,Man,Rechts,2,
,dotcolour,dotcolour,dotcolour,38,2,158,158,main,positivefb,-99,hard,39,0.7830033999998705,['c'],0,right,['0'],6,0.19299359999990884,,,,,,,,15,18,Man,Rechts,2,
,dotcolour,dotcolour,dotcolour,39,2,159,159,main,positivefb,-99,hard,45,0.6668157000001429,['c'],1,left,['0'],6,0.37579810000011094,,,,,,,,15,18,Man,Rechts,2,
,dotcolour,dotcolour,dotcolour,40,2,160,160,main,positivefb,-99,easy,64,0.5171699999998509,['c'],1,left,['0'],6,0.981456900000012,,,,,,,,15,18,Man,Rechts,2,
,dotcolour,dotcolour,dotcolour,41,2,161,161,main,positivefb,-99,hard,41,0.950123099999928,['c'],1,left,['0'],6,0.18539160000000265,,,,,,,,15,18,Man,Rechts,2,
,dotcolour,dotcolour,dotcolour,42,2,162,162,main,positivefb,-99,average,28,0.5176435999999285,['n'],1,right,['0'],6,0.22205619999999726,,,,,,,,15,18,Man,Rechts,2,
,dotcolour,dotcolour,dotcolour,43,2,163,163,main,positivefb,-99,easy,65,0.46673610000016197,['c'],1,left,['0'],6,0.21921180000003915,,,,,,,,15,18,Man,Rechts,2,
,dotcolour,dotcolour,dotcolour,44,2,164,164,main,positivefb,-99,easy,17,0.58359170000017,['c'],0,right,['1'],1,0.7639787999999044,,,,,,,,15,18,Man,Rechts,2,
,dotcolour,dotcolour,dotcolour,45,2,165,165,main,positivefb,-99,average,26,1.1678967000000284,['n'],1,right,['0'],6,0.18407300000012583,,,,,,,,15,18,Man,Rechts,2,
,dotcolour,dotcolour,dotcolour,46,2,166,166,main,positivefb,-99,hard,44,1.3006310000000667,['c'],1,left,['8'],4,0.3331214000002092,,,,,,,,15,18,Man,Rechts,2,
,dotcolour,dotcolour,dotcolour,47,2,167,167,main,positivefb,-99,average,52,0.7008393999999498,['c'],1,left,['8'],4,0.20438510000008137,,,,,,,,15,18,Man,Rechts,2,
,dotcolour,dotcolour,dotcolour,48,2,168,168,main,positivefb,-99,hard,39,0.7832817000000887,['n'],1,right,['8'],4,0.24524320000000444,,,,,,,,15,18,Man,Rechts,2,
,dotcolour,dotcolour,dotcolour,49,2,169,169,main,positivefb,-99,easy,61,0.6348821000001408,['c'],1,left,['0'],6,1.1403287999999066,,,,,,,,15,18,Man,Rechts,2,
,dotcolour,dotcolour,dotcolour,50,2,170,170,main,positivefb,-99,average,55,0.6850975999998354,['c'],1,left,['0'],6,0.3408296000000064,,,,,,,,15,18,Man,Rechts,2,
,dotcolour,dotcolour,dotcolour,51,2,171,171,main,positivefb,-99,hard,41,0.8836443999998664,['c'],1,left,['9'],5,0.22744910000005802,,,,,,,,15,18,Man,Rechts,2,
,dotcolour,dotcolour,dotcolour,52,2,172,172,main,positivefb,-99,hard,45,0.7180049999999483,['c'],1,left,['9'],5,0.5118548999998893,,,,,,,,15,18,Man,Rechts,2,
,dotcolour,dotcolour,dotcolour,53,2,173,173,main,positivefb,-99,hard,42,0.6687724000000799,['c'],1,left,['8'],4,0.6178564999997889,,,,,,,,15,18,Man,Rechts,2,
,dotcolour,dotcolour,dotcolour,54,2,174,174,main,positivefb,-99,easy,16,0.8012209999999413,['n'],1,right,['8'],4,0.2648423999999068,,,,,,,,15,18,Man,Rechts,2,
,dotcolour,dotcolour,dotcolour,55,2,175,175,main,positivefb,-99,easy,65,0.38435709999998835,['c'],1,left,['0'],6,0.28776410000000396,,,,,,,,15,18,Man,Rechts,2,
,dotcolour,dotcolour,dotcolour,56,2,176,176,main,positivefb,-99,easy,16,0.684408699999949,['c'],0,right,['1'],1,0.6023786999999174,,,,,,,,15,18,Man,Rechts,2,
,dotcolour,dotcolour,dotcolour,57,2,177,177,main,positivefb,-99,average,28,0.5680812000000515,['n'],1,right,['0'],6,0.24407380000002377,,,,,,,,15,18,Man,Rechts,2,
,dotcolour,dotcolour,dotcolour,58,2,178,178,main,positivefb,-99,hard,39,1.5338345000000118,['c'],0,right,['8'],4,0.6624613999999838,,,,,,,,15,18,Man,Rechts,2,
,dotcolour,dotcolour,dotcolour,59,2,179,179,main,positivefb,-99,easy,16,0.6173066999999719,['n'],1,right,['0'],6,0.1404878999999255,,,,,,,,15,18,Man,Rechts,2,
,dotcolour,dotcolour,dotcolour,0,3,180,180,main,positivefb,-99,average,25,1.066818099999864,['n'],1,right,['8'],4,0.23115570000004482,,,,,,,,15,18,Man,Rechts,2,
,dotcolour,dotcolour,dotcolour,1,3,181,181,main,positivefb,-99,easy,15,0.5657557000001816,['n'],1,right,['0'],6,0.21605730000010226,,,,,,,,15,18,Man,Rechts,2,
,dotcolour,dotcolour,dotcolour,2,3,182,182,main,positivefb,-99,hard,43,0.5176428999998279,['c'],1,left,['0'],6,0.2513887000000068,,,,,,,,15,18,Man,Rechts,2,
,dotcolour,dotcolour,dotcolour,3,3,183,183,main,positivefb,-99,easy,18,0.5178641000002244,['n'],1,right,['0'],6,0.1819410999999036,,,,,,,,15,18,Man,Rechts,2,
,dotcolour,dotcolour,dotcolour,4,3,184,184,main,positivefb,-99,easy,19,0.5682398000001285,['n'],1,right,['0'],6,0.1604727000001276,,,,,,,,15,18,Man,Rechts,2,
,dotcolour,dotcolour,dotcolour,5,3,185,185,main,positivefb,-99,average,51,0.46827669999993304,['c'],1,left,['0'],6,0.1846923999999035,,,,,,,,15,18,Man,Rechts,2,
,dotcolour,dotcolour,dotcolour,6,3,186,186,main,positivefb,-99,easy,17,0.4176532999999836,['c'],0,right,['1'],1,0.9687117999999373,,,,,,,,15,18,Man,Rechts,2,
,dotcolour,dotcolour,dotcolour,7,3,187,187,main,positivefb,-99,average,26,0.5169107000001532,['n'],1,right,['0'],6,0.21465690000013637,,,,,,,,15,18,Man,Rechts,2,
,dotcolour,dotcolour,dotcolour,8,3,188,188,main,positivefb,-99,hard,38,1.4166731999998774,['c'],0,right,['8'],4,0.1821789999999055,,,,,,,,15,18,Man,Rechts,2,
,dotcolour,dotcolour,dotcolour,9,3,189,189,main,positivefb,-99,easy,64,0.8349964999999884,['c'],1,left,['0'],6,0.7666048999999475,,,,,,,,15,18,Man,Rechts,2,
,dotcolour,dotcolour,dotcolour,10,3,190,190,main,positivefb,-99,easy,64,0.4995108999999047,['c'],1,left,['0'],6,0.17172879999998258,,,,,,,,15,18,Man,Rechts,2,
,dotcolour,dotcolour,dotcolour,11,3,191,191,main,positivefb,-99,easy,62,0.4336724999998296,['c'],1,left,['0'],6,0.1975385999999162,,,,,,,,15,18,Man,Rechts,2,
,dotcolour,dotcolour,dotcolour,12,3,192,192,main,positivefb,-99,hard,45,0.5007696000000124,['c'],1,left,['0'],6,0.1782339999999749,,,,,,,,15,18,Man,Rechts,2,
,dotcolour,dotcolour,dotcolour,13,3,193,193,main,positivefb,-99,hard,43,0.7669315999999071,['c'],1,left,['9'],5,0.2864678000000822,,,,,,,,15,18,Man,Rechts,2,
,dotcolour,dotcolour,dotcolour,14,3,194,194,main,positivefb,-99,easy,65,0.6343120999999883,['c'],1,left,['0'],6,0.21053310000002057,,,,,,,,15,18,Man,Rechts,2,
,dotcolour,dotcolour,dotcolour,15,3,195,195,main,positivefb,-99,easy,61,0.4011964999999691,['c'],1,left,['0'],6,0.2101626999999553,,,,,,,,15,18,Man,Rechts,2,
,dotcolour,dotcolour,dotcolour,16,3,196,196,main,positivefb,-99,average,55,0.3844226000001072,['c'],1,left,['0'],6,0.23631300000010924,,,,,,,,15,18,Man,Rechts,2,
,dotcolour,dotcolour,dotcolour,17,3,197,197,main,positivefb,-99,average,51,0.5842296000000715,['c'],1,left,['0'],6,0.18036580000011782,,,,,,,,15,18,Man,Rechts,2,
,dotcolour,dotcolour,dotcolour,18,3,198,198,main,positivefb,-99,average,29,1.3012959000000137,['n'],1,right,['0'],6,0.21814539999991212,,,,,,,,15,18,Man,Rechts,2,
,dotcolour,dotcolour,dotcolour,19,3,199,199,main,positivefb,-99,hard,42,1.051512799999955,['c'],1,left,['8'],4,0.26463909999984025,,,,,,,,15,18,Man,Rechts,2,
,dotcolour,dotcolour,dotcolour,20,3,200,200,main,positivefb,-99,easy,18,0.7166466000001037,['n'],1,right,['0'],6,0.19379690000005212,,,,,,,,15,18,Man,Rechts,2,
,dotcolour,dotcolour,dotcolour,21,3,201,201,main,positivefb,-99,average,28,0.40056840000011107,['n'],1,right,['8'],4,1.07516140000007,,,,,,,,15,18,Man,Rechts,2,
,dotcolour,dotcolour,dotcolour,22,3,202,202,main,positivefb,-99,average,53,0.5670030000001134,['c'],1,left,['0'],6,0.5872835000000123,,,,,,,,15,18,Man,Rechts,2,
,dotcolour,dotcolour,dotcolour,23,3,203,203,main,positivefb,-99,average,28,0.6348977000000104,['n'],1,right,['0'],6,0.15452579999987393,,,,,,,,15,18,Man,Rechts,2,
,dotcolour,dotcolour,dotcolour,24,3,204,204,main,positivefb,-99,easy,64,0.6173885999999129,['c'],1,left,['0'],6,0.45364880000011,,,,,,,,15,18,Man,Rechts,2,
,dotcolour,dotcolour,dotcolour,25,3,205,205,main,positivefb,-99,easy,16,0.41696060000003854,['n'],1,right,['0'],6,0.18668079999997644,,,,,,,,15,18,Man,Rechts,2,
,dotcolour,dotcolour,dotcolour,26,3,206,206,main,positivefb,-99,average,53,0.6841279000000213,['c'],1,left,['0'],6,0.25759919999995873,,,,,,,,15,18,Man,Rechts,2,
,dotcolour,dotcolour,dotcolour,27,3,207,207,main,positivefb,-99,hard,36,1.016732999999931,['n'],1,right,['8'],4,0.8958400999999867,,,,,,,,15,18,Man,Rechts,2,
,dotcolour,dotcolour,dotcolour,28,3,208,208,main,positivefb,-99,easy,65,0.6002051999998912,['c'],1,left,['0'],6,0.1888547999999446,,,,,,,,15,18,Man,Rechts,2,
,dotcolour,dotcolour,dotcolour,29,3,209,209,main,positivefb,-99,average,29,0.5669225999999981,['n'],1,right,['0'],6,0.1761420000000271,,,,,,,,15,18,Man,Rechts,2,
,dotcolour,dotcolour,dotcolour,30,3,210,210,main,positivefb,-99,easy,64,0.5170433000000685,['c'],1,left,['0'],6,0.22069439999995666,,,,,,,,15,18,Man,Rechts,2,
,dotcolour,dotcolour,dotcolour,31,3,211,211,main,positivefb,-99,average,53,0.417127500000106,['c'],1,left,['0'],6,0.3326128000001063,,,,,,,,15,18,Man,Rechts,2,
,dotcolour,dotcolour,dotcolour,32,3,212,212,main,positivefb,-99,average,26,0.6504072000000178,['n'],1,right,['0'],6,0.12500790000012785,,,,,,,,15,18,Man,Rechts,2,
,dotcolour,dotcolour,dotcolour,33,3,213,213,main,positivefb,-99,hard,44,0.5512125000000196,['c'],1,left,['8'],4,0.39471560000015415,,,,,,,,15,18,Man,Rechts,2,
,dotcolour,dotcolour,dotcolour,34,3,214,214,main,positivefb,-99,hard,36,0.6342142999999396,['c'],0,right,['8'],4,0.1875468999999157,,,,,,,,15,18,Man,Rechts,2,
,dotcolour,dotcolour,dotcolour,35,3,215,215,main,positivefb,-99,hard,42,1.8008537999999135,['n'],0,left,['8'],4,0.21203219999983958,,,,,,,,15,18,Man,Rechts,2,
,dotcolour,dotcolour,dotcolour,36,3,216,216,main,positivefb,-99,hard,35,0.7177823000001808,['n'],1,right,['8'],4,0.2168431000000055,,,,,,,,15,18,Man,Rechts,2,
,dotcolour,dotcolour,dotcolour,37,3,217,217,main,positivefb,-99,hard,39,1.434070600000041,['n'],1,right,['8'],4,0.5115594999999757,,,,,,,,15,18,Man,Rechts,2,
,dotcolour,dotcolour,dotcolour,38,3,218,218,main,positivefb,-99,average,52,2.800850599999876,['c'],1,left,['9'],5,0.6519670000000133,,,,,,,,15,18,Man,Rechts,2,
,dotcolour,dotcolour,dotcolour,39,3,219,219,main,positivefb,-99,easy,18,0.63482329999988,['n'],1,right,['9'],5,0.17801200000008066,,,,,,,,15,18,Man,Rechts,2,
,dotcolour,dotcolour,dotcolour,40,3,220,220,main,positivefb,-99,average,51,1.1009139999998752,['c'],1,left,['0'],6,0.21565480000003845,,,,,,,,15,18,Man,Rechts,2,
,dotcolour,dotcolour,dotcolour,41,3,221,221,main,positivefb,-99,average,29,0.6511359999999513,['n'],1,right,['9'],5,0.2372126999998727,,,,,,,,15,18,Man,Rechts,2,
,dotcolour,dotcolour,dotcolour,42,3,222,222,main,positivefb,-99,hard,42,1.1834887000002254,['c'],1,left,['8'],4,0.22146120000002156,,,,,,,,15,18,Man,Rechts,2,
,dotcolour,dotcolour,dotcolour,43,3,223,223,main,positivefb,-99,easy,62,2.817811600000141,['c'],1,left,['9'],5,0.8457911000000422,,,,,,,,15,18,Man,Rechts,2,
,dotcolour,dotcolour,dotcolour,44,3,224,224,main,positivefb,-99,average,54,0.4171934999999394,['c'],1,left,['0'],6,0.2118215999998938,,,,,,,,15,18,Man,Rechts,2,
,dotcolour,dotcolour,dotcolour,45,3,225,225,main,positivefb,-99,hard,38,2.5172970000000987,['n'],1,right,['8'],4,0.36826620000010735,,,,,,,,15,18,Man,Rechts,2,
,dotcolour,dotcolour,dotcolour,46,3,226,226,main,positivefb,-99,hard,43,0.9343417000000045,['c'],1,left,['8'],4,0.1651704000000791,,,,,,,,15,18,Man,Rechts,2,
,dotcolour,dotcolour,dotcolour,47,3,227,227,main,positivefb,-99,hard,37,1.1666722999998456,['n'],1,right,['9'],5,0.18418429999996988,,,,,,,,15,18,Man,Rechts,2,
,dotcolour,dotcolour,dotcolour,48,3,228,228,main,positivefb,-99,easy,17,1.1353589999998803,['n'],1,right,['0'],6,0.3406906000000163,,,,,,,,15,18,Man,Rechts,2,
,dotcolour,dotcolour,dotcolour,49,3,229,229,main,positivefb,-99,hard,45,1.2837641999999505,['c'],1,left,['9'],5,0.24494410000011158,,,,,,,,15,18,Man,Rechts,2,
,dotcolour,dotcolour,dotcolour,50,3,230,230,main,positivefb,-99,average,25,0.5846975000001748,['n'],1,right,['0'],6,0.26844679999999244,,,,,,,,15,18,Man,Rechts,2,
,dotcolour,dotcolour,dotcolour,51,3,231,231,main,positivefb,-99,easy,64,0.5671021000000565,['c'],1,left,['0'],6,0.22823360000006687,,,,,,,,15,18,Man,Rechts,2,
,dotcolour,dotcolour,dotcolour,52,3,232,232,main,positivefb,-99,hard,36,1.1676855999999134,['c'],0,right,['0'],6,0.25355320000016945,,,,,,,,15,18,Man,Rechts,2,
,dotcolour,dotcolour,dotcolour,53,3,233,233,main,positivefb,-99,hard,39,0.6841564999999719,['c'],0,right,['9'],5,0.1773611000000983,,,,,,,,15,18,Man,Rechts,2,
,dotcolour,dotcolour,dotcolour,54,3,234,234,main,positivefb,-99,average,54,0.6676221999998688,['c'],1,left,['9'],5,0.22461340000018026,,,,,,,,15,18,Man,Rechts,2,
,dotcolour,dotcolour,dotcolour,55,3,235,235,main,positivefb,-99,hard,45,0.7347025999999914,['c'],1,left,['9'],5,0.13921529999993254,,,,,,,,15,18,Man,Rechts,2,
,dotcolour,dotcolour,dotcolour,56,3,236,236,main,positivefb,-99,average,29,0.816638600000033,['n'],1,right,['0'],6,0.27772219999997105,,,,,,,,15,18,Man,Rechts,2,
,dotcolour,dotcolour,dotcolour,57,3,237,237,main,positivefb,-99,hard,38,1.167634899999939,['c'],0,right,['8'],4,0.47697089999996933,,,,,,,,15,18,Man,Rechts,2,
,dotcolour,dotcolour,dotcolour,58,3,238,238,main,positivefb,-99,easy,15,0.7010420999999951,['n'],1,right,['0'],6,0.2231279000000086,,,,,,,,15,18,Man,Rechts,2,
,dotcolour,dotcolour,dotcolour,59,3,239,239,main,positivefb,-99,easy,19,0.6171936999999161,['n'],1,right,['0'],6,0.18248059999996258,,,,,,,,15,18,Man,Rechts,2,
,dotcolour,dotcolour,dotcolour,0,4,240,240,main,positivefb,-99,average,51,0.5853464000001622,['c'],1,left,['0'],6,0.22855939999999464,,,,,,,,15,18,Man,Rechts,2,
,dotcolour,dotcolour,dotcolour,1,4,241,241,main,positivefb,-99,average,27,0.45110109999995984,['n'],1,right,['0'],6,0.12240270000006603,,,,,,,,15,18,Man,Rechts,2,
,dotcolour,dotcolour,dotcolour,2,4,242,242,main,positivefb,-99,hard,37,0.7169589000000087,['c'],0,right,['0'],6,0.1861285999998472,,,,,,,,15,18,Man,Rechts,2,
,dotcolour,dotcolour,dotcolour,3,4,243,243,main,positivefb,-99,hard,35,0.9676025000001118,['n'],1,right,['8'],4,0.32534129999999095,,,,,,,,15,18,Man,Rechts,2,
,dotcolour,dotcolour,dotcolour,4,4,244,244,main,positivefb,-99,average,27,0.8500048999999308,['n'],1,right,['8'],4,0.22235070000010637,,,,,,,,15,18,Man,Rechts,2,
,dotcolour,dotcolour,dotcolour,5,4,245,245,main,positivefb,-99,easy,15,0.4169097999999849,['n'],1,right,['0'],6,0.3182274000000689,,,,,,,,15,18,Man,Rechts,2,
,dotcolour,dotcolour,dotcolour,6,4,246,246,main,positivefb,-99,hard,42,0.8683926000001065,['c'],1,left,['8'],4,0.19139049999989766,,,,,,,,15,18,Man,Rechts,2,
,dotcolour,dotcolour,dotcolour,7,4,247,247,main,positivefb,-99,easy,61,0.6851790000000619,['c'],1,left,['8'],4,0.16469310000002224,,,,,,,,15,18,Man,Rechts,2,
,dotcolour,dotcolour,dotcolour,8,4,248,248,main,positivefb,-99,average,29,0.4838761999999406,['n'],1,right,['9'],5,0.26775659999998425,,,,,,,,15,18,Man,Rechts,2,
,dotcolour,dotcolour,dotcolour,9,4,249,249,main,positivefb,-99,hard,42,0.6667434999999386,['c'],1,left,['8'],4,0.5037964999999076,,,,,,,,15,18,Man,Rechts,2,
,dotcolour,dotcolour,dotcolour,10,4,250,250,main,positivefb,-99,easy,17,0.5171554999999444,['n'],1,right,['0'],6,0.23159690000011324,,,,,,,,15,18,Man,Rechts,2,
,dotcolour,dotcolour,dotcolour,11,4,251,251,main,positivefb,-99,hard,39,0.6176344999998946,['c'],0,right,['8'],4,0.19067939999990813,,,,,,,,15,18,Man,Rechts,2,
,dotcolour,dotcolour,dotcolour,12,4,252,252,main,positivefb,-99,hard,38,0.5514310999999452,['n'],1,right,['8'],4,0.26580699999999524,,,,,,,,15,18,Man,Rechts,2,
,dotcolour,dotcolour,dotcolour,13,4,253,253,main,positivefb,-99,hard,36,0.7506031999998868,['c'],0,right,['8'],4,0.38615920000006554,,,,,,,,15,18,Man,Rechts,2,
,dotcolour,dotcolour,dotcolour,14,4,254,254,main,positivefb,-99,hard,38,1.3509372000000894,['n'],1,right,['8'],4,0.18898890000014035,,,,,,,,15,18,Man,Rechts,2,
,dotcolour,dotcolour,dotcolour,15,4,255,255,main,positivefb,-99,easy,61,0.6008570999999847,['c'],1,left,['0'],6,0.35813770000004297,,,,,,,,15,18,Man,Rechts,2,
,dotcolour,dotcolour,dotcolour,16,4,256,256,main,positivefb,-99,easy,16,0.5839309000000412,['n'],1,right,['0'],6,0.13810860000012326,,,,,,,,15,18,Man,Rechts,2,
,dotcolour,dotcolour,dotcolour,17,4,257,257,main,positivefb,-99,easy,61,0.6676680000000488,['c'],1,left,['0'],6,0.1061730000001262,,,,,,,,15,18,Man,Rechts,2,
,dotcolour,dotcolour,dotcolour,18,4,258,258,main,positivefb,-99,average,54,0.4680631999999605,['c'],1,left,['0'],6,0.11619739999991907,,,,,,,,15,18,Man,Rechts,2,
,dotcolour,dotcolour,dotcolour,19,4,259,259,main,positivefb,-99,average,55,0.4834894999999051,['c'],1,left,['0'],6,0.1168688000000202,,,,,,,,15,18,Man,Rechts,2,
,dotcolour,dotcolour,dotcolour,20,4,260,260,main,positivefb,-99,hard,41,0.6676441999998133,['c'],1,left,['8'],4,0.25455680000004577,,,,,,,,15,18,Man,Rechts,2,
,dotcolour,dotcolour,dotcolour,21,4,261,261,main,positivefb,-99,average,27,0.6833682000001318,['c'],0,right,['1'],1,0.9057714000000487,,,,,,,,15,18,Man,Rechts,2,
,dotcolour,dotcolour,dotcolour,22,4,262,262,main,positivefb,-99,easy,63,0.8012885000000551,['c'],1,left,['0'],6,0.5837579999999889,,,,,,,,15,18,Man,Rechts,2,
,dotcolour,dotcolour,dotcolour,23,4,263,263,main,positivefb,-99,average,26,0.601274599999897,['n'],1,right,['0'],6,0.2159982000000582,,,,,,,,15,18,Man,Rechts,2,
,dotcolour,dotcolour,dotcolour,24,4,264,264,main,positivefb,-99,average,51,0.5004034000000956,['c'],1,left,['0'],6,0.3249688000000788,,,,,,,,15,18,Man,Rechts,2,
,dotcolour,dotcolour,dotcolour,25,4,265,265,main,positivefb,-99,average,55,0.7674036999999316,['c'],1,left,['0'],6,0.15300170000000435,,,,,,,,15,18,Man,Rechts,2,
,dotcolour,dotcolour,dotcolour,26,4,266,266,main,positivefb,-99,easy,61,0.48438519999990604,['c'],1,left,['0'],6,0.17648959999996805,,,,,,,,15,18,Man,Rechts,2,
,dotcolour,dotcolour,dotcolour,27,4,267,267,main,positivefb,-99,hard,42,0.9326745999999275,['c'],1,left,['0'],6,0.10125319999997373,,,,,,,,15,18,Man,Rechts,2,
,dotcolour,dotcolour,dotcolour,28,4,268,268,main,positivefb,-99,hard,35,2.034684999999854,['c'],0,right,['8'],4,0.169244499999877,,,,,,,,15,18,Man,Rechts,2,
,dotcolour,dotcolour,dotcolour,29,4,269,269,main,positivefb,-99,easy,65,0.5343288999999913,['c'],1,left,['0'],6,0.19762740000010126,,,,,,,,15,18,Man,Rechts,2,
,dotcolour,dotcolour,dotcolour,30,4,270,270,main,positivefb,-99,average,29,0.7493425000000116,['n'],1,right,['0'],6,0.1286392000001797,,,,,,,,15,18,Man,Rechts,2,
,dotcolour,dotcolour,dotcolour,31,4,271,271,main,positivefb,-99,hard,38,1.4003119000001334,['c'],0,right,['8'],4,0.42896940000014183,,,,,,,,15,18,Man,Rechts,2,
,dotcolour,dotcolour,dotcolour,32,4,272,272,main,positivefb,-99,easy,19,0.7671374000001379,['n'],1,right,['0'],6,0.1585350999998809,,,,,,,,15,18,Man,Rechts,2,
,dotcolour,dotcolour,dotcolour,33,4,273,273,main,positivefb,-99,average,27,0.5502150999998321,['c'],0,right,['0'],6,0.20261589999995522,,,,,,,,15,18,Man,Rechts,2,
,dotcolour,dotcolour,dotcolour,34,4,274,274,main,positivefb,-99,easy,19,0.9514407000001484,['n'],1,right,['0'],6,0.11805009999989124,,,,,,,,15,18,Man,Rechts,2,
,dotcolour,dotcolour,dotcolour,35,4,275,275,main,positivefb,-99,easy,19,0.43490489999999227,['n'],1,right,['0'],6,0.14477179999994405,,,,,,,,15,18,Man,Rechts,2,
,dotcolour,dotcolour,dotcolour,36,4,276,276,main,positivefb,-99,hard,44,0.3511860000000979,['n'],0,left,['1'],1,1.1344254000000547,,,,,,,,15,18,Man,Rechts,2,
,dotcolour,dotcolour,dotcolour,37,4,277,277,main,positivefb,-99,hard,35,2.03415700000005,['c'],0,right,['8'],4,0.17610639999998057,,,,,,,,15,18,Man,Rechts,2,
,dotcolour,dotcolour,dotcolour,38,4,278,278,main,positivefb,-99,easy,19,0.6009332999999515,['n'],1,right,['0'],6,0.17018780000012157,,,,,,,,15,18,Man,Rechts,2,
,dotcolour,dotcolour,dotcolour,39,4,279,279,main,positivefb,-99,average,27,0.9833353000001352,['c'],0,right,['8'],4,0.2377336000001833,,,,,,,,15,18,Man,Rechts,2,
,dotcolour,dotcolour,dotcolour,40,4,280,280,main,positivefb,-99,average,52,0.651243900000054,['c'],1,left,['9'],5,1.7947300999999243,,,,,,,,15,18,Man,Rechts,2,
,dotcolour,dotcolour,dotcolour,41,4,281,281,main,positivefb,-99,easy,15,0.5847784000000047,['n'],1,right,['0'],6,0.14071770000009565,,,,,,,,15,18,Man,Rechts,2,
,dotcolour,dotcolour,dotcolour,42,4,282,282,main,positivefb,-99,average,25,0.366868199999999,['n'],1,right,['0'],6,0.16055660000006355,,,,,,,,15,18,Man,Rechts,2,
,dotcolour,dotcolour,dotcolour,43,4,283,283,main,positivefb,-99,hard,37,1.5686745000000428,['c'],0,right,['2'],2,1.4933917999999267,,,,,,,,15,18,Man,Rechts,2,
,dotcolour,dotcolour,dotcolour,44,4,284,284,main,positivefb,-99,average,52,1.0522005000000263,['c'],1,left,['1'],1,0.3845687000000453,,,,,,,,15,18,Man,Rechts,2,
,dotcolour,dotcolour,dotcolour,45,4,285,285,main,positivefb,-99,hard,43,0.7513549999998759,['c'],1,left,['8'],4,0.459464300000036,,,,,,,,15,18,Man,Rechts,2,
,dotcolour,dotcolour,dotcolour,46,4,286,286,main,positivefb,-99,average,28,0.6672877000000881,['c'],0,right,['9'],5,0.679584499999919,,,,,,,,15,18,Man,Rechts,2,
,dotcolour,dotcolour,dotcolour,47,4,287,287,main,positivefb,-99,hard,43,1.4004540000000816,['c'],1,left,['8'],4,0.1899622000000818,,,,,,,,15,18,Man,Rechts,2,
,dotcolour,dotcolour,dotcolour,48,4,288,288,main,positivefb,-99,easy,15,0.7667979000000287,['n'],1,right,['0'],6,0.5852420999999595,,,,,,,,15,18,Man,Rechts,2,
,dotcolour,dotcolour,dotcolour,49,4,289,289,main,positivefb,-99,average,53,1.0178236000001561,['c'],1,left,['0'],6,1.1374029999999493,,,,,,,,15,18,Man,Rechts,2,
,dotcolour,dotcolour,dotcolour,50,4,290,290,main,positivefb,-99,easy,65,0.5509239000000434,['c'],1,left,['0'],6,0.11070519999998396,,,,,,,,15,18,Man,Rechts,2,
,dotcolour,dotcolour,dotcolour,51,4,291,291,main,positivefb,-99,easy,16,4.117842100000189,['n'],1,right,['9'],5,1.3988557999998648,,,,,,,,15,18,Man,Rechts,2,
,dotcolour,dotcolour,dotcolour,52,4,292,292,main,positivefb,-99,average,51,0.6167934999998579,['c'],1,left,['0'],6,0.13445279999996274,,,,,,,,15,18,Man,Rechts,2,
,dotcolour,dotcolour,dotcolour,53,4,293,293,main,positivefb,-99,hard,43,0.43502280000006976,['c'],1,left,['0'],6,0.16857630000004065,,,,,,,,15,18,Man,Rechts,2,
,dotcolour,dotcolour,dotcolour,54,4,294,294,main,positivefb,-99,easy,65,0.4171233000001848,['c'],1,left,['0'],6,0.1301155999999537,,,,,,,,15,18,Man,Rechts,2,
,dotcolour,dotcolour,dotcolour,55,4,295,295,main,positivefb,-99,easy,62,0.4503772000000481,['c'],1,left,['0'],6,0.2124843999999939,,,,,,,,15,18,Man,Rechts,2,
,dotcolour,dotcolour,dotcolour,56,4,296,296,main,positivefb,-99,easy,61,0.3514741999999842,['c'],1,left,['0'],6,0.19122190000007322,,,,,,,,15,18,Man,Rechts,2,
,dotcolour,dotcolour,dotcolour,57,4,297,297,main,positivefb,-99,hard,43,0.38408079999999245,['c'],1,left,['0'],6,0.24887390000003506,,,,,,,,15,18,Man,Rechts,2,
,dotcolour,dotcolour,dotcolour,58,4,298,298,main,positivefb,-99,average,52,0.4349844999999277,['c'],1,left,['0'],6,0.1260408999999072,,,,,,,,15,18,Man,Rechts,2,
,dotcolour,dotcolour,dotcolour,59,4,299,299,main,positivefb,-99,hard,45,0.3506569999999556,['c'],1,left,['0'],6,0.14011980000009316,,,,,,,,15,18,Man,Rechts,2,
,dotcolour,dotcolour,dotcolour,0,0,0,300,training,positivefb,93,average,29,1.3338704999998754,['n'],1,right,['0'],6,0.18429100000003018,,,,,,,,15,18,Man,Rechts,2,
,dotcolour,dotcolour,dotcolour,1,0,1,301,training,positivefb,91,easy,19,0.5842973000001166,['n'],1,right,['0'],6,0.13717530000008082,,,,,,,,15,18,Man,Rechts,2,
,dotcolour,dotcolour,dotcolour,2,0,2,302,training,positivefb,98,average,29,0.4840428999998494,['n'],1,right,['0'],6,0.14449100000001636,,,,,,,,15,18,Man,Rechts,2,
,dotcolour,dotcolour,dotcolour,3,0,3,303,training,positivefb,88,average,54,0.6500874000000749,['c'],1,left,['0'],6,0.16858619999993607,,,,,,,,15,18,Man,Rechts,2,
,dotcolour,dotcolour,dotcolour,4,0,4,304,training,positivefb,90,average,27,0.6668216999999004,['n'],1,right,['0'],6,0.19216499999993175,,,,,,,,15,18,Man,Rechts,2,
,dotcolour,dotcolour,dotcolour,5,0,5,305,training,positivefb,89,average,25,1.9506278999999722,['n'],1,right,['9'],5,0.47495200000003024,,,,,,,,15,18,Man,Rechts,2,
,dotcolour,dotcolour,dotcolour,6,0,6,306,training,positivefb,97,easy,16,0.517588700000033,['n'],1,right,['0'],6,0.23572190000004412,,,,,,,,15,18,Man,Rechts,2,
,dotcolour,dotcolour,dotcolour,7,0,7,307,training,positivefb,98,easy,16,0.41643599999997605,['n'],1,right,['0'],6,0.1303943000000345,,,,,,,,15,18,Man,Rechts,2,
,dotcolour,dotcolour,dotcolour,8,0,8,308,training,positivefb,91,hard,44,0.8996753999999783,['c'],1,left,['8'],4,0.18473969999990913,,,,,,,,15,18,Man,Rechts,2,
,dotcolour,dotcolour,dotcolour,9,0,9,309,training,positivefb,89,hard,45,2.16606569999999,['n'],0,left,['8'],4,0.2266410999998243,,,,,,,,15,18,Man,Rechts,2,
,dotcolour,dotcolour,dotcolour,10,0,10,310,training,positivefb,95,hard,42,0.8659926999998788,['c'],1,left,['1'],1,1.1362047000000075,,,,,,,,15,18,Man,Rechts,2,
,dotcolour,dotcolour,dotcolour,11,0,11,311,training,positivefb,83,easy,63,2.1000283000000763,['c'],1,left,['8'],4,0.18261410000013711,,,,,,,,15,18,Man,Rechts,2,
,dotcolour,dotcolour,dotcolour,12,0,12,312,training,positivefb,99,hard,37,0.9837770999999975,['c'],0,right,['9'],5,0.5510697999998229,,,,,,,,15,18,Man,Rechts,2,
,dotcolour,dotcolour,dotcolour,13,0,13,313,training,positivefb,95,easy,19,0.7499906000000465,['n'],1,right,['0'],6,0.18770840000001954,,,,,,,,15,18,Man,Rechts,2,
,dotcolour,dotcolour,dotcolour,14,0,14,314,training,positivefb,91,hard,45,0.9667764999999235,['c'],1,left,['8'],4,0.22221910000007483,,,,,,,,15,18,Man,Rechts,2,
,dotcolour,dotcolour,dotcolour,15,0,15,315,training,positivefb,97,easy,65,0.6504101000000446,['c'],1,left,['0'],6,0.17118630000004487,,,,,,,,15,18,Man,Rechts,2,
,dotcolour,dotcolour,dotcolour,16,0,16,316,training,positivefb,94,average,55,0.49986970000009023,['c'],1,left,['0'],6,0.15309980000006362,,,,,,,,15,18,Man,Rechts,2,
,dotcolour,dotcolour,dotcolour,17,0,17,317,training,positivefb,95,easy,65,0.44870110000010754,['c'],1,left,['0'],6,0.1522219999999379,,,,,,,,15,18,Man,Rechts,2,
,dotcolour,dotcolour,dotcolour,18,0,18,318,training,positivefb,85,average,54,0.550172099999827,['c'],1,left,['0'],6,0.15659709999999905,,,,,,,,15,18,Man,Rechts,2,
,dotcolour,dotcolour,dotcolour,19,0,19,319,training,positivefb,99,easy,64,0.4994335000001229,['c'],1,left,['0'],6,0.19477770000003147,,,,,,,,15,18,Man,Rechts,2,
,dotcolour,dotcolour,dotcolour,20,0,20,320,training,positivefb,74,hard,39,0.6841936999999234,['c'],0,right,['9'],5,0.3282151000000795,,,,,,,,15,18,Man,Rechts,2,
,dotcolour,dotcolour,dotcolour,21,0,21,321,training,positivefb,87,easy,16,0.5662978999998813,['c'],0,right,['1'],1,0.845736400000078,,,,,,,,15,18,Man,Rechts,2,
,dotcolour,dotcolour,dotcolour,22,0,22,322,training,positivefb,100,average,29,0.6334249999999884,['n'],1,right,['2'],2,3.0425672999999733,,,,,,,,15,18,Man,Rechts,2,
,dotcolour,dotcolour,dotcolour,23,0,23,323,training,positivefb,94,average,25,0.8328349000000799,['n'],1,right,['8'],4,0.20663599999988946,,,,,,,,15,18,Man,Rechts,2,
,dotcolour,dotcolour,dotcolour,24,0,24,324,training,positivefb,79,average,54,1.8676253999999517,['n'],0,left,['1'],1,0.653064699999959,,,,,,,,15,18,Man,Rechts,2,
,dotcolour,dotcolour,dotcolour,25,0,25,325,training,positivefb,61,average,54,1.2161508000001504,['c'],1,left,['8'],4,0.3536386000000675,,,,,,,,15,18,Man,Rechts,2,
,dotcolour,dotcolour,dotcolour,26,0,26,326,training,positivefb,95,average,29,0.7679584999998497,['n'],1,right,['8'],4,0.3176599000000806,,,,,,,,15,18,Man,Rechts,2,
,dotcolour,dotcolour,dotcolour,27,0,27,327,training,positivefb,93,easy,16,0.815856500000109,['n'],1,right,['0'],6,0.359610499999917,,,,,,,,15,18,Man,Rechts,2,
,dotcolour,dotcolour,dotcolour,28,0,28,328,training,positivefb,88,hard,44,0.7007097000000613,['c'],1,left,['8'],4,0.18236909999995987,,,,,,,,15,18,Man,Rechts,2,
,dotcolour,dotcolour,dotcolour,29,0,29,329,training,positivefb,74,hard,38,1.4146937999998954,['n'],1,right,['8'],4,0.19876369999997223,,,,,,,,15,18,Man,Rechts,2,
,dotcolour,dotcolour,dotcolour,30,0,30,330,training,positivefb,99,easy,63,0.6501629000001685,['c'],1,left,['0'],6,0.2761785999998665,,,,,,,,15,18,Man,Rechts,2,
,dotcolour,dotcolour,dotcolour,31,0,31,331,training,positivefb,95,easy,19,1.0659493999999086,['n'],1,right,['0'],6,0.13540949999992336,,,,,,,,15,18,Man,Rechts,2,
,dotcolour,dotcolour,dotcolour,32,0,32,332,training,positivefb,96,average,54,0.7172582999999122,['c'],1,left,['0'],6,0.11683940000011717,,,,,,,,15,18,Man,Rechts,2,
,dotcolour,dotcolour,dotcolour,33,0,33,333,training,positivefb,95,hard,38,0.8996114999999918,['n'],1,right,['8'],4,0.22044049999999515,,,,,,,,15,18,Man,Rechts,2,
,dotcolour,dotcolour,dotcolour,34,0,34,334,training,positivefb,88,hard,39,0.6495786000000408,['c'],0,right,['8'],4,0.13829020000002856,,,,,,,,15,18,Man,Rechts,2,
,dotcolour,dotcolour,dotcolour,35,0,35,335,training,positivefb,95,easy,16,0.683234000000084,['n'],1,right,['8'],4,0.13744870000004994,,,,,,,,15,18,Man,Rechts,2,
,dotcolour,dotcolour,dotcolour,36,0,36,336,training,positivefb,83,hard,42,1.1492249000000356,['n'],0,left,['8'],4,0.14261559999999918,,,,,,,,15,18,Man,Rechts,2,
,dotcolour,dotcolour,dotcolour,37,0,37,337,training,positivefb,94,easy,61,0.7324510000000828,['c'],1,left,['0'],6,0.1395270000000437,,,,,,,,15,18,Man,Rechts,2,
,dotcolour,dotcolour,dotcolour,38,0,38,338,training,positivefb,98,average,55,0.6345845999999256,['c'],1,left,['0'],6,0.15660509999997885,,,,,,,,15,18,Man,Rechts,2,
,dotcolour,dotcolour,dotcolour,39,0,39,339,training,positivefb,95,easy,61,0.5502390000001469,['c'],1,left,['0'],6,0.16872369999987313,,,,,,,,15,18,Man,Rechts,2,
,dotcolour,dotcolour,dotcolour,40,0,40,340,training,positivefb,96,easy,18,0.5492486999999073,['n'],1,right,['0'],6,0.1483643999999913,,,,,,,,15,18,Man,Rechts,2,
,dotcolour,dotcolour,dotcolour,41,0,41,341,training,positivefb,98,hard,36,0.9332022000000961,['n'],1,right,['8'],4,0.16105479999987438,,,,,,,,15,18,Man,Rechts,2,
,dotcolour,dotcolour,dotcolour,42,0,42,342,training,positivefb,77,average,26,0.8334423000001152,['n'],1,right,['8'],4,0.161585599999853,,,,,,,,15,18,Man,Rechts,2,
,dotcolour,dotcolour,dotcolour,43,0,43,343,training,positivefb,91,hard,42,0.7490158999999039,['n'],0,left,['0'],6,0.06992190000005394,,,,,,,,15,18,Man,Rechts,2,
,dotcolour,dotcolour,dotcolour,44,0,44,344,training,positivefb,92,easy,61,0.7506983000000673,['c'],1,left,['0'],6,0.12623690000009447,,,,,,,,15,18,Man,Rechts,2,
,dotcolour,dotcolour,dotcolour,45,0,45,345,training,positivefb,98,hard,45,0.7158799000001181,['c'],1,left,['8'],4,0.13241629999993165,,,,,,,,15,18,Man,Rechts,2,
,dotcolour,dotcolour,dotcolour,46,0,46,346,training,positivefb,95,hard,39,0.8164701999999124,['n'],1,right,['8'],4,0.1496005999999852,,,,,,,,15,18,Man,Rechts,2,
,dotcolour,dotcolour,dotcolour,47,0,47,347,training,positivefb,93,average,54,0.6006548000000294,['c'],1,left,['0'],6,0.12910660000011376,,,,,,,,15,18,Man,Rechts,2,
,dotcolour,dotcolour,dotcolour,48,0,48,348,training,positivefb,94,easy,18,0.6660830000000715,['n'],1,right,['0'],6,0.13846209999996972,,,,,,,,15,18,Man,Rechts,2,
,dotcolour,dotcolour,dotcolour,49,0,49,349,training,positivefb,95,easy,62,0.5835331000000679,['c'],1,left,['0'],6,0.10959200000002056,,,,,,,,15,18,Man,Rechts,2,
,dotcolour,dotcolour,dotcolour,50,0,50,350,training,positivefb,92,hard,39,0.6005370000000312,['n'],1,right,['0'],6,0.20916430000011133,,,,,,,,15,18,Man,Rechts,2,
,dotcolour,dotcolour,dotcolour,51,0,51,351,training,positivefb,90,hard,35,0.6327851999999439,['c'],0,right,['0'],6,0.12011409999990974,,,,,,,,15,18,Man,Rechts,2,
,dotcolour,dotcolour,dotcolour,52,0,52,352,training,positivefb,98,average,55,0.7995642999999291,['c'],1,left,['0'],6,0.14719020000006822,,,,,,,,15,18,Man,Rechts,2,
,dotcolour,dotcolour,dotcolour,53,0,53,353,training,positivefb,87,hard,42,0.7993993999998565,['c'],1,left,['8'],4,0.16535879999992176,,,,,,,,15,18,Man,Rechts,2,
,dotcolour,dotcolour,dotcolour,54,0,54,354,training,positivefb,75,hard,36,4.316631499999858,['n'],1,right,['0'],6,0.05024760000014794,,,,,,,,15,18,Man,Rechts,2,
,dotcolour,dotcolour,dotcolour,55,0,55,355,training,positivefb,91,average,25,0.7834568999999192,['n'],1,right,['0'],6,0.081530199999861,,,,,,,,15,18,Man,Rechts,2,
,dotcolour,dotcolour,dotcolour,56,0,56,356,training,positivefb,86,average,52,0.5834371999999348,['c'],1,left,['0'],6,0.1829766999999265,,,,,,,,15,18,Man,Rechts,2,
,dotcolour,dotcolour,dotcolour,57,0,57,357,training,positivefb,98,easy,64,0.7166703000000325,['c'],1,left,['0'],6,0.13069980000000214,,,,,,,,15,18,Man,Rechts,2,
,dotcolour,dotcolour,dotcolour,58,0,58,358,training,positivefb,92,hard,42,0.7835233999999218,['c'],1,left,['0'],6,0.13563100000010309,,,,,,,,15,18,Man,Rechts,2,
,dotcolour,dotcolour,dotcolour,59,0,59,359,training,positivefb,97,average,26,0.81732779999993,['n'],1,right,['0'],6,0.15317140000001928,,,,,,,,15,18,Man,Rechts,2,
,dotcolour,dotcolour,dotcolour,0,1,60,360,training,positivefb,80,hard,35,1.2506983000000673,['n'],1,right,['8'],4,0.21242819999997664,,,,,,,,15,18,Man,Rechts,2,
,dotcolour,dotcolour,dotcolour,1,1,61,361,training,positivefb,93,hard,36,0.7508596000000125,['n'],1,right,['8'],4,0.1667334999999639,,,,,,,,15,18,Man,Rechts,2,
,dotcolour,dotcolour,dotcolour,2,1,62,362,training,positivefb,97,hard,35,0.6820540999999594,['n'],1,right,['8'],4,0.16459839999993164,,,,,,,,15,18,Man,Rechts,2,
,dotcolour,dotcolour,dotcolour,3,1,63,363,training,positivefb,97,hard,39,0.6660024000000249,['n'],1,right,['9'],5,0.23589609999999084,,,,,,,,15,18,Man,Rechts,2,
,dotcolour,dotcolour,dotcolour,4,1,64,364,training,positivefb,95,average,26,0.5827862999999525,['n'],1,right,['9'],5,0.21159919999990962,,,,,,,,15,18,Man,Rechts,2,
,dotcolour,dotcolour,dotcolour,5,1,65,365,training,positivefb,92,average,25,0.4157628999998906,['n'],1,right,['9'],5,0.13918550000016694,,,,,,,,15,18,Man,Rechts,2,
,dotcolour,dotcolour,dotcolour,6,1,66,366,training,positivefb,97,easy,16,0.38357459999997445,['n'],1,right,['0'],6,0.10296509999989212,,,,,,,,15,18,Man,Rechts,2,
,dotcolour,dotcolour,dotcolour,7,1,67,367,training,positivefb,97,easy,62,0.5488202999999885,['c'],1,left,['0'],6,0.18791889999988598,,,,,,,,15,18,Man,Rechts,2,
,dotcolour,dotcolour,dotcolour,8,1,68,368,training,positivefb,97,hard,45,0.5500531000000137,['c'],1,left,['0'],6,0.15110639999988962,,,,,,,,15,18,Man,Rechts,2,
,dotcolour,dotcolour,dotcolour,9,1,69,369,training,positivefb,83,hard,41,0.749307300000055,['n'],0,left,['9'],5,0.20409640000002582,,,,,,,,15,18,Man,Rechts,2,
,dotcolour,dotcolour,dotcolour,10,1,70,370,training,positivefb,98,average,28,0.5992791999999554,['n'],1,right,['9'],5,0.20328749999998763,,,,,,,,15,18,Man,Rechts,2,
,dotcolour,dotcolour,dotcolour,11,1,71,371,training,positivefb,90,hard,41,1.2325716000000284,['c'],1,left,['9'],5,0.3612508999999591,,,,,,,,15,18,Man,Rechts,2,
,dotcolour,dotcolour,dotcolour,12,1,72,372,training,positivefb,99,easy,64,0.6673662000000604,['c'],1,left,['0'],6,0.40083049999998366,,,,,,,,15,18,Man,Rechts,2,
,dotcolour,dotcolour,dotcolour,13,1,73,373,training,positivefb,97,average,52,0.5162330000000566,['c'],1,left,['9'],5,0.18850059999999758,,,,,,,,15,18,Man,Rechts,2,
,dotcolour,dotcolour,dotcolour,14,1,74,374,training,positivefb,98,average,29,0.6833114999999452,['n'],1,right,['0'],6,0.13812540000003537,,,,,,,,15,18,Man,Rechts,2,
,dotcolour,dotcolour,dotcolour,15,1,75,375,training,positivefb,96,easy,64,0.9503760000000057,['c'],1,left,['0'],6,0.16654379999999946,,,,,,,,15,18,Man,Rechts,2,
,dotcolour,dotcolour,dotcolour,16,1,76,376,training,positivefb,99,easy,15,0.4336660000001302,['n'],1,right,['0'],6,0.11148589999993419,,,,,,,,15,18,Man,Rechts,2,
,dotcolour,dotcolour,dotcolour,17,1,77,377,training,positivefb,84,easy,61,0.7837178999998287,['c'],1,left,['9'],5,0.2917840999998589,,,,,,,,15,18,Man,Rechts,2,
,dotcolour,dotcolour,dotcolour,18,1,78,378,training,positivefb,95,average,52,0.5499151000001348,['c'],1,left,['0'],6,0.137624599999981,,,,,,,,15,18,Man,Rechts,2,
,dotcolour,dotcolour,dotcolour,19,1,79,379,training,positivefb,92,average,54,0.5328079999999318,['c'],1,left,['0'],6,0.11182140000005347,,,,,,,,15,18,Man,Rechts,2,
,dotcolour,dotcolour,dotcolour,20,1,80,380,training,positivefb,94,average,25,0.5995977999998559,['n'],1,right,['0'],6,0.15553799999997864,,,,,,,,15,18,Man,Rechts,2,
,dotcolour,dotcolour,dotcolour,21,1,81,381,training,positivefb,96,easy,64,0.6157234999998309,['c'],1,left,['0'],6,0.16482360000009066,,,,,,,,15,18,Man,Rechts,2,
,dotcolour,dotcolour,dotcolour,22,1,82,382,training,positivefb,93,hard,36,0.6665561999998317,['n'],1,right,['0'],6,0.14780429999996159,,,,,,,,15,18,Man,Rechts,2,
,dotcolour,dotcolour,dotcolour,23,1,83,383,training,positivefb,95,easy,61,0.7164130999999543,['c'],1,left,['0'],6,0.1389781000000312,,,,,,,,15,18,Man,Rechts,2,
,dotcolour,dotcolour,dotcolour,24,1,84,384,training,positivefb,91,easy,16,1.2169820999999956,['n'],1,right,['0'],6,0.1571921999998267,,,,,,,,15,18,Man,Rechts,2,
,dotcolour,dotcolour,dotcolour,25,1,85,385,training,positivefb,99,hard,43,0.6655229000000418,['c'],1,left,['8'],4,0.1873924999999872,,,,,,,,15,18,Man,Rechts,2,
,dotcolour,dotcolour,dotcolour,26,1,86,386,training,positivefb,94,average,54,0.6663896000000022,['c'],1,left,['0'],6,0.1619725999998991,,,,,,,,15,18,Man,Rechts,2,
,dotcolour,dotcolour,dotcolour,27,1,87,387,training,positivefb,95,average,25,0.5492739000001166,['n'],1,right,['0'],6,0.0938307999999779,,,,,,,,15,18,Man,Rechts,2,
,dotcolour,dotcolour,dotcolour,28,1,88,388,training,positivefb,86,average,25,0.8001636000001326,['n'],1,right,['0'],6,0.10715730000015355,,,,,,,,15,18,Man,Rechts,2,
,dotcolour,dotcolour,dotcolour,29,1,89,389,training,positivefb,45,average,53,0.8508869000002051,['n'],0,left,['1'],1,0.6052920000001905,,,,,,,,15,18,Man,Rechts,2,
,dotcolour,dotcolour,dotcolour,30,1,90,390,training,positivefb,97,easy,16,0.6674330999999256,['n'],1,right,['0'],6,0.18614039999988563,,,,,,,,15,18,Man,Rechts,2,
,dotcolour,dotcolour,dotcolour,31,1,91,391,training,positivefb,97,easy,16,0.43358710000006795,['n'],1,right,['0'],6,0.18621749999988424,,,,,,,,15,18,Man,Rechts,2,
,dotcolour,dotcolour,dotcolour,32,1,92,392,training,positivefb,96,average,29,0.6509757000001173,['n'],1,right,['0'],6,0.23270750000006046,,,,,,,,15,18,Man,Rechts,2,
,dotcolour,dotcolour,dotcolour,33,1,93,393,training,positivefb,75,hard,35,1.1825891000000865,['n'],1,right,['0'],6,0.22424500000010994,,,,,,,,15,18,Man,Rechts,2,
,dotcolour,dotcolour,dotcolour,34,1,94,394,training,positivefb,95,average,54,0.6666094999998222,['c'],1,left,['9'],5,0.3328292999999576,,,,,,,,15,18,Man,Rechts,2,
,dotcolour,dotcolour,dotcolour,35,1,95,395,training,positivefb,30,easy,17,0.600659799999903,['c'],0,right,['1'],1,0.7359044999998332,,,,,,,,15,18,Man,Rechts,2,
,dotcolour,dotcolour,dotcolour,36,1,96,396,training,positivefb,96,easy,19,0.6990731000000778,['n'],1,right,['0'],6,0.14154880000000958,,,,,,,,15,18,Man,Rechts,2,
,dotcolour,dotcolour,dotcolour,37,1,97,397,training,positivefb,26,easy,62,1.7489422999999533,['n'],0,left,['1'],1,1.0585989000001064,,,,,,,,15,18,Man,Rechts,2,
,dotcolour,dotcolour,dotcolour,38,1,98,398,training,positivefb,87,easy,64,5.648970299999974,['c'],1,left,['9'],5,1.3670987000000423,,,,,,,,15,18,Man,Rechts,2,
,dotcolour,dotcolour,dotcolour,39,1,99,399,training,positivefb,91,hard,44,1.8325408999999127,['n'],0,left,['8'],4,0.6630052999998952,,,,,,,,15,18,Man,Rechts,2,
,dotcolour,dotcolour,dotcolour,40,1,100,400,training,positivefb,78,hard,39,1.7987249999998767,['c'],0,right,['0'],6,0.12429290000000037,,,,,,,,15,18,Man,Rechts,2,
,dotcolour,dotcolour,dotcolour,41,1,101,401,training,positivefb,92,average,51,0.5008253999999397,['c'],1,left,['0'],6,0.20389560000012352,,,,,,,,15,18,Man,Rechts,2,
,dotcolour,dotcolour,dotcolour,42,1,102,402,training,positivefb,98,average,51,0.7828936000000795,['c'],1,left,['0'],6,0.12527299999987918,,,,,,,,15,18,Man,Rechts,2,
,dotcolour,dotcolour,dotcolour,43,1,103,403,training,positivefb,90,easy,19,0.9167155000000093,['n'],1,right,['0'],6,0.3483031000000665,,,,,,,,15,18,Man,Rechts,2,
,dotcolour,dotcolour,dotcolour,44,1,104,404,training,positivefb,85,hard,42,2.2506070000001728,['c'],1,left,['9'],5,0.35753570000019863,,,,,,,,15,18,Man,Rechts,2,
,dotcolour,dotcolour,dotcolour,45,1,105,405,training,positivefb,66,hard,36,1.2167841000000408,['c'],0,right,['0'],6,0.33390319999989515,,,,,,,,15,18,Man,Rechts,2,
,dotcolour,dotcolour,dotcolour,46,1,106,406,training,positivefb,78,easy,62,1.2664912000000186,['n'],0,left,['1'],1,0.5893940999999359,,,,,,,,15,18,Man,Rechts,2,
,dotcolour,dotcolour,dotcolour,47,1,107,407,training,positivefb,73,hard,42,3.2496530999999322,['c'],1,left,['8'],4,0.5004462999997941,,,,,,,,15,18,Man,Rechts,2,
,dotcolour,dotcolour,dotcolour,48,1,108,408,training,positivefb,67,average,27,2.4992475999999897,['c'],0,right,['0'],6,1.7967372000000523,,,,,,,,15,18,Man,Rechts,2,
,dotcolour,dotcolour,dotcolour,49,1,109,409,training,positivefb,84,hard,44,1.80048510000006,['n'],0,left,['0'],6,0.38936089999992873,,,,,,,,15,18,Man,Rechts,2,
,dotcolour,dotcolour,dotcolour,50,1,110,410,training,positivefb,81,average,52,1.6843774999999823,['c'],1,left,['8'],4,0.3785667999998168,,,,,,,,15,18,Man,Rechts,2,
,dotcolour,dotcolour,dotcolour,51,1,111,411,training,positivefb,27,easy,63,4.349683599999935,['n'],0,left,['0'],6,1.478339300000016,,,,,,,,15,18,Man,Rechts,2,
,dotcolour,dotcolour,dotcolour,52,1,112,412,training,positivefb,35,easy,15,0.9161953000000267,['c'],0,right,['1'],1,1.7833468000001176,,,,,,,,15,18,Man,Rechts,2,
,dotcolour,dotcolour,dotcolour,53,1,113,413,training,positivefb,85,hard,45,1.5335360000001401,['c'],1,left,['8'],4,0.22725919999993494,,,,,,,,15,18,Man,Rechts,2,
,dotcolour,dotcolour,dotcolour,54,1,114,414,training,positivefb,92,hard,39,0.8169669999999769,['n'],1,right,['8'],4,0.2088547999999264,,,,,,,,15,18,Man,Rechts,2,
,dotcolour,dotcolour,dotcolour,55,1,115,415,training,positivefb,98,easy,17,0.7508847000001424,['n'],1,right,['8'],4,0.10758209999994506,,,,,,,,15,18,Man,Rechts,2,
,dotcolour,dotcolour,dotcolour,56,1,116,416,training,positivefb,97,hard,39,0.6154154999999264,['c'],0,right,['8'],4,0.2547638000000916,,,,,,,,15,18,Man,Rechts,2,
,dotcolour,dotcolour,dotcolour,57,1,117,417,training,positivefb,68,average,51,0.7848452000000634,['c'],1,left,['8'],4,0.37410399999998845,,,,,,,,15,18,Man,Rechts,2,
,dotcolour,dotcolour,dotcolour,58,1,118,418,training,positivefb,86,hard,45,0.7513303000000633,['c'],1,left,['9'],5,0.19299679999994623,,,,,,,,15,18,Man,Rechts,2,
,dotcolour,dotcolour,dotcolour,59,1,119,419,training,positivefb,99,average,25,0.4164557000003697,['n'],1,right,['9'],5,0.19319150000001173,,,,,,,,15,18,Man,Rechts,2,
,xotask,dotcolour,dotcolour,0,2,120,420,main,positivefb,-99,average,,1.2497653000000355,['c'],1,left,['8'],4,1.1757562000002508,61,,,,,,,15,18,Man,Rechts,2,
,xotask,dotcolour,dotcolour,1,2,121,421,main,positivefb,-99,easy,,1.0667778000001817,['c'],1,left,['0'],6,0.21557350000011866,72,,,,,,,15,18,Man,Rechts,2,
,xotask,dotcolour,dotcolour,2,2,122,422,main,positivefb,-99,hard,,0.7011486999999761,['c'],0,right,['0'],6,0.12327770000001692,25,,,,,,,15,18,Man,Rechts,2,
,xotask,dotcolour,dotcolour,3,2,123,423,main,positivefb,-99,average,,0.6177566000001207,['c'],0,right,['9'],5,0.15063840000038908,19,,,,,,,15,18,Man,Rechts,2,
,xotask,dotcolour,dotcolour,4,2,124,424,main,positivefb,-99,hard,,0.8511152000000948,['n'],1,right,['0'],6,0.20749419999992824,25,,,,,,,15,18,Man,Rechts,2,
,xotask,dotcolour,dotcolour,5,2,125,425,main,positivefb,-99,hard,,0.868636300000162,['c'],1,left,['9'],5,0.30133939999996073,53,,,,,,,15,18,Man,Rechts,2,
,xotask,dotcolour,dotcolour,6,2,126,426,main,positivefb,-99,easy,,0.8350106000002597,['c'],1,left,['0'],6,0.2251535000000331,71,,,,,,,15,18,Man,Rechts,2,
,xotask,dotcolour,dotcolour,7,2,127,427,main,positivefb,-99,easy,,0.8178236999997353,['n'],1,right,['0'],6,0.12013200000001234,5,,,,,,,15,18,Man,Rechts,2,
,xotask,dotcolour,dotcolour,8,2,128,428,main,positivefb,-99,hard,,0.7000146000000314,['c'],0,right,['0'],6,0.2410213999996813,25,,,,,,,15,18,Man,Rechts,2,
,xotask,dotcolour,dotcolour,9,2,129,429,main,positivefb,-99,average,,1.334060899999713,['c'],0,right,['1'],1,1.0822450999999091,16,,,,,,,15,18,Man,Rechts,2,
,xotask,dotcolour,dotcolour,10,2,130,430,main,positivefb,-99,hard,,1.5004165999998804,['n'],1,right,['0'],6,0.3155146999997669,25,,,,,,,15,18,Man,Rechts,2,
,xotask,dotcolour,dotcolour,11,2,131,431,main,positivefb,-99,easy,,1.183269399999972,['c'],1,left,['9'],5,0.744666099999904,71,,,,,,,15,18,Man,Rechts,2,
,xotask,dotcolour,dotcolour,12,2,132,432,main,positivefb,-99,hard,,0.8846767999998519,['c'],1,left,['0'],6,0.5046523000000889,50,,,,,,,15,18,Man,Rechts,2,
,xotask,dotcolour,dotcolour,13,2,133,433,main,positivefb,-99,hard,,0.7346461000001909,['c'],1,left,['0'],6,0.18430129999978817,52,,,,,,,15,18,Man,Rechts,2,
,xotask,dotcolour,dotcolour,14,2,134,434,main,positivefb,-99,hard,,1.3018402000002425,['n'],0,left,['0'],6,0.20583720000013273,54,,,,,,,15,18,Man,Rechts,2,
,xotask,dotcolour,dotcolour,15,2,135,435,main,positivefb,-99,average,,3.100193499999932,['c'],0,right,['8'],4,0.42567159999998694,15,,,,,,,15,18,Man,Rechts,2,
,xotask,dotcolour,dotcolour,16,2,136,436,main,positivefb,-99,average,,0.9011139999997795,['c'],1,left,['8'],4,0.2942825999998604,61,,,,,,,15,18,Man,Rechts,2,
,xotask,dotcolour,dotcolour,17,2,137,437,main,positivefb,-99,average,,0.6678178000001935,['c'],0,right,['8'],4,0.20842690000017683,16,,,,,,,15,18,Man,Rechts,2,
,xotask,dotcolour,dotcolour,18,2,138,438,main,positivefb,-99,hard,,0.8843267999995987,['n'],1,right,['0'],6,0.27006260000007387,25,,,,,,,15,18,Man,Rechts,2,
,xotask,dotcolour,dotcolour,19,2,139,439,main,positivefb,-99,average,,0.6834195000001273,['n'],1,right,['0'],6,0.28040999999984706,18,,,,,,,15,18,Man,Rechts,2,
,xotask,dotcolour,dotcolour,20,2,140,440,main,positivefb,-99,easy,,0.549112299999706,['c'],1,left,['8'],4,0.2324743000003764,73,,,,,,,15,18,Man,Rechts,2,
,xotask,dotcolour,dotcolour,21,2,141,441,main,positivefb,-99,average,,0.5008984999999484,['c'],1,left,['8'],4,0.2206362000001718,64,,,,,,,15,18,Man,Rechts,2,
,xotask,dotcolour,dotcolour,22,2,142,442,main,positivefb,-99,hard,,0.500228700000207,['c'],1,left,['8'],4,0.20036179999988235,51,,,,,,,15,18,Man,Rechts,2,
,xotask,dotcolour,dotcolour,23,2,143,443,main,positivefb,-99,average,,0.400465499999882,['c'],0,right,['8'],4,0.20050439999977243,16,,,,,,,15,18,Man,Rechts,2,
,xotask,dotcolour,dotcolour,24,2,144,444,main,positivefb,-99,hard,,0.5167397000000165,['c'],1,left,['8'],4,0.16463859999976194,54,,,,,,,15,18,Man,Rechts,2,
,xotask,dotcolour,dotcolour,25,2,145,445,main,positivefb,-99,easy,,1.1169697999998789,['n'],1,right,['0'],6,0.21045439999988957,8,,,,,,,15,18,Man,Rechts,2,
,xotask,dotcolour,dotcolour,26,2,146,446,main,positivefb,-99,easy,,0.5675552000002426,['c'],1,left,['8'],4,0.16400249999969674,72,,,,,,,15,18,Man,Rechts,2,
,xotask,dotcolour,dotcolour,27,2,147,447,main,positivefb,-99,easy,,0.5168545999999878,['c'],0,right,['1'],1,1.715128000000277,6,,,,,,,15,18,Man,Rechts,2,
,xotask,dotcolour,dotcolour,28,2,148,448,main,positivefb,-99,easy,,0.7658630999999332,['c'],1,left,['8'],4,0.1689225999998598,72,,,,,,,15,18,Man,Rechts,2,
,xotask,dotcolour,dotcolour,29,2,149,449,main,positivefb,-99,hard,,0.7001528999999209,['c'],0,right,['8'],4,0.1911777999998776,27,,,,,,,15,18,Man,Rechts,2,
,xotask,dotcolour,dotcolour,30,2,150,450,main,positivefb,-99,easy,,0.7837620999998762,['c'],1,left,['8'],4,0.14479049999999916,73,,,,,,,15,18,Man,Rechts,2,
,xotask,dotcolour,dotcolour,31,2,151,451,main,positivefb,-99,average,,0.7338884999999209,['n'],1,right,['9'],5,0.17417459999978746,16,,,,,,,15,18,Man,Rechts,2,
,xotask,dotcolour,dotcolour,32,2,152,452,main,positivefb,-99,hard,,0.7334152000003087,['c'],0,right,['8'],4,0.2354037000000062,25,,,,,,,15,18,Man,Rechts,2,
,xotask,dotcolour,dotcolour,33,2,153,453,main,positivefb,-99,average,,0.6854484000000411,['c'],1,left,['8'],4,0.21481180000000677,61,,,,,,,15,18,Man,Rechts,2,
,xotask,dotcolour,dotcolour,34,2,154,454,main,positivefb,-99,average,,0.6668627999997625,['c'],1,left,['8'],4,0.12427989999969213,61,,,,,,,15,18,Man,Rechts,2,
,xotask,dotcolour,dotcolour,35,2,155,455,main,positivefb,-99,hard,,0.6835135000001173,['c'],0,right,['8'],4,0.26952699999992547,25,,,,,,,15,18,Man,Rechts,2,
,xotask,dotcolour,dotcolour,36,2,156,456,main,positivefb,-99,hard,,0.6335656000001109,['n'],1,right,['0'],6,0.6176722000000154,29,,,,,,,15,18,Man,Rechts,2,
,xotask,dotcolour,dotcolour,37,2,157,457,main,positivefb,-99,average,,0.5338673000001108,['n'],1,right,['0'],6,0.2363388999997369,18,,,,,,,15,18,Man,Rechts,2,
,xotask,dotcolour,dotcolour,38,2,158,458,main,positivefb,-99,average,,0.6011665999999423,['c'],1,left,['8'],4,0.2608714000002692,64,,,,,,,15,18,Man,Rechts,2,
,xotask,dotcolour,dotcolour,39,2,159,459,main,positivefb,-99,average,,0.6666055000000597,['c'],1,left,['9'],5,0.15246109999998225,64,,,,,,,15,18,Man,Rechts,2,
,xotask,dotcolour,dotcolour,40,2,160,460,main,positivefb,-99,easy,,0.6007564999999886,['c'],1,left,['9'],5,0.2671378000000004,73,,,,,,,15,18,Man,Rechts,2,
,xotask,dotcolour,dotcolour,41,2,161,461,main,positivefb,-99,hard,,0.5175070999998752,['c'],1,left,['9'],5,0.23573259999966467,54,,,,,,,15,18,Man,Rechts,2,
,xotask,dotcolour,dotcolour,42,2,162,462,main,positivefb,-99,hard,,0.4509736999998495,['c'],1,left,['9'],5,0.23381049999989045,51,,,,,,,15,18,Man,Rechts,2,
,xotask,dotcolour,dotcolour,43,2,163,463,main,positivefb,-99,average,,3.717075399999885,['c'],0,right,['3'],3,0.845102499999939,17,,,,,,,15,18,Man,Rechts,2,
,xotask,dotcolour,dotcolour,44,2,164,464,main,positivefb,-99,average,,0.7666788999999881,['c'],1,left,['8'],4,0.22140810000018973,61,,,,,,,15,18,Man,Rechts,2,
,xotask,dotcolour,dotcolour,45,2,165,465,main,positivefb,-99,hard,,0.5172356000002765,['c'],1,left,['8'],4,0.20884879999994155,53,,,,,,,15,18,Man,Rechts,2,
,xotask,dotcolour,dotcolour,46,2,166,466,main,positivefb,-99,average,,0.5504715000001852,['c'],1,left,['8'],4,0.19503499999973428,64,,,,,,,15,18,Man,Rechts,2,
,xotask,dotcolour,dotcolour,47,2,167,467,main,positivefb,-99,easy,,0.5003962999999203,['c'],1,left,['8'],4,0.2253789000001234,74,,,,,,,15,18,Man,Rechts,2,
,xotask,dotcolour,dotcolour,48,2,168,468,main,positivefb,-99,hard,,0.46704119999958493,['c'],1,left,['8'],4,0.18257450000010067,52,,,,,,,15,18,Man,Rechts,2,
,xotask,dotcolour,dotcolour,49,2,169,469,main,positivefb,-99,average,,0.5163131999997859,['c'],1,left,['8'],4,0.2594035000001895,63,,,,,,,15,18,Man,Rechts,2,
,xotask,dotcolour,dotcolour,50,2,170,470,main,positivefb,-99,easy,,0.5999689000000217,['n'],1,right,['8'],4,0.20204770000009376,8,,,,,,,15,18,Man,Rechts,2,
,xotask,dotcolour,dotcolour,51,2,171,471,main,positivefb,-99,easy,,0.5166943999997784,['c'],0,right,['1'],1,0.6934560999998212,9,,,,,,,15,18,Man,Rechts,2,
,xotask,dotcolour,dotcolour,52,2,172,472,main,positivefb,-99,easy,,0.8345911000001252,['n'],1,right,['0'],6,0.23299489999999423,8,,,,,,,15,18,Man,Rechts,2,
,xotask,dotcolour,dotcolour,53,2,173,473,main,positivefb,-99,easy,,0.38423469999997906,['n'],1,right,['0'],6,0.22498989999985497,9,,,,,,,15,18,Man,Rechts,2,
,xotask,dotcolour,dotcolour,54,2,174,474,main,positivefb,-99,easy,,0.350544699999773,['n'],1,right,['0'],6,0.171813899999961,7,,,,,,,15,18,Man,Rechts,2,
,xotask,dotcolour,dotcolour,55,2,175,475,main,positivefb,-99,easy,,0.38432109999985187,['n'],1,right,['0'],6,0.2296793999998954,9,,,,,,,15,18,Man,Rechts,2,
,xotask,dotcolour,dotcolour,56,2,176,476,main,positivefb,-99,average,,0.38583420000031765,['n'],1,right,['0'],6,0.1668931999997767,18,,,,,,,15,18,Man,Rechts,2,
,xotask,dotcolour,dotcolour,57,2,177,477,main,positivefb,-99,easy,,0.3680044999996426,['n'],0,left,['3'],3,1.3145760999996128,74,,,,,,,15,18,Man,Rechts,2,
,xotask,dotcolour,dotcolour,58,2,178,478,main,positivefb,-99,easy,,0.6009543000000122,['n'],1,right,['0'],6,0.17552249999971536,7,,,,,,,15,18,Man,Rechts,2,
,xotask,dotcolour,dotcolour,59,2,179,479,main,positivefb,-99,hard,,0.4185819000003903,['n'],1,right,['0'],6,0.312182600000142,28,,,,,,,15,18,Man,Rechts,2,
,xotask,dotcolour,dotcolour,0,3,180,480,main,positivefb,-99,easy,,0.7503749000002244,['c'],1,left,['8'],4,0.20201129999986733,70,,,,,,,15,18,Man,Rechts,2,
,xotask,dotcolour,dotcolour,1,3,181,481,main,positivefb,-99,average,,0.4334142999996402,['c'],0,right,['3'],3,0.7770196000001306,17,,,,,,,15,18,Man,Rechts,2,
,xotask,dotcolour,dotcolour,2,3,182,482,main,positivefb,-99,hard,,0.6844279000001734,['c'],1,left,['8'],4,0.5438991999999416,53,,,,,,,15,18,Man,Rechts,2,
,xotask,dotcolour,dotcolour,3,3,183,483,main,positivefb,-99,hard,,0.7857530999999653,['c'],1,left,['8'],4,0.7646712000000662,51,,,,,,,15,18,Man,Rechts,2,
,xotask,dotcolour,dotcolour,4,3,184,484,main,positivefb,-99,easy,,0.7668048999998973,['n'],1,right,['0'],6,0.5361960000000181,6,,,,,,,15,18,Man,Rechts,2,
,xotask,dotcolour,dotcolour,5,3,185,485,main,positivefb,-99,hard,,0.6847506000003705,['n'],1,right,['9'],5,0.49578390000033323,29,,,,,,,15,18,Man,Rechts,2,
,xotask,dotcolour,dotcolour,6,3,186,486,main,positivefb,-99,easy,,1.101906500000041,['c'],1,left,['8'],4,0.225600399999621,74,,,,,,,15,18,Man,Rechts,2,
,xotask,dotcolour,dotcolour,7,3,187,487,main,positivefb,-99,average,,1.7840750000000298,['n'],1,right,['8'],4,0.8741749000000709,16,,,,,,,15,18,Man,Rechts,2,
,xotask,dotcolour,dotcolour,8,3,188,488,main,positivefb,-99,hard,,0.8836780999999974,['n'],1,right,['8'],4,0.2924950000001445,25,,,,,,,15,18,Man,Rechts,2,
,xotask,dotcolour,dotcolour,9,3,189,489,main,positivefb,-99,easy,,0.40046840000013617,['n'],1,right,['9'],5,0.3536562999997841,8,,,,,,,15,18,Man,Rechts,2,
,xotask,dotcolour,dotcolour,10,3,190,490,main,positivefb,-99,average,,0.3675742000000355,['n'],1,right,['9'],5,0.19013889999996536,15,,,,,,,15,18,Man,Rechts,2,
,xotask,dotcolour,dotcolour,11,3,191,491,main,positivefb,-99,hard,,0.4177773999999772,['n'],0,left,['9'],5,0.22319060000017998,51,,,,,,,15,18,Man,Rechts,2,
,xotask,dotcolour,dotcolour,12,3,192,492,main,positivefb,-99,hard,,0.6170494000002691,['n'],1,right,['9'],5,0.15050670000027822,27,,,,,,,15,18,Man,Rechts,2,
,xotask,dotcolour,dotcolour,13,3,193,493,main,positivefb,-99,easy,,0.45064189999993687,['n'],1,right,['9'],5,0.1745746000001418,7,,,,,,,15,18,Man,Rechts,2,
,xotask,dotcolour,dotcolour,14,3,194,494,main,positivefb,-99,hard,,0.5172476000002462,['n'],1,right,['9'],5,0.17174100000011094,29,,,,,,,15,18,Man,Rechts,2,
,xotask,dotcolour,dotcolour,15,3,195,495,main,positivefb,-99,average,,0.5006058999997549,['n'],1,right,['9'],5,0.1307555999997021,15,,,,,,,15,18,Man,Rechts,2,
,xotask,dotcolour,dotcolour,16,3,196,496,main,positivefb,-99,easy,,0.8346176000000014,['c'],1,left,['8'],4,0.2773833999999624,70,,,,,,,15,18,Man,Rechts,2,
,xotask,dotcolour,dotcolour,17,3,197,497,main,positivefb,-99,average,,0.4344138000001294,['n'],0,left,['8'],4,0.5140661000000364,61,,,,,,,15,18,Man,Rechts,2,
,xotask,dotcolour,dotcolour,18,3,198,498,main,positivefb,-99,average,,0.9005334999997103,['n'],1,right,['0'],6,0.2670459999999366,19,,,,,,,15,18,Man,Rechts,2,
,xotask,dotcolour,dotcolour,19,3,199,499,main,positivefb,-99,average,,0.48351240000010876,['n'],1,right,['9'],5,0.26080099999990125,19,,,,,,,15,18,Man,Rechts,2,
,xotask,dotcolour,dotcolour,20,3,200,500,main,positivefb,-99,easy,,0.5504509000002145,['n'],1,right,['9'],5,0.23762259999966773,6,,,,,,,15,18,Man,Rechts,2,
,xotask,dotcolour,dotcolour,21,3,201,501,main,positivefb,-99,easy,,0.41777970000021014,['n'],1,right,['9'],5,0.220601699999861,7,,,,,,,15,18,Man,Rechts,2,
,xotask,dotcolour,dotcolour,22,3,202,502,main,positivefb,-99,hard,,0.35087690000000293,['n'],0,left,['9'],5,0.3741784000003463,51,,,,,,,15,18,Man,Rechts,2,
,xotask,dotcolour,dotcolour,23,3,203,503,main,positivefb,-99,average,,0.7332206000000951,['c'],1,left,['8'],4,0.19474880000007033,60,,,,,,,15,18,Man,Rechts,2,
,xotask,dotcolour,dotcolour,24,3,204,504,main,positivefb,-99,hard,,0.6514784000000873,['c'],1,left,['8'],4,0.15424659999962387,51,,,,,,,15,18,Man,Rechts,2,
,xotask,dotcolour,dotcolour,25,3,205,505,main,positivefb,-99,average,,0.6675510999998551,['c'],0,right,['8'],4,0.26683989999992264,15,,,,,,,15,18,Man,Rechts,2,
,xotask,dotcolour,dotcolour,26,3,206,506,main,positivefb,-99,hard,,2.117176400000062,['n'],0,left,['8'],4,0.25164649999987887,51,,,,,,,15,18,Man,Rechts,2,
,xotask,dotcolour,dotcolour,27,3,207,507,main,positivefb,-99,easy,,0.8175820000001295,['c'],1,left,['8'],4,0.13759070000014617,72,,,,,,,15,18,Man,Rechts,2,
,xotask,dotcolour,dotcolour,28,3,208,508,main,positivefb,-99,hard,,0.8010150000000067,['n'],1,right,['8'],4,0.23760419999962323,29,,,,,,,15,18,Man,Rechts,2,
,xotask,dotcolour,dotcolour,29,3,209,509,main,positivefb,-99,average,,0.9993604999999661,['c'],1,left,['8'],4,0.11744490000000951,64,,,,,,,15,18,Man,Rechts,2,
,xotask,dotcolour,dotcolour,30,3,210,510,main,positivefb,-99,easy,,0.734467599999789,['n'],1,right,['8'],4,0.21159310000030018,7,,,,,,,15,18,Man,Rechts,2,
,xotask,dotcolour,dotcolour,31,3,211,511,main,positivefb,-99,average,,0.6336241000003611,['n'],1,right,['8'],4,0.23432279999997263,19,,,,,,,15,18,Man,Rechts,2,
,xotask,dotcolour,dotcolour,32,3,212,512,main,positivefb,-99,hard,,0.4673417999997582,['n'],0,left,['3'],3,1.463966100000107,54,,,,,,,15,18,Man,Rechts,2,
,xotask,dotcolour,dotcolour,33,3,213,513,main,positivefb,-99,hard,,0.8999757999999929,['c'],1,left,['8'],4,0.2107880000003206,51,,,,,,,15,18,Man,Rechts,2,
,xotask,dotcolour,dotcolour,34,3,214,514,main,positivefb,-99,easy,,0.5506014000002324,['c'],1,left,['8'],4,0.32518249999975524,71,,,,,,,15,18,Man,Rechts,2,
,xotask,dotcolour,dotcolour,35,3,215,515,main,positivefb,-99,easy,,0.7667953999998645,['n'],1,right,['0'],6,0.25076179999996384,9,,,,,,,15,18,Man,Rechts,2,
,xotask,dotcolour,dotcolour,36,3,216,516,main,positivefb,-99,easy,,0.716222900000048,['n'],1,right,['8'],4,0.29276379999964774,7,,,,,,,15,18,Man,Rechts,2,
,xotask,dotcolour,dotcolour,37,3,217,517,main,positivefb,-99,hard,,0.799689799999669,['n'],0,left,['0'],6,0.17826070000000982,54,,,,,,,15,18,Man,Rechts,2,
,xotask,dotcolour,dotcolour,38,3,218,518,main,positivefb,-99,hard,,0.9513294999997015,['n'],1,right,['8'],4,0.3657999999995809,29,,,,,,,15,18,Man,Rechts,2,
,xotask,dotcolour,dotcolour,39,3,219,519,main,positivefb,-99,easy,,0.5009335000004285,['n'],1,right,['9'],5,0.3393490000003112,9,,,,,,,15,18,Man,Rechts,2,
,xotask,dotcolour,dotcolour,40,3,220,520,main,positivefb,-99,average,,0.41750050000018746,['n'],0,left,['3'],3,0.7506624999996347,60,,,,,,,15,18,Man,Rechts,2,
,xotask,dotcolour,dotcolour,41,3,221,521,main,positivefb,-99,average,,0.7340635999998995,['n'],1,right,['8'],4,0.2203577000000223,18,,,,,,,15,18,Man,Rechts,2,
,xotask,dotcolour,dotcolour,42,3,222,522,main,positivefb,-99,hard,,3.3173173000000133,['c'],1,left,['8'],4,0.1911686000003101,50,,,,,,,15,18,Man,Rechts,2,
,xotask,dotcolour,dotcolour,43,3,223,523,main,positivefb,-99,easy,,1.2174459999996543,['c'],1,left,['8'],4,0.16752110000015819,71,,,,,,,15,18,Man,Rechts,2,
,xotask,dotcolour,dotcolour,44,3,224,524,main,positivefb,-99,average,,0.5674125000000458,['c'],1,left,['9'],5,0.22762369999963994,62,,,,,,,15,18,Man,Rechts,2,
,xotask,dotcolour,dotcolour,45,3,225,525,main,positivefb,-99,hard,,0.7015670000000682,['c'],0,right,['3'],3,1.5756351999998515,26,,,,,,,15,18,Man,Rechts,2,
,xotask,dotcolour,dotcolour,46,3,226,526,main,positivefb,-99,average,,0.9348037999998269,['c'],1,left,['8'],4,0.23671060000015132,64,,,,,,,15,18,Man,Rechts,2,
,xotask,dotcolour,dotcolour,47,3,227,527,main,positivefb,-99,easy,,0.7177601000003051,['n'],1,right,['0'],6,0.19936109999980545,7,,,,,,,15,18,Man,Rechts,2,
,xotask,dotcolour,dotcolour,48,3,228,528,main,positivefb,-99,average,,0.6508982999998807,['c'],1,left,['0'],6,0.18155389999992622,62,,,,,,,15,18,Man,Rechts,2,
,xotask,dotcolour,dotcolour,49,3,229,529,main,positivefb,-99,average,,0.7163464000000204,['c'],1,left,['8'],4,0.6264627999998993,61,,,,,,,15,18,Man,Rechts,2,
,xotask,dotcolour,dotcolour,50,3,230,530,main,positivefb,-99,easy,,1.5177539000001161,['c'],1,left,['8'],4,0.1747307999999066,73,,,,,,,15,18,Man,Rechts,2,
,xotask,dotcolour,dotcolour,51,3,231,531,main,positivefb,-99,hard,,1.2169667000002846,['n'],1,right,['8'],4,0.31199000000015076,28,,,,,,,15,18,Man,Rechts,2,
,xotask,dotcolour,dotcolour,52,3,232,532,main,positivefb,-99,easy,,0.7837436999998317,['c'],1,left,['8'],4,0.2462148999998135,71,,,,,,,15,18,Man,Rechts,2,
,xotask,dotcolour,dotcolour,53,3,233,533,main,positivefb,-99,easy,,0.7003874000001815,['c'],1,left,['8'],4,0.22447220000003654,74,,,,,,,15,18,Man,Rechts,2,
,xotask,dotcolour,dotcolour,54,3,234,534,main,positivefb,-99,average,,0.6505191000001105,['n'],1,right,['8'],4,0.22284499999977925,18,,,,,,,15,18,Man,Rechts,2,
,xotask,dotcolour,dotcolour,55,3,235,535,main,positivefb,-99,hard,,0.766263600000002,['c'],0,right,['8'],4,0.2084233000000495,29,,,,,,,15,18,Man,Rechts,2,
,xotask,dotcolour,dotcolour,56,3,236,536,main,positivefb,-99,average,,1.083654099999876,['c'],1,left,['8'],4,0.1571390999997675,60,,,,,,,15,18,Man,Rechts,2,
,xotask,dotcolour,dotcolour,57,3,237,537,main,positivefb,-99,hard,,0.6352630999999747,['c'],0,right,['3'],3,1.4627222999997684,26,,,,,,,15,18,Man,Rechts,2,
,xotask,dotcolour,dotcolour,58,3,238,538,main,positivefb,-99,easy,,0.6011739999999008,['n'],0,left,['8'],4,0.2702021000000059,74,,,,,,,15,18,Man,Rechts,2,
,xotask,dotcolour,dotcolour,59,3,239,539,main,positivefb,-99,average,,2.6333410999995976,['c'],1,left,['8'],4,0.25838470000007874,60,,,,,,,15,18,Man,Rechts,2,
,xotask,dotcolour,dotcolour,0,4,240,540,main,positivefb,-99,easy,,0.9002654000000803,['n'],1,right,['8'],4,0.7148497000002862,5,,,,,,,15,18,Man,Rechts,2,
,xotask,dotcolour,dotcolour,1,4,241,541,main,positivefb,-99,easy,,0.6330993999999919,['n'],1,right,['0'],6,0.19890729999997347,5,,,,,,,15,18,Man,Rechts,2,
,xotask,dotcolour,dotcolour,2,4,242,542,main,positivefb,-99,easy,,0.5833861000000979,['c'],1,left,['8'],4,0.1517663000004177,72,,,,,,,15,18,Man,Rechts,2,
,xotask,dotcolour,dotcolour,3,4,243,543,main,positivefb,-99,average,,0.6842703000002075,['c'],1,left,['0'],6,0.44661139999971056,64,,,,,,,15,18,Man,Rechts,2,
,xotask,dotcolour,dotcolour,4,4,244,544,main,positivefb,-99,easy,,0.617797100000189,['c'],1,left,['0'],6,0.18929660000003423,70,,,,,,,15,18,Man,Rechts,2,
,xotask,dotcolour,dotcolour,5,4,245,545,main,positivefb,-99,easy,,0.4677393000001757,['n'],1,right,['9'],5,0.2842428999997537,9,,,,,,,15,18,Man,Rechts,2,
,xotask,dotcolour,dotcolour,6,4,246,546,main,positivefb,-99,average,,0.9839290999998411,['n'],1,right,['9'],5,0.2023749999998472,15,,,,,,,15,18,Man,Rechts,2,
,xotask,dotcolour,dotcolour,7,4,247,547,main,positivefb,-99,hard,,0.7163753999998335,['c'],1,left,['8'],4,0.27068069999995714,51,,,,,,,15,18,Man,Rechts,2,
,xotask,dotcolour,dotcolour,8,4,248,548,main,positivefb,-99,easy,,0.5350084000001516,['c'],1,left,['8'],4,0.22247349999997823,71,,,,,,,15,18,Man,Rechts,2,
,xotask,dotcolour,dotcolour,9,4,249,549,main,positivefb,-99,easy,,0.6517608999997719,['n'],1,right,['9'],5,0.25344859999995606,6,,,,,,,15,18,Man,Rechts,2,
,xotask,dotcolour,dotcolour,10,4,250,550,main,positivefb,-99,hard,,0.8844405999998344,['n'],0,left,['3'],3,1.0730782000000545,51,,,,,,,15,18,Man,Rechts,2,
,xotask,dotcolour,dotcolour,11,4,251,551,main,positivefb,-99,average,,0.9839600999998765,['c'],1,left,['8'],4,0.21516790000032415,62,,,,,,,15,18,Man,Rechts,2,
,xotask,dotcolour,dotcolour,12,4,252,552,main,positivefb,-99,average,,0.7006253000004108,['n'],1,right,['9'],5,0.2355401999998321,17,,,,,,,15,18,Man,Rechts,2,
,xotask,dotcolour,dotcolour,13,4,253,553,main,positivefb,-99,average,,0.8843716999999742,['n'],1,right,['9'],5,0.18310459999975137,19,,,,,,,15,18,Man,Rechts,2,
,xotask,dotcolour,dotcolour,14,4,254,554,main,positivefb,-99,easy,,0.6849945999997544,['c'],1,left,['9'],5,0.24495109999998022,73,,,,,,,15,18,Man,Rechts,2,
,xotask,dotcolour,dotcolour,15,4,255,555,main,positivefb,-99,average,,2.335302800000136,['c'],1,left,['8'],4,0.14430769999989934,61,,,,,,,15,18,Man,Rechts,2,
,xotask,dotcolour,dotcolour,16,4,256,556,main,positivefb,-99,average,,0.616927399999895,['c'],1,left,['9'],5,0.5301515000001018,64,,,,,,,15,18,Man,Rechts,2,
,xotask,dotcolour,dotcolour,17,4,257,557,main,positivefb,-99,average,,0.5339646000002176,['n'],1,right,['0'],6,0.1444600999998329,19,,,,,,,15,18,Man,Rechts,2,
,xotask,dotcolour,dotcolour,18,4,258,558,main,positivefb,-99,easy,,0.5179208999998082,['n'],0,left,['8'],4,0.9196256999998695,71,,,,,,,15,18,Man,Rechts,2,
,xotask,dotcolour,dotcolour,19,4,259,559,main,positivefb,-99,average,,1.7176048999999693,['n'],1,right,['0'],6,0.21457449999979872,15,,,,,,,15,18,Man,Rechts,2,
,xotask,dotcolour,dotcolour,20,4,260,560,main,positivefb,-99,easy,,0.5832768999998734,['c'],1,left,['0'],6,0.15129639999986466,73,,,,,,,15,18,Man,Rechts,2,
,xotask,dotcolour,dotcolour,21,4,261,561,main,positivefb,-99,hard,,0.9847147999998924,['n'],1,right,['0'],6,0.15463239999962752,29,,,,,,,15,18,Man,Rechts,2,
,xotask,dotcolour,dotcolour,22,4,262,562,main,positivefb,-99,average,,0.5840238000000681,['c'],1,left,['8'],4,0.13369959999999992,64,,,,,,,15,18,Man,Rechts,2,
,xotask,dotcolour,dotcolour,23,4,263,563,main,positivefb,-99,average,,0.7011831999998321,['n'],1,right,['0'],6,0.25395819999994274,18,,,,,,,15,18,Man,Rechts,2,
,xotask,dotcolour,dotcolour,24,4,264,564,main,positivefb,-99,easy,,0.5000276000000667,['c'],1,left,['0'],6,0.18450880000000325,74,,,,,,,15,18,Man,Rechts,2,
,xotask,dotcolour,dotcolour,25,4,265,565,main,positivefb,-99,hard,,3.05055560000028,['c'],1,left,['0'],6,0.40805009999985487,53,,,,,,,15,18,Man,Rechts,2,
,xotask,dotcolour,dotcolour,26,4,266,566,main,positivefb,-99,hard,,0.7013867000000573,['n'],1,right,['9'],5,0.31656059999977515,26,,,,,,,15,18,Man,Rechts,2,
,xotask,dotcolour,dotcolour,27,4,267,567,main,positivefb,-99,easy,,0.6182471000001897,['n'],1,right,['0'],6,0.13560159999997268,8,,,,,,,15,18,Man,Rechts,2,
,xotask,dotcolour,dotcolour,28,4,268,568,main,positivefb,-99,hard,,0.4990199999997458,['n'],1,right,['0'],6,0.17480340000020078,27,,,,,,,15,18,Man,Rechts,2,
,xotask,dotcolour,dotcolour,29,4,269,569,main,positivefb,-99,hard,,0.5671382999998968,['c'],1,left,['0'],6,0.17062440000017887,54,,,,,,,15,18,Man,Rechts,2,
,xotask,dotcolour,dotcolour,30,4,270,570,main,positivefb,-99,average,,0.6844830000000002,['c'],1,left,['0'],6,0.4573878000001059,63,,,,,,,15,18,Man,Rechts,2,
,xotask,dotcolour,dotcolour,31,4,271,571,main,positivefb,-99,average,,0.5833186999998361,['n'],1,right,['0'],6,0.1203654999999344,17,,,,,,,15,18,Man,Rechts,2,
,xotask,dotcolour,dotcolour,32,4,272,572,main,positivefb,-99,easy,,0.7674975999998424,['c'],1,left,['0'],6,0.294604199999867,73,,,,,,,15,18,Man,Rechts,2,
,xotask,dotcolour,dotcolour,33,4,273,573,main,positivefb,-99,easy,,0.6505138999996234,['c'],0,right,['1'],1,1.1693973000001279,7,,,,,,,15,18,Man,Rechts,2,
,xotask,dotcolour,dotcolour,34,4,274,574,main,positivefb,-99,hard,,0.7669186999996782,['n'],0,left,['0'],6,0.2047554000000673,54,,,,,,,15,18,Man,Rechts,2,
,xotask,dotcolour,dotcolour,35,4,275,575,main,positivefb,-99,average,,0.5673936000002868,['n'],1,right,['0'],6,0.19098559999974896,15,,,,,,,15,18,Man,Rechts,2,
,xotask,dotcolour,dotcolour,36,4,276,576,main,positivefb,-99,easy,,0.6673123000000487,['n'],1,right,['0'],6,0.15755029999991166,8,,,,,,,15,18,Man,Rechts,2,
,xotask,dotcolour,dotcolour,37,4,277,577,main,positivefb,-99,average,,1.5176007000000027,['c'],1,left,['8'],4,0.21178770000005898,64,,,,,,,15,18,Man,Rechts,2,
,xotask,dotcolour,dotcolour,38,4,278,578,main,positivefb,-99,average,,0.9019146000000546,['c'],1,left,['9'],5,0.3284171000000242,64,,,,,,,15,18,Man,Rechts,2,
,xotask,dotcolour,dotcolour,39,4,279,579,main,positivefb,-99,average,,0.6340417000001253,['n'],1,right,['0'],6,0.29883680000011736,15,,,,,,,15,18,Man,Rechts,2,
,xotask,dotcolour,dotcolour,40,4,280,580,main,positivefb,-99,easy,,0.6677774999998292,['n'],0,left,['9'],5,0.46946580000030735,71,,,,,,,15,18,Man,Rechts,2,
,xotask,dotcolour,dotcolour,41,4,281,581,main,positivefb,-99,easy,,0.6007401000001664,['n'],1,right,['0'],6,0.17082100000015998,7,,,,,,,15,18,Man,Rechts,2,
,xotask,dotcolour,dotcolour,42,4,282,582,main,positivefb,-99,hard,,0.4508931999998822,['n'],1,right,['0'],6,0.2512463999996726,27,,,,,,,15,18,Man,Rechts,2,
,xotask,dotcolour,dotcolour,43,4,283,583,main,positivefb,-99,hard,,0.7509734999998727,['n'],1,right,['0'],6,0.17241760000024442,26,,,,,,,15,18,Man,Rechts,2,
,xotask,dotcolour,dotcolour,44,4,284,584,main,positivefb,-99,hard,,0.9838333999996394,['c'],1,left,['8'],4,0.23073649999969348,54,,,,,,,15,18,Man,Rechts,2,
,xotask,dotcolour,dotcolour,45,4,285,585,main,positivefb,-99,hard,,0.6842765999999756,['n'],0,left,['8'],4,0.8749535000001742,53,,,,,,,15,18,Man,Rechts,2,
,xotask,dotcolour,dotcolour,46,4,286,586,main,positivefb,-99,easy,,0.6673796999998558,['n'],1,right,['0'],6,0.19012270000030185,7,,,,,,,15,18,Man,Rechts,2,
,xotask,dotcolour,dotcolour,47,4,287,587,main,positivefb,-99,hard,,0.4507521000000452,['n'],1,right,['0'],6,0.22143730000016149,29,,,,,,,15,18,Man,Rechts,2,
,xotask,dotcolour,dotcolour,48,4,288,588,main,positivefb,-99,hard,,0.4503381999998055,['n'],1,right,['0'],6,0.1881865000000289,26,,,,,,,15,18,Man,Rechts,2,
,xotask,dotcolour,dotcolour,49,4,289,589,main,positivefb,-99,hard,,0.40139899999985573,['n'],0,left,['0'],6,0.2533333000001221,50,,,,,,,15,18,Man,Rechts,2,
,xotask,dotcolour,dotcolour,50,4,290,590,main,positivefb,-99,average,,0.46703630000001795,['n'],1,right,['9'],5,0.35328549999985626,18,,,,,,,15,18,Man,Rechts,2,
,xotask,dotcolour,dotcolour,51,4,291,591,main,positivefb,-99,hard,,0.3839239999997517,['n'],1,right,['0'],6,0.31665220000013505,29,,,,,,,15,18,Man,Rechts,2,
,xotask,dotcolour,dotcolour,52,4,292,592,main,positivefb,-99,easy,,0.4174189000000297,['n'],1,right,['9'],5,0.26370970000016314,8,,,,,,,15,18,Man,Rechts,2,
,xotask,dotcolour,dotcolour,53,4,293,593,main,positivefb,-99,average,,0.6994432999999844,['n'],0,left,['9'],5,0.9555050999997547,60,,,,,,,15,18,Man,Rechts,2,
,xotask,dotcolour,dotcolour,54,4,294,594,main,positivefb,-99,hard,,0.4835262000001421,['n'],1,right,['8'],4,0.2986197000000175,25,,,,,,,15,18,Man,Rechts,2,
,xotask,dotcolour,dotcolour,55,4,295,595,main,positivefb,-99,hard,,0.4017001000001983,['n'],0,left,['8'],4,0.24722130000009201,54,,,,,,,15,18,Man,Rechts,2,
,xotask,dotcolour,dotcolour,56,4,296,596,main,positivefb,-99,hard,,0.4007034000001113,['n'],1,right,['8'],4,0.2384940000001734,26,,,,,,,15,18,Man,Rechts,2,
,xotask,dotcolour,dotcolour,57,4,297,597,main,positivefb,-99,easy,,0.43358249999982945,['n'],0,left,['2'],2,1.8200864000000365,74,,,,,,,15,18,Man,Rechts,2,
,xotask,dotcolour,dotcolour,58,4,298,598,main,positivefb,-99,average,,0.8334019000003536,['c'],1,left,['8'],4,0.16322900000022855,64,,,,,,,15,18,Man,Rechts,2,
,xotask,dotcolour,dotcolour,59,4,299,599,main,positivefb,-99,hard,,0.4008899000000383,['c'],1,left,['9'],5,0.5172278999998525,51,,,,,,,15,18,Man,Rechts,2,
,dotcolour,dotcolour,dotcolour,0,0,0,600,training,positivefb,93,hard,43,0.6835568000001331,['c'],1,left,['8'],4,0.1370584000001145,,,,,,,,15,18,Man,Rechts,2,
,dotcolour,dotcolour,dotcolour,1,0,1,601,training,positivefb,97,easy,63,0.39996019999989585,['c'],1,left,['8'],4,0.18706890000021303,,,,,,,,15,18,Man,Rechts,2,
,dotcolour,dotcolour,dotcolour,2,0,2,602,training,positivefb,96,average,51,0.2662765000000036,['c'],1,left,['8'],4,0.160751700000219,,,,,,,,15,18,Man,Rechts,2,
,dotcolour,dotcolour,dotcolour,3,0,3,603,training,positivefb,95,average,54,0.46720120000009047,['c'],1,left,['8'],4,0.1530737000002773,,,,,,,,15,18,Man,Rechts,2,
,dotcolour,dotcolour,dotcolour,4,0,4,604,training,positivefb,95,hard,43,0.4516927999998188,['c'],1,left,['9'],5,0.2325196000001597,,,,,,,,15,18,Man,Rechts,2,
,dotcolour,dotcolour,dotcolour,5,0,5,605,training,positivefb,90,hard,42,0.6504736000001685,['c'],1,left,['8'],4,0.07003080000004047,,,,,,,,15,18,Man,Rechts,2,
,dotcolour,dotcolour,dotcolour,6,0,6,606,training,positivefb,96,average,27,0.6321935000000849,['n'],1,right,['0'],6,0.08952789999966626,,,,,,,,15,18,Man,Rechts,2,
,dotcolour,dotcolour,dotcolour,7,0,7,607,training,positivefb,97,hard,41,0.5991715000000113,['n'],0,left,['0'],6,0.11032500000010259,,,,,,,,15,18,Man,Rechts,2,
,dotcolour,dotcolour,dotcolour,8,0,8,608,training,positivefb,96,easy,63,0.5838788000000932,['c'],1,left,['0'],6,0.14698120000002746,,,,,,,,15,18,Man,Rechts,2,
,dotcolour,dotcolour,dotcolour,9,0,9,609,training,positivefb,97,hard,42,0.6989557000001696,['c'],1,left,['9'],5,0.442080100000112,,,,,,,,15,18,Man,Rechts,2,
,dotcolour,dotcolour,dotcolour,10,0,10,610,training,positivefb,80,hard,44,0.7492068000001382,['n'],0,left,['8'],4,0.27477330000010625,,,,,,,,15,18,Man,Rechts,2,
,dotcolour,dotcolour,dotcolour,11,0,11,611,training,positivefb,99,average,27,0.5172339999999167,['n'],1,right,['8'],4,0.21069729999999254,,,,,,,,15,18,Man,Rechts,2,
,dotcolour,dotcolour,dotcolour,12,0,12,612,training,positivefb,97,hard,42,0.5152291999997942,['n'],0,left,['0'],6,0.1186041999999361,,,,,,,,15,18,Man,Rechts,2,
,dotcolour,dotcolour,dotcolour,13,0,13,613,training,positivefb,89,easy,19,0.5829513999997289,['n'],1,right,['0'],6,0.0988376000000244,,,,,,,,15,18,Man,Rechts,2,
,dotcolour,dotcolour,dotcolour,14,0,14,614,training,positivefb,64,easy,61,0.5846850000002632,['c'],1,left,['0'],6,0.11163639999995212,,,,,,,,15,18,Man,Rechts,2,
,dotcolour,dotcolour,dotcolour,15,0,15,615,training,positivefb,94,average,26,0.6170236999996632,['n'],1,right,['0'],6,0.13120150000031572,,,,,,,,15,18,Man,Rechts,2,
,dotcolour,dotcolour,dotcolour,16,0,16,616,training,positivefb,77,easy,15,0.8834577999996327,['c'],0,right,['0'],6,0.1713119999999435,,,,,,,,15,18,Man,Rechts,2,
,dotcolour,dotcolour,dotcolour,17,0,17,617,training,positivefb,97,easy,62,0.6326021999998375,['c'],1,left,['0'],6,0.1155917999999474,,,,,,,,15,18,Man,Rechts,2,
,dotcolour,dotcolour,dotcolour,18,0,18,618,training,positivefb,93,average,28,0.6491492999998627,['n'],1,right,['0'],6,0.14033299999982773,,,,,,,,15,18,Man,Rechts,2,
,dotcolour,dotcolour,dotcolour,19,0,19,619,training,positivefb,98,easy,16,0.5004017000001113,['n'],1,right,['0'],6,0.1554081999997834,,,,,,,,15,18,Man,Rechts,2,
,dotcolour,dotcolour,dotcolour,20,0,20,620,training,positivefb,96,average,53,0.5324823999999353,['c'],1,left,['0'],6,0.07991360000005443,,,,,,,,15,18,Man,Rechts,2,
,dotcolour,dotcolour,dotcolour,21,0,21,621,training,positivefb,83,hard,36,0.7330778000000464,['c'],0,right,['8'],4,0.17609310000034384,,,,,,,,15,18,Man,Rechts,2,
,dotcolour,dotcolour,dotcolour,22,0,22,622,training,positivefb,73,easy,18,0.6680041999998139,['c'],0,right,['1'],1,0.7989112999998724,,,,,,,,15,18,Man,Rechts,2,
,dotcolour,dotcolour,dotcolour,23,0,23,623,training,positivefb,92,easy,63,1.4168801999999232,['c'],1,left,['0'],6,0.15790049999986877,,,,,,,,15,18,Man,Rechts,2,
,dotcolour,dotcolour,dotcolour,24,0,24,624,training,positivefb,95,hard,38,0.6336248000002342,['n'],1,right,['0'],6,0.14272879999998622,,,,,,,,15,18,Man,Rechts,2,
