starttime,task,fbtask,firsttask,withinblocktrial,block,withintasktrial,trial,running,feedback,fbscore,difflevel,n_xes,rt,resp,cor,cresp,conf_press,cj,RTconf,reddots,post1,post3,post4,post5,stoptime,sub,age,gender,handedness,session,
1715324408,xotask,xotask,dotcolour,0,0,0,0,training,positivefb,96,hard,28,1.0343635000000404,['n'],1,right,['2'],5,1.3477861999999732,,,,,,,3,19,Man,Rechts,2,
,xotask,xotask,dotcolour,1,0,1,1,training,positivefb,69,hard,25,0.8174327000000403,['n'],1,right,['1'],6,0.36514549999992596,,,,,,,3,19,Man,Rechts,2,
,xotask,xotask,dotcolour,2,0,2,2,training,positivefb,67,average,60,2.800644499999976,['n'],0,left,['3'],4,0.47061439999993127,,,,,,,3,19,Man,Rechts,2,
,xotask,xotask,dotcolour,3,0,3,3,training,positivefb,98,easy,70,0.9335661000000073,['c'],1,left,['1'],6,0.358507599999939,,,,,,,3,19,Man,Rechts,2,
,xotask,xotask,dotcolour,4,0,4,4,training,positivefb,86,hard,52,1.5340852000000496,['c'],1,left,['2'],5,0.12301830000001246,,,,,,,3,19,Man,Rechts,2,
,xotask,xotask,dotcolour,5,0,5,5,training,positivefb,96,average,15,0.749685599999907,['n'],1,right,['1'],6,0.1845519000000877,,,,,,,3,19,Man,Rechts,2,
,xotask,xotask,dotcolour,6,0,6,6,training,positivefb,94,hard,26,0.91721849999999,['n'],1,right,['1'],6,0.13284550000003037,,,,,,,3,19,Man,Rechts,2,
,xotask,xotask,dotcolour,7,0,7,7,training,positivefb,94,hard,28,0.6003242000000455,['n'],1,right,['1'],6,0.16729899999995723,,,,,,,3,19,Man,Rechts,2,
,xotask,xotask,dotcolour,8,0,8,8,training,positivefb,90,hard,51,1.0344463000000133,['c'],1,left,['2'],5,0.2796260000000075,,,,,,,3,19,Man,Rechts,2,
,xotask,xotask,dotcolour,9,0,9,9,training,positivefb,90,easy,73,0.6494777999999997,['c'],1,left,['1'],6,0.43447660000003907,,,,,,,3,19,Man,Rechts,2,
,xotask,xotask,dotcolour,10,0,10,10,training,positivefb,90,easy,74,0.516534399999955,['c'],1,left,['1'],6,0.17257649999999103,,,,,,,3,19,Man,Rechts,2,
,xotask,xotask,dotcolour,11,0,11,11,training,positivefb,77,hard,54,1.333541099999934,['c'],1,left,['2'],5,0.08049730000004729,,,,,,,3,19,Man,Rechts,2,
,xotask,xotask,dotcolour,12,0,12,12,training,positivefb,96,easy,72,1.0167822999999316,['c'],1,left,['3'],4,0.17359750000002805,,,,,,,3,19,Man,Rechts,2,
,xotask,xotask,dotcolour,13,0,13,13,training,positivefb,98,average,64,0.9840370999999095,['c'],1,left,['3'],4,0.2072725000000446,,,,,,,3,19,Man,Rechts,2,
,xotask,xotask,dotcolour,14,0,14,14,training,positivefb,96,easy,6,0.5846555000000535,['n'],1,right,['1'],6,0.08838789999992969,,,,,,,3,19,Man,Rechts,2,
,xotask,xotask,dotcolour,15,0,15,15,training,positivefb,97,easy,9,0.516407099999924,['n'],1,right,['1'],6,0.0322280000000319,,,,,,,3,19,Man,Rechts,2,
,xotask,xotask,dotcolour,16,0,16,16,training,positivefb,93,hard,50,1.2502522000000909,['c'],1,left,['3'],4,0.3247237000000496,,,,,,,3,19,Man,Rechts,2,
,xotask,xotask,dotcolour,17,0,17,17,training,positivefb,86,easy,8,0.8504636999999775,['n'],1,right,['1'],6,0.13408960000003844,,,,,,,3,19,Man,Rechts,2,
,xotask,xotask,dotcolour,18,0,18,18,training,positivefb,93,average,16,0.6329021999999895,['n'],1,right,['1'],6,0.055471199999942655,,,,,,,3,19,Man,Rechts,2,
,xotask,xotask,dotcolour,19,0,19,19,training,positivefb,96,easy,71,0.6005821999999625,['c'],1,left,['1'],6,0.07738829999993868,,,,,,,3,19,Man,Rechts,2,
,xotask,xotask,dotcolour,20,0,20,20,training,positivefb,92,average,16,0.7667271999999912,['n'],1,right,['2'],5,0.1241367000000082,,,,,,,3,19,Man,Rechts,2,
,xotask,xotask,dotcolour,21,0,21,21,training,positivefb,99,average,64,0.6494069999999965,['c'],1,left,['2'],5,1.0139537999999675,,,,,,,3,19,Man,Rechts,2,
,xotask,xotask,dotcolour,22,0,22,22,training,positivefb,97,easy,6,0.6170487000000549,['n'],1,right,['1'],6,0.09267399999998815,,,,,,,3,19,Man,Rechts,2,
,xotask,xotask,dotcolour,23,0,23,23,training,positivefb,79,average,18,1.2000883999999132,['n'],1,right,['1'],6,0.16137449999996534,,,,,,,3,19,Man,Rechts,2,
,xotask,xotask,dotcolour,24,0,24,24,training,positivefb,91,easy,6,0.6011561000000256,['n'],1,right,['1'],6,0.10777470000004996,,,,,,,3,19,Man,Rechts,2,
,xotask,xotask,dotcolour,25,0,25,25,training,positivefb,97,easy,74,0.7510711999999558,['c'],1,left,['3'],4,0.4175384000000122,,,,,,,3,19,Man,Rechts,2,
,xotask,xotask,dotcolour,26,0,26,26,training,positivefb,100,average,64,0.8845512000000326,['c'],1,left,['8'],3,1.5258109000000104,,,,,,,3,19,Man,Rechts,2,
,xotask,xotask,dotcolour,27,0,27,27,training,positivefb,89,average,19,1.033961999999974,['n'],1,right,['1'],6,0.09486660000004576,,,,,,,3,19,Man,Rechts,2,
,xotask,xotask,dotcolour,28,0,28,28,training,positivefb,96,average,61,1.1336933000000045,['c'],1,left,['3'],4,0.32661830000006375,,,,,,,3,19,Man,Rechts,2,
,xotask,xotask,dotcolour,29,0,29,29,training,positivefb,93,average,63,1.1661415999999463,['c'],1,left,['2'],5,0.475354799999991,,,,,,,3,19,Man,Rechts,2,
,xotask,xotask,dotcolour,30,0,30,30,training,positivefb,91,easy,8,0.7505281999999625,['n'],1,right,['1'],6,0.07429990000002817,,,,,,,3,19,Man,Rechts,2,
,xotask,xotask,dotcolour,31,0,31,31,training,positivefb,79,average,62,2.316656299999977,['c'],1,left,['3'],4,0.6028917999999521,,,,,,,3,19,Man,Rechts,2,
,xotask,xotask,dotcolour,32,0,32,32,training,positivefb,92,easy,71,0.9835816000000932,['c'],1,left,['1'],6,0.21153370000001814,,,,,,,3,19,Man,Rechts,2,
,xotask,xotask,dotcolour,33,0,33,33,training,positivefb,88,hard,52,1.467381199999977,['n'],0,left,['1'],6,0.07320790000005672,,,,,,,3,19,Man,Rechts,2,
,xotask,xotask,dotcolour,34,0,34,34,training,positivefb,81,average,60,0.766747099999975,['c'],1,left,['2'],5,0.2319251000000122,,,,,,,3,19,Man,Rechts,2,
,xotask,xotask,dotcolour,35,0,35,35,training,positivefb,94,hard,28,0.9501252000000022,['n'],1,right,['1'],6,0.10436060000006364,,,,,,,3,19,Man,Rechts,2,
,xotask,xotask,dotcolour,36,0,36,36,training,positivefb,92,easy,71,0.8503681000000824,['c'],1,left,['1'],6,0.14633119999996325,,,,,,,3,19,Man,Rechts,2,
,xotask,xotask,dotcolour,37,0,37,37,training,positivefb,84,hard,52,0.8994171999999026,['c'],1,left,['3'],4,0.24914830000000165,,,,,,,3,19,Man,Rechts,2,
,xotask,xotask,dotcolour,38,0,38,38,training,positivefb,97,hard,27,0.6174432999999908,['n'],1,right,['1'],6,0.07857260000002952,,,,,,,3,19,Man,Rechts,2,
,xotask,xotask,dotcolour,39,0,39,39,training,positivefb,97,easy,73,0.7162480999999161,['c'],1,left,['1'],6,0.10310179999999036,,,,,,,3,19,Man,Rechts,2,
,xotask,xotask,dotcolour,40,0,40,40,training,positivefb,76,hard,29,2.2339604999999665,['n'],1,right,['3'],4,0.08219710000003033,,,,,,,3,19,Man,Rechts,2,
,xotask,xotask,dotcolour,41,0,41,41,training,positivefb,95,hard,25,0.7331040999999914,['n'],1,right,['1'],6,0.04122899999993024,,,,,,,3,19,Man,Rechts,2,
,xotask,xotask,dotcolour,42,0,42,42,training,positivefb,98,hard,29,0.5994887000000517,['n'],1,right,['1'],6,0.10382979999997133,,,,,,,3,19,Man,Rechts,2,
,xotask,xotask,dotcolour,43,0,43,43,training,positivefb,77,hard,54,2.0662108999999873,['c'],1,left,['2'],5,0.14518280000004324,,,,,,,3,19,Man,Rechts,2,
,xotask,xotask,dotcolour,44,0,44,44,training,positivefb,81,hard,52,2.4507971000000452,['c'],1,left,['3'],4,0.04213479999998526,,,,,,,3,19,Man,Rechts,2,
,xotask,xotask,dotcolour,45,0,45,45,training,positivefb,94,average,15,0.7001409000000649,['n'],1,right,['1'],6,0.03655570000000807,,,,,,,3,19,Man,Rechts,2,
,xotask,xotask,dotcolour,46,0,46,46,training,positivefb,98,average,17,0.5338567000000012,['n'],1,right,['1'],6,0.04592220000006364,,,,,,,3,19,Man,Rechts,2,
,xotask,xotask,dotcolour,47,0,47,47,training,positivefb,97,easy,7,0.5509547000000339,['n'],1,right,['1'],6,0.046647599999914746,,,,,,,3,19,Man,Rechts,2,
,xotask,xotask,dotcolour,48,0,48,48,training,positivefb,83,hard,25,1.33297749999997,['n'],1,right,['3'],4,0.15999539999995704,,,,,,,3,19,Man,Rechts,2,
,xotask,xotask,dotcolour,49,0,49,49,training,positivefb,98,average,18,0.9666447000000744,['n'],1,right,['2'],5,0.21138410000003205,,,,,,,3,19,Man,Rechts,2,
,xotask,xotask,dotcolour,50,0,50,50,training,positivefb,81,hard,53,0.9663937999999916,['n'],0,left,['1'],6,0.22069039999996676,,,,,,,3,19,Man,Rechts,2,
,xotask,xotask,dotcolour,51,0,51,51,training,positivefb,98,average,15,0.5666009000000258,['n'],1,right,['1'],6,0.07739379999998164,,,,,,,3,19,Man,Rechts,2,
,xotask,xotask,dotcolour,52,0,52,52,training,positivefb,94,average,64,0.816287500000044,['c'],1,left,['1'],6,0.08222659999989901,,,,,,,3,19,Man,Rechts,2,
,xotask,xotask,dotcolour,53,0,53,53,training,positivefb,90,average,18,0.6839595000000145,['n'],1,right,['1'],6,0.09927259999994931,,,,,,,3,19,Man,Rechts,2,
,xotask,xotask,dotcolour,54,0,54,54,training,positivefb,68,average,60,1.8510707000000366,['n'],0,left,['2'],5,0.48539929999992637,,,,,,,3,19,Man,Rechts,2,
,xotask,xotask,dotcolour,55,0,55,55,training,positivefb,55,hard,50,1.7162074000000302,['n'],0,left,['3'],4,0.3974522999999408,,,,,,,3,19,Man,Rechts,2,
,xotask,xotask,dotcolour,56,0,56,56,training,positivefb,92,easy,6,0.8007155000000239,['n'],1,right,['1'],6,0.038255900000081056,,,,,,,3,19,Man,Rechts,2,
,xotask,xotask,dotcolour,57,0,57,57,training,positivefb,96,easy,7,0.5831922999999506,['n'],1,right,['1'],6,0.06165449999991779,,,,,,,3,19,Man,Rechts,2,
,xotask,xotask,dotcolour,58,0,58,58,training,positivefb,95,easy,6,0.5838404999999511,['n'],1,right,['1'],6,0.07588779999991857,,,,,,,3,19,Man,Rechts,2,
,xotask,xotask,dotcolour,59,0,59,59,training,positivefb,86,easy,70,0.9667754000000741,['c'],1,left,['1'],6,0.0828427000000147,,,,,,,3,19,Man,Rechts,2,
,xotask,xotask,dotcolour,0,1,60,60,training,positivefb,91,hard,52,2.849570099999937,['c'],1,left,['3'],4,0.22925009999994472,,,,,,,3,19,Man,Rechts,2,
,xotask,xotask,dotcolour,1,1,61,61,training,positivefb,98,average,15,0.5998660999999856,['n'],1,right,['1'],6,0.084209499999929,,,,,,,3,19,Man,Rechts,2,
,xotask,xotask,dotcolour,2,1,62,62,training,positivefb,75,hard,50,2.083706300000017,['n'],0,left,['2'],5,0.21352410000008604,,,,,,,3,19,Man,Rechts,2,
,xotask,xotask,dotcolour,3,1,63,63,training,positivefb,97,average,60,0.8003542000000152,['c'],1,left,['1'],6,0.09346610000000055,,,,,,,3,19,Man,Rechts,2,
,xotask,xotask,dotcolour,4,1,64,64,training,positivefb,92,easy,74,0.7503860000000486,['c'],1,left,['1'],6,0.04426860000000943,,,,,,,3,19,Man,Rechts,2,
,xotask,xotask,dotcolour,5,1,65,65,training,positivefb,91,average,61,1.4331887999999253,['n'],0,left,['3'],4,0.20184299999993982,,,,,,,3,19,Man,Rechts,2,
,xotask,xotask,dotcolour,6,1,66,66,training,positivefb,93,hard,25,0.6166977999999972,['n'],1,right,['1'],6,0.0727847999999085,,,,,,,3,19,Man,Rechts,2,
,xotask,xotask,dotcolour,7,1,67,67,training,positivefb,96,average,15,0.5166276999999582,['n'],1,right,['1'],6,0.0337378000000399,,,,,,,3,19,Man,Rechts,2,
,xotask,xotask,dotcolour,8,1,68,68,training,positivefb,83,easy,74,0.8832247999999936,['c'],1,left,['2'],5,0.5973448999999391,,,,,,,3,19,Man,Rechts,2,
,xotask,xotask,dotcolour,9,1,69,69,training,positivefb,94,hard,26,0.9507886999999755,['n'],1,right,['1'],6,0.07145439999999326,,,,,,,3,19,Man,Rechts,2,
,xotask,xotask,dotcolour,10,1,70,70,training,positivefb,94,easy,8,0.6505467000000635,['n'],1,right,['1'],6,0.12304440000002614,,,,,,,3,19,Man,Rechts,2,
,xotask,xotask,dotcolour,11,1,71,71,training,positivefb,75,easy,72,0.7503987999999708,['c'],1,left,['2'],5,0.9443564000000606,,,,,,,3,19,Man,Rechts,2,
,xotask,xotask,dotcolour,12,1,72,72,training,positivefb,86,average,62,1.2843189999999822,['c'],1,left,['2'],5,0.07984630000009929,,,,,,,3,19,Man,Rechts,2,
,xotask,xotask,dotcolour,13,1,73,73,training,positivefb,93,easy,5,0.683405300000004,['n'],1,right,['1'],6,0.03374769999993532,,,,,,,3,19,Man,Rechts,2,
,xotask,xotask,dotcolour,14,1,74,74,training,positivefb,93,average,16,0.5996741000000156,['n'],1,right,['1'],6,0.16042520000007698,,,,,,,3,19,Man,Rechts,2,
,xotask,xotask,dotcolour,15,1,75,75,training,positivefb,96,easy,74,1.0000140999999303,['c'],1,left,['1'],6,0.34650839999994787,,,,,,,3,19,Man,Rechts,2,
,xotask,xotask,dotcolour,16,1,76,76,training,positivefb,79,average,63,0.6161766999999827,['c'],1,left,['2'],5,0.32449959999996736,,,,,,,3,19,Man,Rechts,2,
,xotask,xotask,dotcolour,17,1,77,77,training,positivefb,92,easy,72,1.0997919000000138,['c'],1,left,['1'],6,0.043771200000037425,,,,,,,3,19,Man,Rechts,2,
,xotask,xotask,dotcolour,18,1,78,78,training,positivefb,82,easy,72,1.6997926000000234,['c'],1,left,['2'],5,0.07061179999993783,,,,,,,3,19,Man,Rechts,2,
,xotask,xotask,dotcolour,19,1,79,79,training,positivefb,94,easy,70,0.9012592999999924,['c'],1,left,['1'],6,0.0717867999999271,,,,,,,3,19,Man,Rechts,2,
,xotask,xotask,dotcolour,20,1,80,80,training,positivefb,98,average,63,0.6833192000000281,['c'],1,left,['1'],6,0.06586879999997564,,,,,,,3,19,Man,Rechts,2,
,xotask,xotask,dotcolour,21,1,81,81,training,positivefb,90,average,62,1.399435599999947,['n'],0,left,['2'],5,0.12707320000004074,,,,,,,3,19,Man,Rechts,2,
,xotask,xotask,dotcolour,22,1,82,82,training,positivefb,89,hard,29,0.7338836000000128,['n'],1,right,['1'],6,0.14913860000001478,,,,,,,3,19,Man,Rechts,2,
,xotask,xotask,dotcolour,23,1,83,83,training,positivefb,91,hard,29,0.8507005999999819,['n'],1,right,['1'],6,0.029238599999985126,,,,,,,3,19,Man,Rechts,2,
,xotask,xotask,dotcolour,24,1,84,84,training,positivefb,98,hard,27,0.6163783999999168,['n'],1,right,['1'],6,0.09959390000005897,,,,,,,3,19,Man,Rechts,2,
,xotask,xotask,dotcolour,25,1,85,85,training,positivefb,91,hard,29,1.5005772000000661,['n'],1,right,['2'],5,0.33998799999994844,,,,,,,3,19,Man,Rechts,2,
,xotask,xotask,dotcolour,26,1,86,86,training,positivefb,97,easy,70,0.6176860000000488,['c'],1,left,['1'],6,0.09385190000000421,,,,,,,3,19,Man,Rechts,2,
,xotask,xotask,dotcolour,27,1,87,87,training,positivefb,88,average,15,0.7176686000000245,['n'],1,right,['1'],6,0.07796310000003359,,,,,,,3,19,Man,Rechts,2,
,xotask,xotask,dotcolour,28,1,88,88,training,positivefb,95,easy,7,0.6837201000000732,['n'],1,right,['1'],6,0.03179059999990841,,,,,,,3,19,Man,Rechts,2,
,xotask,xotask,dotcolour,29,1,89,89,training,positivefb,84,hard,51,2.217853600000126,['c'],1,left,['3'],4,0.08594800000014402,,,,,,,3,19,Man,Rechts,2,
,xotask,xotask,dotcolour,30,1,90,90,training,positivefb,91,easy,5,2.051274800000101,['n'],1,right,['1'],6,0.09656410000002325,,,,,,,3,19,Man,Rechts,2,
,xotask,xotask,dotcolour,31,1,91,91,training,positivefb,90,easy,5,0.9834312999998929,['n'],1,right,['1'],6,0.061861300000146,,,,,,,3,19,Man,Rechts,2,
,xotask,xotask,dotcolour,32,1,92,92,training,positivefb,84,average,17,3.316033999999945,['n'],1,right,['1'],6,0.10338419999993675,,,,,,,3,19,Man,Rechts,2,
,xotask,xotask,dotcolour,33,1,93,93,training,positivefb,97,easy,9,0.7328606999999465,['n'],1,right,['1'],6,0.1020779999998922,,,,,,,3,19,Man,Rechts,2,
,xotask,xotask,dotcolour,34,1,94,94,training,positivefb,79,hard,53,2.600365799999963,['c'],1,left,['3'],4,1.1700518000000102,,,,,,,3,19,Man,Rechts,2,
,xotask,xotask,dotcolour,35,1,95,95,training,positivefb,77,hard,28,1.4330939000001308,['n'],1,right,['1'],6,0.050096899999971356,,,,,,,3,19,Man,Rechts,2,
,xotask,xotask,dotcolour,36,1,96,96,training,positivefb,93,hard,28,0.9012612999999874,['n'],1,right,['2'],5,0.12419139999997242,,,,,,,3,19,Man,Rechts,2,
,xotask,xotask,dotcolour,37,1,97,97,training,positivefb,92,average,62,1.4168918000000303,['c'],1,left,['2'],5,0.12684660000013537,,,,,,,3,19,Man,Rechts,2,
,xotask,xotask,dotcolour,38,1,98,98,training,positivefb,99,hard,54,0.8502346000000216,['c'],1,left,['2'],5,0.24044279999998253,,,,,,,3,19,Man,Rechts,2,
,xotask,xotask,dotcolour,39,1,99,99,training,positivefb,94,easy,72,1.1178705000002083,['c'],1,left,['2'],5,0.1930672000000868,,,,,,,3,19,Man,Rechts,2,
,xotask,xotask,dotcolour,40,1,100,100,training,positivefb,95,easy,8,0.6011915000001409,['n'],1,right,['1'],6,0.050839300000006915,,,,,,,3,19,Man,Rechts,2,
,xotask,xotask,dotcolour,41,1,101,101,training,positivefb,94,average,17,0.5835867999999209,['n'],1,right,['1'],6,0.12940119999984745,,,,,,,3,19,Man,Rechts,2,
,xotask,xotask,dotcolour,42,1,102,102,training,positivefb,96,average,61,1.050035600000001,['c'],1,left,['2'],5,0.13834270000006654,,,,,,,3,19,Man,Rechts,2,
,xotask,xotask,dotcolour,43,1,103,103,training,positivefb,94,average,15,0.5832632999999987,['n'],1,right,['1'],6,0.0851143999998385,,,,,,,3,19,Man,Rechts,2,
,xotask,xotask,dotcolour,44,1,104,104,training,positivefb,95,average,15,0.6671757999999954,['n'],1,right,['1'],6,0.06364340000004631,,,,,,,3,19,Man,Rechts,2,
,xotask,xotask,dotcolour,45,1,105,105,training,positivefb,96,easy,5,0.5495181999999659,['n'],1,right,['1'],6,0.023162999999840395,,,,,,,3,19,Man,Rechts,2,
,xotask,xotask,dotcolour,46,1,106,106,training,positivefb,96,easy,8,0.5162420000001475,['n'],1,right,['1'],6,0.010557900000094378,,,,,,,3,19,Man,Rechts,2,
,xotask,xotask,dotcolour,47,1,107,107,training,positivefb,95,hard,27,0.6323308999999426,['n'],1,right,['1'],6,0.01653919999989739,,,,,,,3,19,Man,Rechts,2,
,xotask,xotask,dotcolour,48,1,108,108,training,positivefb,96,easy,9,0.7828822999999829,['n'],1,right,['1'],6,0.09695110000006935,,,,,,,3,19,Man,Rechts,2,
,xotask,xotask,dotcolour,49,1,109,109,training,positivefb,96,average,19,0.49994360000005145,['n'],1,right,['1'],6,0.0653984999999011,,,,,,,3,19,Man,Rechts,2,
,xotask,xotask,dotcolour,50,1,110,110,training,positivefb,97,hard,54,2.450781499999948,['c'],1,left,['3'],4,0.7977809999999863,,,,,,,3,19,Man,Rechts,2,
,xotask,xotask,dotcolour,51,1,111,111,training,positivefb,72,hard,52,2.567401400000108,['c'],1,left,['3'],4,1.063631600000008,,,,,,,3,19,Man,Rechts,2,
,xotask,xotask,dotcolour,52,1,112,112,training,positivefb,96,average,18,0.9839409999999589,['n'],1,right,['1'],6,1.382413300000053,,,,,,,3,19,Man,Rechts,2,
,xotask,xotask,dotcolour,53,1,113,113,training,positivefb,89,hard,50,1.3845249999999396,['n'],0,left,['2'],5,0.10350990000006277,,,,,,,3,19,Man,Rechts,2,
,xotask,xotask,dotcolour,54,1,114,114,training,positivefb,96,average,62,0.7332218999999895,['c'],1,left,['2'],5,0.23850169999991522,,,,,,,3,19,Man,Rechts,2,
,xotask,xotask,dotcolour,55,1,115,115,training,positivefb,94,average,63,0.9663752999999815,['c'],1,left,['1'],6,0.15839310000001205,,,,,,,3,19,Man,Rechts,2,
,xotask,xotask,dotcolour,56,1,116,116,training,positivefb,97,hard,27,0.6505718999999317,['n'],1,right,['1'],6,0.09440979999999399,,,,,,,3,19,Man,Rechts,2,
,xotask,xotask,dotcolour,57,1,117,117,training,positivefb,91,hard,50,0.9842278999999508,['c'],1,left,['2'],5,0.059788199999957214,,,,,,,3,19,Man,Rechts,2,
,xotask,xotask,dotcolour,58,1,118,118,training,positivefb,86,hard,54,1.9004735999999411,['n'],0,left,['1'],6,0.09343060000014702,,,,,,,3,19,Man,Rechts,2,
,xotask,xotask,dotcolour,59,1,119,119,training,positivefb,89,easy,72,1.6157445999999709,['c'],1,left,['2'],5,0.10551789999999528,,,,,,,3,19,Man,Rechts,2,
,dotcolour,xotask,dotcolour,0,2,120,120,main,positivefb,-99,hard,,1.0828980000001138,['n'],1,right,['1'],6,0.7297082000000046,35,,,,,,3,19,Man,Rechts,2,
,dotcolour,xotask,dotcolour,1,2,121,121,main,positivefb,-99,hard,,0.8999343000000408,['c'],0,right,['1'],6,0.06529150000005757,39,,,,,,3,19,Man,Rechts,2,
,dotcolour,xotask,dotcolour,2,2,122,122,main,positivefb,-99,hard,,2.1836029000000963,['c'],1,left,['2'],5,0.21643680000011045,43,,,,,,3,19,Man,Rechts,2,
,dotcolour,xotask,dotcolour,3,2,123,123,main,positivefb,-99,hard,,1.46612140000002,['c'],0,right,['1'],6,0.26929310000014084,38,,,,,,3,19,Man,Rechts,2,
,dotcolour,xotask,dotcolour,4,2,124,124,main,positivefb,-99,hard,,0.7171183000000383,['n'],1,right,['1'],6,0.07872090000000753,38,,,,,,3,19,Man,Rechts,2,
,dotcolour,xotask,dotcolour,5,2,125,125,main,positivefb,-99,hard,,1.434277399999928,['n'],1,right,['2'],5,0.36381940000001123,37,,,,,,3,19,Man,Rechts,2,
,dotcolour,xotask,dotcolour,6,2,126,126,main,positivefb,-99,easy,,0.6496658000000934,['c'],1,left,['1'],6,0.05990950000000339,64,,,,,,3,19,Man,Rechts,2,
,dotcolour,xotask,dotcolour,7,2,127,127,main,positivefb,-99,average,,0.9000270999999884,['c'],1,left,['1'],6,0.038753700000143,53,,,,,,3,19,Man,Rechts,2,
,dotcolour,xotask,dotcolour,8,2,128,128,main,positivefb,-99,average,,0.699693600000046,['n'],1,right,['1'],6,0.08206319999999323,29,,,,,,3,19,Man,Rechts,2,
,dotcolour,xotask,dotcolour,9,2,129,129,main,positivefb,-99,hard,,1.7671358000000055,['c'],0,right,['2'],5,0.66468070000019,38,,,,,,3,19,Man,Rechts,2,
,dotcolour,xotask,dotcolour,10,2,130,130,main,positivefb,-99,easy,,0.9830169999997906,['c'],1,left,['1'],6,0.024077400000123816,64,,,,,,3,19,Man,Rechts,2,
,dotcolour,xotask,dotcolour,11,2,131,131,main,positivefb,-99,average,,0.6835427000000891,['n'],1,right,['1'],6,0.06067619999998897,28,,,,,,3,19,Man,Rechts,2,
,dotcolour,xotask,dotcolour,12,2,132,132,main,positivefb,-99,easy,,0.5842936000001373,['n'],1,right,['1'],6,0.03608389999999417,16,,,,,,3,19,Man,Rechts,2,
,dotcolour,xotask,dotcolour,13,2,133,133,main,positivefb,-99,easy,,0.6334282000000258,['c'],1,left,['1'],6,0.07405020000010154,65,,,,,,3,19,Man,Rechts,2,
,dotcolour,xotask,dotcolour,14,2,134,134,main,positivefb,-99,hard,,1.5825402000000395,['c'],1,left,['1'],6,0.04100659999994605,44,,,,,,3,19,Man,Rechts,2,
,dotcolour,xotask,dotcolour,15,2,135,135,main,positivefb,-99,easy,,0.6329341000000568,['n'],1,right,['1'],6,0.0790658999999323,15,,,,,,3,19,Man,Rechts,2,
,dotcolour,xotask,dotcolour,16,2,136,136,main,positivefb,-99,easy,,1.8177982000001975,['n'],1,right,['1'],6,0.1722515999999814,18,,,,,,3,19,Man,Rechts,2,
,dotcolour,xotask,dotcolour,17,2,137,137,main,positivefb,-99,average,,1.967415200000005,['c'],1,left,['3'],4,0.2554881999999452,52,,,,,,3,19,Man,Rechts,2,
,dotcolour,xotask,dotcolour,18,2,138,138,main,positivefb,-99,easy,,0.7998269000001983,['n'],1,right,['1'],6,0.07048889999987296,17,,,,,,3,19,Man,Rechts,2,
,dotcolour,xotask,dotcolour,19,2,139,139,main,positivefb,-99,average,,0.7344177999998465,['c'],1,left,['2'],5,0.1748190999999224,51,,,,,,3,19,Man,Rechts,2,
,dotcolour,xotask,dotcolour,20,2,140,140,main,positivefb,-99,hard,,1.5163718999999674,['n'],0,left,['1'],6,0.03621350000003076,43,,,,,,3,19,Man,Rechts,2,
,dotcolour,xotask,dotcolour,21,2,141,141,main,positivefb,-99,easy,,0.5340158999999858,['n'],1,right,['1'],6,0.014181700000108322,15,,,,,,3,19,Man,Rechts,2,
,dotcolour,xotask,dotcolour,22,2,142,142,main,positivefb,-99,average,,1.6826619000000846,['c'],1,left,['2'],5,0.39572950000001583,52,,,,,,3,19,Man,Rechts,2,
,dotcolour,xotask,dotcolour,23,2,143,143,main,positivefb,-99,hard,,2.016130700000076,['c'],1,left,['2'],5,0.09240680000016255,42,,,,,,3,19,Man,Rechts,2,
,dotcolour,xotask,dotcolour,24,2,144,144,main,positivefb,-99,hard,,1.401006499999994,['n'],1,right,['1'],6,0.13756880000005367,36,,,,,,3,19,Man,Rechts,2,
,dotcolour,xotask,dotcolour,25,2,145,145,main,positivefb,-99,hard,,1.7661465999999564,['c'],1,left,['2'],5,0.014434499999879336,41,,,,,,3,19,Man,Rechts,2,
,dotcolour,xotask,dotcolour,26,2,146,146,main,positivefb,-99,hard,,2.417183199999954,['n'],0,left,['3'],4,0.3186747000002015,41,,,,,,3,19,Man,Rechts,2,
,dotcolour,xotask,dotcolour,27,2,147,147,main,positivefb,-99,average,,1.0009155999998711,['n'],1,right,['1'],6,0.08232129999987592,26,,,,,,3,19,Man,Rechts,2,
,dotcolour,xotask,dotcolour,28,2,148,148,main,positivefb,-99,average,,0.9007541999999376,['n'],1,right,['1'],6,0.09170370000015282,25,,,,,,3,19,Man,Rechts,2,
,dotcolour,xotask,dotcolour,29,2,149,149,main,positivefb,-99,average,,0.651282700000138,['n'],1,right,['1'],6,0.046910900000057154,29,,,,,,3,19,Man,Rechts,2,
,dotcolour,xotask,dotcolour,30,2,150,150,main,positivefb,-99,easy,,2.533349000000044,['c'],1,left,['2'],5,0.617109100000107,64,,,,,,3,19,Man,Rechts,2,
,dotcolour,xotask,dotcolour,31,2,151,151,main,positivefb,-99,easy,,0.5336867000000893,['n'],1,right,['1'],6,0.06779140000003281,16,,,,,,3,19,Man,Rechts,2,
,dotcolour,xotask,dotcolour,32,2,152,152,main,positivefb,-99,hard,,1.46736820000001,['c'],1,left,['1'],6,0.30306819999987056,44,,,,,,3,19,Man,Rechts,2,
,dotcolour,xotask,dotcolour,33,2,153,153,main,positivefb,-99,average,,0.7841708000000835,['c'],1,left,['1'],6,0.052152800000158095,52,,,,,,3,19,Man,Rechts,2,
,dotcolour,xotask,dotcolour,34,2,154,154,main,positivefb,-99,hard,,1.2494039999999131,['n'],1,right,['3'],4,0.528961900000013,39,,,,,,3,19,Man,Rechts,2,
,dotcolour,xotask,dotcolour,35,2,155,155,main,positivefb,-99,hard,,1.7829375999999684,['n'],0,left,['3'],4,0.18973490000007587,42,,,,,,3,19,Man,Rechts,2,
,dotcolour,xotask,dotcolour,36,2,156,156,main,positivefb,-99,easy,,1.2001992999998947,['c'],1,left,['1'],6,0.8791676000000734,62,,,,,,3,19,Man,Rechts,2,
,dotcolour,xotask,dotcolour,37,2,157,157,main,positivefb,-99,average,,0.7003889000000072,['c'],1,left,['1'],6,0.03305199999999786,54,,,,,,3,19,Man,Rechts,2,
,dotcolour,xotask,dotcolour,38,2,158,158,main,positivefb,-99,hard,,1.9834516999999323,['c'],1,left,['3'],4,0.10537810000005265,43,,,,,,3,19,Man,Rechts,2,
,dotcolour,xotask,dotcolour,39,2,159,159,main,positivefb,-99,average,,0.7005389999999352,['n'],1,right,['2'],5,0.7619322999998985,27,,,,,,3,19,Man,Rechts,2,
,dotcolour,xotask,dotcolour,40,2,160,160,main,positivefb,-99,easy,,0.8167856999998548,['n'],1,right,['2'],5,0.21207509999999274,18,,,,,,3,19,Man,Rechts,2,
,dotcolour,xotask,dotcolour,41,2,161,161,main,positivefb,-99,average,,0.8335770999999568,['n'],1,right,['1'],6,0.21908950000010918,28,,,,,,3,19,Man,Rechts,2,
,dotcolour,xotask,dotcolour,42,2,162,162,main,positivefb,-99,average,,0.7495183000000907,['c'],1,left,['1'],6,0.07712179999998625,54,,,,,,3,19,Man,Rechts,2,
,dotcolour,xotask,dotcolour,43,2,163,163,main,positivefb,-99,easy,,0.6500934999999117,['c'],1,left,['1'],6,0.04943830000001981,61,,,,,,3,19,Man,Rechts,2,
,dotcolour,xotask,dotcolour,44,2,164,164,main,positivefb,-99,average,,0.7161846000001333,['c'],1,left,['1'],6,0.10709120000001349,54,,,,,,3,19,Man,Rechts,2,
,dotcolour,xotask,dotcolour,45,2,165,165,main,positivefb,-99,easy,,0.6498193999998421,['n'],1,right,['1'],6,0.05361010000001443,19,,,,,,3,19,Man,Rechts,2,
,dotcolour,xotask,dotcolour,46,2,166,166,main,positivefb,-99,average,,0.6834161999997832,['c'],1,left,['1'],6,0.04908109999996668,52,,,,,,3,19,Man,Rechts,2,
,dotcolour,xotask,dotcolour,47,2,167,167,main,positivefb,-99,hard,,1.0007868999998664,['c'],1,left,['2'],5,0.28001160000007985,45,,,,,,3,19,Man,Rechts,2,
,dotcolour,xotask,dotcolour,48,2,168,168,main,positivefb,-99,easy,,0.6840851000001749,['c'],1,left,['1'],6,0.026907100000016726,65,,,,,,3,19,Man,Rechts,2,
,dotcolour,xotask,dotcolour,49,2,169,169,main,positivefb,-99,easy,,0.6510825000000295,['c'],1,left,['1'],6,0.7125555000000077,64,,,,,,3,19,Man,Rechts,2,
,dotcolour,xotask,dotcolour,50,2,170,170,main,positivefb,-99,average,,0.933511800000133,['c'],1,left,['1'],6,0.09616259999984322,51,,,,,,3,19,Man,Rechts,2,
,dotcolour,xotask,dotcolour,51,2,171,171,main,positivefb,-99,hard,,1.101063300000078,['n'],1,right,['1'],6,0.12123330000008536,39,,,,,,3,19,Man,Rechts,2,
,dotcolour,xotask,dotcolour,52,2,172,172,main,positivefb,-99,hard,,0.7845629000000827,['n'],1,right,['1'],6,0.04619290000005094,37,,,,,,3,19,Man,Rechts,2,
,dotcolour,xotask,dotcolour,53,2,173,173,main,positivefb,-99,easy,,0.7511021000000255,['c'],1,left,['1'],6,0.08749299999999494,61,,,,,,3,19,Man,Rechts,2,
,dotcolour,xotask,dotcolour,54,2,174,174,main,positivefb,-99,average,,0.899928300000056,['n'],1,right,['1'],6,0.9528064000000995,25,,,,,,3,19,Man,Rechts,2,
,dotcolour,xotask,dotcolour,55,2,175,175,main,positivefb,-99,easy,,0.6670412999999371,['n'],1,right,['1'],6,0.1045534999998381,15,,,,,,3,19,Man,Rechts,2,
,dotcolour,xotask,dotcolour,56,2,176,176,main,positivefb,-99,easy,,0.6160681000001205,['c'],1,left,['1'],6,0.05308439999998882,65,,,,,,3,19,Man,Rechts,2,
,dotcolour,xotask,dotcolour,57,2,177,177,main,positivefb,-99,easy,,0.6665070999999898,['n'],1,right,['1'],6,0.08870960000012929,15,,,,,,3,19,Man,Rechts,2,
,dotcolour,xotask,dotcolour,58,2,178,178,main,positivefb,-99,average,,0.7170346999998856,['n'],1,right,['2'],5,0.4492786000000706,25,,,,,,3,19,Man,Rechts,2,
,dotcolour,xotask,dotcolour,59,2,179,179,main,positivefb,-99,average,,0.799896600000011,['n'],1,right,['2'],5,0.8162589000000935,25,,,,,,3,19,Man,Rechts,2,
,dotcolour,xotask,dotcolour,0,3,180,180,main,positivefb,-99,hard,,1.8832703000000492,['c'],1,left,['3'],4,0.6260076999999455,43,,,,,,3,19,Man,Rechts,2,
,dotcolour,xotask,dotcolour,1,3,181,181,main,positivefb,-99,average,,1.5168797999999697,['c'],1,left,['2'],5,0.5653796000001421,54,,,,,,3,19,Man,Rechts,2,
,dotcolour,xotask,dotcolour,2,3,182,182,main,positivefb,-99,easy,,1.0674922000000606,['c'],1,left,['1'],6,0.6127549000000272,65,,,,,,3,19,Man,Rechts,2,
,dotcolour,xotask,dotcolour,3,3,183,183,main,positivefb,-99,average,,0.7332899000000452,['c'],1,left,['1'],6,0.03205980000007003,55,,,,,,3,19,Man,Rechts,2,
,dotcolour,xotask,dotcolour,4,3,184,184,main,positivefb,-99,average,,2.9833830000000034,['c'],1,left,['3'],4,0.20853770000007898,52,,,,,,3,19,Man,Rechts,2,
,dotcolour,xotask,dotcolour,5,3,185,185,main,positivefb,-99,hard,,1.2167535999999473,['n'],1,right,['1'],6,0.056328500000063286,35,,,,,,3,19,Man,Rechts,2,
,dotcolour,xotask,dotcolour,6,3,186,186,main,positivefb,-99,hard,,1.283331999999973,['n'],0,left,['1'],6,0.3154070000000502,45,,,,,,3,19,Man,Rechts,2,
,dotcolour,xotask,dotcolour,7,3,187,187,main,positivefb,-99,hard,,0.6504975000000286,['n'],1,right,['1'],6,0.10974930000020322,39,,,,,,3,19,Man,Rechts,2,
,dotcolour,xotask,dotcolour,8,3,188,188,main,positivefb,-99,easy,,0.4998385999999755,['n'],1,right,['1'],6,0.06212209999989682,19,,,,,,3,19,Man,Rechts,2,
,dotcolour,xotask,dotcolour,9,3,189,189,main,positivefb,-99,easy,,0.5341915000001336,['n'],1,right,['1'],6,0.12738369999988208,17,,,,,,3,19,Man,Rechts,2,
,dotcolour,xotask,dotcolour,10,3,190,190,main,positivefb,-99,hard,,0.7182268999999906,['c'],1,left,['1'],6,0.17483259999994516,45,,,,,,3,19,Man,Rechts,2,
,dotcolour,xotask,dotcolour,11,3,191,191,main,positivefb,-99,easy,,0.7008069999999407,['n'],1,right,['1'],6,0.1647477000001345,17,,,,,,3,19,Man,Rechts,2,
,dotcolour,xotask,dotcolour,12,3,192,192,main,positivefb,-99,average,,1.382704399999966,['c'],1,left,['2'],5,1.264069999999947,55,,,,,,3,19,Man,Rechts,2,
,dotcolour,xotask,dotcolour,13,3,193,193,main,positivefb,-99,easy,,0.6177146999998513,['n'],1,right,['1'],6,0.14977100000010068,15,,,,,,3,19,Man,Rechts,2,
,dotcolour,xotask,dotcolour,14,3,194,194,main,positivefb,-99,average,,0.8011058000001867,['n'],1,right,['1'],6,0.15269880000005287,26,,,,,,3,19,Man,Rechts,2,
,dotcolour,xotask,dotcolour,15,3,195,195,main,positivefb,-99,easy,,0.8504204999999274,['c'],1,left,['1'],6,0.4014444000001731,64,,,,,,3,19,Man,Rechts,2,
,dotcolour,xotask,dotcolour,16,3,196,196,main,positivefb,-99,easy,,0.6994933000000856,['c'],1,left,['1'],6,0.8541878999999426,64,,,,,,3,19,Man,Rechts,2,
,dotcolour,xotask,dotcolour,17,3,197,197,main,positivefb,-99,hard,,2.2009362999999666,['n'],0,left,['3'],4,1.2288800999999694,44,,,,,,3,19,Man,Rechts,2,
,dotcolour,xotask,dotcolour,18,3,198,198,main,positivefb,-99,average,,0.7167349999999715,['n'],1,right,['2'],5,0.4722209000001385,27,,,,,,3,19,Man,Rechts,2,
,dotcolour,xotask,dotcolour,19,3,199,199,main,positivefb,-99,easy,,0.5840255999999044,['n'],1,right,['2'],5,0.15094399999998132,16,,,,,,3,19,Man,Rechts,2,
,dotcolour,xotask,dotcolour,20,3,200,200,main,positivefb,-99,average,,1.51641050000012,['c'],1,left,['1'],6,0.10089659999994183,51,,,,,,3,19,Man,Rechts,2,
,dotcolour,xotask,dotcolour,21,3,201,201,main,positivefb,-99,average,,0.7174585000000206,['n'],1,right,['1'],6,0.0529017000001204,26,,,,,,3,19,Man,Rechts,2,
,dotcolour,xotask,dotcolour,22,3,202,202,main,positivefb,-99,easy,,0.5665644999999131,['n'],1,right,['1'],6,0.020906500000137385,18,,,,,,3,19,Man,Rechts,2,
,dotcolour,xotask,dotcolour,23,3,203,203,main,positivefb,-99,average,,0.6997307999999975,['n'],1,right,['1'],6,0.0008318000000144821,28,,,,,,3,19,Man,Rechts,2,
,dotcolour,xotask,dotcolour,24,3,204,204,main,positivefb,-99,average,,0.5508277999999791,['n'],1,right,['1'],6,0.09156910000001517,26,,,,,,3,19,Man,Rechts,2,
,dotcolour,xotask,dotcolour,25,3,205,205,main,positivefb,-99,easy,,0.6668999000000895,['c'],1,left,['1'],6,0.07044169999994665,64,,,,,,3,19,Man,Rechts,2,
,dotcolour,xotask,dotcolour,26,3,206,206,main,positivefb,-99,hard,,2.2511901000000307,['n'],1,right,['2'],5,0.25020530000006147,36,,,,,,3,19,Man,Rechts,2,
,dotcolour,xotask,dotcolour,27,3,207,207,main,positivefb,-99,average,,0.8330784000002041,['c'],1,left,['1'],6,0.07157200000006014,53,,,,,,3,19,Man,Rechts,2,
,dotcolour,xotask,dotcolour,28,3,208,208,main,positivefb,-99,hard,,2.684464799999887,['c'],1,left,['2'],5,1.0184324999997898,42,,,,,,3,19,Man,Rechts,2,
,dotcolour,xotask,dotcolour,29,3,209,209,main,positivefb,-99,hard,,1.866228000000092,['c'],1,left,['1'],6,0.07978470000011839,42,,,,,,3,19,Man,Rechts,2,
,dotcolour,xotask,dotcolour,30,3,210,210,main,positivefb,-99,easy,,1.001255399999991,['c'],1,left,['1'],6,0.18969579999998132,63,,,,,,3,19,Man,Rechts,2,
,dotcolour,xotask,dotcolour,31,3,211,211,main,positivefb,-99,hard,,1.6842953999998826,['n'],1,right,['3'],4,0.38786430000004657,37,,,,,,3,19,Man,Rechts,2,
,dotcolour,xotask,dotcolour,32,3,212,212,main,positivefb,-99,easy,,1.3845785000000888,['c'],1,left,['1'],6,0.32571230000007745,61,,,,,,3,19,Man,Rechts,2,
,dotcolour,xotask,dotcolour,33,3,213,213,main,positivefb,-99,easy,,0.6336125000000266,['c'],1,left,['1'],6,0.016395399999964866,64,,,,,,3,19,Man,Rechts,2,
,dotcolour,xotask,dotcolour,34,3,214,214,main,positivefb,-99,hard,,1.6672083999999359,['n'],0,left,['2'],5,0.15771310000013727,44,,,,,,3,19,Man,Rechts,2,
,dotcolour,xotask,dotcolour,35,3,215,215,main,positivefb,-99,easy,,0.6675017999998545,['n'],1,right,['1'],6,0.14969280000013896,16,,,,,,3,19,Man,Rechts,2,
,dotcolour,xotask,dotcolour,36,3,216,216,main,positivefb,-99,average,,0.617358299999978,['c'],1,left,['1'],6,0.08773480000013478,51,,,,,,3,19,Man,Rechts,2,
,dotcolour,xotask,dotcolour,37,3,217,217,main,positivefb,-99,average,,0.5674377999998796,['n'],1,right,['1'],6,0.13438239999982216,29,,,,,,3,19,Man,Rechts,2,
,dotcolour,xotask,dotcolour,38,3,218,218,main,positivefb,-99,easy,,0.5327592000001005,['n'],1,right,['1'],6,0.07615229999987605,15,,,,,,3,19,Man,Rechts,2,
,dotcolour,xotask,dotcolour,39,3,219,219,main,positivefb,-99,easy,,0.5341642999999294,['c'],1,left,['1'],6,0.19714460000000145,65,,,,,,3,19,Man,Rechts,2,
,dotcolour,xotask,dotcolour,40,3,220,220,main,positivefb,-99,hard,,1.6006485999998858,['c'],0,right,['2'],5,0.2945190000000366,36,,,,,,3,19,Man,Rechts,2,
,dotcolour,xotask,dotcolour,41,3,221,221,main,positivefb,-99,easy,,0.6673167999999805,['n'],1,right,['1'],6,0.06513640000002852,18,,,,,,3,19,Man,Rechts,2,
,dotcolour,xotask,dotcolour,42,3,222,222,main,positivefb,-99,hard,,3.266644000000042,['c'],1,left,['3'],4,0.4922157999999399,43,,,,,,3,19,Man,Rechts,2,
,dotcolour,xotask,dotcolour,43,3,223,223,main,positivefb,-99,easy,,0.8007651000000351,['n'],1,right,['1'],6,0.10553929999991851,19,,,,,,3,19,Man,Rechts,2,
,dotcolour,xotask,dotcolour,44,3,224,224,main,positivefb,-99,average,,0.817701199999874,['c'],1,left,['1'],6,0.061762199999975564,55,,,,,,3,19,Man,Rechts,2,
,dotcolour,xotask,dotcolour,45,3,225,225,main,positivefb,-99,easy,,0.650186500000018,['c'],1,left,['1'],6,0.042176400000016656,62,,,,,,3,19,Man,Rechts,2,
,dotcolour,xotask,dotcolour,46,3,226,226,main,positivefb,-99,average,,1.6009490000001279,['n'],1,right,['2'],5,0.09783139999990453,25,,,,,,3,19,Man,Rechts,2,
,dotcolour,xotask,dotcolour,47,3,227,227,main,positivefb,-99,hard,,2.2672509000001355,['n'],1,right,['3'],4,0.7725425000000996,35,,,,,,3,19,Man,Rechts,2,
,dotcolour,xotask,dotcolour,48,3,228,228,main,positivefb,-99,hard,,2.4503658999999516,['n'],1,right,['3'],4,0.23655029999986255,38,,,,,,3,19,Man,Rechts,2,
,dotcolour,xotask,dotcolour,49,3,229,229,main,positivefb,-99,average,,1.3170940999998493,['n'],1,right,['2'],5,0.24725770000009106,27,,,,,,3,19,Man,Rechts,2,
,dotcolour,xotask,dotcolour,50,3,230,230,main,positivefb,-99,hard,,0.8999025999999049,['n'],0,left,['2'],5,0.2585540999998557,41,,,,,,3,19,Man,Rechts,2,
,dotcolour,xotask,dotcolour,51,3,231,231,main,positivefb,-99,average,,0.6174819000000298,['n'],1,right,['2'],5,0.16847680000000764,29,,,,,,3,19,Man,Rechts,2,
,dotcolour,xotask,dotcolour,52,3,232,232,main,positivefb,-99,hard,,2.100664800000004,['c'],0,right,['2'],5,0.1506411999998818,38,,,,,,3,19,Man,Rechts,2,
,dotcolour,xotask,dotcolour,53,3,233,233,main,positivefb,-99,average,,1.333265400000073,['c'],1,left,['1'],6,0.13994189999993978,52,,,,,,3,19,Man,Rechts,2,
,dotcolour,xotask,dotcolour,54,3,234,234,main,positivefb,-99,easy,,0.5328769999998713,['c'],1,left,['1'],6,0.08185149999985697,65,,,,,,3,19,Man,Rechts,2,
,dotcolour,xotask,dotcolour,55,3,235,235,main,positivefb,-99,hard,,0.7006364999999732,['n'],1,right,['1'],6,0.09923899999989771,39,,,,,,3,19,Man,Rechts,2,
,dotcolour,xotask,dotcolour,56,3,236,236,main,positivefb,-99,hard,,1.6334940000001552,['c'],1,left,['8'],3,2.118522100000064,43,,,,,,3,19,Man,Rechts,2,
,dotcolour,xotask,dotcolour,57,3,237,237,main,positivefb,-99,hard,,3.800902699999824,['n'],1,right,['3'],4,1.8027629000000616,35,,,,,,3,19,Man,Rechts,2,
,dotcolour,xotask,dotcolour,58,3,238,238,main,positivefb,-99,average,,2.7001879000001736,['c'],1,left,['2'],5,0.10330750000002809,52,,,,,,3,19,Man,Rechts,2,
,dotcolour,xotask,dotcolour,59,3,239,239,main,positivefb,-99,average,,0.5490907000000789,['n'],1,right,['1'],6,0.0623112000000674,27,,,,,,3,19,Man,Rechts,2,
,dotcolour,xotask,dotcolour,0,4,240,240,main,positivefb,-99,average,,0.7327622999998766,['n'],1,right,['1'],6,0.04212310000002617,27,,,,,,3,19,Man,Rechts,2,
,dotcolour,xotask,dotcolour,1,4,241,241,main,positivefb,-99,average,,0.6505321000001913,['c'],1,left,['1'],6,0.01548329999991438,53,,,,,,3,19,Man,Rechts,2,
,dotcolour,xotask,dotcolour,2,4,242,242,main,positivefb,-99,average,,1.1671960000001036,['c'],1,left,['1'],6,0.032828699999981836,52,,,,,,3,19,Man,Rechts,2,
,dotcolour,xotask,dotcolour,3,4,243,243,main,positivefb,-99,hard,,0.9511569000001145,['n'],1,right,['1'],6,0.12218329999996058,36,,,,,,3,19,Man,Rechts,2,
,dotcolour,xotask,dotcolour,4,4,244,244,main,positivefb,-99,average,,0.5499755999999252,['n'],1,right,['2'],5,0.8481455999999525,27,,,,,,3,19,Man,Rechts,2,
,dotcolour,xotask,dotcolour,5,4,245,245,main,positivefb,-99,hard,,1.133856700000024,['c'],0,right,['1'],6,0.15341389999980493,39,,,,,,3,19,Man,Rechts,2,
,dotcolour,xotask,dotcolour,6,4,246,246,main,positivefb,-99,easy,,0.5501408999998603,['c'],1,left,['1'],6,0.05414429999996173,63,,,,,,3,19,Man,Rechts,2,
,dotcolour,xotask,dotcolour,7,4,247,247,main,positivefb,-99,easy,,0.5667997000000469,['c'],1,left,['1'],6,0.07027679999987413,63,,,,,,3,19,Man,Rechts,2,
,dotcolour,xotask,dotcolour,8,4,248,248,main,positivefb,-99,average,,0.9013779000001705,['c'],1,left,['1'],6,0.03221589999998287,55,,,,,,3,19,Man,Rechts,2,
,dotcolour,xotask,dotcolour,9,4,249,249,main,positivefb,-99,average,,1.0999133000000256,['n'],1,right,['1'],6,0.44352630000003046,29,,,,,,3,19,Man,Rechts,2,
,dotcolour,xotask,dotcolour,10,4,250,250,main,positivefb,-99,easy,,0.6829804000001332,['c'],1,left,['1'],6,0.04754119999984141,62,,,,,,3,19,Man,Rechts,2,
,dotcolour,xotask,dotcolour,11,4,251,251,main,positivefb,-99,hard,,1.5162219999999706,['n'],1,right,['1'],6,0.850101800000175,35,,,,,,3,19,Man,Rechts,2,
,dotcolour,xotask,dotcolour,12,4,252,252,main,positivefb,-99,easy,,0.833094100000153,['c'],1,left,['1'],6,0.04728900000009162,64,,,,,,3,19,Man,Rechts,2,
,dotcolour,xotask,dotcolour,13,4,253,253,main,positivefb,-99,average,,0.8505210999999235,['n'],1,right,['2'],5,1.0929559000001063,29,,,,,,3,19,Man,Rechts,2,
,dotcolour,xotask,dotcolour,14,4,254,254,main,positivefb,-99,average,,1.6005502999998953,['c'],1,left,['1'],6,0.20283779999999751,55,,,,,,3,19,Man,Rechts,2,
,dotcolour,xotask,dotcolour,15,4,255,255,main,positivefb,-99,average,,0.6340182999999797,['n'],1,right,['1'],6,0.10568579999994654,29,,,,,,3,19,Man,Rechts,2,
,dotcolour,xotask,dotcolour,16,4,256,256,main,positivefb,-99,hard,,1.7003713000001426,['n'],1,right,['2'],5,0.7301542000000154,39,,,,,,3,19,Man,Rechts,2,
,dotcolour,xotask,dotcolour,17,4,257,257,main,positivefb,-99,easy,,0.7165535999999975,['c'],1,left,['1'],6,0.04166450000002442,63,,,,,,3,19,Man,Rechts,2,
,dotcolour,xotask,dotcolour,18,4,258,258,main,positivefb,-99,easy,,0.6501389000000017,['n'],1,right,['1'],6,0.0873301999999967,19,,,,,,3,19,Man,Rechts,2,
,dotcolour,xotask,dotcolour,19,4,259,259,main,positivefb,-99,average,,1.0675430999999662,['c'],1,left,['1'],6,0.009569899999860354,54,,,,,,3,19,Man,Rechts,2,
,dotcolour,xotask,dotcolour,20,4,260,260,main,positivefb,-99,average,,0.6335570999999618,['n'],1,right,['1'],6,0.048573600000054284,29,,,,,,3,19,Man,Rechts,2,
,dotcolour,xotask,dotcolour,21,4,261,261,main,positivefb,-99,easy,,0.8334400999999616,['n'],1,right,['1'],6,0.07832070000017666,15,,,,,,3,19,Man,Rechts,2,
,dotcolour,xotask,dotcolour,22,4,262,262,main,positivefb,-99,average,,0.7327755999999681,['c'],1,left,['1'],6,0.022865000000138025,51,,,,,,3,19,Man,Rechts,2,
,dotcolour,xotask,dotcolour,23,4,263,263,main,positivefb,-99,easy,,2.634476599999971,['n'],1,right,['1'],6,0.07762299999990319,15,,,,,,3,19,Man,Rechts,2,
,dotcolour,xotask,dotcolour,24,4,264,264,main,positivefb,-99,easy,,0.734917699999869,['c'],1,left,['1'],6,0.03812809999999445,61,,,,,,3,19,Man,Rechts,2,
,dotcolour,xotask,dotcolour,25,4,265,265,main,positivefb,-99,easy,,0.5333831999998893,['c'],1,left,['1'],6,0.0004334000000199012,63,,,,,,3,19,Man,Rechts,2,
,dotcolour,xotask,dotcolour,26,4,266,266,main,positivefb,-99,average,,0.5173551000000316,['c'],1,left,['1'],6,0.0522464000000582,53,,,,,,3,19,Man,Rechts,2,
,dotcolour,xotask,dotcolour,27,4,267,267,main,positivefb,-99,hard,,2.532968199999914,['n'],0,left,['2'],5,0.2137129999998706,42,,,,,,3,19,Man,Rechts,2,
,dotcolour,xotask,dotcolour,28,4,268,268,main,positivefb,-99,hard,,1.1496710000001258,['n'],0,left,['2'],5,0.1286724999999933,43,,,,,,3,19,Man,Rechts,2,
,dotcolour,xotask,dotcolour,29,4,269,269,main,positivefb,-99,easy,,1.3503418000000238,['n'],1,right,['1'],6,0.09472049999999399,18,,,,,,3,19,Man,Rechts,2,
,dotcolour,xotask,dotcolour,30,4,270,270,main,positivefb,-99,easy,,0.6347880999999234,['n'],1,right,['1'],6,0.0184326000000965,15,,,,,,3,19,Man,Rechts,2,
,dotcolour,xotask,dotcolour,31,4,271,271,main,positivefb,-99,hard,,0.9995495999999093,['n'],1,right,['1'],6,0.0502252999999655,37,,,,,,3,19,Man,Rechts,2,
,dotcolour,xotask,dotcolour,32,4,272,272,main,positivefb,-99,average,,0.6829936000001453,['n'],1,right,['2'],5,0.09376030000021274,25,,,,,,3,19,Man,Rechts,2,
,dotcolour,xotask,dotcolour,33,4,273,273,main,positivefb,-99,easy,,0.48436019999985547,['c'],1,left,['1'],6,0.07199239999999918,61,,,,,,3,19,Man,Rechts,2,
,dotcolour,xotask,dotcolour,34,4,274,274,main,positivefb,-99,average,,1.1833255000001373,['c'],1,left,['1'],6,0.02221959999997125,55,,,,,,3,19,Man,Rechts,2,
,dotcolour,xotask,dotcolour,35,4,275,275,main,positivefb,-99,hard,,2.2502654999998413,['n'],1,right,['3'],4,0.3084067999998297,38,,,,,,3,19,Man,Rechts,2,
,dotcolour,xotask,dotcolour,36,4,276,276,main,positivefb,-99,average,,0.9007188999999016,['n'],1,right,['1'],6,0.32544780000011997,28,,,,,,3,19,Man,Rechts,2,
,dotcolour,xotask,dotcolour,37,4,277,277,main,positivefb,-99,easy,,0.5329873999999108,['c'],1,left,['1'],6,0.052118299999847295,62,,,,,,3,19,Man,Rechts,2,
,dotcolour,xotask,dotcolour,38,4,278,278,main,positivefb,-99,hard,,1.6992225999999846,['n'],0,left,['8'],3,0.9750847000000249,43,,,,,,3,19,Man,Rechts,2,
,dotcolour,xotask,dotcolour,39,4,279,279,main,positivefb,-99,hard,,1.4504644999999527,['c'],1,left,['2'],5,0.0625079999999798,43,,,,,,3,19,Man,Rechts,2,
,dotcolour,xotask,dotcolour,40,4,280,280,main,positivefb,-99,hard,,1.6327116000002206,['n'],1,right,['1'],6,0.09195040000008703,37,,,,,,3,19,Man,Rechts,2,
,dotcolour,xotask,dotcolour,41,4,281,281,main,positivefb,-99,hard,,1.2827183000001696,['c'],1,left,['1'],6,0.7179011000000628,43,,,,,,3,19,Man,Rechts,2,
,dotcolour,xotask,dotcolour,42,4,282,282,main,positivefb,-99,average,,2.084290499999952,['c'],1,left,['1'],6,0.006605999999919732,52,,,,,,3,19,Man,Rechts,2,
,dotcolour,xotask,dotcolour,43,4,283,283,main,positivefb,-99,hard,,1.2658479000001535,['c'],1,left,['1'],6,0.004647900000009031,41,,,,,,3,19,Man,Rechts,2,
,dotcolour,xotask,dotcolour,44,4,284,284,main,positivefb,-99,easy,,0.6670658999998977,['c'],1,left,['1'],6,0.5226772999999412,61,,,,,,3,19,Man,Rechts,2,
,dotcolour,xotask,dotcolour,45,4,285,285,main,positivefb,-99,average,,0.6504122000001189,['c'],1,left,['1'],6,0.08506370000009156,51,,,,,,3,19,Man,Rechts,2,
,dotcolour,xotask,dotcolour,46,4,286,286,main,positivefb,-99,hard,,1.1511160999998538,['c'],1,left,['1'],6,0.05166209999993043,43,,,,,,3,19,Man,Rechts,2,
,dotcolour,xotask,dotcolour,47,4,287,287,main,positivefb,-99,hard,,0.8160689000001184,['n'],1,right,['1'],6,0.10645030000000588,35,,,,,,3,19,Man,Rechts,2,
,dotcolour,xotask,dotcolour,48,4,288,288,main,positivefb,-99,hard,,0.8327619000001505,['n'],0,left,['0'],1,1.2855357000000822,42,,,,,,3,19,Man,Rechts,2,
,dotcolour,xotask,dotcolour,49,4,289,289,main,positivefb,-99,average,,1.5005439999999908,['n'],1,right,['1'],6,0.11071199999992132,28,,,,,,3,19,Man,Rechts,2,
,dotcolour,xotask,dotcolour,50,4,290,290,main,positivefb,-99,easy,,0.6331748000000061,['n'],1,right,['1'],6,0.0819722000001093,19,,,,,,3,19,Man,Rechts,2,
,dotcolour,xotask,dotcolour,51,4,291,291,main,positivefb,-99,easy,,0.7511898000000201,['n'],1,right,['1'],6,0.11364580000008573,18,,,,,,3,19,Man,Rechts,2,
,dotcolour,xotask,dotcolour,52,4,292,292,main,positivefb,-99,hard,,1.816955900000039,['c'],1,left,['3'],4,0.22935529999995197,44,,,,,,3,19,Man,Rechts,2,
,dotcolour,xotask,dotcolour,53,4,293,293,main,positivefb,-99,easy,,1.0993848000000526,['n'],1,right,['1'],6,0.08163089999993645,17,,,,,,3,19,Man,Rechts,2,
,dotcolour,xotask,dotcolour,54,4,294,294,main,positivefb,-99,easy,,0.4835771000000477,['n'],1,right,['1'],6,0.06739129999982651,17,,,,,,3,19,Man,Rechts,2,
,dotcolour,xotask,dotcolour,55,4,295,295,main,positivefb,-99,hard,,1.5172626000000946,['n'],0,left,['2'],5,0.6285705000000235,42,,,,,,3,19,Man,Rechts,2,
,dotcolour,xotask,dotcolour,56,4,296,296,main,positivefb,-99,easy,,0.5170187000001079,['n'],1,right,['1'],6,0.04802889999996296,16,,,,,,3,19,Man,Rechts,2,
,dotcolour,xotask,dotcolour,57,4,297,297,main,positivefb,-99,hard,,0.7506263000000217,['n'],1,right,['1'],6,0.3214514999999665,38,,,,,,3,19,Man,Rechts,2,
,dotcolour,xotask,dotcolour,58,4,298,298,main,positivefb,-99,average,,0.4507249000000684,['n'],1,right,['1'],6,0.0833722999998372,25,,,,,,3,19,Man,Rechts,2,
,dotcolour,xotask,dotcolour,59,4,299,299,main,positivefb,-99,hard,,0.44983460000003106,['n'],1,right,['1'],6,0.3507184000000052,37,,,,,,3,19,Man,Rechts,2,
,xotask,xotask,dotcolour,0,0,0,300,training,positivefb,87,hard,50,1.666338499999938,['c'],1,left,['3'],4,0.07755020000013246,,,,,,,3,19,Man,Rechts,2,
,xotask,xotask,dotcolour,1,0,1,301,training,positivefb,85,hard,26,2.750904900000023,['n'],1,right,['3'],4,0.8368322999999691,,,,,,,3,19,Man,Rechts,2,
,xotask,xotask,dotcolour,2,0,2,302,training,positivefb,96,easy,7,0.6002983999999287,['n'],1,right,['1'],6,0.08367609999982051,,,,,,,3,19,Man,Rechts,2,
,xotask,xotask,dotcolour,3,0,3,303,training,positivefb,94,easy,6,0.4664334000001418,['n'],1,right,['1'],6,0.061574699999937366,,,,,,,3,19,Man,Rechts,2,
,xotask,xotask,dotcolour,4,0,4,304,training,positivefb,95,average,19,0.5327781000000869,['n'],1,right,['1'],6,0.030519899999944755,,,,,,,3,19,Man,Rechts,2,
,xotask,xotask,dotcolour,5,0,5,305,training,positivefb,94,hard,25,0.533955399999968,['n'],1,right,['1'],6,0.1203146000000288,,,,,,,3,19,Man,Rechts,2,
,xotask,xotask,dotcolour,6,0,6,306,training,positivefb,53,hard,53,1.600120199999992,['n'],0,left,['3'],4,0.5077373999999963,,,,,,,3,19,Man,Rechts,2,
,xotask,xotask,dotcolour,7,0,7,307,training,positivefb,96,average,16,0.7009294999998019,['n'],1,right,['1'],6,0.044090900000128386,,,,,,,3,19,Man,Rechts,2,
,xotask,xotask,dotcolour,8,0,8,308,training,positivefb,70,hard,54,1.0507539999998698,['c'],1,left,['3'],4,0.44832480000013675,,,,,,,3,19,Man,Rechts,2,
,xotask,xotask,dotcolour,9,0,9,309,training,positivefb,90,hard,28,0.6164243999999144,['n'],1,right,['1'],6,0.14170599999988553,,,,,,,3,19,Man,Rechts,2,
,xotask,xotask,dotcolour,10,0,10,310,training,positivefb,91,average,63,1.617457800000011,['c'],1,left,['3'],4,0.13570389999995314,,,,,,,3,19,Man,Rechts,2,
,xotask,xotask,dotcolour,11,0,11,311,training,positivefb,91,easy,74,0.8996194000001196,['c'],1,left,['1'],6,0.23841959999981555,,,,,,,3,19,Man,Rechts,2,
,xotask,xotask,dotcolour,12,0,12,312,training,positivefb,90,average,61,1.2010212000000138,['c'],1,left,['1'],6,0.021149500000092303,,,,,,,3,19,Man,Rechts,2,
,xotask,xotask,dotcolour,13,0,13,313,training,positivefb,92,easy,9,0.8330524999998943,['n'],1,right,['1'],6,0.09873050000010153,,,,,,,3,19,Man,Rechts,2,
,xotask,xotask,dotcolour,14,0,14,314,training,positivefb,95,easy,73,0.7667661999998927,['c'],1,left,['2'],5,0.2720510000001468,,,,,,,3,19,Man,Rechts,2,
,xotask,xotask,dotcolour,15,0,15,315,training,positivefb,91,hard,54,1.0328675000000658,['c'],1,left,['2'],5,0.06838930000003529,,,,,,,3,19,Man,Rechts,2,
,xotask,xotask,dotcolour,16,0,16,316,training,positivefb,93,average,15,0.6496271999999408,['n'],1,right,['1'],6,0.09579740000003767,,,,,,,3,19,Man,Rechts,2,
,xotask,xotask,dotcolour,17,0,17,317,training,positivefb,94,hard,51,0.9839174000001094,['c'],1,left,['1'],6,0.17322949999993398,,,,,,,3,19,Man,Rechts,2,
,xotask,xotask,dotcolour,18,0,18,318,training,positivefb,86,easy,74,1.0506914000000052,['c'],1,left,['1'],6,0.11651649999998881,,,,,,,3,19,Man,Rechts,2,
,xotask,xotask,dotcolour,19,0,19,319,training,positivefb,98,average,63,0.617102100000011,['c'],1,left,['1'],6,0.10316630000011173,,,,,,,3,19,Man,Rechts,2,
,xotask,xotask,dotcolour,20,0,20,320,training,positivefb,73,hard,51,0.8168940999998995,['n'],0,left,['1'],6,0.13064910000002783,,,,,,,3,19,Man,Rechts,2,
,xotask,xotask,dotcolour,21,0,21,321,training,positivefb,83,hard,27,0.8835750999999163,['n'],1,right,['2'],5,0.20262860000002547,,,,,,,3,19,Man,Rechts,2,
,xotask,xotask,dotcolour,22,0,22,322,training,positivefb,97,hard,26,0.5661526000001231,['n'],1,right,['1'],6,0.07604429999992135,,,,,,,3,19,Man,Rechts,2,
,xotask,xotask,dotcolour,23,0,23,323,training,positivefb,92,average,17,0.716919000000189,['n'],1,right,['1'],6,0.044648399999914545,,,,,,,3,19,Man,Rechts,2,
,xotask,xotask,dotcolour,24,0,24,324,training,positivefb,95,hard,52,0.7002551999999014,['c'],1,left,['1'],6,0.07144110000012915,,,,,,,3,19,Man,Rechts,2,
,xotask,xotask,dotcolour,25,0,25,325,training,positivefb,93,average,62,0.7167071999999735,['c'],1,left,['1'],6,0.047939199999973425,,,,,,,3,19,Man,Rechts,2,
,xotask,xotask,dotcolour,26,0,26,326,training,positivefb,88,average,60,0.7835665000000063,['c'],1,left,['1'],6,0.10261270000000877,,,,,,,3,19,Man,Rechts,2,
,xotask,xotask,dotcolour,27,0,27,327,training,positivefb,95,easy,72,0.7831644000000324,['c'],1,left,['1'],6,0.13934640000002219,,,,,,,3,19,Man,Rechts,2,
,xotask,xotask,dotcolour,28,0,28,328,training,positivefb,87,easy,74,0.6828533999998854,['c'],1,left,['1'],6,0.14673329999982343,,,,,,,3,19,Man,Rechts,2,
,xotask,xotask,dotcolour,29,0,29,329,training,positivefb,93,easy,6,0.5661697999998978,['n'],1,right,['1'],6,0.06272749999993721,,,,,,,3,19,Man,Rechts,2,
,xotask,xotask,dotcolour,30,0,30,330,training,positivefb,96,average,15,0.44985829999995985,['n'],1,right,['1'],6,0.050697599999921295,,,,,,,3,19,Man,Rechts,2,
,xotask,xotask,dotcolour,31,0,31,331,training,positivefb,95,hard,29,0.6174589999998261,['n'],1,right,['1'],6,0.0478497999999945,,,,,,,3,19,Man,Rechts,2,
,xotask,xotask,dotcolour,32,0,32,332,training,positivefb,95,average,18,0.6840233000000353,['n'],1,right,['1'],6,0.051375000000007276,,,,,,,3,19,Man,Rechts,2,
,xotask,xotask,dotcolour,33,0,33,333,training,positivefb,96,average,63,0.6493649999999889,['c'],1,left,['1'],6,0.06330210000010084,,,,,,,3,19,Man,Rechts,2,
,xotask,xotask,dotcolour,34,0,34,334,training,positivefb,93,average,17,0.5826672999999118,['n'],1,right,['1'],6,0.06980410000005577,,,,,,,3,19,Man,Rechts,2,
,xotask,xotask,dotcolour,35,0,35,335,training,positivefb,91,average,16,0.9333509000000504,['n'],1,right,['1'],6,0.05457479999995485,,,,,,,3,19,Man,Rechts,2,
,xotask,xotask,dotcolour,36,0,36,336,training,positivefb,87,average,60,1.3675556000000597,['n'],0,left,['2'],5,0.22944919999986269,,,,,,,3,19,Man,Rechts,2,
,xotask,xotask,dotcolour,37,0,37,337,training,positivefb,95,easy,74,0.5833680000000641,['c'],1,left,['1'],6,0.077425200000107,,,,,,,3,19,Man,Rechts,2,
,xotask,xotask,dotcolour,38,0,38,338,training,positivefb,96,average,19,0.6681333999999879,['n'],1,right,['1'],6,0.024001600000019607,,,,,,,3,19,Man,Rechts,2,
,xotask,xotask,dotcolour,39,0,39,339,training,positivefb,92,easy,72,0.7001727000001665,['c'],1,left,['1'],6,0.01140890000010586,,,,,,,3,19,Man,Rechts,2,
,xotask,xotask,dotcolour,40,0,40,340,training,positivefb,88,easy,6,0.534421600000087,['n'],1,right,['1'],6,0.0942442000000483,,,,,,,3,19,Man,Rechts,2,
,xotask,xotask,dotcolour,41,0,41,341,training,positivefb,98,easy,5,0.3667970999999852,['n'],1,right,['1'],6,0.09216340000011769,,,,,,,3,19,Man,Rechts,2,
,xotask,xotask,dotcolour,42,0,42,342,training,positivefb,92,hard,52,0.7327155000000403,['c'],1,left,['1'],6,0.0435135000000173,,,,,,,3,19,Man,Rechts,2,
,xotask,xotask,dotcolour,43,0,43,343,training,positivefb,98,average,17,0.53344560000005,['n'],1,right,['1'],6,0.04455240000015692,,,,,,,3,19,Man,Rechts,2,
,xotask,xotask,dotcolour,44,0,44,344,training,positivefb,98,easy,72,0.5505742000000282,['c'],1,left,['1'],6,0.7013074000001325,,,,,,,3,19,Man,Rechts,2,
,xotask,xotask,dotcolour,45,0,45,345,training,positivefb,96,average,64,0.5827849999998307,['c'],1,left,['1'],6,0.01025219999996807,,,,,,,3,19,Man,Rechts,2,
,xotask,xotask,dotcolour,46,0,46,346,training,positivefb,96,easy,73,0.5000109999998585,['c'],1,left,['1'],6,0.06224229999997988,,,,,,,3,19,Man,Rechts,2,
,xotask,xotask,dotcolour,47,0,47,347,training,positivefb,97,hard,53,0.4842294000000038,['c'],1,left,['1'],6,0.02496629999996003,,,,,,,3,19,Man,Rechts,2,
,xotask,xotask,dotcolour,48,0,48,348,training,positivefb,93,easy,8,0.4841449000000466,['n'],1,right,['1'],6,0.07708920000004582,,,,,,,3,19,Man,Rechts,2,
,xotask,xotask,dotcolour,49,0,49,349,training,positivefb,92,average,62,0.9664248000001407,['c'],1,left,['2'],5,0.06769340000005286,,,,,,,3,19,Man,Rechts,2,
,xotask,xotask,dotcolour,50,0,50,350,training,positivefb,98,easy,5,0.5167084999998224,['n'],1,right,['1'],6,0.06827049999992596,,,,,,,3,19,Man,Rechts,2,
,xotask,xotask,dotcolour,51,0,51,351,training,positivefb,93,average,63,0.7999721999999565,['c'],1,left,['1'],6,0.0016819999998460844,,,,,,,3,19,Man,Rechts,2,
,xotask,xotask,dotcolour,52,0,52,352,training,positivefb,95,easy,6,0.5829941000001782,['n'],1,right,['1'],6,0.058204300000170406,,,,,,,3,19,Man,Rechts,2,
,xotask,xotask,dotcolour,53,0,53,353,training,positivefb,96,hard,27,0.6839874999998301,['n'],1,right,['1'],6,0.11705329999995229,,,,,,,3,19,Man,Rechts,2,
,xotask,xotask,dotcolour,54,0,54,354,training,positivefb,87,hard,51,0.6162157999999636,['n'],0,left,['1'],6,0.06376959999988685,,,,,,,3,19,Man,Rechts,2,
,xotask,xotask,dotcolour,55,0,55,355,training,positivefb,92,hard,26,0.6501467000000503,['n'],1,right,['1'],6,0.08279619999984789,,,,,,,3,19,Man,Rechts,2,
,xotask,xotask,dotcolour,56,0,56,356,training,positivefb,78,hard,26,0.8829765000000407,['n'],1,right,['1'],6,0.22007380000013654,,,,,,,3,19,Man,Rechts,2,
,xotask,xotask,dotcolour,57,0,57,357,training,positivefb,99,easy,8,0.5161095000000842,['n'],1,right,['1'],6,0.05523730000004434,,,,,,,3,19,Man,Rechts,2,
,xotask,xotask,dotcolour,58,0,58,358,training,positivefb,91,easy,73,0.5674438999999438,['c'],1,left,['1'],6,0.054446699999971315,,,,,,,3,19,Man,Rechts,2,
,xotask,xotask,dotcolour,59,0,59,359,training,positivefb,70,hard,28,1.567202099999804,['n'],1,right,['1'],6,0.125776599999881,,,,,,,3,19,Man,Rechts,2,
,xotask,xotask,dotcolour,0,1,60,360,training,positivefb,83,average,61,2.151676400000042,['c'],1,left,['1'],6,0.008965700000089782,,,,,,,3,19,Man,Rechts,2,
,xotask,xotask,dotcolour,1,1,61,361,training,positivefb,98,average,63,0.633652100000063,['c'],1,left,['1'],6,0.054857700000184195,,,,,,,3,19,Man,Rechts,2,
,xotask,xotask,dotcolour,2,1,62,362,training,positivefb,87,hard,29,0.8334105999999792,['n'],1,right,['2'],5,0.17150320000018837,,,,,,,3,19,Man,Rechts,2,
,xotask,xotask,dotcolour,3,1,63,363,training,positivefb,97,average,17,0.48305839999989075,['n'],1,right,['1'],6,0.06598859999985507,,,,,,,3,19,Man,Rechts,2,
,xotask,xotask,dotcolour,4,1,64,364,training,positivefb,94,average,62,0.5850705999998809,['c'],1,left,['1'],6,0.09544920000007551,,,,,,,3,19,Man,Rechts,2,
,xotask,xotask,dotcolour,5,1,65,365,training,positivefb,95,hard,28,0.5334166000000096,['n'],1,right,['1'],6,0.07105820000015228,,,,,,,3,19,Man,Rechts,2,
,xotask,xotask,dotcolour,6,1,66,366,training,positivefb,85,easy,72,0.9177790999999615,['c'],1,left,['1'],6,0.04777480000007017,,,,,,,3,19,Man,Rechts,2,
,xotask,xotask,dotcolour,7,1,67,367,training,positivefb,85,average,15,0.7995378999999048,['n'],1,right,['2'],5,0.3581131999999343,,,,,,,3,19,Man,Rechts,2,
,xotask,xotask,dotcolour,8,1,68,368,training,positivefb,94,easy,7,0.8165682999999717,['n'],1,right,['1'],6,0.07159880000017438,,,,,,,3,19,Man,Rechts,2,
,xotask,xotask,dotcolour,9,1,69,369,training,positivefb,85,hard,29,0.9511623000000782,['n'],1,right,['2'],5,0.18230270000003657,,,,,,,3,19,Man,Rechts,2,
,xotask,xotask,dotcolour,10,1,70,370,training,positivefb,93,average,64,0.6846065999998245,['c'],1,left,['1'],6,0.09939980000012838,,,,,,,3,19,Man,Rechts,2,
,xotask,xotask,dotcolour,11,1,71,371,training,positivefb,70,hard,25,1.5343568999999206,['n'],1,right,['2'],5,0.3550502000000506,,,,,,,3,19,Man,Rechts,2,
,xotask,xotask,dotcolour,12,1,72,372,training,positivefb,92,easy,5,0.7503462000001946,['n'],1,right,['1'],6,0.09425739999983307,,,,,,,3,19,Man,Rechts,2,
,xotask,xotask,dotcolour,13,1,73,373,training,positivefb,98,average,16,0.7332258999999794,['n'],1,right,['1'],6,0.12598879999995916,,,,,,,3,19,Man,Rechts,2,
,xotask,xotask,dotcolour,14,1,74,374,training,positivefb,93,easy,73,0.9153916000000208,['c'],1,left,['1'],6,0.0847764999998617,,,,,,,3,19,Man,Rechts,2,
,xotask,xotask,dotcolour,15,1,75,375,training,positivefb,90,easy,9,0.6498765999999705,['n'],1,right,['1'],6,0.0877292000000125,,,,,,,3,19,Man,Rechts,2,
,xotask,xotask,dotcolour,16,1,76,376,training,positivefb,88,hard,27,0.6333109000001969,['n'],1,right,['1'],6,0.15423290000012457,,,,,,,3,19,Man,Rechts,2,
,xotask,xotask,dotcolour,17,1,77,377,training,positivefb,96,easy,74,0.6343150000000151,['c'],1,left,['1'],6,0.06760810000014317,,,,,,,3,19,Man,Rechts,2,
,xotask,xotask,dotcolour,18,1,78,378,training,positivefb,98,easy,72,0.7163493000000472,['c'],1,left,['1'],6,0.43682429999989836,,,,,,,3,19,Man,Rechts,2,
,xotask,xotask,dotcolour,19,1,79,379,training,positivefb,55,average,15,0.5334692000001269,['c'],0,right,['0'],1,0.8774004000001696,,,,,,,3,19,Man,Rechts,2,
,xotask,xotask,dotcolour,20,1,80,380,training,positivefb,92,easy,72,0.7344004999999925,['c'],1,left,['1'],6,0.02215780000005907,,,,,,,3,19,Man,Rechts,2,
,xotask,xotask,dotcolour,21,1,81,381,training,positivefb,98,easy,5,0.5998317999999472,['n'],1,right,['1'],6,0.07755689999999049,,,,,,,3,19,Man,Rechts,2,
,xotask,xotask,dotcolour,22,1,82,382,training,positivefb,97,average,64,0.7839214000000538,['c'],1,left,['1'],6,0.035024399999883826,,,,,,,3,19,Man,Rechts,2,
,xotask,xotask,dotcolour,23,1,83,383,training,positivefb,61,hard,51,1.4983512999999675,['n'],0,left,['3'],4,0.9096632000000682,,,,,,,3,19,Man,Rechts,2,
,xotask,xotask,dotcolour,24,1,84,384,training,positivefb,92,average,15,1.216683699999976,['n'],1,right,['1'],6,0.0650206000000253,,,,,,,3,19,Man,Rechts,2,
,xotask,xotask,dotcolour,25,1,85,385,training,positivefb,94,average,16,0.6003986999999142,['n'],1,right,['1'],6,0.030087500000036016,,,,,,,3,19,Man,Rechts,2,
,xotask,xotask,dotcolour,26,1,86,386,training,positivefb,86,hard,52,1.3164984000000004,['c'],1,left,['3'],4,0.42502890000014304,,,,,,,3,19,Man,Rechts,2,
,xotask,xotask,dotcolour,27,1,87,387,training,positivefb,89,hard,26,0.565936499999907,['n'],1,right,['1'],6,0.06579430000010689,,,,,,,3,19,Man,Rechts,2,
,xotask,xotask,dotcolour,28,1,88,388,training,positivefb,95,average,60,1.066640199999938,['c'],1,left,['2'],5,0.07598360000019966,,,,,,,3,19,Man,Rechts,2,
,xotask,xotask,dotcolour,29,1,89,389,training,positivefb,94,hard,52,0.7838363000000754,['c'],1,left,['2'],5,0.12235480000003918,,,,,,,3,19,Man,Rechts,2,
,xotask,xotask,dotcolour,30,1,90,390,training,positivefb,90,average,63,0.7340712000000167,['c'],1,left,['1'],6,0.06374409999989439,,,,,,,3,19,Man,Rechts,2,
,xotask,xotask,dotcolour,31,1,91,391,training,positivefb,91,easy,73,0.5327678000001015,['c'],1,left,['1'],6,0.07289750000018103,,,,,,,3,19,Man,Rechts,2,
,xotask,xotask,dotcolour,32,1,92,392,training,positivefb,93,average,61,0.5658048000000235,['c'],1,left,['1'],6,0.031195899999829635,,,,,,,3,19,Man,Rechts,2,
,xotask,xotask,dotcolour,33,1,93,393,training,positivefb,92,hard,25,0.8501825000000736,['n'],1,right,['2'],5,0.4680863999999474,,,,,,,3,19,Man,Rechts,2,
,xotask,xotask,dotcolour,34,1,94,394,training,positivefb,94,average,62,1.0672111000001223,['c'],1,left,['1'],6,0.06326019999983146,,,,,,,3,19,Man,Rechts,2,
,xotask,xotask,dotcolour,35,1,95,395,training,positivefb,93,easy,7,0.5340172999999595,['n'],1,right,['1'],6,0.047275899999931426,,,,,,,3,19,Man,Rechts,2,
,xotask,xotask,dotcolour,36,1,96,396,training,positivefb,93,hard,51,0.8006775999999718,['c'],1,left,['1'],6,0.05353879999984201,,,,,,,3,19,Man,Rechts,2,
,xotask,xotask,dotcolour,37,1,97,397,training,positivefb,88,easy,70,0.5490076999999474,['c'],1,left,['1'],6,0.04523009999979877,,,,,,,3,19,Man,Rechts,2,
,xotask,xotask,dotcolour,38,1,98,398,training,positivefb,96,hard,53,0.6839472999999998,['n'],0,left,['1'],6,0.09719160000008742,,,,,,,3,19,Man,Rechts,2,
,xotask,xotask,dotcolour,39,1,99,399,training,positivefb,95,easy,73,0.5662082999999711,['c'],1,left,['1'],6,0.03133290000005218,,,,,,,3,19,Man,Rechts,2,
,xotask,xotask,dotcolour,40,1,100,400,training,positivefb,98,average,16,0.5508348000000751,['n'],1,right,['2'],5,0.47992629999998826,,,,,,,3,19,Man,Rechts,2,
,xotask,xotask,dotcolour,41,1,101,401,training,positivefb,95,easy,9,0.7830705999999736,['n'],1,right,['1'],6,0.0373615000000882,,,,,,,3,19,Man,Rechts,2,
,xotask,xotask,dotcolour,42,1,102,402,training,positivefb,79,hard,54,1.934021600000051,['n'],0,left,['3'],4,0.8710899000000154,,,,,,,3,19,Man,Rechts,2,
,xotask,xotask,dotcolour,43,1,103,403,training,positivefb,97,hard,28,0.7993309999999383,['n'],1,right,['1'],6,0.06008049999991272,,,,,,,3,19,Man,Rechts,2,
,xotask,xotask,dotcolour,44,1,104,404,training,positivefb,87,hard,54,1.1176011000000017,['c'],1,left,['1'],6,0.03756410000005417,,,,,,,3,19,Man,Rechts,2,
,xotask,xotask,dotcolour,45,1,105,405,training,positivefb,96,hard,53,0.6835547999999108,['c'],1,left,['1'],6,0.6010419000001548,,,,,,,3,19,Man,Rechts,2,
,xotask,xotask,dotcolour,46,1,106,406,training,positivefb,91,easy,72,0.617260700000088,['c'],1,left,['1'],6,0.03242509999995491,,,,,,,3,19,Man,Rechts,2,
,xotask,xotask,dotcolour,47,1,107,407,training,positivefb,97,easy,71,0.534114000000045,['c'],1,left,['1'],6,0.041481900000007954,,,,,,,3,19,Man,Rechts,2,
,xotask,xotask,dotcolour,48,1,108,408,training,positivefb,95,easy,6,0.46752489999994395,['n'],1,right,['1'],6,0.04580699999996796,,,,,,,3,19,Man,Rechts,2,
,xotask,xotask,dotcolour,49,1,109,409,training,positivefb,95,average,18,0.7336067999999614,['n'],1,right,['1'],6,0.0312076000000161,,,,,,,3,19,Man,Rechts,2,
,xotask,xotask,dotcolour,50,1,110,410,training,positivefb,97,easy,5,0.550266499999907,['n'],1,right,['1'],6,0.8156782000000931,,,,,,,3,19,Man,Rechts,2,
,xotask,xotask,dotcolour,51,1,111,411,training,positivefb,86,hard,26,1.0337646999998924,['n'],1,right,['1'],6,0.06188750000001164,,,,,,,3,19,Man,Rechts,2,
,xotask,xotask,dotcolour,52,1,112,412,training,positivefb,97,average,15,0.5671273000000383,['n'],1,right,['1'],6,0.0691138999998202,,,,,,,3,19,Man,Rechts,2,
,xotask,xotask,dotcolour,53,1,113,413,training,positivefb,87,hard,52,1.8169682000000194,['n'],0,left,['2'],5,0.3216098999998849,,,,,,,3,19,Man,Rechts,2,
,xotask,xotask,dotcolour,54,1,114,414,training,positivefb,97,easy,9,0.6007630999999947,['n'],1,right,['1'],6,0.028776200000038443,,,,,,,3,19,Man,Rechts,2,
,xotask,xotask,dotcolour,55,1,115,415,training,positivefb,86,average,64,0.9340968999999859,['c'],1,left,['1'],6,0.5670779999998103,,,,,,,3,19,Man,Rechts,2,
,xotask,xotask,dotcolour,56,1,116,416,training,positivefb,92,easy,6,0.6005084000000807,['n'],1,right,['1'],6,0.10433340000008684,,,,,,,3,19,Man,Rechts,2,
,xotask,xotask,dotcolour,57,1,117,417,training,positivefb,78,hard,54,1.2680118000000675,['n'],0,left,['3'],4,1.218557699999792,,,,,,,3,19,Man,Rechts,2,
,xotask,xotask,dotcolour,58,1,118,418,training,positivefb,84,hard,29,1.4834244999999555,['n'],1,right,['1'],6,0.1094682999998895,,,,,,,3,19,Man,Rechts,2,
,xotask,xotask,dotcolour,59,1,119,419,training,positivefb,94,average,17,0.6012349000000086,['n'],1,right,['1'],6,0.06576259999997092,,,,,,,3,19,Man,Rechts,2,
,xotask,xotask,dotcolour,0,2,120,420,main,positivefb,-99,easy,70,1.3841121000000385,['c'],1,left,['2'],5,0.14434669999991456,,,,,,,3,19,Man,Rechts,2,
,xotask,xotask,dotcolour,1,2,121,421,main,positivefb,-99,average,64,0.7005486000000474,['c'],1,left,['1'],6,0.07225530000005165,,,,,,,3,19,Man,Rechts,2,
,xotask,xotask,dotcolour,2,2,122,422,main,positivefb,-99,hard,52,0.93396040000016,['n'],0,left,['1'],6,0.12046400000008362,,,,,,,3,19,Man,Rechts,2,
,xotask,xotask,dotcolour,3,2,123,423,main,positivefb,-99,easy,74,0.7345697999999174,['c'],1,left,['1'],6,0.06368610000004082,,,,,,,3,19,Man,Rechts,2,
,xotask,xotask,dotcolour,4,2,124,424,main,positivefb,-99,easy,8,0.7000393000000713,['n'],1,right,['1'],6,0.06584689999999682,,,,,,,3,19,Man,Rechts,2,
,xotask,xotask,dotcolour,5,2,125,425,main,positivefb,-99,easy,6,0.5999973000000409,['n'],1,right,['1'],6,0.09560880000003635,,,,,,,3,19,Man,Rechts,2,
,xotask,xotask,dotcolour,6,2,126,426,main,positivefb,-99,hard,52,0.6842113000000154,['c'],1,left,['2'],5,0.11367549999999937,,,,,,,3,19,Man,Rechts,2,
,xotask,xotask,dotcolour,7,2,127,427,main,positivefb,-99,average,61,0.73342179999986,['c'],1,left,['2'],5,0.097898799999939,,,,,,,3,19,Man,Rechts,2,
,xotask,xotask,dotcolour,8,2,128,428,main,positivefb,-99,average,63,0.6847381999998561,['c'],1,left,['1'],6,0.33922099999995226,,,,,,,3,19,Man,Rechts,2,
,xotask,xotask,dotcolour,9,2,129,429,main,positivefb,-99,average,61,0.6171469999999317,['c'],1,left,['1'],6,0.08554099999992104,,,,,,,3,19,Man,Rechts,2,
,xotask,xotask,dotcolour,10,2,130,430,main,positivefb,-99,average,18,0.7838656000001265,['n'],1,right,['1'],6,0.09891510000011294,,,,,,,3,19,Man,Rechts,2,
,xotask,xotask,dotcolour,11,2,131,431,main,positivefb,-99,easy,6,0.5168721000000005,['n'],1,right,['1'],6,0.051840800000036324,,,,,,,3,19,Man,Rechts,2,
,xotask,xotask,dotcolour,12,2,132,432,main,positivefb,-99,average,15,0.550685200000089,['n'],1,right,['1'],6,0.06813750000014807,,,,,,,3,19,Man,Rechts,2,
,xotask,xotask,dotcolour,13,2,133,433,main,positivefb,-99,easy,71,0.6175464000000375,['c'],1,left,['1'],6,0.057300400000031004,,,,,,,3,19,Man,Rechts,2,
,xotask,xotask,dotcolour,14,2,134,434,main,positivefb,-99,average,64,0.8840628999998899,['c'],1,left,['2'],5,0.17303169999991042,,,,,,,3,19,Man,Rechts,2,
,xotask,xotask,dotcolour,15,2,135,435,main,positivefb,-99,easy,74,0.7018169999998918,['c'],1,left,['1'],6,0.21911020000015924,,,,,,,3,19,Man,Rechts,2,
,xotask,xotask,dotcolour,16,2,136,436,main,positivefb,-99,hard,28,0.7173176999999669,['n'],1,right,['1'],6,0.10989850000009938,,,,,,,3,19,Man,Rechts,2,
,xotask,xotask,dotcolour,17,2,137,437,main,positivefb,-99,hard,51,1.0350793999998587,['c'],1,left,['2'],5,0.05810440000004746,,,,,,,3,19,Man,Rechts,2,
,xotask,xotask,dotcolour,18,2,138,438,main,positivefb,-99,hard,27,1.117693700000018,['n'],1,right,['1'],6,0.08410830000002534,,,,,,,3,19,Man,Rechts,2,
,xotask,xotask,dotcolour,19,2,139,439,main,positivefb,-99,hard,54,1.317248900000095,['c'],1,left,['2'],5,0.1804751000001943,,,,,,,3,19,Man,Rechts,2,
,xotask,xotask,dotcolour,20,2,140,440,main,positivefb,-99,average,19,0.9342750000000706,['n'],1,right,['1'],6,0.08852679999995416,,,,,,,3,19,Man,Rechts,2,
,xotask,xotask,dotcolour,21,2,141,441,main,positivefb,-99,hard,51,0.8507844999999179,['c'],1,left,['2'],5,0.7164662000000135,,,,,,,3,19,Man,Rechts,2,
,xotask,xotask,dotcolour,22,2,142,442,main,positivefb,-99,hard,26,0.6344099000000369,['n'],1,right,['1'],6,0.04667169999993348,,,,,,,3,19,Man,Rechts,2,
,xotask,xotask,dotcolour,23,2,143,443,main,positivefb,-99,hard,29,0.9675987999999052,['c'],0,right,['0'],1,0.8235171000001174,,,,,,,3,19,Man,Rechts,2,
,xotask,xotask,dotcolour,24,2,144,444,main,positivefb,-99,hard,27,0.6168098000000555,['n'],1,right,['1'],6,0.06394490000002406,,,,,,,3,19,Man,Rechts,2,
,xotask,xotask,dotcolour,25,2,145,445,main,positivefb,-99,easy,72,0.8174930000000131,['c'],1,left,['1'],6,0.27664149999986876,,,,,,,3,19,Man,Rechts,2,
,xotask,xotask,dotcolour,26,2,146,446,main,positivefb,-99,easy,8,0.9176066999998511,['n'],1,right,['1'],6,0.1420192999999017,,,,,,,3,19,Man,Rechts,2,
,xotask,xotask,dotcolour,27,2,147,447,main,positivefb,-99,hard,25,0.6513562000000093,['n'],1,right,['1'],6,0.11990500000001703,,,,,,,3,19,Man,Rechts,2,
,xotask,xotask,dotcolour,28,2,148,448,main,positivefb,-99,easy,74,1.067837400000144,['c'],1,left,['2'],5,0.12910320000014508,,,,,,,3,19,Man,Rechts,2,
,xotask,xotask,dotcolour,29,2,149,449,main,positivefb,-99,average,15,0.616906599999993,['n'],1,right,['1'],6,0.1239219999999932,,,,,,,3,19,Man,Rechts,2,
,xotask,xotask,dotcolour,30,2,150,450,main,positivefb,-99,average,17,0.5175153000000137,['n'],1,right,['1'],6,0.06756190000010065,,,,,,,3,19,Man,Rechts,2,
,xotask,xotask,dotcolour,31,2,151,451,main,positivefb,-99,hard,26,0.6508000000001175,['n'],1,right,['1'],6,0.13506789999996727,,,,,,,3,19,Man,Rechts,2,
,xotask,xotask,dotcolour,32,2,152,452,main,positivefb,-99,easy,73,0.7839165000000321,['c'],1,left,['1'],6,0.020225600000003396,,,,,,,3,19,Man,Rechts,2,
,xotask,xotask,dotcolour,33,2,153,453,main,positivefb,-99,average,17,0.8499751999997898,['n'],1,right,['1'],6,0.4414310999998179,,,,,,,3,19,Man,Rechts,2,
,xotask,xotask,dotcolour,34,2,154,454,main,positivefb,-99,hard,25,0.7849300000000312,['n'],1,right,['2'],5,0.3539661999998316,,,,,,,3,19,Man,Rechts,2,
,xotask,xotask,dotcolour,35,2,155,455,main,positivefb,-99,easy,71,0.7675069000001713,['c'],1,left,['1'],6,0.3817291000000296,,,,,,,3,19,Man,Rechts,2,
,xotask,xotask,dotcolour,36,2,156,456,main,positivefb,-99,average,64,0.6006109999998444,['c'],1,left,['1'],6,0.33505970000010166,,,,,,,3,19,Man,Rechts,2,
,xotask,xotask,dotcolour,37,2,157,457,main,positivefb,-99,hard,54,1.0671646000000692,['n'],0,left,['2'],5,0.6794405999999071,,,,,,,3,19,Man,Rechts,2,
,xotask,xotask,dotcolour,38,2,158,458,main,positivefb,-99,easy,72,0.7170364999999492,['c'],1,left,['1'],6,0.1452328000000307,,,,,,,3,19,Man,Rechts,2,
,xotask,xotask,dotcolour,39,2,159,459,main,positivefb,-99,easy,8,0.699313100000154,['n'],1,right,['1'],6,0.11230690000002141,,,,,,,3,19,Man,Rechts,2,
,xotask,xotask,dotcolour,40,2,160,460,main,positivefb,-99,easy,7,0.6179697999998552,['n'],1,right,['1'],6,0.036008499999979904,,,,,,,3,19,Man,Rechts,2,
,xotask,xotask,dotcolour,41,2,161,461,main,positivefb,-99,hard,50,0.7849630000000616,['c'],1,left,['2'],5,0.21233389999997598,,,,,,,3,19,Man,Rechts,2,
,xotask,xotask,dotcolour,42,2,162,462,main,positivefb,-99,hard,28,0.8337982999998985,['c'],0,right,['1'],6,0.1158780000000661,,,,,,,3,19,Man,Rechts,2,
,xotask,xotask,dotcolour,43,2,163,463,main,positivefb,-99,average,61,0.5854347999998026,['c'],1,left,['1'],6,0.15264999999999418,,,,,,,3,19,Man,Rechts,2,
,xotask,xotask,dotcolour,44,2,164,464,main,positivefb,-99,average,60,0.8342419999999038,['c'],1,left,['2'],5,0.11384369999996125,,,,,,,3,19,Man,Rechts,2,
,xotask,xotask,dotcolour,45,2,165,465,main,positivefb,-99,average,60,0.8338681000000179,['c'],1,left,['2'],5,0.20509280000010222,,,,,,,3,19,Man,Rechts,2,
,xotask,xotask,dotcolour,46,2,166,466,main,positivefb,-99,average,18,0.701904900000045,['n'],1,right,['1'],6,0.08998539999993227,,,,,,,3,19,Man,Rechts,2,
,xotask,xotask,dotcolour,47,2,167,467,main,positivefb,-99,easy,9,0.7347253999998884,['n'],1,right,['1'],6,0.0892386999998962,,,,,,,3,19,Man,Rechts,2,
,xotask,xotask,dotcolour,48,2,168,468,main,positivefb,-99,average,18,0.6679185000000416,['n'],1,right,['1'],6,0.12408520000008139,,,,,,,3,19,Man,Rechts,2,
,xotask,xotask,dotcolour,49,2,169,469,main,positivefb,-99,easy,9,0.8340580999999929,['n'],1,right,['1'],6,0.06351850000010018,,,,,,,3,19,Man,Rechts,2,
,xotask,xotask,dotcolour,50,2,170,470,main,positivefb,-99,hard,50,1.6175878999999895,['n'],0,left,['3'],4,0.1810580999999729,,,,,,,3,19,Man,Rechts,2,
,xotask,xotask,dotcolour,51,2,171,471,main,positivefb,-99,easy,72,0.8010571999998319,['n'],0,left,['8'],3,1.1505454000000555,,,,,,,3,19,Man,Rechts,2,
,xotask,xotask,dotcolour,52,2,172,472,main,positivefb,-99,hard,51,1.9843418999998903,['n'],0,left,['3'],4,0.32931220000000394,,,,,,,3,19,Man,Rechts,2,
,xotask,xotask,dotcolour,53,2,173,473,main,positivefb,-99,hard,26,1.2673525000000154,['n'],1,right,['2'],5,0.20313709999982166,,,,,,,3,19,Man,Rechts,2,
,xotask,xotask,dotcolour,54,2,174,474,main,positivefb,-99,average,16,0.5676841000001787,['n'],1,right,['1'],6,0.09309400000006463,,,,,,,3,19,Man,Rechts,2,
,xotask,xotask,dotcolour,55,2,175,475,main,positivefb,-99,hard,50,0.8510238999999729,['c'],1,left,['1'],6,0.0885304000000815,,,,,,,3,19,Man,Rechts,2,
,xotask,xotask,dotcolour,56,2,176,476,main,positivefb,-99,average,16,0.9001612999998088,['n'],1,right,['2'],5,0.41799730000002455,,,,,,,3,19,Man,Rechts,2,
,xotask,xotask,dotcolour,57,2,177,477,main,positivefb,-99,easy,8,0.7669422999999824,['n'],1,right,['1'],6,0.21204549999993105,,,,,,,3,19,Man,Rechts,2,
,xotask,xotask,dotcolour,58,2,178,478,main,positivefb,-99,average,63,1.1179896999999528,['c'],1,left,['1'],6,0.7594784999998865,,,,,,,3,19,Man,Rechts,2,
,xotask,xotask,dotcolour,59,2,179,479,main,positivefb,-99,easy,6,0.718350700000201,['n'],1,right,['1'],6,0.061581200000091485,,,,,,,3,19,Man,Rechts,2,
,xotask,xotask,dotcolour,0,3,180,480,main,positivefb,-99,easy,74,1.2185972999998285,['c'],1,left,['2'],5,0.10472200000003795,,,,,,,3,19,Man,Rechts,2,
,xotask,xotask,dotcolour,1,3,181,481,main,positivefb,-99,hard,26,0.9515205000000151,['n'],1,right,['1'],6,0.03095260000009148,,,,,,,3,19,Man,Rechts,2,
,xotask,xotask,dotcolour,2,3,182,482,main,positivefb,-99,average,17,0.6831700000000183,['n'],1,right,['1'],6,0.03545450000001438,,,,,,,3,19,Man,Rechts,2,
,xotask,xotask,dotcolour,3,3,183,483,main,positivefb,-99,average,64,0.6683573000000251,['c'],1,left,['1'],6,0.008523999999852094,,,,,,,3,19,Man,Rechts,2,
,xotask,xotask,dotcolour,4,3,184,484,main,positivefb,-99,easy,6,0.7501865000001544,['n'],1,right,['1'],6,0.29039749999992637,,,,,,,3,19,Man,Rechts,2,
,xotask,xotask,dotcolour,5,3,185,485,main,positivefb,-99,hard,29,1.1342621999999665,['n'],1,right,['2'],5,0.23458110000001398,,,,,,,3,19,Man,Rechts,2,
,xotask,xotask,dotcolour,6,3,186,486,main,positivefb,-99,hard,54,0.783746199999996,['c'],1,left,['2'],5,0.17928639999990992,,,,,,,3,19,Man,Rechts,2,
,xotask,xotask,dotcolour,7,3,187,487,main,positivefb,-99,average,19,0.8841837999998461,['n'],1,right,['2'],5,0.6013273000000936,,,,,,,3,19,Man,Rechts,2,
,xotask,xotask,dotcolour,8,3,188,488,main,positivefb,-99,hard,25,0.6008736999999655,['n'],1,right,['1'],6,0.19459379999989324,,,,,,,3,19,Man,Rechts,2,
,xotask,xotask,dotcolour,9,3,189,489,main,positivefb,-99,hard,28,0.5504340999998476,['n'],1,right,['1'],6,0.661865300000045,,,,,,,3,19,Man,Rechts,2,
,xotask,xotask,dotcolour,10,3,190,490,main,positivefb,-99,easy,6,0.9178233999998611,['n'],1,right,['1'],6,0.18318070000009357,,,,,,,3,19,Man,Rechts,2,
,xotask,xotask,dotcolour,11,3,191,491,main,positivefb,-99,hard,50,1.0678832999999486,['c'],1,left,['2'],5,0.10171700000000783,,,,,,,3,19,Man,Rechts,2,
,xotask,xotask,dotcolour,12,3,192,492,main,positivefb,-99,average,17,0.7160722999999507,['n'],1,right,['1'],6,0.09343229999990399,,,,,,,3,19,Man,Rechts,2,
,xotask,xotask,dotcolour,13,3,193,493,main,positivefb,-99,hard,27,0.6847144999999273,['n'],1,right,['1'],6,0.12781219999988025,,,,,,,3,19,Man,Rechts,2,
,xotask,xotask,dotcolour,14,3,194,494,main,positivefb,-99,average,63,0.917799099999911,['c'],1,left,['9'],2,1.2235288000001674,,,,,,,3,19,Man,Rechts,2,
,xotask,xotask,dotcolour,15,3,195,495,main,positivefb,-99,average,16,0.633723800000098,['n'],1,right,['1'],6,0.17435569999997824,,,,,,,3,19,Man,Rechts,2,
,xotask,xotask,dotcolour,16,3,196,496,main,positivefb,-99,average,60,0.7842143000000306,['c'],1,left,['1'],6,0.8801359000001412,,,,,,,3,19,Man,Rechts,2,
,xotask,xotask,dotcolour,17,3,197,497,main,positivefb,-99,hard,29,2.8179837000000134,['n'],1,right,['3'],4,0.3827234000000317,,,,,,,3,19,Man,Rechts,2,
,xotask,xotask,dotcolour,18,3,198,498,main,positivefb,-99,average,17,0.718121599999904,['n'],1,right,['2'],5,0.3066626999998334,,,,,,,3,19,Man,Rechts,2,
,xotask,xotask,dotcolour,19,3,199,499,main,positivefb,-99,easy,6,0.6674936999997954,['n'],1,right,['1'],6,0.04496149999999943,,,,,,,3,19,Man,Rechts,2,
,xotask,xotask,dotcolour,20,3,200,500,main,positivefb,-99,hard,27,1.1837259000001268,['n'],1,right,['1'],6,0.09301780000009785,,,,,,,3,19,Man,Rechts,2,
,xotask,xotask,dotcolour,21,3,201,501,main,positivefb,-99,easy,6,0.6830881000000772,['n'],1,right,['1'],6,0.0707167999999001,,,,,,,3,19,Man,Rechts,2,
,xotask,xotask,dotcolour,22,3,202,502,main,positivefb,-99,easy,8,0.5330891999999494,['n'],1,right,['1'],6,0.03148319999991145,,,,,,,3,19,Man,Rechts,2,
,xotask,xotask,dotcolour,23,3,203,503,main,positivefb,-99,easy,72,0.6501593999998931,['c'],1,left,['2'],5,0.2927936999999474,,,,,,,3,19,Man,Rechts,2,
,xotask,xotask,dotcolour,24,3,204,504,main,positivefb,-99,average,62,0.6674474999999802,['c'],1,left,['2'],5,0.07949839999992037,,,,,,,3,19,Man,Rechts,2,
,xotask,xotask,dotcolour,25,3,205,505,main,positivefb,-99,average,63,0.9015715999998974,['c'],1,left,['2'],5,0.13778200000001561,,,,,,,3,19,Man,Rechts,2,
,xotask,xotask,dotcolour,26,3,206,506,main,positivefb,-99,easy,8,0.5504331999998158,['n'],1,right,['1'],6,0.0626219000000674,,,,,,,3,19,Man,Rechts,2,
,xotask,xotask,dotcolour,27,3,207,507,main,positivefb,-99,easy,6,0.46794699999986733,['n'],1,right,['1'],6,0.03478840000002492,,,,,,,3,19,Man,Rechts,2,
,xotask,xotask,dotcolour,28,3,208,508,main,positivefb,-99,average,64,0.7509026000000176,['c'],1,left,['2'],5,0.13984110000001237,,,,,,,3,19,Man,Rechts,2,
,xotask,xotask,dotcolour,29,3,209,509,main,positivefb,-99,easy,71,0.6678627999999662,['c'],1,left,['1'],6,0.045121899999912785,,,,,,,3,19,Man,Rechts,2,
,xotask,xotask,dotcolour,30,3,210,510,main,positivefb,-99,hard,53,0.6002837000000909,['c'],1,left,['1'],6,0.09167909999996482,,,,,,,3,19,Man,Rechts,2,
,xotask,xotask,dotcolour,31,3,211,511,main,positivefb,-99,hard,53,0.5346792999998797,['c'],1,left,['2'],5,0.21946220000018002,,,,,,,3,19,Man,Rechts,2,
,xotask,xotask,dotcolour,32,3,212,512,main,positivefb,-99,hard,25,0.6833586000000196,['n'],1,right,['2'],5,0.3608704000000671,,,,,,,3,19,Man,Rechts,2,
,xotask,xotask,dotcolour,33,3,213,513,main,positivefb,-99,average,64,0.9508758000001762,['c'],1,left,['2'],5,0.25314000000003034,,,,,,,3,19,Man,Rechts,2,
,xotask,xotask,dotcolour,34,3,214,514,main,positivefb,-99,easy,74,0.601403399999981,['c'],1,left,['1'],6,0.028050200000052428,,,,,,,3,19,Man,Rechts,2,
,xotask,xotask,dotcolour,35,3,215,515,main,positivefb,-99,easy,70,0.6839439999998831,['c'],1,left,['1'],6,0.0007041000001208886,,,,,,,3,19,Man,Rechts,2,
,xotask,xotask,dotcolour,36,3,216,516,main,positivefb,-99,easy,7,0.5838846999999987,['n'],1,right,['1'],6,0.07455979999986084,,,,,,,3,19,Man,Rechts,2,
,xotask,xotask,dotcolour,37,3,217,517,main,positivefb,-99,hard,52,0.5842781000001196,['c'],1,left,['1'],6,0.36886470000013105,,,,,,,3,19,Man,Rechts,2,
,xotask,xotask,dotcolour,38,3,218,518,main,positivefb,-99,average,19,0.9336424999999053,['n'],1,right,['2'],5,0.35750789999997323,,,,,,,3,19,Man,Rechts,2,
,xotask,xotask,dotcolour,39,3,219,519,main,positivefb,-99,average,15,0.7348673999999846,['n'],1,right,['1'],6,0.2915392999998403,,,,,,,3,19,Man,Rechts,2,
,xotask,xotask,dotcolour,40,3,220,520,main,positivefb,-99,easy,72,0.7183082999999897,['c'],1,left,['1'],6,0.05923340000003918,,,,,,,3,19,Man,Rechts,2,
,xotask,xotask,dotcolour,41,3,221,521,main,positivefb,-99,hard,52,0.6837136000001465,['c'],1,left,['1'],6,0.022844500000019252,,,,,,,3,19,Man,Rechts,2,
,xotask,xotask,dotcolour,42,3,222,522,main,positivefb,-99,average,62,0.5995909999999185,['c'],1,left,['1'],6,0.047479600000087885,,,,,,,3,19,Man,Rechts,2,
,xotask,xotask,dotcolour,43,3,223,523,main,positivefb,-99,average,64,0.6006529999999657,['n'],0,left,['1'],6,0.11769750000007662,,,,,,,3,19,Man,Rechts,2,
,xotask,xotask,dotcolour,44,3,224,524,main,positivefb,-99,average,60,0.7166062999999667,['n'],0,left,['9'],2,1.2619595000001027,,,,,,,3,19,Man,Rechts,2,
,xotask,xotask,dotcolour,45,3,225,525,main,positivefb,-99,hard,26,0.9518560999999863,['c'],0,right,['3'],4,2.062634899999921,,,,,,,3,19,Man,Rechts,2,
,xotask,xotask,dotcolour,46,3,226,526,main,positivefb,-99,hard,53,2.1999523000001773,['c'],1,left,['3'],4,0.26093760000003385,,,,,,,3,19,Man,Rechts,2,
,xotask,xotask,dotcolour,47,3,227,527,main,positivefb,-99,easy,72,0.7342192000000978,['c'],1,left,['2'],5,0.4788266999998996,,,,,,,3,19,Man,Rechts,2,
,xotask,xotask,dotcolour,48,3,228,528,main,positivefb,-99,hard,50,0.7504210000001876,['c'],1,left,['1'],6,0.006643499999881897,,,,,,,3,19,Man,Rechts,2,
,xotask,xotask,dotcolour,49,3,229,529,main,positivefb,-99,hard,51,1.0500958999998602,['n'],0,left,['3'],4,0.3729372999998759,,,,,,,3,19,Man,Rechts,2,
,xotask,xotask,dotcolour,50,3,230,530,main,positivefb,-99,average,17,0.633810899999844,['n'],1,right,['3'],4,0.17360419999999976,,,,,,,3,19,Man,Rechts,2,
,xotask,xotask,dotcolour,51,3,231,531,main,positivefb,-99,easy,72,0.7682127999999011,['c'],1,left,['1'],6,0.04116950000002362,,,,,,,3,19,Man,Rechts,2,
,xotask,xotask,dotcolour,52,3,232,532,main,positivefb,-99,easy,72,0.5337122999999337,['c'],1,left,['1'],6,0.05125950000001467,,,,,,,3,19,Man,Rechts,2,
,xotask,xotask,dotcolour,53,3,233,533,main,positivefb,-99,average,16,0.8504087999999683,['n'],1,right,['1'],6,0.10308820000000196,,,,,,,3,19,Man,Rechts,2,
,xotask,xotask,dotcolour,54,3,234,534,main,positivefb,-99,easy,5,0.5339038999998138,['n'],1,right,['1'],6,0.06304649999992762,,,,,,,3,19,Man,Rechts,2,
,xotask,xotask,dotcolour,55,3,235,535,main,positivefb,-99,hard,51,0.8168128999996043,['c'],1,left,['3'],4,0.34114199999976336,,,,,,,3,19,Man,Rechts,2,
,xotask,xotask,dotcolour,56,3,236,536,main,positivefb,-99,average,18,0.6004266999998435,['n'],1,right,['1'],6,0.08797679999997854,,,,,,,3,19,Man,Rechts,2,
,xotask,xotask,dotcolour,57,3,237,537,main,positivefb,-99,easy,74,0.6513321000002179,['c'],1,left,['1'],6,0.315820000000258,,,,,,,3,19,Man,Rechts,2,
,xotask,xotask,dotcolour,58,3,238,538,main,positivefb,-99,easy,7,0.584796500000266,['n'],1,right,['1'],6,0.04065999999966152,,,,,,,3,19,Man,Rechts,2,
,xotask,xotask,dotcolour,59,3,239,539,main,positivefb,-99,hard,27,1.90106969999988,['n'],1,right,['3'],4,0.3644400000002861,,,,,,,3,19,Man,Rechts,2,
,xotask,xotask,dotcolour,0,4,240,540,main,positivefb,-99,average,16,1.0511434000000008,['n'],1,right,['1'],6,0.09705619999976989,,,,,,,3,19,Man,Rechts,2,
,xotask,xotask,dotcolour,1,4,241,541,main,positivefb,-99,hard,26,1.134802000000036,['n'],1,right,['2'],5,0.17739250000022366,,,,,,,3,19,Man,Rechts,2,
,xotask,xotask,dotcolour,2,4,242,542,main,positivefb,-99,hard,27,0.5510162999999011,['n'],1,right,['1'],6,0.061276099999759026,,,,,,,3,19,Man,Rechts,2,
,xotask,xotask,dotcolour,3,4,243,543,main,positivefb,-99,hard,53,0.5844581999999718,['c'],1,left,['1'],6,0.0364955000000009,,,,,,,3,19,Man,Rechts,2,
,xotask,xotask,dotcolour,4,4,244,544,main,positivefb,-99,easy,73,0.5505851999996594,['c'],1,left,['1'],6,0.029619200000070123,,,,,,,3,19,Man,Rechts,2,
,xotask,xotask,dotcolour,5,4,245,545,main,positivefb,-99,easy,74,0.5007651999999325,['c'],1,left,['1'],6,0.04191480000008596,,,,,,,3,19,Man,Rechts,2,
,xotask,xotask,dotcolour,6,4,246,546,main,positivefb,-99,hard,28,0.4335679999999229,['n'],1,right,['1'],6,0.08735340000021097,,,,,,,3,19,Man,Rechts,2,
,xotask,xotask,dotcolour,7,4,247,547,main,positivefb,-99,easy,74,0.8660537999999178,['c'],1,left,['1'],6,0.04293199999983699,,,,,,,3,19,Man,Rechts,2,
,xotask,xotask,dotcolour,8,4,248,548,main,positivefb,-99,hard,29,1.0847235000001092,['c'],0,right,['2'],5,0.07819930000005115,,,,,,,3,19,Man,Rechts,2,
,xotask,xotask,dotcolour,9,4,249,549,main,positivefb,-99,average,64,0.7014543000000231,['c'],1,left,['2'],5,0.23215639999989435,,,,,,,3,19,Man,Rechts,2,
,xotask,xotask,dotcolour,10,4,250,550,main,positivefb,-99,average,64,0.6339629999997669,['c'],1,left,['1'],6,0.06212709999999788,,,,,,,3,19,Man,Rechts,2,
,xotask,xotask,dotcolour,11,4,251,551,main,positivefb,-99,average,15,0.5673248000002786,['n'],1,right,['1'],6,0.08653119999962655,,,,,,,3,19,Man,Rechts,2,
,xotask,xotask,dotcolour,12,4,252,552,main,positivefb,-99,easy,8,0.4841307000001507,['n'],1,right,['1'],6,0.05606859999988956,,,,,,,3,19,Man,Rechts,2,
,xotask,xotask,dotcolour,13,4,253,553,main,positivefb,-99,hard,26,0.6343216000000211,['n'],1,right,['1'],6,0.05382680000002438,,,,,,,3,19,Man,Rechts,2,
,xotask,xotask,dotcolour,14,4,254,554,main,positivefb,-99,hard,28,0.817933400000129,['c'],0,right,['3'],4,0.38790560000006735,,,,,,,3,19,Man,Rechts,2,
,xotask,xotask,dotcolour,15,4,255,555,main,positivefb,-99,average,62,1.1013377999997829,['c'],1,left,['2'],5,0.06539599999996426,,,,,,,3,19,Man,Rechts,2,
,xotask,xotask,dotcolour,16,4,256,556,main,positivefb,-99,easy,72,0.5512408999998115,['c'],1,left,['1'],6,0.08952999999974054,,,,,,,3,19,Man,Rechts,2,
,xotask,xotask,dotcolour,17,4,257,557,main,positivefb,-99,easy,7,0.5176068999999188,['n'],1,right,['1'],6,0.08144590000028984,,,,,,,3,19,Man,Rechts,2,
,xotask,xotask,dotcolour,18,4,258,558,main,positivefb,-99,hard,29,0.6999808999999004,['n'],1,right,['2'],5,0.29133890000002793,,,,,,,3,19,Man,Rechts,2,
,xotask,xotask,dotcolour,19,4,259,559,main,positivefb,-99,hard,54,0.7180594999999812,['c'],1,left,['2'],5,0.21181220000016765,,,,,,,3,19,Man,Rechts,2,
,xotask,xotask,dotcolour,20,4,260,560,main,positivefb,-99,easy,70,0.7345456999996713,['n'],0,left,['0'],1,1.143349500000113,,,,,,,3,19,Man,Rechts,2,
,xotask,xotask,dotcolour,21,4,261,561,main,positivefb,-99,average,18,0.7007026000001133,['n'],1,right,['1'],6,0.0626524999997855,,,,,,,3,19,Man,Rechts,2,
,xotask,xotask,dotcolour,22,4,262,562,main,positivefb,-99,average,16,0.7341098000001693,['n'],1,right,['1'],6,0.07973880000008648,,,,,,,3,19,Man,Rechts,2,
,xotask,xotask,dotcolour,23,4,263,563,main,positivefb,-99,average,19,0.6344101999998202,['n'],1,right,['1'],6,0.08449289999998655,,,,,,,3,19,Man,Rechts,2,
,xotask,xotask,dotcolour,24,4,264,564,main,positivefb,-99,easy,8,0.6176454000001286,['n'],1,right,['1'],6,0.05688719999989189,,,,,,,3,19,Man,Rechts,2,
,xotask,xotask,dotcolour,25,4,265,565,main,positivefb,-99,hard,26,0.5331914999997025,['n'],1,right,['1'],6,0.0584273999998004,,,,,,,3,19,Man,Rechts,2,
,xotask,xotask,dotcolour,26,4,266,566,main,positivefb,-99,easy,9,0.4344783000001371,['n'],1,right,['1'],6,0.05540979999977935,,,,,,,3,19,Man,Rechts,2,
,xotask,xotask,dotcolour,27,4,267,567,main,positivefb,-99,easy,73,0.38392949999979464,['n'],0,left,['0'],1,1.1754061999999976,,,,,,,3,19,Man,Rechts,2,
,xotask,xotask,dotcolour,28,4,268,568,main,positivefb,-99,easy,6,0.7850281000000905,['n'],1,right,['1'],6,0.05836559999988822,,,,,,,3,19,Man,Rechts,2,
,xotask,xotask,dotcolour,29,4,269,569,main,positivefb,-99,average,60,0.6668085000001156,['c'],1,left,['2'],5,0.24648079999997208,,,,,,,3,19,Man,Rechts,2,
,xotask,xotask,dotcolour,30,4,270,570,main,positivefb,-99,average,64,0.817833999999948,['c'],1,left,['1'],6,0.021227100000032806,,,,,,,3,19,Man,Rechts,2,
,xotask,xotask,dotcolour,31,4,271,571,main,positivefb,-99,easy,6,0.7165592999999717,['n'],1,right,['1'],6,0.07280850000006467,,,,,,,3,19,Man,Rechts,2,
,xotask,xotask,dotcolour,32,4,272,572,main,positivefb,-99,average,60,1.034429799999998,['c'],1,left,['2'],5,0.03672599999981685,,,,,,,3,19,Man,Rechts,2,
,xotask,xotask,dotcolour,33,4,273,573,main,positivefb,-99,hard,52,1.4010630000002493,['c'],1,left,['1'],6,0.04378150000002279,,,,,,,3,19,Man,Rechts,2,
,xotask,xotask,dotcolour,34,4,274,574,main,positivefb,-99,hard,54,0.8833946999998261,['c'],1,left,['1'],6,0.007469599999694765,,,,,,,3,19,Man,Rechts,2,
,xotask,xotask,dotcolour,35,4,275,575,main,positivefb,-99,easy,6,0.7004719000001387,['n'],1,right,['1'],6,0.10035279999965496,,,,,,,3,19,Man,Rechts,2,
,xotask,xotask,dotcolour,36,4,276,576,main,positivefb,-99,hard,52,0.950505300000259,['c'],1,left,['2'],5,0.020019699999920704,,,,,,,3,19,Man,Rechts,2,
,xotask,xotask,dotcolour,37,4,277,577,main,positivefb,-99,hard,50,0.9506787999998778,['c'],1,left,['1'],6,0.7572737000000416,,,,,,,3,19,Man,Rechts,2,
,xotask,xotask,dotcolour,38,4,278,578,main,positivefb,-99,easy,8,0.634388499999659,['n'],1,right,['1'],6,0.014846600000055332,,,,,,,3,19,Man,Rechts,2,
,xotask,xotask,dotcolour,39,4,279,579,main,positivefb,-99,average,61,0.616503499999908,['c'],1,left,['2'],5,0.05346159999999145,,,,,,,3,19,Man,Rechts,2,
,xotask,xotask,dotcolour,40,4,280,580,main,positivefb,-99,average,18,0.6672095999997509,['n'],1,right,['1'],6,0.13813699999991513,,,,,,,3,19,Man,Rechts,2,
,xotask,xotask,dotcolour,41,4,281,581,main,positivefb,-99,average,60,1.300300999999763,['c'],1,left,['3'],4,0.3048887999998442,,,,,,,3,19,Man,Rechts,2,
,xotask,xotask,dotcolour,42,4,282,582,main,positivefb,-99,easy,5,0.6174266999996689,['n'],1,right,['1'],6,0.06112810000013269,,,,,,,3,19,Man,Rechts,2,
,xotask,xotask,dotcolour,43,4,283,583,main,positivefb,-99,average,16,0.7668822999999065,['n'],1,right,['1'],6,0.029258300000037707,,,,,,,3,19,Man,Rechts,2,
,xotask,xotask,dotcolour,44,4,284,584,main,positivefb,-99,hard,52,0.7496008999996775,['c'],1,left,['2'],5,0.05497400000012931,,,,,,,3,19,Man,Rechts,2,
,xotask,xotask,dotcolour,45,4,285,585,main,positivefb,-99,average,62,1.1015932999998768,['c'],1,left,['2'],5,0.08152729999983421,,,,,,,3,19,Man,Rechts,2,
,xotask,xotask,dotcolour,46,4,286,586,main,positivefb,-99,hard,51,0.9001155999999355,['n'],0,left,['2'],5,0.39590799999996307,,,,,,,3,19,Man,Rechts,2,
,xotask,xotask,dotcolour,47,4,287,587,main,positivefb,-99,average,15,0.6837552000001779,['n'],1,right,['1'],6,0.05764080000017202,,,,,,,3,19,Man,Rechts,2,
,xotask,xotask,dotcolour,48,4,288,588,main,positivefb,-99,hard,29,1.5341600000001563,['n'],1,right,['3'],4,0.12274109999998473,,,,,,,3,19,Man,Rechts,2,
,xotask,xotask,dotcolour,49,4,289,589,main,positivefb,-99,easy,70,0.7348304000001917,['c'],1,left,['1'],6,0.0812473000000864,,,,,,,3,19,Man,Rechts,2,
,xotask,xotask,dotcolour,50,4,290,590,main,positivefb,-99,easy,9,0.5999885999999606,['n'],1,right,['1'],6,0.374692800000048,,,,,,,3,19,Man,Rechts,2,
,xotask,xotask,dotcolour,51,4,291,591,main,positivefb,-99,easy,72,0.917492399999901,['c'],1,left,['2'],5,0.14774910000005548,,,,,,,3,19,Man,Rechts,2,
,xotask,xotask,dotcolour,52,4,292,592,main,positivefb,-99,hard,53,0.6680490999997346,['c'],1,left,['2'],5,0.08430529999986902,,,,,,,3,19,Man,Rechts,2,
,xotask,xotask,dotcolour,53,4,293,593,main,positivefb,-99,average,17,0.5349498999999014,['n'],1,right,['1'],6,0.0999483999999029,,,,,,,3,19,Man,Rechts,2,
,xotask,xotask,dotcolour,54,4,294,594,main,positivefb,-99,hard,53,0.634458800000175,['c'],1,left,['2'],5,0.15087650000032227,,,,,,,3,19,Man,Rechts,2,
,xotask,xotask,dotcolour,55,4,295,595,main,positivefb,-99,easy,72,0.7341056000000208,['c'],1,left,['1'],6,0.01306139999996958,,,,,,,3,19,Man,Rechts,2,
,xotask,xotask,dotcolour,56,4,296,596,main,positivefb,-99,hard,27,1.1163919999999052,['c'],0,right,['2'],5,0.03272449999985838,,,,,,,3,19,Man,Rechts,2,
,xotask,xotask,dotcolour,57,4,297,597,main,positivefb,-99,average,60,2.0510614999998324,['c'],1,left,['3'],4,0.03822669999999562,,,,,,,3,19,Man,Rechts,2,
,xotask,xotask,dotcolour,58,4,298,598,main,positivefb,-99,easy,71,0.8004992999999558,['c'],1,left,['1'],6,0.052838099999917176,,,,,,,3,19,Man,Rechts,2,
,xotask,xotask,dotcolour,59,4,299,599,main,positivefb,-99,average,19,0.5832995000000665,['n'],1,right,['1'],6,0.10071709999965606,,,,,,,3,19,Man,Rechts,2,
,xotask,xotask,dotcolour,0,0,0,600,training,positivefb,96,average,63,1.6007433999998284,['c'],1,left,['1'],6,0.9176410000000033,,,,,,,3,19,Man,Rechts,2,
,xotask,xotask,dotcolour,1,0,1,601,training,positivefb,92,easy,73,1.1988570999997137,['c'],1,left,['1'],6,0.04841020000003482,,,,,,,3,19,Man,Rechts,2,
,xotask,xotask,dotcolour,2,0,2,602,training,positivefb,98,hard,52,0.7176801000000523,['c'],1,left,['2'],5,0.3058744999998453,,,,,,,3,19,Man,Rechts,2,
,xotask,xotask,dotcolour,3,0,3,603,training,positivefb,80,hard,51,0.7336645999998836,['c'],1,left,['2'],5,0.24949860000015178,,,,,,,3,19,Man,Rechts,2,
,xotask,xotask,dotcolour,4,0,4,604,training,positivefb,96,easy,7,0.616378899999745,['n'],1,right,['1'],6,0.04617599999983213,,,,,,,3,19,Man,Rechts,2,
,xotask,xotask,dotcolour,5,0,5,605,training,positivefb,99,average,63,0.6344026000001577,['c'],1,left,['2'],5,0.2672696999998152,,,,,,,3,19,Man,Rechts,2,
,xotask,xotask,dotcolour,6,0,6,606,training,positivefb,96,hard,50,0.6836415999996461,['c'],1,left,['1'],6,0.04595900000003894,,,,,,,3,19,Man,Rechts,2,
,xotask,xotask,dotcolour,7,0,7,607,training,positivefb,91,average,19,0.483842299999651,['n'],1,right,['1'],6,0.040567900000041845,,,,,,,3,19,Man,Rechts,2,
,xotask,xotask,dotcolour,8,0,8,608,training,positivefb,100,easy,6,0.4669518999999127,['n'],1,right,['1'],6,0.5890786999998454,,,,,,,3,19,Man,Rechts,2,
,xotask,xotask,dotcolour,9,0,9,609,training,positivefb,97,easy,6,0.48347570000032647,['n'],1,right,['1'],6,0.0017326000001958164,,,,,,,3,19,Man,Rechts,2,
,xotask,xotask,dotcolour,10,0,10,610,training,positivefb,85,average,62,1.6991739000000052,['c'],1,left,['3'],4,0.15776770000002216,,,,,,,3,19,Man,Rechts,2,
,xotask,xotask,dotcolour,11,0,11,611,training,positivefb,85,hard,27,1.2326051999998526,['n'],1,right,['1'],6,0.03151130000014746,,,,,,,3,19,Man,Rechts,2,
,xotask,xotask,dotcolour,12,0,12,612,training,positivefb,83,average,64,2.2505396999999903,['n'],0,left,['2'],5,0.18793989999994665,,,,,,,3,19,Man,Rechts,2,
,xotask,xotask,dotcolour,13,0,13,613,training,positivefb,90,hard,52,0.9996424000000843,['c'],1,left,['1'],6,0.044302499999957945,,,,,,,3,19,Man,Rechts,2,
,xotask,xotask,dotcolour,14,0,14,614,training,positivefb,98,average,16,0.5506212000000232,['n'],1,right,['1'],6,0.036580899999989924,,,,,,,3,19,Man,Rechts,2,
,xotask,xotask,dotcolour,15,0,15,615,training,positivefb,96,easy,7,0.5176049000001512,['n'],1,right,['1'],6,0.02341310000019803,,,,,,,3,19,Man,Rechts,2,
,xotask,xotask,dotcolour,16,0,16,616,training,positivefb,51,average,63,1.5159241999999722,['n'],0,left,['3'],4,0.7933336000000963,,,,,,,3,19,Man,Rechts,2,
,xotask,xotask,dotcolour,17,0,17,617,training,positivefb,98,easy,74,0.8167764999998326,['c'],1,left,['1'],6,0.0733871000002182,,,,,,,3,19,Man,Rechts,2,
,xotask,xotask,dotcolour,18,0,18,618,training,positivefb,96,easy,9,0.6004495000001953,['n'],1,right,['1'],6,0.023243499999807682,,,,,,,3,19,Man,Rechts,2,
,xotask,xotask,dotcolour,19,0,19,619,training,positivefb,91,average,60,0.783529599999838,['n'],0,left,['1'],6,0.015194800000244868,,,,,,,3,19,Man,Rechts,2,
,xotask,xotask,dotcolour,20,0,20,620,training,positivefb,92,average,17,0.49994509999987713,['n'],1,right,['1'],6,0.5466790999998921,,,,,,,3,19,Man,Rechts,2,
,xotask,xotask,dotcolour,21,0,21,621,training,positivefb,99,easy,71,0.6843102999996518,['c'],1,left,['2'],5,0.4500404999998864,,,,,,,3,19,Man,Rechts,2,
,xotask,xotask,dotcolour,22,0,22,622,training,positivefb,86,easy,74,0.683337500000107,['c'],1,left,['1'],6,0.09976579999965907,,,,,,,3,19,Man,Rechts,2,
,xotask,xotask,dotcolour,23,0,23,623,training,positivefb,90,hard,25,0.632355500000358,['n'],1,right,['1'],6,0.0392746000002262,,,,,,,3,19,Man,Rechts,2,
,xotask,xotask,dotcolour,24,0,24,624,training,positivefb,81,hard,29,0.7329026000002159,['n'],1,right,['2'],5,0.2162106999999196,,,,,,,3,19,Man,Rechts,2,
,xotask,xotask,dotcolour,25,0,25,625,training,positivefb,96,easy,9,0.6331792999999379,['n'],1,right,['1'],6,0.02254750000020067,,,,,,,3,19,Man,Rechts,2,
,xotask,xotask,dotcolour,26,0,26,626,training,positivefb,92,easy,8,0.49997090000033495,['n'],1,right,['1'],6,0.602133099999719,,,,,,,3,19,Man,Rechts,2,
,xotask,xotask,dotcolour,27,0,27,627,training,positivefb,97,average,64,0.8507122000000891,['c'],1,left,['1'],6,0.10403210000004037,,,,,,,3,19,Man,Rechts,2,
,xotask,xotask,dotcolour,28,0,28,628,training,positivefb,95,easy,5,0.616963499999656,['n'],1,right,['1'],6,0.019142999999985477,,,,,,,3,19,Man,Rechts,2,
,xotask,xotask,dotcolour,29,0,29,629,training,positivefb,95,average,17,0.7338014000001749,['n'],1,right,['1'],6,0.004744800000025862,,,,,,,3,19,Man,Rechts,2,
,xotask,xotask,dotcolour,30,0,30,630,training,positivefb,92,average,63,0.5832153000001199,['c'],1,left,['1'],6,0.045512000000144326,,,,,,,3,19,Man,Rechts,2,
,xotask,xotask,dotcolour,31,0,31,631,training,positivefb,97,average,16,0.6502350000000661,['n'],1,right,['1'],6,0.018440600000303675,,,,,,,3,19,Man,Rechts,2,
,xotask,xotask,dotcolour,32,0,32,632,training,positivefb,87,hard,50,0.7682185000003301,['c'],1,left,['3'],4,0.45094490000019505,,,,,,,3,19,Man,Rechts,2,
,xotask,xotask,dotcolour,33,0,33,633,training,positivefb,96,hard,26,0.899193600000217,['n'],1,right,['1'],6,0.14878800000042247,,,,,,,3,19,Man,Rechts,2,
,xotask,xotask,dotcolour,34,0,34,634,training,positivefb,90,hard,29,0.7840575999998691,['n'],1,right,['1'],6,0.11211670000011509,,,,,,,3,19,Man,Rechts,2,
,xotask,xotask,dotcolour,35,0,35,635,training,positivefb,59,easy,70,0.6165140999996765,['n'],0,left,['9'],2,1.0508382000002712,,,,,,,3,19,Man,Rechts,2,
,xotask,xotask,dotcolour,36,0,36,636,training,positivefb,88,hard,51,1.1168170999999347,['n'],0,left,['2'],5,0.18085130000008576,,,,,,,3,19,Man,Rechts,2,
,xotask,xotask,dotcolour,37,0,37,637,training,positivefb,91,easy,70,0.6992875999999342,['n'],0,left,['1'],6,0.018064599999888742,,,,,,,3,19,Man,Rechts,2,
,xotask,xotask,dotcolour,38,0,38,638,training,positivefb,88,easy,74,0.7827410999998392,['c'],1,left,['1'],6,0.04178830000000744,,,,,,,3,19,Man,Rechts,2,
,xotask,xotask,dotcolour,39,0,39,639,training,positivefb,28,hard,25,1.166921800000182,['n'],1,right,['2'],5,0.6022927999997592,,,,,,,3,19,Man,Rechts,2,
,xotask,xotask,dotcolour,40,0,40,640,training,positivefb,85,average,17,1.3167159999998148,['n'],1,right,['1'],6,0.0689684999997553,,,,,,,3,19,Man,Rechts,2,
,xotask,xotask,dotcolour,41,0,41,641,training,positivefb,98,easy,8,0.667496200000187,['n'],1,right,['1'],6,0.528047400000105,,,,,,,3,19,Man,Rechts,2,
,xotask,xotask,dotcolour,42,0,42,642,training,positivefb,89,easy,6,0.5997736999997869,['n'],1,right,['1'],6,0.17089369999985138,,,,,,,3,19,Man,Rechts,2,
,xotask,xotask,dotcolour,43,0,43,643,training,positivefb,92,hard,53,0.9999847000003683,['c'],1,left,['3'],4,0.420930799999951,,,,,,,3,19,Man,Rechts,2,
,xotask,xotask,dotcolour,44,0,44,644,training,positivefb,95,hard,53,0.7995052999999643,['c'],1,left,['2'],5,0.14005950000000666,,,,,,,3,19,Man,Rechts,2,
,xotask,xotask,dotcolour,45,0,45,645,training,positivefb,95,average,15,0.5838631000001442,['n'],1,right,['1'],6,0.02287899999964793,,,,,,,3,19,Man,Rechts,2,
,xotask,xotask,dotcolour,46,0,46,646,training,positivefb,91,easy,73,0.6175495000002229,['c'],1,left,['1'],6,0.053756300000259216,,,,,,,3,19,Man,Rechts,2,
,xotask,xotask,dotcolour,47,0,47,647,training,positivefb,92,hard,28,0.6330284999999094,['n'],1,right,['1'],6,0.03478560000030484,,,,,,,3,19,Man,Rechts,2,
,xotask,xotask,dotcolour,48,0,48,648,training,positivefb,93,average,16,0.5502741000000242,['n'],1,right,['1'],6,0.25994919999993726,,,,,,,3,19,Man,Rechts,2,
,xotask,xotask,dotcolour,49,0,49,649,training,positivefb,94,hard,25,0.7839225999996415,['n'],1,right,['2'],5,0.12186320000000705,,,,,,,3,19,Man,Rechts,2,
