starttime,task,fbtask,firsttask,withinblocktrial,block,withintasktrial,trial,running,feedback,fbscore,difflevel,reddots,rt,resp,cor,cresp,conf_press,cj,RTconf,n_xes,stoptime,sub,age,gender,handedness,session,
1714978779,dotcolour,dotcolour,xotask,0,0,0,0,training,negativefb,83,average,28,6.549820899999986,['n'],1,right,['9'],5,4.318516399999908,,,14,18,Vrouw,Rechts,1,
,dotcolour,dotcolour,xotask,1,0,1,1,training,negativefb,91,average,29,1.9009576000000834,['n'],1,right,['8'],4,1.6200839000000542,,,14,18,Vrouw,Rechts,1,
,dotcolour,dotcolour,xotask,2,0,2,2,training,negativefb,34,hard,37,3.2163641000001917,['c'],0,right,['3'],3,2.5707981000000473,,,14,18,Vrouw,Rechts,1,
,dotcolour,dotcolour,xotask,3,0,3,3,training,negativefb,81,easy,18,3.5669566999999915,['n'],1,right,['8'],4,0.9963889000000563,,,14,18,Vrouw,Rechts,1,
,dotcolour,dotcolour,xotask,4,0,4,4,training,negativefb,50,hard,42,3.2678330999999616,['c'],1,left,['2'],2,1.1307013999999072,,,14,18,Vrouw,Rechts,1,
,dotcolour,dotcolour,xotask,5,0,5,5,training,negativefb,96,average,52,1.3344348999999056,['c'],1,left,['0'],6,2.479998900000055,,,14,18,Vrouw,Rechts,1,
,dotcolour,dotcolour,xotask,6,0,6,6,training,negativefb,69,average,28,1.3506737000000157,['n'],1,right,['0'],6,0.3826751999999942,,,14,18,Vrouw,Rechts,1,
,dotcolour,dotcolour,xotask,7,0,7,7,training,negativefb,73,average,28,3.5338045000000875,['n'],1,right,['0'],6,0.3621375000000171,,,14,18,Vrouw,Rechts,1,
,dotcolour,dotcolour,xotask,8,0,8,8,training,negativefb,98,easy,65,1.3339315999999144,['c'],1,left,['0'],6,1.5829189000000952,,,14,18,Vrouw,Rechts,1,
,dotcolour,dotcolour,xotask,9,0,9,9,training,negativefb,53,hard,35,1.7000044999999773,['n'],1,right,['9'],5,0.6030696000000262,,,14,18,Vrouw,Rechts,1,
,dotcolour,dotcolour,xotask,10,0,10,10,training,negativefb,66,easy,17,1.0670732999999473,['n'],1,right,['0'],6,0.35263149999991583,,,14,18,Vrouw,Rechts,1,
,dotcolour,dotcolour,xotask,11,0,11,11,training,negativefb,10,hard,38,1.7503319000002193,['c'],0,right,['1'],1,0.8043120999998337,,,14,18,Vrouw,Rechts,1,
,dotcolour,dotcolour,xotask,12,0,12,12,training,negativefb,82,easy,65,0.9828006999998706,['c'],1,left,['0'],6,0.5010009000000082,,,14,18,Vrouw,Rechts,1,
,dotcolour,dotcolour,xotask,13,0,13,13,training,negativefb,66,easy,61,1.08426170000007,['c'],1,left,['0'],6,0.2617268999999851,,,14,18,Vrouw,Rechts,1,
,dotcolour,dotcolour,xotask,14,0,14,14,training,negativefb,71,average,53,2.4337229000000207,['n'],0,left,['8'],4,0.4343922000000475,,,14,18,Vrouw,Rechts,1,
,dotcolour,dotcolour,xotask,15,0,15,15,training,negativefb,86,easy,65,1.500239499999907,['c'],1,left,['0'],6,0.2526436000000558,,,14,18,Vrouw,Rechts,1,
,dotcolour,dotcolour,xotask,16,0,16,16,training,negativefb,74,easy,62,0.8341961999999512,['c'],1,left,['0'],6,0.22594900000012785,,,14,18,Vrouw,Rechts,1,
,dotcolour,dotcolour,xotask,17,0,17,17,training,negativefb,41,average,25,2.1493021000001136,['n'],1,right,['0'],6,0.635329400000046,,,14,18,Vrouw,Rechts,1,
,dotcolour,dotcolour,xotask,18,0,18,18,training,negativefb,89,hard,45,0.8840362999999343,['c'],1,left,['0'],6,0.4065505999999459,,,14,18,Vrouw,Rechts,1,
,dotcolour,dotcolour,xotask,19,0,19,19,training,negativefb,88,average,26,0.9662968000000092,['n'],1,right,['0'],6,0.24786429999994652,,,14,18,Vrouw,Rechts,1,
,dotcolour,dotcolour,xotask,20,0,20,20,training,negativefb,80,hard,41,2.2518199999999524,['c'],1,left,['9'],5,0.5008682000000135,,,14,18,Vrouw,Rechts,1,
,dotcolour,dotcolour,xotask,21,0,21,21,training,negativefb,51,average,51,1.115858100000196,['c'],1,left,['0'],6,0.259891400000015,,,14,18,Vrouw,Rechts,1,
,dotcolour,dotcolour,xotask,22,0,22,22,training,negativefb,42,easy,65,1.3505952000000434,['c'],1,left,['0'],6,0.3719625000001088,,,14,18,Vrouw,Rechts,1,
,dotcolour,dotcolour,xotask,23,0,23,23,training,negativefb,78,easy,61,0.9821798000000399,['c'],1,left,['9'],5,0.5900638999999046,,,14,18,Vrouw,Rechts,1,
,dotcolour,dotcolour,xotask,24,0,24,24,training,negativefb,49,hard,45,0.7843193999999585,['c'],1,left,['9'],5,0.6634271000000354,,,14,18,Vrouw,Rechts,1,
,dotcolour,dotcolour,xotask,25,0,25,25,training,negativefb,72,average,55,0.8837717999999768,['c'],1,left,['0'],6,0.41812720000007175,,,14,18,Vrouw,Rechts,1,
,dotcolour,dotcolour,xotask,26,0,26,26,training,negativefb,51,average,52,0.8996488999998746,['c'],1,left,['0'],6,0.3734286000001248,,,14,18,Vrouw,Rechts,1,
,dotcolour,dotcolour,xotask,27,0,27,27,training,negativefb,74,easy,16,1.0823891000000003,['n'],1,right,['0'],6,0.30740560000003825,,,14,18,Vrouw,Rechts,1,
,dotcolour,dotcolour,xotask,28,0,28,28,training,negativefb,45,hard,41,1.3831118999999035,['c'],1,left,['2'],2,1.9599035999999614,,,14,18,Vrouw,Rechts,1,
,dotcolour,dotcolour,xotask,29,0,29,29,training,negativefb,40,hard,39,2.932941600000049,['n'],1,right,['9'],5,0.25220179999996617,,,14,18,Vrouw,Rechts,1,
,dotcolour,dotcolour,xotask,30,0,30,30,training,negativefb,74,easy,16,1.0505501999998614,['n'],1,right,['0'],6,0.22421329999997397,,,14,18,Vrouw,Rechts,1,
,dotcolour,dotcolour,xotask,31,0,31,31,training,negativefb,91,easy,61,0.9841374999998607,['c'],1,left,['9'],5,0.464592299999822,,,14,18,Vrouw,Rechts,1,
,dotcolour,dotcolour,xotask,32,0,32,32,training,negativefb,43,easy,17,2.6657922999997936,['n'],1,right,['0'],6,0.2518588999998883,,,14,18,Vrouw,Rechts,1,
,dotcolour,dotcolour,xotask,33,0,33,33,training,negativefb,58,hard,36,1.183286100000032,['c'],0,right,['9'],5,0.2265676000001804,,,14,18,Vrouw,Rechts,1,
,dotcolour,dotcolour,xotask,34,0,34,34,training,negativefb,89,easy,17,0.7677097000000686,['n'],1,right,['0'],6,0.2592443999999432,,,14,18,Vrouw,Rechts,1,
,dotcolour,dotcolour,xotask,35,0,35,35,training,negativefb,69,hard,42,0.8824286000001393,['c'],1,left,['9'],5,0.27783799999997427,,,14,18,Vrouw,Rechts,1,
,dotcolour,dotcolour,xotask,36,0,36,36,training,negativefb,54,average,53,0.7329640999998901,['c'],1,left,['9'],5,0.2539231999999174,,,14,18,Vrouw,Rechts,1,
,dotcolour,dotcolour,xotask,37,0,37,37,training,negativefb,64,hard,41,1.7674532999999428,['n'],0,left,['9'],5,0.3172882999999729,,,14,18,Vrouw,Rechts,1,
,dotcolour,dotcolour,xotask,38,0,38,38,training,negativefb,82,easy,19,1.0680798999999297,['n'],1,right,['0'],6,0.2857010000000173,,,14,18,Vrouw,Rechts,1,
,dotcolour,dotcolour,xotask,39,0,39,39,training,negativefb,44,hard,42,1.0009503999999652,['n'],0,left,['9'],5,0.2506503000001885,,,14,18,Vrouw,Rechts,1,
,dotcolour,dotcolour,xotask,40,0,40,40,training,negativefb,87,average,25,0.8838976000001821,['n'],1,right,['0'],6,0.21313670000017737,,,14,18,Vrouw,Rechts,1,
,dotcolour,dotcolour,xotask,41,0,41,41,training,negativefb,67,average,28,0.9657729000000472,['n'],1,right,['0'],6,0.24672910000003867,,,14,18,Vrouw,Rechts,1,
,dotcolour,dotcolour,xotask,42,0,42,42,training,negativefb,89,hard,45,2.666224100000136,['c'],1,left,['3'],3,0.9864710000001651,,,14,18,Vrouw,Rechts,1,
,dotcolour,dotcolour,xotask,43,0,43,43,training,negativefb,59,easy,15,2.0007450999999037,['c'],0,right,['3'],3,0.20333129999994526,,,14,18,Vrouw,Rechts,1,
,dotcolour,dotcolour,xotask,44,0,44,44,training,negativefb,92,average,26,0.550298100000191,['n'],1,right,['9'],5,0.2854021999999077,,,14,18,Vrouw,Rechts,1,
,dotcolour,dotcolour,xotask,45,0,45,45,training,negativefb,93,average,51,1.0503994999999122,['c'],1,left,['9'],5,0.6001147000001765,,,14,18,Vrouw,Rechts,1,
,dotcolour,dotcolour,xotask,46,0,46,46,training,negativefb,72,easy,63,0.8994284999998854,['c'],1,left,['9'],5,0.24418650000006892,,,14,18,Vrouw,Rechts,1,
,dotcolour,dotcolour,xotask,47,0,47,47,training,negativefb,56,hard,37,0.7007837999999538,['n'],1,right,['9'],5,0.2468749999998181,,,14,18,Vrouw,Rechts,1,
,dotcolour,dotcolour,xotask,48,0,48,48,training,negativefb,85,hard,38,0.9834596999999121,['n'],1,right,['9'],5,0.21389650000014626,,,14,18,Vrouw,Rechts,1,
,dotcolour,dotcolour,xotask,49,0,49,49,training,negativefb,73,average,28,1.2497636000000512,['n'],1,right,['9'],5,0.25941310000007434,,,14,18,Vrouw,Rechts,1,
,dotcolour,dotcolour,xotask,50,0,50,50,training,negativefb,46,hard,37,1.3995085000001382,['c'],0,right,['2'],2,0.642327000000023,,,14,18,Vrouw,Rechts,1,
,dotcolour,dotcolour,xotask,51,0,51,51,training,negativefb,49,easy,19,1.1004024999999729,['n'],1,right,['9'],5,0.22825079999984155,,,14,18,Vrouw,Rechts,1,
,dotcolour,dotcolour,xotask,52,0,52,52,training,negativefb,63,average,55,0.9015428000000156,['c'],1,left,['9'],5,0.30405980000000454,,,14,18,Vrouw,Rechts,1,
,dotcolour,dotcolour,xotask,53,0,53,53,training,negativefb,70,easy,61,1.034677800000054,['c'],1,left,['0'],6,0.2902302999998483,,,14,18,Vrouw,Rechts,1,
,dotcolour,dotcolour,xotask,54,0,54,54,training,negativefb,48,hard,36,1.166811800000005,['n'],1,right,['3'],3,0.8809206999999333,,,14,18,Vrouw,Rechts,1,
,dotcolour,dotcolour,xotask,55,0,55,55,training,negativefb,50,hard,35,1.1987229999999727,['n'],1,right,['9'],5,0.29439259999981005,,,14,18,Vrouw,Rechts,1,
,dotcolour,dotcolour,xotask,56,0,56,56,training,negativefb,68,average,51,0.767271300000175,['c'],1,left,['0'],6,0.27632919999996375,,,14,18,Vrouw,Rechts,1,
,dotcolour,dotcolour,xotask,57,0,57,57,training,negativefb,44,average,54,1.1666706999999406,['c'],1,left,['0'],6,0.30734370000004674,,,14,18,Vrouw,Rechts,1,
,dotcolour,dotcolour,xotask,58,0,58,58,training,negativefb,43,easy,16,0.8349662999999055,['n'],1,right,['9'],5,0.26975809999999,,,14,18,Vrouw,Rechts,1,
,dotcolour,dotcolour,xotask,59,0,59,59,training,negativefb,44,hard,41,1.900217800000064,['n'],0,left,['0'],6,0.3666914000000361,,,14,18,Vrouw,Rechts,1,
,dotcolour,dotcolour,xotask,0,1,60,60,training,negativefb,58,average,28,0.8845028000000639,['n'],1,right,['0'],6,0.2496086999999534,,,14,18,Vrouw,Rechts,1,
,dotcolour,dotcolour,xotask,1,1,61,61,training,negativefb,45,average,53,0.8835168000000522,['c'],1,left,['0'],6,0.27585339999995995,,,14,18,Vrouw,Rechts,1,
,dotcolour,dotcolour,xotask,2,1,62,62,training,negativefb,73,hard,39,1.216580699999895,['n'],1,right,['9'],5,0.2330723999998554,,,14,18,Vrouw,Rechts,1,
,dotcolour,dotcolour,xotask,3,1,63,63,training,negativefb,53,average,28,1.166962200000171,['n'],1,right,['9'],5,1.0887802000002011,,,14,18,Vrouw,Rechts,1,
,dotcolour,dotcolour,xotask,4,1,64,64,training,negativefb,51,average,55,1.0159662000000935,['c'],1,left,['2'],2,1.0208946999998716,,,14,18,Vrouw,Rechts,1,
,dotcolour,dotcolour,xotask,5,1,65,65,training,negativefb,27,hard,45,1.3500033000000258,['n'],0,left,['9'],5,0.25414530000011837,,,14,18,Vrouw,Rechts,1,
,dotcolour,dotcolour,xotask,6,1,66,66,training,negativefb,58,easy,16,1.1503096000001278,['n'],1,right,['0'],6,0.21417829999995774,,,14,18,Vrouw,Rechts,1,
,dotcolour,dotcolour,xotask,7,1,67,67,training,negativefb,75,hard,36,1.1013393000000633,['n'],1,right,['0'],6,0.4741971000000831,,,14,18,Vrouw,Rechts,1,
,dotcolour,dotcolour,xotask,8,1,68,68,training,negativefb,57,average,28,0.7843842000002041,['n'],1,right,['9'],5,0.4966557999998713,,,14,18,Vrouw,Rechts,1,
,dotcolour,dotcolour,xotask,9,1,69,69,training,negativefb,69,easy,62,0.7839891000000989,['c'],1,left,['0'],6,0.30165759999999864,,,14,18,Vrouw,Rechts,1,
,dotcolour,dotcolour,xotask,10,1,70,70,training,negativefb,81,hard,37,1.5010789999998906,['n'],1,right,['3'],3,1.6616495000000668,,,14,18,Vrouw,Rechts,1,
,dotcolour,dotcolour,xotask,11,1,71,71,training,negativefb,43,hard,44,0.9998662000000422,['n'],0,left,['3'],3,0.6110393999999815,,,14,18,Vrouw,Rechts,1,
,dotcolour,dotcolour,xotask,12,1,72,72,training,negativefb,79,easy,61,0.7508757000000514,['c'],1,left,['0'],6,0.26905970000007073,,,14,18,Vrouw,Rechts,1,
,dotcolour,dotcolour,xotask,13,1,73,73,training,negativefb,38,easy,19,0.8495724000001701,['n'],1,right,['0'],6,0.24039230000016687,,,14,18,Vrouw,Rechts,1,
,dotcolour,dotcolour,xotask,14,1,74,74,training,negativefb,75,average,28,0.8499196000000211,['n'],1,right,['9'],5,0.3969875000000229,,,14,18,Vrouw,Rechts,1,
,dotcolour,dotcolour,xotask,15,1,75,75,training,negativefb,86,easy,15,0.7833889000000909,['n'],1,right,['9'],5,0.27853430000004664,,,14,18,Vrouw,Rechts,1,
,dotcolour,dotcolour,xotask,16,1,76,76,training,negativefb,45,easy,19,0.6153278000001592,['n'],1,right,['9'],5,0.2512778000000253,,,14,18,Vrouw,Rechts,1,
,dotcolour,dotcolour,xotask,17,1,77,77,training,negativefb,27,hard,39,1.1999686999999994,['c'],0,right,['2'],2,0.44813250000015614,,,14,18,Vrouw,Rechts,1,
,dotcolour,dotcolour,xotask,18,1,78,78,training,negativefb,78,easy,62,1.0161461000000145,['c'],1,left,['3'],3,0.5184608000001845,,,14,18,Vrouw,Rechts,1,
,dotcolour,dotcolour,xotask,19,1,79,79,training,negativefb,34,average,52,0.8332500999999866,['c'],1,left,['3'],3,0.24042710000003353,,,14,18,Vrouw,Rechts,1,
,dotcolour,dotcolour,xotask,20,1,80,80,training,negativefb,43,hard,37,0.8340043000000605,['n'],1,right,['9'],5,0.25321759999997084,,,14,18,Vrouw,Rechts,1,
,dotcolour,dotcolour,xotask,21,1,81,81,training,negativefb,83,easy,17,0.750675499999943,['n'],1,right,['0'],6,0.3737687000000278,,,14,18,Vrouw,Rechts,1,
,dotcolour,dotcolour,xotask,22,1,82,82,training,negativefb,92,hard,44,1.1995454000000336,['c'],1,left,['3'],3,0.703685200000109,,,14,18,Vrouw,Rechts,1,
,dotcolour,dotcolour,xotask,23,1,83,83,training,negativefb,79,easy,19,0.6497601000000941,['n'],1,right,['0'],6,0.4733252999999422,,,14,18,Vrouw,Rechts,1,
,dotcolour,dotcolour,xotask,24,1,84,84,training,negativefb,65,hard,44,1.2990958999998838,['c'],1,left,['3'],3,0.24220889999992323,,,14,18,Vrouw,Rechts,1,
,dotcolour,dotcolour,xotask,25,1,85,85,training,negativefb,53,average,29,0.5838274000000183,['n'],1,right,['0'],6,0.2495346000000609,,,14,18,Vrouw,Rechts,1,
,dotcolour,dotcolour,xotask,26,1,86,86,training,negativefb,49,average,53,0.7661315000000286,['n'],0,left,['9'],5,0.2417877000000317,,,14,18,Vrouw,Rechts,1,
,dotcolour,dotcolour,xotask,27,1,87,87,training,negativefb,90,hard,43,0.8352031000001716,['c'],1,left,['0'],6,0.2625413999999182,,,14,18,Vrouw,Rechts,1,
,dotcolour,dotcolour,xotask,28,1,88,88,training,negativefb,93,hard,38,0.5667256000001544,['c'],0,right,['0'],6,0.2542155000001003,,,14,18,Vrouw,Rechts,1,
,dotcolour,dotcolour,xotask,29,1,89,89,training,negativefb,39,average,51,0.5829837999999654,['c'],1,left,['0'],6,0.3326584000001276,,,14,18,Vrouw,Rechts,1,
,dotcolour,dotcolour,xotask,30,1,90,90,training,negativefb,8,average,29,0.31796890000009626,['c'],0,right,['3'],3,0.7382113000001027,,,14,18,Vrouw,Rechts,1,
,dotcolour,dotcolour,xotask,31,1,91,91,training,negativefb,81,average,53,1.3337695000000167,['n'],0,left,['0'],6,1.4482986000000437,,,14,18,Vrouw,Rechts,1,
,dotcolour,dotcolour,xotask,32,1,92,92,training,negativefb,69,easy,61,1.0177249000000756,['c'],1,left,['0'],6,0.2449963999999909,,,14,18,Vrouw,Rechts,1,
,dotcolour,dotcolour,xotask,33,1,93,93,training,negativefb,57,hard,36,0.7342854999999417,['c'],0,right,['0'],6,0.31040950000010525,,,14,18,Vrouw,Rechts,1,
,dotcolour,dotcolour,xotask,34,1,94,94,training,negativefb,93,average,51,0.7825760999999147,['c'],1,left,['3'],3,0.9550321000001532,,,14,18,Vrouw,Rechts,1,
,dotcolour,dotcolour,xotask,35,1,95,95,training,negativefb,30,hard,37,0.6502990999999838,['c'],0,right,['3'],3,0.48314529999993283,,,14,18,Vrouw,Rechts,1,
,dotcolour,dotcolour,xotask,36,1,96,96,training,negativefb,91,easy,61,0.9165530000000217,['c'],1,left,['0'],6,0.3390984000000117,,,14,18,Vrouw,Rechts,1,
,dotcolour,dotcolour,xotask,37,1,97,97,training,negativefb,31,hard,37,1.8332084000001032,['c'],0,right,['8'],4,1.9484761999999591,,,14,18,Vrouw,Rechts,1,
,dotcolour,dotcolour,xotask,38,1,98,98,training,negativefb,59,easy,63,0.9332018000000062,['c'],1,left,['0'],6,0.44053680000001805,,,14,18,Vrouw,Rechts,1,
,dotcolour,dotcolour,xotask,39,1,99,99,training,negativefb,28,hard,45,0.8337920999999824,['n'],0,left,['8'],4,1.2858885999999075,,,14,18,Vrouw,Rechts,1,
,dotcolour,dotcolour,xotask,40,1,100,100,training,negativefb,76,easy,61,0.9997198000000935,['c'],1,left,['9'],5,1.2102681999999731,,,14,18,Vrouw,Rechts,1,
,dotcolour,dotcolour,xotask,41,1,101,101,training,negativefb,62,easy,15,0.9991473000000042,['n'],1,right,['0'],6,0.26658629999997174,,,14,18,Vrouw,Rechts,1,
,dotcolour,dotcolour,xotask,42,1,102,102,training,negativefb,14,hard,45,0.6498751999999968,['n'],0,left,['0'],6,0.2369827999998506,,,14,18,Vrouw,Rechts,1,
,dotcolour,dotcolour,xotask,43,1,103,103,training,negativefb,92,easy,18,0.9991989000000103,['n'],1,right,['9'],5,0.5882520000000113,,,14,18,Vrouw,Rechts,1,
,dotcolour,dotcolour,xotask,44,1,104,104,training,negativefb,21,hard,45,1.3173145999999178,['n'],0,left,['2'],2,1.8727734999999939,,,14,18,Vrouw,Rechts,1,
,dotcolour,dotcolour,xotask,45,1,105,105,training,negativefb,89,easy,65,1.0832275000000209,['c'],1,left,['9'],5,0.8341133000001264,,,14,18,Vrouw,Rechts,1,
,dotcolour,dotcolour,xotask,46,1,106,106,training,negativefb,38,average,28,2.8163229000001593,['c'],0,right,['3'],3,0.3604316999999355,,,14,18,Vrouw,Rechts,1,
,dotcolour,dotcolour,xotask,47,1,107,107,training,negativefb,55,average,26,0.7676773000000594,['n'],1,right,['0'],6,0.21093889999997373,,,14,18,Vrouw,Rechts,1,
,dotcolour,dotcolour,xotask,48,1,108,108,training,negativefb,81,easy,63,0.8502812000001541,['c'],1,left,['0'],6,0.24144799999999123,,,14,18,Vrouw,Rechts,1,
,dotcolour,dotcolour,xotask,49,1,109,109,training,negativefb,86,hard,41,1.1176627999998345,['c'],1,left,['2'],2,0.4276592000001074,,,14,18,Vrouw,Rechts,1,
,dotcolour,dotcolour,xotask,50,1,110,110,training,negativefb,65,easy,19,0.7674319000000196,['n'],1,right,['0'],6,0.22838769999998476,,,14,18,Vrouw,Rechts,1,
,dotcolour,dotcolour,xotask,51,1,111,111,training,negativefb,39,hard,43,0.8170697000000473,['c'],1,left,['9'],5,0.202011500000026,,,14,18,Vrouw,Rechts,1,
,dotcolour,dotcolour,xotask,52,1,112,112,training,negativefb,68,hard,35,1.584384499999942,['n'],1,right,['9'],5,0.2597611000001052,,,14,18,Vrouw,Rechts,1,
,dotcolour,dotcolour,xotask,53,1,113,113,training,negativefb,64,average,53,1.0662623999999141,['c'],1,left,['9'],5,0.30245769999987715,,,14,18,Vrouw,Rechts,1,
,dotcolour,dotcolour,xotask,54,1,114,114,training,negativefb,51,average,53,0.7332546999998613,['n'],0,left,['0'],6,0.26973229999998694,,,14,18,Vrouw,Rechts,1,
,dotcolour,dotcolour,xotask,55,1,115,115,training,negativefb,48,easy,63,0.5666694999999891,['n'],0,left,['9'],5,0.21963030000006256,,,14,18,Vrouw,Rechts,1,
,dotcolour,dotcolour,xotask,56,1,116,116,training,negativefb,25,average,29,0.7322580999998536,['c'],0,right,['0'],6,0.28621829999997317,,,14,18,Vrouw,Rechts,1,
,dotcolour,dotcolour,xotask,57,1,117,117,training,negativefb,25,easy,16,0.5322192999999515,['n'],1,right,['9'],5,0.19749819999992724,,,14,18,Vrouw,Rechts,1,
,dotcolour,dotcolour,xotask,58,1,118,118,training,negativefb,60,average,51,1.2012717999998586,['n'],0,left,['0'],6,0.6305348000000777,,,14,18,Vrouw,Rechts,1,
,dotcolour,dotcolour,xotask,59,1,119,119,training,negativefb,62,average,28,0.5348444999999629,['n'],1,right,['9'],5,0.2805857000000742,,,14,18,Vrouw,Rechts,1,
,xotask,dotcolour,xotask,0,2,120,120,main,negativefb,-99,average,,2.2685372000000825,['c'],0,right,['2'],2,0.8126389999999901,18,,14,18,Vrouw,Rechts,1,
,xotask,dotcolour,xotask,1,2,121,121,main,negativefb,-99,average,,2.767739200000051,['n'],1,right,['9'],5,0.9818815999999515,17,,14,18,Vrouw,Rechts,1,
,xotask,dotcolour,xotask,2,2,122,122,main,negativefb,-99,average,,1.3006992000000537,['c'],1,left,['9'],5,1.0512148000000252,60,,14,18,Vrouw,Rechts,1,
,xotask,dotcolour,xotask,3,2,123,123,main,negativefb,-99,easy,,1.0676346999998714,['c'],0,right,['9'],5,0.24802779999981794,9,,14,18,Vrouw,Rechts,1,
,xotask,dotcolour,xotask,4,2,124,124,main,negativefb,-99,easy,,1.4003368999999566,['n'],1,right,['9'],5,0.20606369999995877,8,,14,18,Vrouw,Rechts,1,
,xotask,dotcolour,xotask,5,2,125,125,main,negativefb,-99,hard,,2.3344134999999824,['c'],0,right,['2'],2,0.45781570000008287,26,,14,18,Vrouw,Rechts,1,
,xotask,dotcolour,xotask,6,2,126,126,main,negativefb,-99,hard,,1.9509593999998742,['c'],1,left,['9'],5,0.3065297999999075,54,,14,18,Vrouw,Rechts,1,
,xotask,dotcolour,xotask,7,2,127,127,main,negativefb,-99,easy,,0.9508049000000938,['c'],1,left,['9'],5,2.1852369999999155,70,,14,18,Vrouw,Rechts,1,
,xotask,dotcolour,xotask,8,2,128,128,main,negativefb,-99,hard,,0.8835205000000315,['c'],1,left,['9'],5,0.32009470000002693,53,,14,18,Vrouw,Rechts,1,
,xotask,dotcolour,xotask,9,2,129,129,main,negativefb,-99,hard,,0.6162428000000091,['n'],1,right,['2'],2,0.36324259999992137,25,,14,18,Vrouw,Rechts,1,
,xotask,dotcolour,xotask,10,2,130,130,main,negativefb,-99,average,,0.7999952000000121,['c'],0,right,['9'],5,0.8373321999999916,17,,14,18,Vrouw,Rechts,1,
,xotask,dotcolour,xotask,11,2,131,131,main,negativefb,-99,average,,1.3008503000000928,['n'],1,right,['9'],5,0.5121940999999879,19,,14,18,Vrouw,Rechts,1,
,xotask,dotcolour,xotask,12,2,132,132,main,negativefb,-99,hard,,1.4675313000000187,['c'],1,left,['9'],5,0.2911555999999109,50,,14,18,Vrouw,Rechts,1,
,xotask,dotcolour,xotask,13,2,133,133,main,negativefb,-99,easy,,1.5670031999998173,['c'],1,left,['9'],5,0.7528766999998879,72,,14,18,Vrouw,Rechts,1,
,xotask,dotcolour,xotask,14,2,134,134,main,negativefb,-99,hard,,0.95016499999997,['n'],1,right,['9'],5,0.24682469999993373,28,,14,18,Vrouw,Rechts,1,
,xotask,dotcolour,xotask,15,2,135,135,main,negativefb,-99,easy,,1.3332521000002089,['n'],1,right,['9'],5,1.5445560999999088,6,,14,18,Vrouw,Rechts,1,
,xotask,dotcolour,xotask,16,2,136,136,main,negativefb,-99,hard,,1.2181415999998535,['c'],0,right,['2'],2,0.40282060000004094,28,,14,18,Vrouw,Rechts,1,
,xotask,dotcolour,xotask,17,2,137,137,main,negativefb,-99,hard,,1.316819500000065,['c'],0,right,['2'],2,0.26272579999999834,28,,14,18,Vrouw,Rechts,1,
,xotask,dotcolour,xotask,18,2,138,138,main,negativefb,-99,easy,,0.9166983000000073,['n'],1,right,['9'],5,0.88159440000004,9,,14,18,Vrouw,Rechts,1,
,xotask,dotcolour,xotask,19,2,139,139,main,negativefb,-99,easy,,0.9005655999999362,['c'],1,left,['9'],5,1.2822409999998854,73,,14,18,Vrouw,Rechts,1,
,xotask,dotcolour,xotask,20,2,140,140,main,negativefb,-99,easy,,0.9336815999999999,['n'],1,right,['9'],5,0.28165279999984705,8,,14,18,Vrouw,Rechts,1,
,xotask,dotcolour,xotask,21,2,141,141,main,negativefb,-99,average,,1.2838490999999976,['c'],1,left,['2'],2,0.34062810000000354,63,,14,18,Vrouw,Rechts,1,
,xotask,dotcolour,xotask,22,2,142,142,main,negativefb,-99,easy,,1.201243599999998,['c'],1,left,['9'],5,0.30321550000007846,73,,14,18,Vrouw,Rechts,1,
,xotask,dotcolour,xotask,23,2,143,143,main,negativefb,-99,hard,,1.433888700000125,['c'],0,right,['2'],2,0.5075867999998991,25,,14,18,Vrouw,Rechts,1,
,xotask,dotcolour,xotask,24,2,144,144,main,negativefb,-99,average,,0.934449099999938,['c'],1,left,['9'],5,0.32274230000007265,63,,14,18,Vrouw,Rechts,1,
,xotask,dotcolour,xotask,25,2,145,145,main,negativefb,-99,hard,,1.45128550000004,['n'],1,right,['9'],5,0.29187230000002273,26,,14,18,Vrouw,Rechts,1,
,xotask,dotcolour,xotask,26,2,146,146,main,negativefb,-99,easy,,1.833380100000113,['c'],0,right,['9'],5,0.32815549999986615,8,,14,18,Vrouw,Rechts,1,
,xotask,dotcolour,xotask,27,2,147,147,main,negativefb,-99,hard,,0.8669961999999032,['c'],0,right,['9'],5,0.3385233999999855,25,,14,18,Vrouw,Rechts,1,
,xotask,dotcolour,xotask,28,2,148,148,main,negativefb,-99,average,,1.2841682000000674,['c'],0,right,['9'],5,0.5537527000001319,17,,14,18,Vrouw,Rechts,1,
,xotask,dotcolour,xotask,29,2,149,149,main,negativefb,-99,hard,,0.767232500000091,['c'],0,right,['9'],5,0.6781485000001339,28,,14,18,Vrouw,Rechts,1,
,xotask,dotcolour,xotask,30,2,150,150,main,negativefb,-99,average,,0.8686436000000413,['n'],1,right,['9'],5,2.105518899999879,16,,14,18,Vrouw,Rechts,1,
,xotask,dotcolour,xotask,31,2,151,151,main,negativefb,-99,average,,0.8005831999998918,['c'],1,left,['9'],5,0.28638169999999263,64,,14,18,Vrouw,Rechts,1,
,xotask,dotcolour,xotask,32,2,152,152,main,negativefb,-99,easy,,0.9350924000000305,['n'],1,right,['0'],6,0.43796659999998155,6,,14,18,Vrouw,Rechts,1,
,xotask,dotcolour,xotask,33,2,153,153,main,negativefb,-99,average,,0.9512786000000233,['n'],1,right,['0'],6,0.2957275999999638,19,,14,18,Vrouw,Rechts,1,
,xotask,dotcolour,xotask,34,2,154,154,main,negativefb,-99,average,,0.8675257999998394,['c'],1,left,['8'],4,1.6582527000000482,60,,14,18,Vrouw,Rechts,1,
,xotask,dotcolour,xotask,35,2,155,155,main,negativefb,-99,easy,,1.200700199999801,['c'],1,left,['0'],6,0.1920694000000367,74,,14,18,Vrouw,Rechts,1,
,xotask,dotcolour,xotask,36,2,156,156,main,negativefb,-99,easy,,0.9670377999998436,['n'],1,right,['0'],6,0.1949715999999171,9,,14,18,Vrouw,Rechts,1,
,xotask,dotcolour,xotask,37,2,157,157,main,negativefb,-99,easy,,0.7677534000001742,['c'],1,left,['0'],6,0.19766049999998359,72,,14,18,Vrouw,Rechts,1,
,xotask,dotcolour,xotask,38,2,158,158,main,negativefb,-99,average,,1.0010698000000957,['c'],0,right,['2'],2,0.3180048000001534,16,,14,18,Vrouw,Rechts,1,
,xotask,dotcolour,xotask,39,2,159,159,main,negativefb,-99,easy,,0.9672433999999157,['n'],0,left,['9'],5,1.6446295999999165,71,,14,18,Vrouw,Rechts,1,
,xotask,dotcolour,xotask,40,2,160,160,main,negativefb,-99,average,,0.8177487000000383,['c'],1,left,['9'],5,0.3225302000000738,60,,14,18,Vrouw,Rechts,1,
,xotask,dotcolour,xotask,41,2,161,161,main,negativefb,-99,average,,1.7174898999999186,['c'],1,left,['8'],4,0.21829719999982444,63,,14,18,Vrouw,Rechts,1,
,xotask,dotcolour,xotask,42,2,162,162,main,negativefb,-99,easy,,0.7182364000000234,['c'],1,left,['0'],6,0.23727409999992233,74,,14,18,Vrouw,Rechts,1,
,xotask,dotcolour,xotask,43,2,163,163,main,negativefb,-99,average,,0.7679697999999462,['n'],1,right,['0'],6,0.278586500000074,16,,14,18,Vrouw,Rechts,1,
,xotask,dotcolour,xotask,44,2,164,164,main,negativefb,-99,hard,,1.2347532000001138,['c'],1,left,['3'],3,0.5302312999999685,52,,14,18,Vrouw,Rechts,1,
,xotask,dotcolour,xotask,45,2,165,165,main,negativefb,-99,hard,,1.4664479000000483,['c'],1,left,['3'],3,0.14819009999996524,51,,14,18,Vrouw,Rechts,1,
,xotask,dotcolour,xotask,46,2,166,166,main,negativefb,-99,hard,,0.7670787999998083,['n'],0,left,['8'],4,0.16788799999994808,53,,14,18,Vrouw,Rechts,1,
,xotask,dotcolour,xotask,47,2,167,167,main,negativefb,-99,easy,,1.33371319999992,['n'],1,right,['0'],6,0.9812704000000849,9,,14,18,Vrouw,Rechts,1,
,xotask,dotcolour,xotask,48,2,168,168,main,negativefb,-99,easy,,0.7669339000001401,['c'],1,left,['9'],5,0.5114758000001984,70,,14,18,Vrouw,Rechts,1,
,xotask,dotcolour,xotask,49,2,169,169,main,negativefb,-99,easy,,0.884381299999859,['n'],1,right,['0'],6,0.20212549999996554,8,,14,18,Vrouw,Rechts,1,
,xotask,dotcolour,xotask,50,2,170,170,main,negativefb,-99,hard,,4.184273200000007,['n'],0,left,['8'],4,1.067252900000085,52,,14,18,Vrouw,Rechts,1,
,xotask,dotcolour,xotask,51,2,171,171,main,negativefb,-99,average,,0.7023487999999816,['c'],1,left,['0'],6,0.38064170000006925,62,,14,18,Vrouw,Rechts,1,
,xotask,dotcolour,xotask,52,2,172,172,main,negativefb,-99,hard,,0.7682878999999048,['c'],1,left,['0'],6,0.2318930999999793,54,,14,18,Vrouw,Rechts,1,
,xotask,dotcolour,xotask,53,2,173,173,main,negativefb,-99,easy,,0.7007662000000892,['c'],1,left,['0'],6,0.19532219999996414,73,,14,18,Vrouw,Rechts,1,
,xotask,dotcolour,xotask,54,2,174,174,main,negativefb,-99,average,,0.6013252000000193,['c'],1,left,['0'],6,0.25231989999997495,63,,14,18,Vrouw,Rechts,1,
,xotask,dotcolour,xotask,55,2,175,175,main,negativefb,-99,hard,,1.0184437999998863,['c'],1,left,['0'],6,0.21796539999991182,53,,14,18,Vrouw,Rechts,1,
,xotask,dotcolour,xotask,56,2,176,176,main,negativefb,-99,hard,,0.8004161999999724,['c'],1,left,['0'],6,0.7537303999999949,53,,14,18,Vrouw,Rechts,1,
,xotask,dotcolour,xotask,57,2,177,177,main,negativefb,-99,average,,1.6005830999999944,['c'],1,left,['0'],6,0.2532825999999204,62,,14,18,Vrouw,Rechts,1,
,xotask,dotcolour,xotask,58,2,178,178,main,negativefb,-99,hard,,0.7837299000000257,['n'],1,right,['8'],4,0.6050782999998319,29,,14,18,Vrouw,Rechts,1,
,xotask,dotcolour,xotask,59,2,179,179,main,negativefb,-99,average,,0.7838289000001168,['n'],1,right,['8'],4,0.2701634000000013,17,,14,18,Vrouw,Rechts,1,
,xotask,dotcolour,xotask,0,3,180,180,main,negativefb,-99,hard,,1.200918300000012,['n'],0,left,['9'],5,0.20954530000017257,52,,14,18,Vrouw,Rechts,1,
,xotask,dotcolour,xotask,1,3,181,181,main,negativefb,-99,easy,,0.6499355999999352,['c'],1,left,['9'],5,0.2081430000000637,71,,14,18,Vrouw,Rechts,1,
,xotask,dotcolour,xotask,2,3,182,182,main,negativefb,-99,easy,,0.600883599999861,['c'],1,left,['0'],6,0.19258549999995012,71,,14,18,Vrouw,Rechts,1,
,xotask,dotcolour,xotask,3,3,183,183,main,negativefb,-99,easy,,1.234371599999804,['n'],0,left,['0'],6,1.6486379000000397,73,,14,18,Vrouw,Rechts,1,
,xotask,dotcolour,xotask,4,3,184,184,main,negativefb,-99,easy,,1.0833983999998509,['c'],1,left,['0'],6,0.29210859999989225,70,,14,18,Vrouw,Rechts,1,
,xotask,dotcolour,xotask,5,3,185,185,main,negativefb,-99,hard,,1.083278000000064,['c'],0,right,['2'],2,0.43832739999993464,28,,14,18,Vrouw,Rechts,1,
,xotask,dotcolour,xotask,6,3,186,186,main,negativefb,-99,easy,,1.1841567999999825,['c'],1,left,['2'],2,0.2466165999999248,73,,14,18,Vrouw,Rechts,1,
,xotask,dotcolour,xotask,7,3,187,187,main,negativefb,-99,average,,0.8677517999999509,['n'],1,right,['9'],5,0.410468800000217,15,,14,18,Vrouw,Rechts,1,
,xotask,dotcolour,xotask,8,3,188,188,main,negativefb,-99,hard,,0.9180797999999868,['c'],0,right,['0'],6,0.26229250000005777,28,,14,18,Vrouw,Rechts,1,
,xotask,dotcolour,xotask,9,3,189,189,main,negativefb,-99,hard,,0.834233999999924,['c'],1,left,['0'],6,0.28410940000003393,50,,14,18,Vrouw,Rechts,1,
,xotask,dotcolour,xotask,10,3,190,190,main,negativefb,-99,hard,,1.1338376000001062,['c'],1,left,['2'],2,0.4117656999999326,52,,14,18,Vrouw,Rechts,1,
,xotask,dotcolour,xotask,11,3,191,191,main,negativefb,-99,hard,,1.417352999999821,['n'],1,right,['3'],3,1.7806717000000845,29,,14,18,Vrouw,Rechts,1,
,xotask,dotcolour,xotask,12,3,192,192,main,negativefb,-99,easy,,1.5660406000001785,['n'],1,right,['9'],5,0.44782469999995556,7,,14,18,Vrouw,Rechts,1,
,xotask,dotcolour,xotask,13,3,193,193,main,negativefb,-99,easy,,3.9166428000000906,['n'],1,right,['9'],5,0.361801099999866,6,,14,18,Vrouw,Rechts,1,
,xotask,dotcolour,xotask,14,3,194,194,main,negativefb,-99,average,,0.8667419999999311,['c'],1,left,['9'],5,0.33057979999989584,61,,14,18,Vrouw,Rechts,1,
,xotask,dotcolour,xotask,15,3,195,195,main,negativefb,-99,hard,,0.8518985000000612,['c'],1,left,['2'],2,0.40454989999989266,52,,14,18,Vrouw,Rechts,1,
,xotask,dotcolour,xotask,16,3,196,196,main,negativefb,-99,hard,,0.8338063000001057,['c'],1,left,['9'],5,0.4670283999998901,51,,14,18,Vrouw,Rechts,1,
,xotask,dotcolour,xotask,17,3,197,197,main,negativefb,-99,easy,,1.0004943000001276,['n'],1,right,['0'],6,0.7700449999999819,5,,14,18,Vrouw,Rechts,1,
,xotask,dotcolour,xotask,18,3,198,198,main,negativefb,-99,hard,,0.7506212000000687,['n'],1,right,['0'],6,0.18223250000005464,27,,14,18,Vrouw,Rechts,1,
,xotask,dotcolour,xotask,19,3,199,199,main,negativefb,-99,average,,0.600901100000101,['n'],1,right,['0'],6,0.2627277999999933,17,,14,18,Vrouw,Rechts,1,
,xotask,dotcolour,xotask,20,3,200,200,main,negativefb,-99,average,,0.799915800000008,['c'],1,left,['3'],3,0.478143799999998,61,,14,18,Vrouw,Rechts,1,
,xotask,dotcolour,xotask,21,3,201,201,main,negativefb,-99,average,,0.7342154000000392,['n'],0,left,['3'],3,0.23051379999992605,60,,14,18,Vrouw,Rechts,1,
,xotask,dotcolour,xotask,22,3,202,202,main,negativefb,-99,easy,,1.0172589999999673,['c'],1,left,['3'],3,0.4063246999999137,70,,14,18,Vrouw,Rechts,1,
,xotask,dotcolour,xotask,23,3,203,203,main,negativefb,-99,average,,0.9509259999999813,['c'],1,left,['1'],1,0.5687244000000646,63,,14,18,Vrouw,Rechts,1,
,xotask,dotcolour,xotask,24,3,204,204,main,negativefb,-99,hard,,0.8839535000001888,['n'],1,right,['0'],6,0.2074812999999267,26,,14,18,Vrouw,Rechts,1,
,xotask,dotcolour,xotask,25,3,205,205,main,negativefb,-99,average,,0.8001749000000018,['c'],1,left,['8'],4,2.1192309000000478,61,,14,18,Vrouw,Rechts,1,
,xotask,dotcolour,xotask,26,3,206,206,main,negativefb,-99,average,,0.9839649000000463,['n'],1,right,['8'],4,0.5882269999999608,16,,14,18,Vrouw,Rechts,1,
,xotask,dotcolour,xotask,27,3,207,207,main,negativefb,-99,average,,1.3352976000001036,['c'],1,left,['0'],6,0.3687532999999803,60,,14,18,Vrouw,Rechts,1,
,xotask,dotcolour,xotask,28,3,208,208,main,negativefb,-99,average,,0.8345681999999215,['n'],1,right,['9'],5,0.3284241999999722,16,,14,18,Vrouw,Rechts,1,
,xotask,dotcolour,xotask,29,3,209,209,main,negativefb,-99,easy,,0.8173680999998396,['n'],1,right,['0'],6,0.38001789999998437,8,,14,18,Vrouw,Rechts,1,
,xotask,dotcolour,xotask,30,3,210,210,main,negativefb,-99,easy,,0.8684932000001027,['c'],1,left,['3'],3,0.60354899999993,71,,14,18,Vrouw,Rechts,1,
,xotask,dotcolour,xotask,31,3,211,211,main,negativefb,-99,average,,1.03447170000004,['n'],1,right,['0'],6,0.21843330000001515,19,,14,18,Vrouw,Rechts,1,
,xotask,dotcolour,xotask,32,3,212,212,main,negativefb,-99,easy,,0.6170776000001297,['n'],1,right,['0'],6,0.27406360000009045,5,,14,18,Vrouw,Rechts,1,
,xotask,dotcolour,xotask,33,3,213,213,main,negativefb,-99,hard,,0.9338586999999734,['c'],1,left,['8'],4,0.578807400000187,54,,14,18,Vrouw,Rechts,1,
,xotask,dotcolour,xotask,34,3,214,214,main,negativefb,-99,average,,1.2013449000000946,['c'],0,right,['8'],4,1.6766724999999951,17,,14,18,Vrouw,Rechts,1,
,xotask,dotcolour,xotask,35,3,215,215,main,negativefb,-99,hard,,0.8504726999999548,['n'],1,right,['8'],4,0.5207224000000679,25,,14,18,Vrouw,Rechts,1,
,xotask,dotcolour,xotask,36,3,216,216,main,negativefb,-99,hard,,1.4675306999999975,['c'],0,right,['1'],1,0.6825259999998252,27,,14,18,Vrouw,Rechts,1,
,xotask,dotcolour,xotask,37,3,217,217,main,negativefb,-99,average,,0.7178401000001031,['n'],0,left,['1'],1,1.1228555000000142,62,,14,18,Vrouw,Rechts,1,
,xotask,dotcolour,xotask,38,3,218,218,main,negativefb,-99,average,,0.7837792000000263,['n'],1,right,['1'],1,0.31935929999986,18,,14,18,Vrouw,Rechts,1,
,xotask,dotcolour,xotask,39,3,219,219,main,negativefb,-99,hard,,1.3505422999999155,['c'],1,left,['9'],5,0.7821575000000394,53,,14,18,Vrouw,Rechts,1,
,xotask,dotcolour,xotask,40,3,220,220,main,negativefb,-99,average,,0.7512881999998626,['c'],1,left,['8'],4,0.35287670000002436,61,,14,18,Vrouw,Rechts,1,
,xotask,dotcolour,xotask,41,3,221,221,main,negativefb,-99,easy,,1.017928399999846,['n'],0,left,['0'],6,1.7473775999999361,71,,14,18,Vrouw,Rechts,1,
,xotask,dotcolour,xotask,42,3,222,222,main,negativefb,-99,average,,0.9846016999999847,['c'],1,left,['3'],3,0.2222426999999243,61,,14,18,Vrouw,Rechts,1,
,xotask,dotcolour,xotask,43,3,223,223,main,negativefb,-99,average,,1.3837581000000228,['n'],1,right,['0'],6,0.19977309999990212,15,,14,18,Vrouw,Rechts,1,
,xotask,dotcolour,xotask,44,3,224,224,main,negativefb,-99,easy,,0.4842591999999968,['c'],1,left,['8'],4,0.4686982999999145,70,,14,18,Vrouw,Rechts,1,
,xotask,dotcolour,xotask,45,3,225,225,main,negativefb,-99,hard,,0.43410309999990204,['c'],1,left,['2'],2,0.520775599999979,54,,14,18,Vrouw,Rechts,1,
,xotask,dotcolour,xotask,46,3,226,226,main,negativefb,-99,hard,,1.6511144999999487,['n'],1,right,['0'],6,0.3866571000000931,27,,14,18,Vrouw,Rechts,1,
,xotask,dotcolour,xotask,47,3,227,227,main,negativefb,-99,easy,,1.5179017999998905,['n'],1,right,['0'],6,0.2475400000000718,9,,14,18,Vrouw,Rechts,1,
,xotask,dotcolour,xotask,48,3,228,228,main,negativefb,-99,easy,,0.7340477000000192,['n'],1,right,['0'],6,0.2258969999998044,6,,14,18,Vrouw,Rechts,1,
,xotask,dotcolour,xotask,49,3,229,229,main,negativefb,-99,easy,,0.5842555000001539,['n'],1,right,['9'],5,0.27396539999995184,6,,14,18,Vrouw,Rechts,1,
,xotask,dotcolour,xotask,50,3,230,230,main,negativefb,-99,hard,,0.5849643000001379,['n'],0,left,['8'],4,0.7526731999998901,50,,14,18,Vrouw,Rechts,1,
,xotask,dotcolour,xotask,51,3,231,231,main,negativefb,-99,hard,,0.6180173000000195,['n'],1,right,['8'],4,0.20301319999998668,29,,14,18,Vrouw,Rechts,1,
,xotask,dotcolour,xotask,52,3,232,232,main,negativefb,-99,easy,,0.5678152000000409,['n'],1,right,['8'],4,0.14122050000014497,9,,14,18,Vrouw,Rechts,1,
,xotask,dotcolour,xotask,53,3,233,233,main,negativefb,-99,average,,0.5343946999998934,['n'],1,right,['8'],4,0.17075649999992493,16,,14,18,Vrouw,Rechts,1,
,xotask,dotcolour,xotask,54,3,234,234,main,negativefb,-99,easy,,0.6021786999999676,['c'],1,left,['0'],6,0.5728910000000269,73,,14,18,Vrouw,Rechts,1,
,xotask,dotcolour,xotask,55,3,235,235,main,negativefb,-99,hard,,0.851615000000038,['n'],0,left,['8'],4,0.20470529999988685,54,,14,18,Vrouw,Rechts,1,
,xotask,dotcolour,xotask,56,3,236,236,main,negativefb,-99,average,,1.1177319000000807,['c'],1,left,['3'],3,0.21619609999993372,64,,14,18,Vrouw,Rechts,1,
,xotask,dotcolour,xotask,57,3,237,237,main,negativefb,-99,easy,,0.7671270999999251,['n'],1,right,['0'],6,0.18626210000002175,5,,14,18,Vrouw,Rechts,1,
,xotask,dotcolour,xotask,58,3,238,238,main,negativefb,-99,hard,,0.7162764000001971,['n'],1,right,['0'],6,0.23122680000005857,27,,14,18,Vrouw,Rechts,1,
,xotask,dotcolour,xotask,59,3,239,239,main,negativefb,-99,average,,1.1508820000001379,['c'],0,right,['3'],3,0.8888878000000204,17,,14,18,Vrouw,Rechts,1,
,xotask,dotcolour,xotask,0,4,240,240,main,negativefb,-99,easy,,1.4185640999999123,['n'],1,right,['0'],6,0.16258410000000367,6,,14,18,Vrouw,Rechts,1,
,xotask,dotcolour,xotask,1,4,241,241,main,negativefb,-99,average,,0.9000047000001814,['c'],1,left,['9'],5,0.6009599000001344,60,,14,18,Vrouw,Rechts,1,
,xotask,dotcolour,xotask,2,4,242,242,main,negativefb,-99,average,,1.150733100000025,['n'],1,right,['0'],6,0.35523560000001453,19,,14,18,Vrouw,Rechts,1,
,xotask,dotcolour,xotask,3,4,243,243,main,negativefb,-99,hard,,0.6340720000000601,['n'],1,right,['9'],5,0.333769699999948,28,,14,18,Vrouw,Rechts,1,
,xotask,dotcolour,xotask,4,4,244,244,main,negativefb,-99,hard,,0.9014368999999078,['c'],1,left,['8'],4,0.4126597999998012,51,,14,18,Vrouw,Rechts,1,
,xotask,dotcolour,xotask,5,4,245,245,main,negativefb,-99,easy,,0.8174051000000873,['c'],1,left,['0'],6,0.2368058999998084,71,,14,18,Vrouw,Rechts,1,
,xotask,dotcolour,xotask,6,4,246,246,main,negativefb,-99,hard,,0.9513194999999541,['c'],1,left,['8'],4,0.5892971000000671,53,,14,18,Vrouw,Rechts,1,
,xotask,dotcolour,xotask,7,4,247,247,main,negativefb,-99,average,,1.083441700000094,['n'],1,right,['0'],6,0.1557490999998663,19,,14,18,Vrouw,Rechts,1,
,xotask,dotcolour,xotask,8,4,248,248,main,negativefb,-99,hard,,0.6668020000001889,['n'],1,right,['0'],6,0.18725210000002335,27,,14,18,Vrouw,Rechts,1,
,xotask,dotcolour,xotask,9,4,249,249,main,negativefb,-99,average,,0.6183805000000575,['n'],1,right,['0'],6,0.2604787000000215,15,,14,18,Vrouw,Rechts,1,
,xotask,dotcolour,xotask,10,4,250,250,main,negativefb,-99,easy,,0.5668002999998407,['n'],0,left,['8'],4,0.2287759000000733,74,,14,18,Vrouw,Rechts,1,
,xotask,dotcolour,xotask,11,4,251,251,main,negativefb,-99,average,,0.9515627999999197,['c'],1,left,['8'],4,0.7587573000000702,60,,14,18,Vrouw,Rechts,1,
,xotask,dotcolour,xotask,12,4,252,252,main,negativefb,-99,hard,,0.9343349000000671,['c'],0,right,['8'],4,0.15538329999981215,27,,14,18,Vrouw,Rechts,1,
,xotask,dotcolour,xotask,13,4,253,253,main,negativefb,-99,easy,,2.5516969000000245,['c'],1,left,['0'],6,0.28875529999982064,73,,14,18,Vrouw,Rechts,1,
,xotask,dotcolour,xotask,14,4,254,254,main,negativefb,-99,hard,,1.1845347000000856,['c'],0,right,['8'],4,0.26281040000003486,26,,14,18,Vrouw,Rechts,1,
,xotask,dotcolour,xotask,15,4,255,255,main,negativefb,-99,average,,0.9669341000001168,['c'],0,right,['3'],3,0.18297450000000026,18,,14,18,Vrouw,Rechts,1,
,xotask,dotcolour,xotask,16,4,256,256,main,negativefb,-99,easy,,0.6676591999998891,['c'],0,right,['3'],3,0.3093221999999969,9,,14,18,Vrouw,Rechts,1,
,xotask,dotcolour,xotask,17,4,257,257,main,negativefb,-99,easy,,2.9670948999998927,['c'],0,right,['0'],6,0.2835414999999557,7,,14,18,Vrouw,Rechts,1,
,xotask,dotcolour,xotask,18,4,258,258,main,negativefb,-99,hard,,0.9663792999999714,['n'],1,right,['9'],5,2.0181989999998677,29,,14,18,Vrouw,Rechts,1,
,xotask,dotcolour,xotask,19,4,259,259,main,negativefb,-99,hard,,0.6015228000001116,['n'],1,right,['9'],5,0.20151820000000953,26,,14,18,Vrouw,Rechts,1,
,xotask,dotcolour,xotask,20,4,260,260,main,negativefb,-99,average,,1.6001427999999578,['c'],1,left,['0'],6,0.2184325999999146,61,,14,18,Vrouw,Rechts,1,
,xotask,dotcolour,xotask,21,4,261,261,main,negativefb,-99,easy,,0.8167734999999539,['n'],1,right,['0'],6,0.18560439999987466,8,,14,18,Vrouw,Rechts,1,
,xotask,dotcolour,xotask,22,4,262,262,main,negativefb,-99,easy,,0.6511983999998847,['n'],1,right,['0'],6,0.1859382000000096,5,,14,18,Vrouw,Rechts,1,
,xotask,dotcolour,xotask,23,4,263,263,main,negativefb,-99,average,,0.8509563000000071,['c'],1,left,['8'],4,0.4403588000000127,62,,14,18,Vrouw,Rechts,1,
,xotask,dotcolour,xotask,24,4,264,264,main,negativefb,-99,hard,,1.2672065000001567,['n'],1,right,['9'],5,0.5411432999999306,29,,14,18,Vrouw,Rechts,1,
,xotask,dotcolour,xotask,25,4,265,265,main,negativefb,-99,average,,0.7829756999999518,['n'],1,right,['9'],5,0.1700296999999864,16,,14,18,Vrouw,Rechts,1,
,xotask,dotcolour,xotask,26,4,266,266,main,negativefb,-99,average,,1.1004467999998724,['c'],1,left,['0'],6,0.28748059999998077,60,,14,18,Vrouw,Rechts,1,
,xotask,dotcolour,xotask,27,4,267,267,main,negativefb,-99,hard,,0.6999551999999767,['c'],0,right,['9'],5,0.2648331000000326,29,,14,18,Vrouw,Rechts,1,
,xotask,dotcolour,xotask,28,4,268,268,main,negativefb,-99,average,,1.0003913999998986,['n'],1,right,['9'],5,0.3987578000001122,17,,14,18,Vrouw,Rechts,1,
,xotask,dotcolour,xotask,29,4,269,269,main,negativefb,-99,average,,1.3003021999998055,['c'],1,left,['8'],4,0.7949493999999504,63,,14,18,Vrouw,Rechts,1,
,xotask,dotcolour,xotask,30,4,270,270,main,negativefb,-99,easy,,1.0505080000000362,['n'],1,right,['0'],6,0.4591701000001649,7,,14,18,Vrouw,Rechts,1,
,xotask,dotcolour,xotask,31,4,271,271,main,negativefb,-99,easy,,1.3676274999997986,['c'],1,left,['0'],6,0.19537999999988642,70,,14,18,Vrouw,Rechts,1,
,xotask,dotcolour,xotask,32,4,272,272,main,negativefb,-99,easy,,0.5342680999999629,['c'],1,left,['0'],6,0.21499579999999696,74,,14,18,Vrouw,Rechts,1,
,xotask,dotcolour,xotask,33,4,273,273,main,negativefb,-99,average,,0.8182280999999421,['n'],0,left,['0'],6,0.28619330000015,64,,14,18,Vrouw,Rechts,1,
,xotask,dotcolour,xotask,34,4,274,274,main,negativefb,-99,easy,,1.3675268999998025,['n'],1,right,['0'],6,0.18885619999991832,5,,14,18,Vrouw,Rechts,1,
,xotask,dotcolour,xotask,35,4,275,275,main,negativefb,-99,easy,,3.4838119999999435,['n'],0,left,['0'],6,1.2515330000001086,72,,14,18,Vrouw,Rechts,1,
,xotask,dotcolour,xotask,36,4,276,276,main,negativefb,-99,hard,,3.800290799999857,['n'],0,left,['0'],6,0.22516780000000836,54,,14,18,Vrouw,Rechts,1,
,xotask,dotcolour,xotask,37,4,277,277,main,negativefb,-99,hard,,2.434144399999923,['n'],0,left,['0'],6,0.23225509999997485,52,,14,18,Vrouw,Rechts,1,
,xotask,dotcolour,xotask,38,4,278,278,main,negativefb,-99,hard,,0.7670878000001267,['n'],1,right,['0'],6,0.40142900000000736,27,,14,18,Vrouw,Rechts,1,
,xotask,dotcolour,xotask,39,4,279,279,main,negativefb,-99,easy,,2.7515875999999935,['n'],1,right,['0'],6,0.227588699999842,5,,14,18,Vrouw,Rechts,1,
,xotask,dotcolour,xotask,40,4,280,280,main,negativefb,-99,average,,0.8678711000000021,['c'],0,right,['9'],5,0.4490892999999687,17,,14,18,Vrouw,Rechts,1,
,xotask,dotcolour,xotask,41,4,281,281,main,negativefb,-99,hard,,0.8180171999999857,['n'],1,right,['9'],5,0.31918949999999313,26,,14,18,Vrouw,Rechts,1,
,xotask,dotcolour,xotask,42,4,282,282,main,negativefb,-99,hard,,1.2506888000000345,['n'],0,left,['9'],5,0.23263559999986683,54,,14,18,Vrouw,Rechts,1,
,xotask,dotcolour,xotask,43,4,283,283,main,negativefb,-99,hard,,0.7519961000000421,['c'],1,left,['0'],6,0.3867542999998932,53,,14,18,Vrouw,Rechts,1,
,xotask,dotcolour,xotask,44,4,284,284,main,negativefb,-99,easy,,1.5848422999999912,['c'],1,left,['0'],6,0.21238999999991393,74,,14,18,Vrouw,Rechts,1,
,xotask,dotcolour,xotask,45,4,285,285,main,negativefb,-99,easy,,0.734312200000204,['n'],1,right,['9'],5,0.1837590000000091,5,,14,18,Vrouw,Rechts,1,
,xotask,dotcolour,xotask,46,4,286,286,main,negativefb,-99,hard,,0.9513282999998864,['n'],0,left,['9'],5,0.16316079999978683,52,,14,18,Vrouw,Rechts,1,
,xotask,dotcolour,xotask,47,4,287,287,main,negativefb,-99,average,,1.201217399999905,['n'],0,left,['9'],5,0.22968390000005456,61,,14,18,Vrouw,Rechts,1,
,xotask,dotcolour,xotask,48,4,288,288,main,negativefb,-99,average,,1.500844799999868,['c'],1,left,['0'],6,0.1537506999998186,61,,14,18,Vrouw,Rechts,1,
,xotask,dotcolour,xotask,49,4,289,289,main,negativefb,-99,average,,0.6512614000000667,['n'],1,right,['0'],6,0.474637199999961,16,,14,18,Vrouw,Rechts,1,
,xotask,dotcolour,xotask,50,4,290,290,main,negativefb,-99,hard,,0.7347659999998086,['n'],0,left,['9'],5,0.20336940000015602,52,,14,18,Vrouw,Rechts,1,
,xotask,dotcolour,xotask,51,4,291,291,main,negativefb,-99,average,,0.8016954999998234,['n'],1,right,['9'],5,0.5558563999998114,19,,14,18,Vrouw,Rechts,1,
,xotask,dotcolour,xotask,52,4,292,292,main,negativefb,-99,easy,,0.8677479000002677,['c'],1,left,['0'],6,0.4275299000000814,73,,14,18,Vrouw,Rechts,1,
,xotask,dotcolour,xotask,53,4,293,293,main,negativefb,-99,average,,3.001137700000072,['c'],1,left,['0'],6,0.9717123000000356,62,,14,18,Vrouw,Rechts,1,
,xotask,dotcolour,xotask,54,4,294,294,main,negativefb,-99,easy,,0.7520683999996436,['n'],1,right,['0'],6,0.20724069999960193,5,,14,18,Vrouw,Rechts,1,
,xotask,dotcolour,xotask,55,4,295,295,main,negativefb,-99,average,,0.7844387999998617,['n'],1,right,['0'],6,0.1698166000001038,19,,14,18,Vrouw,Rechts,1,
,xotask,dotcolour,xotask,56,4,296,296,main,negativefb,-99,hard,,1.2497307999997247,['c'],1,left,['3'],3,0.4978244999997514,52,,14,18,Vrouw,Rechts,1,
,xotask,dotcolour,xotask,57,4,297,297,main,negativefb,-99,easy,,0.6350428000000647,['c'],1,left,['0'],6,0.6693461999998362,72,,14,18,Vrouw,Rechts,1,
,xotask,dotcolour,xotask,58,4,298,298,main,negativefb,-99,hard,,0.7184511000000384,['n'],0,left,['9'],5,0.21428640000021915,53,,14,18,Vrouw,Rechts,1,
,xotask,dotcolour,xotask,59,4,299,299,main,negativefb,-99,easy,,1.6171580999998696,['c'],1,left,['9'],5,0.6065972000001238,74,,14,18,Vrouw,Rechts,1,
,dotcolour,dotcolour,xotask,0,0,0,300,training,negativefb,67,easy,64,1.0171218000000408,['c'],1,left,['0'],6,0.5891689000000042,,,14,18,Vrouw,Rechts,1,
,dotcolour,dotcolour,xotask,1,0,1,301,training,negativefb,73,easy,65,1.1993602000002284,['c'],1,left,['9'],5,0.34172540000008667,,,14,18,Vrouw,Rechts,1,
,dotcolour,dotcolour,xotask,2,0,2,302,training,negativefb,52,average,28,1.6676405000002887,['c'],0,right,['9'],5,0.3097067999997307,,,14,18,Vrouw,Rechts,1,
,dotcolour,dotcolour,xotask,3,0,3,303,training,negativefb,68,easy,62,0.6158419999997022,['c'],1,left,['9'],5,0.17787099999986822,,,14,18,Vrouw,Rechts,1,
,dotcolour,dotcolour,xotask,4,0,4,304,training,negativefb,69,easy,15,0.6836934000002657,['n'],1,right,['0'],6,0.17528579999998328,,,14,18,Vrouw,Rechts,1,
,dotcolour,dotcolour,xotask,5,0,5,305,training,negativefb,56,average,52,0.6321035000000848,['c'],1,left,['9'],5,0.13447150000001784,,,14,18,Vrouw,Rechts,1,
,dotcolour,dotcolour,xotask,6,0,6,306,training,negativefb,68,hard,45,0.8670081000000209,['c'],1,left,['0'],6,0.1750594000000092,,,14,18,Vrouw,Rechts,1,
,dotcolour,dotcolour,xotask,7,0,7,307,training,negativefb,70,average,51,0.8495719000002282,['c'],1,left,['8'],4,0.1984775000000809,,,14,18,Vrouw,Rechts,1,
,dotcolour,dotcolour,xotask,8,0,8,308,training,negativefb,70,easy,16,0.6162864000002628,['n'],1,right,['0'],6,0.3176412999996501,,,14,18,Vrouw,Rechts,1,
,dotcolour,dotcolour,xotask,9,0,9,309,training,negativefb,81,easy,19,1.1333107999998902,['n'],1,right,['9'],5,0.988144000000375,,,14,18,Vrouw,Rechts,1,
,dotcolour,dotcolour,xotask,10,0,10,310,training,negativefb,62,hard,41,0.9172433000003366,['c'],1,left,['8'],4,0.24009400000022652,,,14,18,Vrouw,Rechts,1,
,dotcolour,dotcolour,xotask,11,0,11,311,training,negativefb,61,average,55,0.6170922999999675,['c'],1,left,['0'],6,0.21426419999988866,,,14,18,Vrouw,Rechts,1,
,dotcolour,dotcolour,xotask,12,0,12,312,training,negativefb,84,hard,44,1.0501208000000588,['c'],1,left,['8'],4,0.3399656999999934,,,14,18,Vrouw,Rechts,1,
,dotcolour,dotcolour,xotask,13,0,13,313,training,negativefb,78,average,53,0.6000783000004049,['c'],1,left,['9'],5,0.32656649999989895,,,14,18,Vrouw,Rechts,1,
,dotcolour,dotcolour,xotask,14,0,14,314,training,negativefb,51,easy,62,0.5323684999998477,['c'],1,left,['9'],5,0.14894180000010238,,,14,18,Vrouw,Rechts,1,
,dotcolour,dotcolour,xotask,15,0,15,315,training,negativefb,59,hard,36,1.584097799999654,['n'],1,right,['8'],4,0.21563089999972362,,,14,18,Vrouw,Rechts,1,
,dotcolour,dotcolour,xotask,16,0,16,316,training,negativefb,77,hard,36,0.6678107000002456,['c'],0,right,['8'],4,0.14022539999996297,,,14,18,Vrouw,Rechts,1,
,dotcolour,dotcolour,xotask,17,0,17,317,training,negativefb,78,easy,19,0.3153461000001698,['c'],0,right,['9'],5,0.3542772999999215,,,14,18,Vrouw,Rechts,1,
,dotcolour,dotcolour,xotask,18,0,18,318,training,negativefb,17,hard,37,0.5823133999997481,['c'],0,right,['9'],5,0.22894360000009328,,,14,18,Vrouw,Rechts,1,
,dotcolour,dotcolour,xotask,19,0,19,319,training,negativefb,62,average,25,0.7168250999998236,['n'],1,right,['9'],5,0.15206649999981892,,,14,18,Vrouw,Rechts,1,
,dotcolour,dotcolour,xotask,20,0,20,320,training,negativefb,33,average,54,0.5663107999998829,['c'],1,left,['9'],5,0.243322100000114,,,14,18,Vrouw,Rechts,1,
,dotcolour,dotcolour,xotask,21,0,21,321,training,negativefb,72,easy,15,0.733612500000163,['n'],1,right,['9'],5,0.2437872000000425,,,14,18,Vrouw,Rechts,1,
,dotcolour,dotcolour,xotask,22,0,22,322,training,negativefb,58,hard,35,1.3654285000002346,['n'],1,right,['8'],4,0.6282408999995823,,,14,18,Vrouw,Rechts,1,
,dotcolour,dotcolour,xotask,23,0,23,323,training,negativefb,77,average,25,1.1504277999997612,['n'],1,right,['0'],6,0.1655627000000095,,,14,18,Vrouw,Rechts,1,
,dotcolour,dotcolour,xotask,24,0,24,324,training,negativefb,80,average,54,0.7171989000003123,['c'],1,left,['0'],6,0.21000520000006873,,,14,18,Vrouw,Rechts,1,
,dotcolour,dotcolour,xotask,25,0,25,325,training,negativefb,28,average,28,0.7162361999999121,['n'],1,right,['0'],6,0.2224384999999529,,,14,18,Vrouw,Rechts,1,
,dotcolour,dotcolour,xotask,26,0,26,326,training,negativefb,70,average,51,0.6840263000003688,['c'],1,left,['9'],5,0.3215831000002254,,,14,18,Vrouw,Rechts,1,
,dotcolour,dotcolour,xotask,27,0,27,327,training,negativefb,62,hard,39,0.8332104999999501,['n'],1,right,['0'],6,0.26772629999959463,,,14,18,Vrouw,Rechts,1,
,dotcolour,dotcolour,xotask,28,0,28,328,training,negativefb,70,hard,36,0.7845448999996734,['n'],1,right,['9'],5,0.16182879999996658,,,14,18,Vrouw,Rechts,1,
,dotcolour,dotcolour,xotask,29,0,29,329,training,negativefb,90,average,26,0.366609900000185,['n'],1,right,['0'],6,0.24459410000008575,,,14,18,Vrouw,Rechts,1,
,dotcolour,dotcolour,xotask,30,0,30,330,training,negativefb,88,easy,15,0.48448069999994914,['n'],1,right,['0'],6,0.1604723999998896,,,14,18,Vrouw,Rechts,1,
,dotcolour,dotcolour,xotask,31,0,31,331,training,negativefb,66,easy,64,0.5659114000000045,['c'],1,left,['0'],6,0.1799445999999989,,,14,18,Vrouw,Rechts,1,
,dotcolour,dotcolour,xotask,32,0,32,332,training,negativefb,24,hard,38,0.9661634999997659,['n'],1,right,['3'],3,0.4703362999998717,,,14,18,Vrouw,Rechts,1,
,dotcolour,dotcolour,xotask,33,0,33,333,training,negativefb,39,average,25,0.5163923000000068,['n'],1,right,['9'],5,0.18320960000028208,,,14,18,Vrouw,Rechts,1,
,dotcolour,dotcolour,xotask,34,0,34,334,training,negativefb,82,average,28,1.266767499999787,['n'],1,right,['0'],6,0.22208629999977347,,,14,18,Vrouw,Rechts,1,
,dotcolour,dotcolour,xotask,35,0,35,335,training,negativefb,55,easy,18,0.7503123999999843,['n'],1,right,['0'],6,0.17514510000000882,,,14,18,Vrouw,Rechts,1,
,dotcolour,dotcolour,xotask,36,0,36,336,training,negativefb,51,hard,45,0.5667607000000316,['c'],1,left,['9'],5,0.29724999999962165,,,14,18,Vrouw,Rechts,1,
,dotcolour,dotcolour,xotask,37,0,37,337,training,negativefb,33,easy,15,0.4155073000001721,['c'],0,right,['9'],5,0.2290259999999762,,,14,18,Vrouw,Rechts,1,
,dotcolour,dotcolour,xotask,38,0,38,338,training,negativefb,48,hard,45,0.7335222000001522,['n'],0,left,['9'],5,0.18307049999975789,,,14,18,Vrouw,Rechts,1,
,dotcolour,dotcolour,xotask,39,0,39,339,training,negativefb,65,average,53,0.7335544000002301,['c'],1,left,['9'],5,0.5633577000003243,,,14,18,Vrouw,Rechts,1,
,dotcolour,dotcolour,xotask,40,0,40,340,training,negativefb,81,average,25,0.5664419999998245,['n'],1,right,['9'],5,0.14967359999991459,,,14,18,Vrouw,Rechts,1,
,dotcolour,dotcolour,xotask,41,0,41,341,training,negativefb,49,average,27,0.9346067999999832,['n'],1,right,['9'],5,0.28282949999993434,,,14,18,Vrouw,Rechts,1,
,dotcolour,dotcolour,xotask,42,0,42,342,training,negativefb,87,easy,17,0.4336679000002732,['n'],1,right,['0'],6,0.1902820000000247,,,14,18,Vrouw,Rechts,1,
,dotcolour,dotcolour,xotask,43,0,43,343,training,negativefb,75,easy,62,0.600605899999664,['c'],1,left,['9'],5,0.21520200000031764,,,14,18,Vrouw,Rechts,1,
,dotcolour,dotcolour,xotask,44,0,44,344,training,negativefb,87,hard,36,0.6340480999997453,['n'],1,right,['0'],6,0.17250380000041332,,,14,18,Vrouw,Rechts,1,
,dotcolour,dotcolour,xotask,45,0,45,345,training,negativefb,36,hard,43,0.5168143000000782,['n'],0,left,['9'],5,0.16952740000033373,,,14,18,Vrouw,Rechts,1,
,dotcolour,dotcolour,xotask,46,0,46,346,training,negativefb,89,average,52,0.43360960000018167,['c'],1,left,['9'],5,0.24155870000004143,,,14,18,Vrouw,Rechts,1,
,dotcolour,dotcolour,xotask,47,0,47,347,training,negativefb,87,easy,62,0.4327894000002743,['c'],1,left,['9'],5,0.15092890000005355,,,14,18,Vrouw,Rechts,1,
,dotcolour,dotcolour,xotask,48,0,48,348,training,negativefb,53,hard,41,0.4825938999997561,['c'],1,left,['3'],3,0.6863461000002644,,,14,18,Vrouw,Rechts,1,
,dotcolour,dotcolour,xotask,49,0,49,349,training,negativefb,27,hard,43,0.6175683999999819,['n'],0,left,['9'],5,0.21795800000018062,,,14,18,Vrouw,Rechts,1,
,dotcolour,dotcolour,xotask,50,0,50,350,training,negativefb,80,easy,19,1.850781999999981,['n'],1,right,['9'],5,0.20727199999964796,,,14,18,Vrouw,Rechts,1,
,dotcolour,dotcolour,xotask,51,0,51,351,training,negativefb,66,hard,38,0.717182800000046,['c'],0,right,['9'],5,0.15423880000025747,,,14,18,Vrouw,Rechts,1,
,dotcolour,dotcolour,xotask,52,0,52,352,training,negativefb,85,easy,64,0.7338436999998521,['c'],1,left,['0'],6,0.2388189000002967,,,14,18,Vrouw,Rechts,1,
,dotcolour,dotcolour,xotask,53,0,53,353,training,negativefb,67,average,29,0.683028600000398,['n'],1,right,['9'],5,0.1704635999999482,,,14,18,Vrouw,Rechts,1,
,dotcolour,dotcolour,xotask,54,0,54,354,training,negativefb,75,easy,65,0.6006535999999869,['c'],1,left,['9'],5,0.16407540000000154,,,14,18,Vrouw,Rechts,1,
,dotcolour,dotcolour,xotask,55,0,55,355,training,negativefb,60,hard,41,0.5498170999999274,['c'],1,left,['9'],5,0.15998679999984233,,,14,18,Vrouw,Rechts,1,
,dotcolour,dotcolour,xotask,56,0,56,356,training,negativefb,46,hard,44,0.516094300000077,['c'],1,left,['9'],5,0.14855729999999312,,,14,18,Vrouw,Rechts,1,
,dotcolour,dotcolour,xotask,57,0,57,357,training,negativefb,92,average,52,0.3659852000000683,['c'],1,left,['8'],4,0.4880129999996825,,,14,18,Vrouw,Rechts,1,
,dotcolour,dotcolour,xotask,58,0,58,358,training,negativefb,73,easy,65,0.4165986000002704,['c'],1,left,['9'],5,0.34007930000007036,,,14,18,Vrouw,Rechts,1,
,dotcolour,dotcolour,xotask,59,0,59,359,training,negativefb,61,hard,38,0.9656866000000264,['n'],1,right,['3'],3,0.2482319999999163,,,14,18,Vrouw,Rechts,1,
,dotcolour,dotcolour,xotask,0,1,60,360,training,negativefb,85,easy,65,1.2008342000003722,['c'],1,left,['0'],6,0.1882210999997369,,,14,18,Vrouw,Rechts,1,
,dotcolour,dotcolour,xotask,1,1,61,361,training,negativefb,73,average,29,0.7838970000002519,['n'],1,right,['3'],3,0.2621534999998403,,,14,18,Vrouw,Rechts,1,
,dotcolour,dotcolour,xotask,2,1,62,362,training,negativefb,91,easy,15,0.7331704999996873,['n'],1,right,['0'],6,0.21409480000011172,,,14,18,Vrouw,Rechts,1,
,dotcolour,dotcolour,xotask,3,1,63,363,training,negativefb,60,average,54,0.5834734999998545,['c'],1,left,['9'],5,0.21447949999992488,,,14,18,Vrouw,Rechts,1,
,dotcolour,dotcolour,xotask,4,1,64,364,training,negativefb,98,average,55,0.35038089999989097,['c'],1,left,['0'],6,0.32834409999986747,,,14,18,Vrouw,Rechts,1,
,dotcolour,dotcolour,xotask,5,1,65,365,training,negativefb,21,hard,36,0.4011334000001625,['c'],0,right,['0'],6,0.2435206999998627,,,14,18,Vrouw,Rechts,1,
,dotcolour,dotcolour,xotask,6,1,66,366,training,negativefb,79,hard,44,0.9496922999996968,['c'],1,left,['3'],3,0.46863059999986945,,,14,18,Vrouw,Rechts,1,
,dotcolour,dotcolour,xotask,7,1,67,367,training,negativefb,60,easy,19,0.8665522999999666,['n'],1,right,['0'],6,0.1511366999998245,,,14,18,Vrouw,Rechts,1,
,dotcolour,dotcolour,xotask,8,1,68,368,training,negativefb,78,hard,35,0.516617899999801,['n'],1,right,['0'],6,0.14792530000022452,,,14,18,Vrouw,Rechts,1,
,dotcolour,dotcolour,xotask,9,1,69,369,training,negativefb,38,average,29,0.3840357000003678,['n'],1,right,['9'],5,0.18224089999966964,,,14,18,Vrouw,Rechts,1,
,dotcolour,dotcolour,xotask,10,1,70,370,training,negativefb,73,hard,44,0.4493974000001799,['c'],1,left,['0'],6,0.22118369999998322,,,14,18,Vrouw,Rechts,1,
,dotcolour,dotcolour,xotask,11,1,71,371,training,negativefb,45,easy,19,0.9328980999998748,['n'],1,right,['0'],6,0.1591272000000572,,,14,18,Vrouw,Rechts,1,
,dotcolour,dotcolour,xotask,12,1,72,372,training,negativefb,23,average,54,0.7168264000001727,['c'],1,left,['9'],5,0.21250989999998637,,,14,18,Vrouw,Rechts,1,
,dotcolour,dotcolour,xotask,13,1,73,373,training,negativefb,79,hard,37,0.7652274000001853,['n'],1,right,['9'],5,0.1824692000000141,,,14,18,Vrouw,Rechts,1,
,dotcolour,dotcolour,xotask,14,1,74,374,training,negativefb,84,easy,19,0.6840171999997438,['n'],1,right,['0'],6,0.14817630000015924,,,14,18,Vrouw,Rechts,1,
,dotcolour,dotcolour,xotask,15,1,75,375,training,negativefb,32,hard,41,0.8507188000003225,['c'],1,left,['2'],2,0.4197149999999965,,,14,18,Vrouw,Rechts,1,
,dotcolour,dotcolour,xotask,16,1,76,376,training,negativefb,76,easy,15,0.6496641999997337,['n'],1,right,['0'],6,0.12092619999975796,,,14,18,Vrouw,Rechts,1,
,dotcolour,dotcolour,xotask,17,1,77,377,training,negativefb,65,easy,64,0.599937299999965,['c'],1,left,['0'],6,0.22097149999990506,,,14,18,Vrouw,Rechts,1,
,dotcolour,dotcolour,xotask,18,1,78,378,training,negativefb,41,average,26,1.1329932999997254,['n'],1,right,['9'],5,0.23033239999995203,,,14,18,Vrouw,Rechts,1,
,dotcolour,dotcolour,xotask,19,1,79,379,training,negativefb,65,easy,62,0.7171425999999883,['c'],1,left,['0'],6,0.1374150000001464,,,14,18,Vrouw,Rechts,1,
,dotcolour,dotcolour,xotask,20,1,80,380,training,negativefb,62,easy,63,0.6007426000001033,['c'],1,left,['0'],6,0.19539929999973538,,,14,18,Vrouw,Rechts,1,
,dotcolour,dotcolour,xotask,21,1,81,381,training,negativefb,68,average,54,0.5169267999999647,['c'],1,left,['0'],6,0.15172899999970468,,,14,18,Vrouw,Rechts,1,
,dotcolour,dotcolour,xotask,22,1,82,382,training,negativefb,62,hard,44,0.7494594999998299,['c'],1,left,['0'],6,0.17240439999977752,,,14,18,Vrouw,Rechts,1,
,dotcolour,dotcolour,xotask,23,1,83,383,training,negativefb,76,average,29,0.316268399999899,['c'],0,right,['9'],5,0.3204318000002786,,,14,18,Vrouw,Rechts,1,
,dotcolour,dotcolour,xotask,24,1,84,384,training,negativefb,100,average,52,0.283943200000067,['c'],1,left,['9'],5,1.1048210999997536,,,14,18,Vrouw,Rechts,1,
,dotcolour,dotcolour,xotask,25,1,85,385,training,negativefb,93,easy,65,0.3671417000000474,['c'],1,left,['9'],5,0.3339229000002888,,,14,18,Vrouw,Rechts,1,
,dotcolour,dotcolour,xotask,26,1,86,386,training,negativefb,85,hard,41,0.36718500000006316,['c'],1,left,['0'],6,0.3134132000000136,,,14,18,Vrouw,Rechts,1,
,dotcolour,dotcolour,xotask,27,1,87,387,training,negativefb,47,hard,44,1.3673400000002403,['c'],1,left,['0'],6,0.3271257000001242,,,14,18,Vrouw,Rechts,1,
,dotcolour,dotcolour,xotask,28,1,88,388,training,negativefb,24,average,26,0.3335990000000493,['c'],0,right,['2'],2,1.2290169999996579,,,14,18,Vrouw,Rechts,1,
,dotcolour,dotcolour,xotask,29,1,89,389,training,negativefb,61,easy,18,0.6997446999998829,['n'],1,right,['0'],6,0.1445384999997259,,,14,18,Vrouw,Rechts,1,
,dotcolour,dotcolour,xotask,30,1,90,390,training,negativefb,74,easy,17,0.48275769999963813,['n'],1,right,['0'],6,0.15190990000019156,,,14,18,Vrouw,Rechts,1,
,dotcolour,dotcolour,xotask,31,1,91,391,training,negativefb,20,average,52,0.49997140000004947,['n'],0,left,['0'],6,0.14970010000024558,,,14,18,Vrouw,Rechts,1,
,dotcolour,dotcolour,xotask,32,1,92,392,training,negativefb,75,easy,17,0.8834404999997787,['n'],1,right,['0'],6,0.12394970000013927,,,14,18,Vrouw,Rechts,1,
,dotcolour,dotcolour,xotask,33,1,93,393,training,negativefb,33,easy,61,0.6828322000001208,['c'],1,left,['0'],6,0.13227109999979803,,,14,18,Vrouw,Rechts,1,
,dotcolour,dotcolour,xotask,34,1,94,394,training,negativefb,85,average,54,0.4833426000000145,['c'],1,left,['9'],5,0.17245920000004844,,,14,18,Vrouw,Rechts,1,
,dotcolour,dotcolour,xotask,35,1,95,395,training,negativefb,80,average,55,0.3987539999998262,['c'],1,left,['9'],5,0.25316369999973176,,,14,18,Vrouw,Rechts,1,
,dotcolour,dotcolour,xotask,36,1,96,396,training,negativefb,39,hard,35,0.600040600000284,['c'],0,right,['0'],6,0.1311203000000205,,,14,18,Vrouw,Rechts,1,
,dotcolour,dotcolour,xotask,37,1,97,397,training,negativefb,66,average,26,1.399797800000215,['c'],0,right,['9'],5,0.3266850999998496,,,14,18,Vrouw,Rechts,1,
,dotcolour,dotcolour,xotask,38,1,98,398,training,negativefb,34,easy,18,0.4168915999998717,['c'],0,right,['0'],6,0.3054653999997754,,,14,18,Vrouw,Rechts,1,
,dotcolour,dotcolour,xotask,39,1,99,399,training,negativefb,54,average,29,0.29960209999990184,['c'],0,right,['9'],5,0.23314459999983228,,,14,18,Vrouw,Rechts,1,
,dotcolour,dotcolour,xotask,40,1,100,400,training,negativefb,94,easy,61,0.2680009999999129,['c'],1,left,['0'],6,1.4612139999999272,,,14,18,Vrouw,Rechts,1,
,dotcolour,dotcolour,xotask,41,1,101,401,training,negativefb,62,average,29,0.5506653000002188,['n'],1,right,['9'],5,0.2288037999996959,,,14,18,Vrouw,Rechts,1,
,dotcolour,dotcolour,xotask,42,1,102,402,training,negativefb,92,easy,63,0.2841152000000875,['c'],1,left,['0'],6,0.4326488000001518,,,14,18,Vrouw,Rechts,1,
,dotcolour,dotcolour,xotask,43,1,103,403,training,negativefb,80,hard,36,1.0843832999998995,['n'],1,right,['8'],4,0.2690990999999485,,,14,18,Vrouw,Rechts,1,
,dotcolour,dotcolour,xotask,44,1,104,404,training,negativefb,39,hard,43,0.41596879999997327,['c'],1,left,['0'],6,0.2013594000000012,,,14,18,Vrouw,Rechts,1,
,dotcolour,dotcolour,xotask,45,1,105,405,training,negativefb,24,hard,35,0.6664154999998573,['c'],0,right,['8'],4,0.11842100000012579,,,14,18,Vrouw,Rechts,1,
,dotcolour,dotcolour,xotask,46,1,106,406,training,negativefb,60,hard,39,0.6171113000000332,['n'],1,right,['0'],6,0.12904829999979484,,,14,18,Vrouw,Rechts,1,
,dotcolour,dotcolour,xotask,47,1,107,407,training,negativefb,65,average,28,0.5329352999997354,['n'],1,right,['8'],4,0.1914086000001589,,,14,18,Vrouw,Rechts,1,
,dotcolour,dotcolour,xotask,48,1,108,408,training,negativefb,29,hard,43,1.0335688000000118,['n'],0,left,['8'],4,0.2624691000000894,,,14,18,Vrouw,Rechts,1,
,dotcolour,dotcolour,xotask,49,1,109,409,training,negativefb,49,hard,37,0.46759750000001077,['c'],0,right,['9'],5,1.306145099999867,,,14,18,Vrouw,Rechts,1,
,dotcolour,dotcolour,xotask,50,1,110,410,training,negativefb,60,average,53,0.7997943000000305,['c'],1,left,['9'],5,0.5260937999996713,,,14,18,Vrouw,Rechts,1,
,dotcolour,dotcolour,xotask,51,1,111,411,training,negativefb,30,easy,17,0.5004685999997491,['c'],0,right,['9'],5,0.20518989999982296,,,14,18,Vrouw,Rechts,1,
,dotcolour,dotcolour,xotask,52,1,112,412,training,negativefb,51,hard,41,0.40017870000019684,['c'],1,left,['0'],6,0.4212971000001744,,,14,18,Vrouw,Rechts,1,
,dotcolour,dotcolour,xotask,53,1,113,413,training,negativefb,18,average,29,0.5657886999997572,['c'],0,right,['9'],5,0.23778270000002522,,,14,18,Vrouw,Rechts,1,
,dotcolour,dotcolour,xotask,54,1,114,414,training,negativefb,81,average,52,0.7822468999997909,['c'],1,left,['9'],5,0.42169719999992594,,,14,18,Vrouw,Rechts,1,
,dotcolour,dotcolour,xotask,55,1,115,415,training,negativefb,15,hard,37,0.4159635999999409,['c'],0,right,['0'],6,0.36386880000009114,,,14,18,Vrouw,Rechts,1,
,dotcolour,dotcolour,xotask,56,1,116,416,training,negativefb,67,easy,63,0.5995389999998224,['c'],1,left,['0'],6,0.2543080000000373,,,14,18,Vrouw,Rechts,1,
,dotcolour,dotcolour,xotask,57,1,117,417,training,negativefb,48,hard,38,0.400746700000127,['c'],0,right,['9'],5,0.2277291000000332,,,14,18,Vrouw,Rechts,1,
,dotcolour,dotcolour,xotask,58,1,118,418,training,negativefb,89,hard,45,0.5668276999999762,['c'],1,left,['0'],6,0.1491217000002507,,,14,18,Vrouw,Rechts,1,
,dotcolour,dotcolour,xotask,59,1,119,419,training,negativefb,78,easy,65,0.3174601000000621,['c'],1,left,['0'],6,0.2823049999997238,,,14,18,Vrouw,Rechts,1,
,dotcolour,dotcolour,xotask,0,2,120,420,main,negativefb,-99,easy,17,0.6175931999996465,['c'],0,right,['3'],3,0.8917726999998195,,,14,18,Vrouw,Rechts,1,
,dotcolour,dotcolour,xotask,1,2,121,421,main,negativefb,-99,average,54,1.3014766999999665,['c'],1,left,['0'],6,0.3171818999999232,,,14,18,Vrouw,Rechts,1,
,dotcolour,dotcolour,xotask,2,2,122,422,main,negativefb,-99,easy,17,0.7999840999996195,['n'],1,right,['0'],6,0.14558390000001964,,,14,18,Vrouw,Rechts,1,
,dotcolour,dotcolour,xotask,3,2,123,423,main,negativefb,-99,easy,19,0.9172427000003154,['n'],1,right,['0'],6,0.15203010000004724,,,14,18,Vrouw,Rechts,1,
,dotcolour,dotcolour,xotask,4,2,124,424,main,negativefb,-99,average,26,1.5836600000002363,['n'],1,right,['0'],6,0.19586340000023483,,,14,18,Vrouw,Rechts,1,
,dotcolour,dotcolour,xotask,5,2,125,425,main,negativefb,-99,average,53,1.00060429999985,['c'],1,left,['0'],6,0.13274599999977,,,14,18,Vrouw,Rechts,1,
,dotcolour,dotcolour,xotask,6,2,126,426,main,negativefb,-99,hard,43,0.6012810000001991,['c'],1,left,['0'],6,0.10396720000017012,,,14,18,Vrouw,Rechts,1,
,dotcolour,dotcolour,xotask,7,2,127,427,main,negativefb,-99,average,28,1.0000748000002204,['n'],1,right,['0'],6,0.10948049999979048,,,14,18,Vrouw,Rechts,1,
,dotcolour,dotcolour,xotask,8,2,128,428,main,negativefb,-99,average,27,1.0505932999999459,['n'],1,right,['8'],4,0.14424999999982901,,,14,18,Vrouw,Rechts,1,
,dotcolour,dotcolour,xotask,9,2,129,429,main,negativefb,-99,easy,64,0.8173459999998158,['c'],1,left,['0'],6,0.13095160000011674,,,14,18,Vrouw,Rechts,1,
,dotcolour,dotcolour,xotask,10,2,130,430,main,negativefb,-99,easy,62,1.4014564999997674,['c'],1,left,['0'],6,0.16638590000002296,,,14,18,Vrouw,Rechts,1,
,dotcolour,dotcolour,xotask,11,2,131,431,main,negativefb,-99,hard,36,0.668043299999681,['c'],0,right,['8'],4,0.23018339999998716,,,14,18,Vrouw,Rechts,1,
,dotcolour,dotcolour,xotask,12,2,132,432,main,negativefb,-99,hard,36,0.6009947000002285,['c'],0,right,['8'],4,0.14924059999975725,,,14,18,Vrouw,Rechts,1,
,dotcolour,dotcolour,xotask,13,2,133,433,main,negativefb,-99,average,54,0.7845738000000892,['c'],1,left,['0'],6,0.20898970000007466,,,14,18,Vrouw,Rechts,1,
,dotcolour,dotcolour,xotask,14,2,134,434,main,negativefb,-99,easy,16,1.0159539999999652,['n'],1,right,['0'],6,0.1530465999999251,,,14,18,Vrouw,Rechts,1,
,dotcolour,dotcolour,xotask,15,2,135,435,main,negativefb,-99,easy,65,0.851553199999671,['c'],1,left,['0'],6,0.754234600000018,,,14,18,Vrouw,Rechts,1,
,dotcolour,dotcolour,xotask,16,2,136,436,main,negativefb,-99,easy,61,0.5340984999998,['c'],1,left,['0'],6,0.2236044999999649,,,14,18,Vrouw,Rechts,1,
,dotcolour,dotcolour,xotask,17,2,137,437,main,negativefb,-99,average,53,0.5835020999998051,['c'],1,left,['9'],5,0.360558299999866,,,14,18,Vrouw,Rechts,1,
,dotcolour,dotcolour,xotask,18,2,138,438,main,negativefb,-99,hard,37,0.5684842000000572,['c'],0,right,['8'],4,0.1641595999999481,,,14,18,Vrouw,Rechts,1,
,dotcolour,dotcolour,xotask,19,2,139,439,main,negativefb,-99,average,25,1.01767800000016,['n'],1,right,['8'],4,0.14957049999975425,,,14,18,Vrouw,Rechts,1,
,dotcolour,dotcolour,xotask,20,2,140,440,main,negativefb,-99,easy,65,0.701054699999986,['c'],1,left,['0'],6,0.2525261999999202,,,14,18,Vrouw,Rechts,1,
,dotcolour,dotcolour,xotask,21,2,141,441,main,negativefb,-99,easy,64,0.5344856000001528,['c'],1,left,['0'],6,0.20581609999999273,,,14,18,Vrouw,Rechts,1,
,dotcolour,dotcolour,xotask,22,2,142,442,main,negativefb,-99,easy,64,0.5347869999995964,['c'],1,left,['0'],6,0.2094240000001264,,,14,18,Vrouw,Rechts,1,
,dotcolour,dotcolour,xotask,23,2,143,443,main,negativefb,-99,average,53,0.4171766999997999,['c'],1,left,['0'],6,0.12962649999963105,,,14,18,Vrouw,Rechts,1,
,dotcolour,dotcolour,xotask,24,2,144,444,main,negativefb,-99,easy,16,1.0177429000000302,['n'],1,right,['0'],6,0.23620489999984784,,,14,18,Vrouw,Rechts,1,
,dotcolour,dotcolour,xotask,25,2,145,445,main,negativefb,-99,easy,65,0.7010674000002837,['c'],1,left,['9'],5,0.1594332999998187,,,14,18,Vrouw,Rechts,1,
,dotcolour,dotcolour,xotask,26,2,146,446,main,negativefb,-99,average,52,0.5846713999999338,['c'],1,left,['9'],5,0.14700409999977637,,,14,18,Vrouw,Rechts,1,
,dotcolour,dotcolour,xotask,27,2,147,447,main,negativefb,-99,average,25,0.5002767999999378,['n'],1,right,['9'],5,0.13078330000007554,,,14,18,Vrouw,Rechts,1,
,dotcolour,dotcolour,xotask,28,2,148,448,main,negativefb,-99,hard,45,0.8338817000003473,['c'],1,left,['9'],5,0.293322999999873,,,14,18,Vrouw,Rechts,1,
,dotcolour,dotcolour,xotask,29,2,149,449,main,negativefb,-99,hard,36,1.0510886000001847,['c'],0,right,['3'],3,0.18459990000019388,,,14,18,Vrouw,Rechts,1,
,dotcolour,dotcolour,xotask,30,2,150,450,main,negativefb,-99,average,29,0.5173540999999204,['c'],0,right,['3'],3,0.2049286999999822,,,14,18,Vrouw,Rechts,1,
,dotcolour,dotcolour,xotask,31,2,151,451,main,negativefb,-99,hard,42,1.2512007999998787,['c'],1,left,['3'],3,0.4120973999997659,,,14,18,Vrouw,Rechts,1,
,dotcolour,dotcolour,xotask,32,2,152,452,main,negativefb,-99,average,54,0.7341252999999597,['c'],1,left,['9'],5,0.527549800000088,,,14,18,Vrouw,Rechts,1,
,dotcolour,dotcolour,xotask,33,2,153,453,main,negativefb,-99,hard,43,0.48337690000016664,['c'],1,left,['8'],4,0.24015550000012809,,,14,18,Vrouw,Rechts,1,
,dotcolour,dotcolour,xotask,34,2,154,454,main,negativefb,-99,average,26,0.6339701000001696,['c'],0,right,['1'],1,1.2937312000003658,,,14,18,Vrouw,Rechts,1,
,dotcolour,dotcolour,xotask,35,2,155,455,main,negativefb,-99,hard,39,1.4509891000002426,['c'],0,right,['3'],3,0.44158610000022236,,,14,18,Vrouw,Rechts,1,
,dotcolour,dotcolour,xotask,36,2,156,456,main,negativefb,-99,average,53,0.6334844000002704,['n'],0,left,['3'],3,1.1199068999999326,,,14,18,Vrouw,Rechts,1,
,dotcolour,dotcolour,xotask,37,2,157,457,main,negativefb,-99,hard,41,0.717511100000138,['c'],1,left,['0'],6,0.21461440000030052,,,14,18,Vrouw,Rechts,1,
,dotcolour,dotcolour,xotask,38,2,158,458,main,negativefb,-99,hard,42,1.2336191000003964,['c'],1,left,['3'],3,0.1574028999998518,,,14,18,Vrouw,Rechts,1,
,dotcolour,dotcolour,xotask,39,2,159,459,main,negativefb,-99,easy,17,1.0009297999999944,['n'],1,right,['0'],6,0.31974170000012236,,,14,18,Vrouw,Rechts,1,
,dotcolour,dotcolour,xotask,40,2,160,460,main,negativefb,-99,hard,37,0.5344270999999026,['n'],1,right,['0'],6,0.2389021000003595,,,14,18,Vrouw,Rechts,1,
,dotcolour,dotcolour,xotask,41,2,161,461,main,negativefb,-99,average,53,0.7675995999998122,['c'],1,left,['9'],5,0.3119802000001073,,,14,18,Vrouw,Rechts,1,
,dotcolour,dotcolour,xotask,42,2,162,462,main,negativefb,-99,hard,37,0.6173432999999022,['c'],0,right,['9'],5,0.27573249999977634,,,14,18,Vrouw,Rechts,1,
,dotcolour,dotcolour,xotask,43,2,163,463,main,negativefb,-99,hard,35,0.6186715999997432,['c'],0,right,['2'],2,1.5373027000000548,,,14,18,Vrouw,Rechts,1,
,dotcolour,dotcolour,xotask,44,2,164,464,main,negativefb,-99,easy,64,0.9516834000000927,['c'],1,left,['0'],6,0.17393479999964256,,,14,18,Vrouw,Rechts,1,
,dotcolour,dotcolour,xotask,45,2,165,465,main,negativefb,-99,easy,15,0.48406210000030114,['n'],1,right,['0'],6,0.14107520000015938,,,14,18,Vrouw,Rechts,1,
,dotcolour,dotcolour,xotask,46,2,166,466,main,negativefb,-99,easy,19,0.4664473000002545,['n'],1,right,['0'],6,0.12518059999956677,,,14,18,Vrouw,Rechts,1,
,dotcolour,dotcolour,xotask,47,2,167,467,main,negativefb,-99,hard,42,1.3173533999997744,['n'],0,left,['8'],4,0.1254321000001255,,,14,18,Vrouw,Rechts,1,
,dotcolour,dotcolour,xotask,48,2,168,468,main,negativefb,-99,average,28,0.6005871000002116,['n'],1,right,['8'],4,0.09694970000009562,,,14,18,Vrouw,Rechts,1,
,dotcolour,dotcolour,xotask,49,2,169,469,main,negativefb,-99,hard,43,0.7174879999997756,['n'],0,left,['9'],5,1.0650986999999077,,,14,18,Vrouw,Rechts,1,
,dotcolour,dotcolour,xotask,50,2,170,470,main,negativefb,-99,hard,36,0.6006178000002365,['c'],0,right,['3'],3,0.16764469999998255,,,14,18,Vrouw,Rechts,1,
,dotcolour,dotcolour,xotask,51,2,171,471,main,negativefb,-99,easy,17,0.5512638999998671,['c'],0,right,['1'],1,1.6032986000000164,,,14,18,Vrouw,Rechts,1,
,dotcolour,dotcolour,xotask,52,2,172,472,main,negativefb,-99,easy,63,0.7174856000001455,['c'],1,left,['0'],6,0.23976579999998648,,,14,18,Vrouw,Rechts,1,
,dotcolour,dotcolour,xotask,53,2,173,473,main,negativefb,-99,average,26,1.3663486999998895,['n'],1,right,['0'],6,0.1523548000000119,,,14,18,Vrouw,Rechts,1,
,dotcolour,dotcolour,xotask,54,2,174,474,main,negativefb,-99,hard,41,1.3181919999997262,['c'],1,left,['3'],3,0.262432600000011,,,14,18,Vrouw,Rechts,1,
,dotcolour,dotcolour,xotask,55,2,175,475,main,negativefb,-99,easy,17,0.5349483999998483,['n'],1,right,['0'],6,0.11981779999996434,,,14,18,Vrouw,Rechts,1,
,dotcolour,dotcolour,xotask,56,2,176,476,main,negativefb,-99,average,54,0.6847687999998016,['c'],1,left,['3'],3,1.1765339999997195,,,14,18,Vrouw,Rechts,1,
,dotcolour,dotcolour,xotask,57,2,177,477,main,negativefb,-99,average,29,1.5009224999998878,['n'],1,right,['0'],6,0.14255900000034671,,,14,18,Vrouw,Rechts,1,
,dotcolour,dotcolour,xotask,58,2,178,478,main,negativefb,-99,hard,44,0.651167600000008,['c'],1,left,['0'],6,0.14346690000002127,,,14,18,Vrouw,Rechts,1,
,dotcolour,dotcolour,xotask,59,2,179,479,main,negativefb,-99,hard,37,1.268048799999633,['n'],1,right,['9'],5,0.1524703000000045,,,14,18,Vrouw,Rechts,1,
,dotcolour,dotcolour,xotask,0,3,180,480,main,negativefb,-99,hard,42,0.7678389999996398,['c'],1,left,['0'],6,0.12784629999987374,,,14,18,Vrouw,Rechts,1,
,dotcolour,dotcolour,xotask,1,3,181,481,main,negativefb,-99,average,52,1.0354551000000356,['c'],1,left,['0'],6,0.2188669000001937,,,14,18,Vrouw,Rechts,1,
,dotcolour,dotcolour,xotask,2,3,182,482,main,negativefb,-99,hard,42,0.43449809999992794,['c'],1,left,['9'],5,0.2175416000000041,,,14,18,Vrouw,Rechts,1,
,dotcolour,dotcolour,xotask,3,3,183,483,main,negativefb,-99,average,54,0.5679490999996233,['c'],1,left,['9'],5,0.19418820000009873,,,14,18,Vrouw,Rechts,1,
,dotcolour,dotcolour,xotask,4,3,184,484,main,negativefb,-99,hard,39,0.8513978999999381,['c'],0,right,['9'],5,0.18577419999974154,,,14,18,Vrouw,Rechts,1,
,dotcolour,dotcolour,xotask,5,3,185,485,main,negativefb,-99,average,53,0.5674824999996417,['c'],1,left,['0'],6,0.19649600000002465,,,14,18,Vrouw,Rechts,1,
,dotcolour,dotcolour,xotask,6,3,186,486,main,negativefb,-99,easy,63,0.3847400999998172,['c'],1,left,['0'],6,0.8393088999996507,,,14,18,Vrouw,Rechts,1,
,dotcolour,dotcolour,xotask,7,3,187,487,main,negativefb,-99,easy,64,0.48438930000020264,['c'],1,left,['0'],6,0.18638559999999416,,,14,18,Vrouw,Rechts,1,
,dotcolour,dotcolour,xotask,8,3,188,488,main,negativefb,-99,easy,16,0.7846355000001495,['n'],1,right,['0'],6,0.14056209999989733,,,14,18,Vrouw,Rechts,1,
,dotcolour,dotcolour,xotask,9,3,189,489,main,negativefb,-99,easy,63,0.7683379000000059,['c'],1,left,['9'],5,0.12145260000033886,,,14,18,Vrouw,Rechts,1,
,dotcolour,dotcolour,xotask,10,3,190,490,main,negativefb,-99,hard,39,0.9002465000003212,['c'],0,right,['9'],5,0.10532439999997223,,,14,18,Vrouw,Rechts,1,
,dotcolour,dotcolour,xotask,11,3,191,491,main,negativefb,-99,easy,64,0.5676278000000821,['c'],1,left,['9'],5,0.1755700000003344,,,14,18,Vrouw,Rechts,1,
,dotcolour,dotcolour,xotask,12,3,192,492,main,negativefb,-99,average,27,1.0333081999997376,['n'],1,right,['0'],6,0.4800271000003704,,,14,18,Vrouw,Rechts,1,
,dotcolour,dotcolour,xotask,13,3,193,493,main,negativefb,-99,average,29,0.8347994000000654,['n'],1,right,['9'],5,0.18035950000012235,,,14,18,Vrouw,Rechts,1,
,dotcolour,dotcolour,xotask,14,3,194,494,main,negativefb,-99,easy,17,0.6003952999999456,['n'],1,right,['9'],5,0.1823208999999224,,,14,18,Vrouw,Rechts,1,
,dotcolour,dotcolour,xotask,15,3,195,495,main,negativefb,-99,hard,45,0.8012126999997236,['c'],1,left,['9'],5,0.16844529999980296,,,14,18,Vrouw,Rechts,1,
,dotcolour,dotcolour,xotask,16,3,196,496,main,negativefb,-99,average,28,0.7679545000000871,['n'],1,right,['0'],6,0.13146410000035758,,,14,18,Vrouw,Rechts,1,
,dotcolour,dotcolour,xotask,17,3,197,497,main,negativefb,-99,average,51,0.5836478999999599,['c'],1,left,['8'],4,0.11138579999987996,,,14,18,Vrouw,Rechts,1,
,dotcolour,dotcolour,xotask,18,3,198,498,main,negativefb,-99,average,53,0.5502405000002,['c'],1,left,['0'],6,0.14211889999978666,,,14,18,Vrouw,Rechts,1,
,dotcolour,dotcolour,xotask,19,3,199,499,main,negativefb,-99,hard,45,0.5835962999999538,['c'],1,left,['9'],5,0.17809889999989537,,,14,18,Vrouw,Rechts,1,
,dotcolour,dotcolour,xotask,20,3,200,500,main,negativefb,-99,easy,18,0.6846795999999813,['c'],0,right,['0'],6,0.13699769999993805,,,14,18,Vrouw,Rechts,1,
,dotcolour,dotcolour,xotask,21,3,201,501,main,negativefb,-99,average,51,0.5509643000000324,['c'],1,left,['0'],6,0.19823189999988244,,,14,18,Vrouw,Rechts,1,
,dotcolour,dotcolour,xotask,22,3,202,502,main,negativefb,-99,average,51,0.5176415000000816,['c'],1,left,['0'],6,0.21023740000009639,,,14,18,Vrouw,Rechts,1,
,dotcolour,dotcolour,xotask,23,3,203,503,main,negativefb,-99,hard,42,0.43380149999984496,['c'],1,left,['0'],6,0.1936625000003005,,,14,18,Vrouw,Rechts,1,
,dotcolour,dotcolour,xotask,24,3,204,504,main,negativefb,-99,average,54,0.7507368999999926,['c'],1,left,['0'],6,0.15687329999991562,,,14,18,Vrouw,Rechts,1,
,dotcolour,dotcolour,xotask,25,3,205,505,main,negativefb,-99,easy,61,0.3840029000002687,['c'],1,left,['0'],6,0.1850243000003502,,,14,18,Vrouw,Rechts,1,
,dotcolour,dotcolour,xotask,26,3,206,506,main,negativefb,-99,average,29,1.6838198999998895,['n'],1,right,['0'],6,1.125905099999727,,,14,18,Vrouw,Rechts,1,
,dotcolour,dotcolour,xotask,27,3,207,507,main,negativefb,-99,hard,37,0.8174051999999392,['n'],1,right,['8'],4,0.14609199999995326,,,14,18,Vrouw,Rechts,1,
,dotcolour,dotcolour,xotask,28,3,208,508,main,negativefb,-99,average,27,0.6005041000003075,['n'],1,right,['9'],5,0.20446559999982128,,,14,18,Vrouw,Rechts,1,
,dotcolour,dotcolour,xotask,29,3,209,509,main,negativefb,-99,hard,38,2.0003007000000252,['c'],0,right,['8'],4,0.22930640000004132,,,14,18,Vrouw,Rechts,1,
,dotcolour,dotcolour,xotask,30,3,210,510,main,negativefb,-99,average,54,0.6006993000000875,['c'],1,left,['9'],5,0.24551719999999477,,,14,18,Vrouw,Rechts,1,
,dotcolour,dotcolour,xotask,31,3,211,511,main,negativefb,-99,easy,65,0.4681521999996221,['c'],1,left,['9'],5,0.1543470999999954,,,14,18,Vrouw,Rechts,1,
,dotcolour,dotcolour,xotask,32,3,212,512,main,negativefb,-99,hard,43,0.4847165999999561,['c'],1,left,['9'],5,0.22578139999995983,,,14,18,Vrouw,Rechts,1,
,dotcolour,dotcolour,xotask,33,3,213,513,main,negativefb,-99,hard,37,1.1677564999999959,['c'],0,right,['3'],3,2.0198310999999194,,,14,18,Vrouw,Rechts,1,
,dotcolour,dotcolour,xotask,34,3,214,514,main,negativefb,-99,easy,18,1.918383900000208,['n'],1,right,['0'],6,0.35006849999990663,,,14,18,Vrouw,Rechts,1,
,dotcolour,dotcolour,xotask,35,3,215,515,main,negativefb,-99,hard,38,0.6837340000001859,['n'],1,right,['0'],6,0.1413166000002093,,,14,18,Vrouw,Rechts,1,
,dotcolour,dotcolour,xotask,36,3,216,516,main,negativefb,-99,hard,45,0.5182633999997961,['n'],0,left,['0'],6,0.17996129999983168,,,14,18,Vrouw,Rechts,1,
,dotcolour,dotcolour,xotask,37,3,217,517,main,negativefb,-99,hard,35,0.6669263999997384,['n'],1,right,['9'],5,0.18813929999987522,,,14,18,Vrouw,Rechts,1,
,dotcolour,dotcolour,xotask,38,3,218,518,main,negativefb,-99,hard,39,1.651029799999833,['c'],0,right,['8'],4,0.16288180000037755,,,14,18,Vrouw,Rechts,1,
,dotcolour,dotcolour,xotask,39,3,219,519,main,negativefb,-99,easy,62,0.7831251000002339,['c'],1,left,['0'],6,0.14203760000009424,,,14,18,Vrouw,Rechts,1,
,dotcolour,dotcolour,xotask,40,3,220,520,main,negativefb,-99,hard,38,2.6338236000001416,['c'],0,right,['9'],5,0.11239009999962946,,,14,18,Vrouw,Rechts,1,
,dotcolour,dotcolour,xotask,41,3,221,521,main,negativefb,-99,easy,18,0.48418249999986074,['n'],1,right,['0'],6,0.14606099999991784,,,14,18,Vrouw,Rechts,1,
,dotcolour,dotcolour,xotask,42,3,222,522,main,negativefb,-99,average,27,0.5840026999999282,['n'],1,right,['0'],6,0.18182759999990594,,,14,18,Vrouw,Rechts,1,
,dotcolour,dotcolour,xotask,43,3,223,523,main,negativefb,-99,easy,64,0.9999497999997402,['c'],1,left,['0'],6,0.1993171999997685,,,14,18,Vrouw,Rechts,1,
,dotcolour,dotcolour,xotask,44,3,224,524,main,negativefb,-99,easy,63,0.6010788999997203,['c'],1,left,['0'],6,0.11226489999990008,,,14,18,Vrouw,Rechts,1,
,dotcolour,dotcolour,xotask,45,3,225,525,main,negativefb,-99,easy,19,0.6169396999998753,['n'],1,right,['0'],6,0.11618779999980688,,,14,18,Vrouw,Rechts,1,
,dotcolour,dotcolour,xotask,46,3,226,526,main,negativefb,-99,hard,41,0.7685175000001436,['c'],1,left,['0'],6,0.13735230000020238,,,14,18,Vrouw,Rechts,1,
,dotcolour,dotcolour,xotask,47,3,227,527,main,negativefb,-99,easy,15,0.5510213000002295,['n'],1,right,['0'],6,0.1110899000000245,,,14,18,Vrouw,Rechts,1,
,dotcolour,dotcolour,xotask,48,3,228,528,main,negativefb,-99,average,29,0.6511120999998639,['n'],1,right,['9'],5,0.12923829999999725,,,14,18,Vrouw,Rechts,1,
,dotcolour,dotcolour,xotask,49,3,229,529,main,negativefb,-99,hard,45,0.7838281999997889,['c'],1,left,['0'],6,0.09408039999971152,,,14,18,Vrouw,Rechts,1,
,dotcolour,dotcolour,xotask,50,3,230,530,main,negativefb,-99,average,28,4.050874600000043,['n'],1,right,['0'],6,0.14568740000004254,,,14,18,Vrouw,Rechts,1,
,dotcolour,dotcolour,xotask,51,3,231,531,main,negativefb,-99,easy,18,0.41806850000011764,['n'],1,right,['0'],6,0.4274811000000227,,,14,18,Vrouw,Rechts,1,
,dotcolour,dotcolour,xotask,52,3,232,532,main,negativefb,-99,easy,18,0.5169398999996702,['n'],1,right,['9'],5,0.15955729999996038,,,14,18,Vrouw,Rechts,1,
,dotcolour,dotcolour,xotask,53,3,233,533,main,negativefb,-99,average,26,0.5688966000002438,['n'],1,right,['9'],5,0.10795390000021143,,,14,18,Vrouw,Rechts,1,
,dotcolour,dotcolour,xotask,54,3,234,534,main,negativefb,-99,hard,36,1.2004047000000355,['c'],0,right,['3'],3,0.20058220000009896,,,14,18,Vrouw,Rechts,1,
,dotcolour,dotcolour,xotask,55,3,235,535,main,negativefb,-99,average,29,1.1836307000003217,['c'],0,right,['3'],3,1.1220816000000013,,,14,18,Vrouw,Rechts,1,
,dotcolour,dotcolour,xotask,56,3,236,536,main,negativefb,-99,average,55,1.0008822999998301,['c'],1,left,['9'],5,0.1821021999999175,,,14,18,Vrouw,Rechts,1,
,dotcolour,dotcolour,xotask,57,3,237,537,main,negativefb,-99,easy,63,0.4502929000000222,['c'],1,left,['9'],5,0.13237049999997907,,,14,18,Vrouw,Rechts,1,
,dotcolour,dotcolour,xotask,58,3,238,538,main,negativefb,-99,hard,41,1.9515357000000222,['c'],1,left,['8'],4,0.12251030000015817,,,14,18,Vrouw,Rechts,1,
,dotcolour,dotcolour,xotask,59,3,239,539,main,negativefb,-99,easy,16,1.0175765999997566,['c'],0,right,['1'],1,0.9577060000001438,,,14,18,Vrouw,Rechts,1,
,dotcolour,dotcolour,xotask,0,4,240,540,main,negativefb,-99,average,26,0.8174481999999443,['n'],1,right,['0'],6,0.11649269999998069,,,14,18,Vrouw,Rechts,1,
,dotcolour,dotcolour,xotask,1,4,241,541,main,negativefb,-99,easy,61,1.1837184999999408,['c'],1,left,['0'],6,0.10458849999986342,,,14,18,Vrouw,Rechts,1,
,dotcolour,dotcolour,xotask,2,4,242,542,main,negativefb,-99,average,51,0.4004494999999224,['c'],1,left,['0'],6,0.11781259999997928,,,14,18,Vrouw,Rechts,1,
,dotcolour,dotcolour,xotask,3,4,243,543,main,negativefb,-99,hard,39,0.3500835999998344,['c'],0,right,['0'],6,0.29931230000011055,,,14,18,Vrouw,Rechts,1,
,dotcolour,dotcolour,xotask,4,4,244,544,main,negativefb,-99,easy,18,0.7003435000001446,['n'],1,right,['0'],6,0.10818280000012237,,,14,18,Vrouw,Rechts,1,
,dotcolour,dotcolour,xotask,5,4,245,545,main,negativefb,-99,hard,37,0.45024259999991045,['n'],1,right,['9'],5,0.13561339999978372,,,14,18,Vrouw,Rechts,1,
,dotcolour,dotcolour,xotask,6,4,246,546,main,negativefb,-99,average,27,0.6674808000002486,['n'],1,right,['8'],4,0.07940589999998338,,,14,18,Vrouw,Rechts,1,
,dotcolour,dotcolour,xotask,7,4,247,547,main,negativefb,-99,easy,61,0.6491313000001355,['c'],1,left,['0'],6,0.13136919999988095,,,14,18,Vrouw,Rechts,1,
,dotcolour,dotcolour,xotask,8,4,248,548,main,negativefb,-99,easy,19,0.6834177000000636,['n'],1,right,['9'],5,0.12323980000019219,,,14,18,Vrouw,Rechts,1,
,dotcolour,dotcolour,xotask,9,4,249,549,main,negativefb,-99,easy,63,0.7005736000000979,['c'],1,left,['9'],5,0.1317404000001261,,,14,18,Vrouw,Rechts,1,
,dotcolour,dotcolour,xotask,10,4,250,550,main,negativefb,-99,hard,43,0.6334524999997484,['c'],1,left,['9'],5,0.2780273999997007,,,14,18,Vrouw,Rechts,1,
,dotcolour,dotcolour,xotask,11,4,251,551,main,negativefb,-99,hard,39,1.2843558999998095,['n'],1,right,['9'],5,0.09586780000017825,,,14,18,Vrouw,Rechts,1,
,dotcolour,dotcolour,xotask,12,4,252,552,main,negativefb,-99,easy,16,0.6166327999999339,['n'],1,right,['9'],5,0.08462200000030862,,,14,18,Vrouw,Rechts,1,
,dotcolour,dotcolour,xotask,13,4,253,553,main,negativefb,-99,average,26,0.5842655999999806,['n'],1,right,['0'],6,0.10677589999977499,,,14,18,Vrouw,Rechts,1,
,dotcolour,dotcolour,xotask,14,4,254,554,main,negativefb,-99,average,25,0.4332534999998643,['n'],1,right,['9'],5,0.04661160000023301,,,14,18,Vrouw,Rechts,1,
,dotcolour,dotcolour,xotask,15,4,255,555,main,negativefb,-99,hard,37,1.6996822999999495,['c'],0,right,['8'],4,0.3219390999997813,,,14,18,Vrouw,Rechts,1,
,dotcolour,dotcolour,xotask,16,4,256,556,main,negativefb,-99,hard,36,0.4506820000001426,['c'],0,right,['9'],5,0.19530310000027384,,,14,18,Vrouw,Rechts,1,
,dotcolour,dotcolour,xotask,17,4,257,557,main,negativefb,-99,easy,19,1.0180307999999059,['n'],1,right,['9'],5,0.22903629999973418,,,14,18,Vrouw,Rechts,1,
,dotcolour,dotcolour,xotask,18,4,258,558,main,negativefb,-99,easy,63,0.7682761999999457,['c'],1,left,['0'],6,0.7100762999998551,,,14,18,Vrouw,Rechts,1,
,dotcolour,dotcolour,xotask,19,4,259,559,main,negativefb,-99,easy,19,1.0844879999999648,['n'],1,right,['9'],5,0.18306829999983165,,,14,18,Vrouw,Rechts,1,
,dotcolour,dotcolour,xotask,20,4,260,560,main,negativefb,-99,average,54,0.8669458999997914,['c'],1,left,['0'],6,0.23821640000005573,,,14,18,Vrouw,Rechts,1,
,dotcolour,dotcolour,xotask,21,4,261,561,main,negativefb,-99,average,51,0.7511500000000524,['c'],1,left,['0'],6,0.12691730000005919,,,14,18,Vrouw,Rechts,1,
,dotcolour,dotcolour,xotask,22,4,262,562,main,negativefb,-99,easy,61,0.584277800000109,['c'],1,left,['0'],6,0.08368979999977455,,,14,18,Vrouw,Rechts,1,
,dotcolour,dotcolour,xotask,23,4,263,563,main,negativefb,-99,hard,38,1.017088000000058,['c'],0,right,['9'],5,0.18482219999987137,,,14,18,Vrouw,Rechts,1,
,dotcolour,dotcolour,xotask,24,4,264,564,main,negativefb,-99,hard,43,0.4849349000000984,['c'],1,left,['0'],6,0.12606360000017958,,,14,18,Vrouw,Rechts,1,
,dotcolour,dotcolour,xotask,25,4,265,565,main,negativefb,-99,average,55,0.3828870000002098,['c'],1,left,['0'],6,0.12298069999997097,,,14,18,Vrouw,Rechts,1,
,dotcolour,dotcolour,xotask,26,4,266,566,main,negativefb,-99,easy,16,2.2668696999999156,['n'],1,right,['9'],5,0.10874510000030568,,,14,18,Vrouw,Rechts,1,
,dotcolour,dotcolour,xotask,27,4,267,567,main,negativefb,-99,average,25,0.8515804999997272,['n'],1,right,['9'],5,0.1031620999997358,,,14,18,Vrouw,Rechts,1,
,dotcolour,dotcolour,xotask,28,4,268,568,main,negativefb,-99,average,25,0.5847605000003568,['c'],0,right,['0'],6,0.18072510000001785,,,14,18,Vrouw,Rechts,1,
,dotcolour,dotcolour,xotask,29,4,269,569,main,negativefb,-99,easy,62,1.4338576000000103,['n'],0,left,['0'],6,0.15717159999985597,,,14,18,Vrouw,Rechts,1,
,dotcolour,dotcolour,xotask,30,4,270,570,main,negativefb,-99,easy,15,1.0673624000000927,['n'],1,right,['9'],5,0.2932604000002357,,,14,18,Vrouw,Rechts,1,
,dotcolour,dotcolour,xotask,31,4,271,571,main,negativefb,-99,hard,41,2.334759800000029,['c'],1,left,['3'],3,0.6375137999998515,,,14,18,Vrouw,Rechts,1,
,dotcolour,dotcolour,xotask,32,4,272,572,main,negativefb,-99,average,53,1.050981800000045,['c'],1,left,['3'],3,0.20343559999992067,,,14,18,Vrouw,Rechts,1,
,dotcolour,dotcolour,xotask,33,4,273,573,main,negativefb,-99,hard,41,0.6338728000000629,['c'],1,left,['3'],3,0.05771920000006503,,,14,18,Vrouw,Rechts,1,
,dotcolour,dotcolour,xotask,34,4,274,574,main,negativefb,-99,hard,35,0.8012355000000753,['n'],1,right,['3'],3,0.24035360000016226,,,14,18,Vrouw,Rechts,1,
,dotcolour,dotcolour,xotask,35,4,275,575,main,negativefb,-99,easy,19,1.1343368000002556,['n'],1,right,['0'],6,0.11508999999978187,,,14,18,Vrouw,Rechts,1,
,dotcolour,dotcolour,xotask,36,4,276,576,main,negativefb,-99,hard,41,0.6179188999999496,['n'],0,left,['0'],6,0.38256159999991723,,,14,18,Vrouw,Rechts,1,
,dotcolour,dotcolour,xotask,37,4,277,577,main,negativefb,-99,easy,64,0.8335849999998572,['c'],1,left,['0'],6,0.15058170000020255,,,14,18,Vrouw,Rechts,1,
,dotcolour,dotcolour,xotask,38,4,278,578,main,negativefb,-99,average,54,0.4671814000002996,['c'],1,left,['9'],5,0.15824520000023767,,,14,18,Vrouw,Rechts,1,
,dotcolour,dotcolour,xotask,39,4,279,579,main,negativefb,-99,hard,41,1.6679128999999193,['c'],1,left,['1'],1,0.550160500000402,,,14,18,Vrouw,Rechts,1,
,dotcolour,dotcolour,xotask,40,4,280,580,main,negativefb,-99,average,27,1.4172681000000011,['c'],0,right,['9'],5,1.0564481000001251,,,14,18,Vrouw,Rechts,1,
,dotcolour,dotcolour,xotask,41,4,281,581,main,negativefb,-99,hard,35,0.8176277000002301,['n'],1,right,['9'],5,0.09418449999975564,,,14,18,Vrouw,Rechts,1,
,dotcolour,dotcolour,xotask,42,4,282,582,main,negativefb,-99,hard,45,0.683708900000056,['n'],0,left,['9'],5,0.20105199999989054,,,14,18,Vrouw,Rechts,1,
,dotcolour,dotcolour,xotask,43,4,283,583,main,negativefb,-99,average,28,1.2177127999998447,['n'],1,right,['0'],6,0.1526597000001857,,,14,18,Vrouw,Rechts,1,
,dotcolour,dotcolour,xotask,44,4,284,584,main,negativefb,-99,easy,64,1.3683019000000058,['n'],0,left,['0'],6,0.15628800000013143,,,14,18,Vrouw,Rechts,1,
,dotcolour,dotcolour,xotask,45,4,285,585,main,negativefb,-99,easy,61,0.40135670000017853,['n'],0,left,['3'],3,1.1911315999996077,,,14,18,Vrouw,Rechts,1,
,dotcolour,dotcolour,xotask,46,4,286,586,main,negativefb,-99,average,28,1.067146700000194,['n'],1,right,['9'],5,0.13417140000001382,,,14,18,Vrouw,Rechts,1,
,dotcolour,dotcolour,xotask,47,4,287,587,main,negativefb,-99,hard,38,0.8015378000000055,['n'],1,right,['9'],5,0.5613768999996864,,,14,18,Vrouw,Rechts,1,
,dotcolour,dotcolour,xotask,48,4,288,588,main,negativefb,-99,easy,15,0.7505655999998453,['n'],1,right,['9'],5,0.25379060000022946,,,14,18,Vrouw,Rechts,1,
,dotcolour,dotcolour,xotask,49,4,289,589,main,negativefb,-99,average,52,0.6681285999998181,['c'],1,left,['9'],5,0.27391690000013114,,,14,18,Vrouw,Rechts,1,
,dotcolour,dotcolour,xotask,50,4,290,590,main,negativefb,-99,average,28,0.5684092999999848,['c'],0,right,['9'],5,0.16965049999998882,,,14,18,Vrouw,Rechts,1,
,dotcolour,dotcolour,xotask,51,4,291,591,main,negativefb,-99,hard,43,0.5510132000003978,['c'],1,left,['0'],6,0.17289230000005773,,,14,18,Vrouw,Rechts,1,
,dotcolour,dotcolour,xotask,52,4,292,592,main,negativefb,-99,hard,44,0.8515926000000036,['c'],1,left,['9'],5,0.27748369999972056,,,14,18,Vrouw,Rechts,1,
,dotcolour,dotcolour,xotask,53,4,293,593,main,negativefb,-99,hard,35,1.733331900000394,['n'],1,right,['9'],5,1.4458569999997053,,,14,18,Vrouw,Rechts,1,
,dotcolour,dotcolour,xotask,54,4,294,594,main,negativefb,-99,average,54,0.8349119999998038,['c'],1,left,['9'],5,0.12335060000032172,,,14,18,Vrouw,Rechts,1,
,dotcolour,dotcolour,xotask,55,4,295,595,main,negativefb,-99,hard,44,0.8502667999996447,['n'],0,left,['9'],5,0.14924870000004375,,,14,18,Vrouw,Rechts,1,
,dotcolour,dotcolour,xotask,56,4,296,596,main,negativefb,-99,average,54,0.917413900000156,['c'],1,left,['9'],5,0.11609279999993305,,,14,18,Vrouw,Rechts,1,
,dotcolour,dotcolour,xotask,57,4,297,597,main,negativefb,-99,easy,62,0.48491250000006403,['c'],1,left,['9'],5,0.09286040000006324,,,14,18,Vrouw,Rechts,1,
,dotcolour,dotcolour,xotask,58,4,298,598,main,negativefb,-99,average,53,0.48406660000000556,['c'],1,left,['9'],5,0.06317080000007991,,,14,18,Vrouw,Rechts,1,
,dotcolour,dotcolour,xotask,59,4,299,599,main,negativefb,-99,easy,18,0.7684562999997979,['n'],1,right,['0'],6,0.7747091000001092,,,14,18,Vrouw,Rechts,1,
,dotcolour,dotcolour,xotask,0,0,0,600,training,negativefb,74,easy,64,1.500465599999643,['n'],0,left,['0'],6,0.14872390000027735,,,14,18,Vrouw,Rechts,1,
,dotcolour,dotcolour,xotask,1,0,1,601,training,negativefb,81,hard,38,0.6337189000000762,['n'],1,right,['9'],5,0.11736079999991489,,,14,18,Vrouw,Rechts,1,
,dotcolour,dotcolour,xotask,2,0,2,602,training,negativefb,88,easy,64,0.7336546000001363,['c'],1,left,['9'],5,0.3714423000001261,,,14,18,Vrouw,Rechts,1,
,dotcolour,dotcolour,xotask,3,0,3,603,training,negativefb,43,easy,15,0.6333508000002439,['n'],1,right,['9'],5,0.14649920000010752,,,14,18,Vrouw,Rechts,1,
,dotcolour,dotcolour,xotask,4,0,4,604,training,negativefb,43,easy,61,1.4171125000002576,['c'],1,left,['0'],6,0.16561589999992066,,,14,18,Vrouw,Rechts,1,
,dotcolour,dotcolour,xotask,5,0,5,605,training,negativefb,71,hard,36,0.8831910000003518,['n'],1,right,['8'],4,0.23488569999972242,,,14,18,Vrouw,Rechts,1,
,dotcolour,dotcolour,xotask,6,0,6,606,training,negativefb,73,hard,36,0.6841044000002512,['n'],1,right,['9'],5,0.11835249999967346,,,14,18,Vrouw,Rechts,1,
,dotcolour,dotcolour,xotask,7,0,7,607,training,negativefb,59,average,54,0.8170869000000494,['n'],0,left,['0'],6,0.20157790000030218,,,14,18,Vrouw,Rechts,1,
,dotcolour,dotcolour,xotask,8,0,8,608,training,negativefb,88,average,28,0.9851736000000528,['n'],1,right,['9'],5,0.15427750000026208,,,14,18,Vrouw,Rechts,1,
,dotcolour,dotcolour,xotask,9,0,9,609,training,negativefb,77,average,29,0.7164323000001787,['n'],1,right,['9'],5,0.1598073000000113,,,14,18,Vrouw,Rechts,1,
,dotcolour,dotcolour,xotask,10,0,10,610,training,negativefb,76,average,29,0.6506988999999521,['n'],1,right,['9'],5,0.1272015999998075,,,14,18,Vrouw,Rechts,1,
,dotcolour,dotcolour,xotask,11,0,11,611,training,negativefb,45,easy,19,0.70003910000014,['n'],1,right,['9'],5,0.1028889999997773,,,14,18,Vrouw,Rechts,1,
,dotcolour,dotcolour,xotask,12,0,12,612,training,negativefb,72,average,51,0.6662326000000576,['c'],1,left,['9'],5,0.11238920000005237,,,14,18,Vrouw,Rechts,1,
,dotcolour,dotcolour,xotask,13,0,13,613,training,negativefb,68,easy,64,0.4836891999998443,['c'],1,left,['9'],5,0.10379890000012892,,,14,18,Vrouw,Rechts,1,
,dotcolour,dotcolour,xotask,14,0,14,614,training,negativefb,71,hard,38,0.8835482999998021,['n'],1,right,['9'],5,0.11375940000016271,,,14,18,Vrouw,Rechts,1,
,dotcolour,dotcolour,xotask,15,0,15,615,training,negativefb,55,average,28,2.3830275999998776,['c'],0,right,['9'],5,0.15838269999994736,,,14,18,Vrouw,Rechts,1,
,dotcolour,dotcolour,xotask,16,0,16,616,training,negativefb,78,average,29,0.8166304999999738,['n'],1,right,['9'],5,0.08733249999977488,,,14,18,Vrouw,Rechts,1,
,dotcolour,dotcolour,xotask,17,0,17,617,training,negativefb,30,hard,39,1.3673470000003363,['n'],1,right,['8'],4,0.14124660000015865,,,14,18,Vrouw,Rechts,1,
,dotcolour,dotcolour,xotask,18,0,18,618,training,negativefb,61,easy,16,0.7838532000000669,['n'],1,right,['0'],6,0.12037819999977728,,,14,18,Vrouw,Rechts,1,
,dotcolour,dotcolour,xotask,19,0,19,619,training,negativefb,41,easy,64,0.4329107000003205,['n'],0,left,['3'],3,1.5629500000000007,,,14,18,Vrouw,Rechts,1,
,dotcolour,dotcolour,xotask,20,0,20,620,training,negativefb,42,average,53,0.6502411999999822,['n'],0,left,['9'],5,0.13760859999956665,,,14,18,Vrouw,Rechts,1,
,dotcolour,dotcolour,xotask,21,0,21,621,training,negativefb,8,average,55,0.4330012999998871,['n'],0,left,['0'],6,0.2992983999997705,,,14,18,Vrouw,Rechts,1,
,dotcolour,dotcolour,xotask,22,0,22,622,training,negativefb,35,hard,43,0.6504276000000573,['n'],0,left,['9'],5,0.18972479999956704,,,14,18,Vrouw,Rechts,1,
,dotcolour,dotcolour,xotask,23,0,23,623,training,negativefb,73,hard,44,0.549461699999938,['c'],1,left,['8'],4,0.21561819999988074,,,14,18,Vrouw,Rechts,1,
,dotcolour,dotcolour,xotask,24,0,24,624,training,negativefb,69,hard,41,0.6834684999998899,['c'],1,left,['8'],4,0.22044939999977942,,,14,18,Vrouw,Rechts,1,
,dotcolour,dotcolour,xotask,25,0,25,625,training,negativefb,58,hard,41,0.5996368000000984,['c'],1,left,['8'],4,0.3231762999998864,,,14,18,Vrouw,Rechts,1,
,dotcolour,dotcolour,xotask,26,0,26,626,training,negativefb,34,hard,36,0.6321960000000217,['c'],0,right,['9'],5,0.1254823999997825,,,14,18,Vrouw,Rechts,1,
,dotcolour,dotcolour,xotask,27,0,27,627,training,negativefb,45,hard,36,0.8171133000000737,['c'],0,right,['9'],5,0.19179480000002513,,,14,18,Vrouw,Rechts,1,
,dotcolour,dotcolour,xotask,28,0,28,628,training,negativefb,67,hard,42,1.750612799999999,['c'],1,left,['9'],5,0.16262949999963894,,,14,18,Vrouw,Rechts,1,
,dotcolour,dotcolour,xotask,29,0,29,629,training,negativefb,37,average,29,0.5675588999997672,['c'],0,right,['9'],5,0.19784170000002632,,,14,18,Vrouw,Rechts,1,
,dotcolour,dotcolour,xotask,30,0,30,630,training,negativefb,68,average,53,0.6498427999999876,['c'],1,left,['9'],5,0.2119615999999951,,,14,18,Vrouw,Rechts,1,
,dotcolour,dotcolour,xotask,31,0,31,631,training,negativefb,93,easy,15,0.8334168000001227,['n'],1,right,['9'],5,0.39493050000010044,,,14,18,Vrouw,Rechts,1,
,dotcolour,dotcolour,xotask,32,0,32,632,training,negativefb,65,hard,45,0.7003878000000441,['c'],1,left,['9'],5,0.12767239999993762,,,14,18,Vrouw,Rechts,1,
,dotcolour,dotcolour,xotask,33,0,33,633,training,negativefb,61,average,26,0.9330678999999691,['n'],1,right,['9'],5,0.14130189999968934,,,14,18,Vrouw,Rechts,1,
,dotcolour,dotcolour,xotask,34,0,34,634,training,negativefb,44,average,29,0.6323412000001554,['n'],1,right,['9'],5,0.10384179999982734,,,14,18,Vrouw,Rechts,1,
,dotcolour,dotcolour,xotask,35,0,35,635,training,negativefb,92,easy,62,0.8832233999996788,['c'],1,left,['8'],4,0.3517316000002211,,,14,18,Vrouw,Rechts,1,
,dotcolour,dotcolour,xotask,36,0,36,636,training,negativefb,64,average,55,0.7163880000002791,['c'],1,left,['8'],4,0.21309040000005552,,,14,18,Vrouw,Rechts,1,
,dotcolour,dotcolour,xotask,37,0,37,637,training,negativefb,65,easy,15,0.7667857999999796,['n'],1,right,['9'],5,0.1345350999999937,,,14,18,Vrouw,Rechts,1,
,dotcolour,dotcolour,xotask,38,0,38,638,training,negativefb,78,average,25,0.4661722999999256,['n'],1,right,['0'],6,0.12659160000021075,,,14,18,Vrouw,Rechts,1,
,dotcolour,dotcolour,xotask,39,0,39,639,training,negativefb,51,hard,41,0.984193900000264,['c'],1,left,['3'],3,0.1307598000003054,,,14,18,Vrouw,Rechts,1,
,dotcolour,dotcolour,xotask,40,0,40,640,training,negativefb,83,easy,19,0.6837703000001056,['n'],1,right,['0'],6,0.17117730000018128,,,14,18,Vrouw,Rechts,1,
,dotcolour,dotcolour,xotask,41,0,41,641,training,negativefb,87,average,51,0.6155908999999156,['c'],1,left,['9'],5,0.15517429999999877,,,14,18,Vrouw,Rechts,1,
,dotcolour,dotcolour,xotask,42,0,42,642,training,negativefb,69,easy,18,0.7338270999998713,['n'],1,right,['0'],6,0.1355044000001726,,,14,18,Vrouw,Rechts,1,
,dotcolour,dotcolour,xotask,43,0,43,643,training,negativefb,83,easy,62,0.7008134000002428,['c'],1,left,['0'],6,0.19104340000012598,,,14,18,Vrouw,Rechts,1,
,dotcolour,dotcolour,xotask,44,0,44,644,training,negativefb,42,average,53,0.4830703000002359,['c'],1,left,['0'],6,0.15659120000009352,,,14,18,Vrouw,Rechts,1,
,dotcolour,dotcolour,xotask,45,0,45,645,training,negativefb,48,hard,38,0.8673852000001716,['c'],0,right,['8'],4,0.09928089999993972,,,14,18,Vrouw,Rechts,1,
,dotcolour,dotcolour,xotask,46,0,46,646,training,negativefb,58,hard,38,1.183976100000109,['n'],1,right,['0'],6,0.18432020000000193,,,14,18,Vrouw,Rechts,1,
,dotcolour,dotcolour,xotask,47,0,47,647,training,negativefb,89,easy,63,1.5490405000000464,['c'],1,left,['9'],5,0.2907658999997693,,,14,18,Vrouw,Rechts,1,
,dotcolour,dotcolour,xotask,48,0,48,648,training,negativefb,74,easy,19,0.8664686000001893,['n'],1,right,['0'],6,0.12463069999967047,,,14,18,Vrouw,Rechts,1,
