starttime,task,fbtask,firsttask,withinblocktrial,block,withintasktrial,trial,running,feedback,fbscore,difflevel,n_xes,rt,resp,cor,cresp,conf_press,cj,RTconf,reddots,stoptime,sub,age,gender,handedness,session,
1715070677,xotask,xotask,dotcolour,0,0,0,0,training,positivefb,99,easy,73,1.2341332000000875,['c'],1,left,['8'],4,2.7186779000001025,,,25,18,Man,Rechts,1,
,xotask,xotask,dotcolour,1,0,1,1,training,positivefb,77,hard,53,1.8516272000001663,['n'],0,left,['3'],3,1.2783503000000564,,,25,18,Man,Rechts,1,
,xotask,xotask,dotcolour,2,0,2,2,training,positivefb,11,hard,51,0.4000043999999434,['n'],0,left,['0'],6,2.572104599999875,,,25,18,Man,Rechts,1,
,xotask,xotask,dotcolour,3,0,3,3,training,positivefb,98,easy,6,1.3990060999999514,['n'],1,right,['9'],5,0.7967252999999346,,,25,18,Man,Rechts,1,
,xotask,xotask,dotcolour,4,0,4,4,training,positivefb,97,easy,9,0.9672241000000668,['n'],1,right,['9'],5,1.1582978999999796,,,25,18,Man,Rechts,1,
,xotask,xotask,dotcolour,5,0,5,5,training,positivefb,100,easy,71,0.9672986999999011,['c'],1,left,['8'],4,3.7537852000000385,,,25,18,Man,Rechts,1,
,xotask,xotask,dotcolour,6,0,6,6,training,positivefb,100,easy,71,1.049580800000058,['c'],1,left,['8'],4,1.0084976000000552,,,25,18,Man,Rechts,1,
,xotask,xotask,dotcolour,7,0,7,7,training,positivefb,97,easy,7,0.8170388000000912,['n'],1,right,['0'],6,0.41548089999992044,,,25,18,Man,Rechts,1,
,xotask,xotask,dotcolour,8,0,8,8,training,positivefb,98,average,62,0.7329565999998522,['c'],1,left,['9'],5,0.6009297999999035,,,25,18,Man,Rechts,1,
,xotask,xotask,dotcolour,9,0,9,9,training,positivefb,95,average,18,0.7665770999999495,['n'],1,right,['0'],6,0.434259000000111,,,25,18,Man,Rechts,1,
,xotask,xotask,dotcolour,10,0,10,10,training,positivefb,96,average,17,1.0170783999999458,['n'],1,right,['0'],6,0.5121226000001116,,,25,18,Man,Rechts,1,
,xotask,xotask,dotcolour,11,0,11,11,training,positivefb,97,average,18,0.7161944000001768,['n'],1,right,['9'],5,0.8403593999998975,,,25,18,Man,Rechts,1,
,xotask,xotask,dotcolour,12,0,12,12,training,positivefb,99,easy,9,0.7670329000000038,['n'],1,right,['9'],5,0.5925287000000026,,,25,18,Man,Rechts,1,
,xotask,xotask,dotcolour,13,0,13,13,training,positivefb,91,hard,29,0.8002041999998255,['n'],1,right,['9'],5,0.4245379999999841,,,25,18,Man,Rechts,1,
,xotask,xotask,dotcolour,14,0,14,14,training,positivefb,68,hard,27,0.7664841999999226,['n'],1,right,['8'],4,0.8812892999999349,,,25,18,Man,Rechts,1,
,xotask,xotask,dotcolour,15,0,15,15,training,positivefb,98,average,60,0.8497252000001936,['c'],1,left,['9'],5,1.043547100000069,,,25,18,Man,Rechts,1,
,xotask,xotask,dotcolour,16,0,16,16,training,positivefb,91,average,61,0.7671485999999277,['c'],1,left,['9'],5,0.3636882999999216,,,25,18,Man,Rechts,1,
,xotask,xotask,dotcolour,17,0,17,17,training,positivefb,84,hard,50,0.9988369000000148,['n'],0,left,['3'],3,0.8301390999999967,,,25,18,Man,Rechts,1,
,xotask,xotask,dotcolour,18,0,18,18,training,positivefb,100,easy,9,0.7510459999998602,['n'],1,right,['9'],5,1.215323699999999,,,25,18,Man,Rechts,1,
,xotask,xotask,dotcolour,19,0,19,19,training,positivefb,83,hard,28,0.7008527000000413,['n'],1,right,['9'],5,0.5873032999998031,,,25,18,Man,Rechts,1,
,xotask,xotask,dotcolour,20,0,20,20,training,positivefb,99,average,60,0.7841263000000254,['c'],1,left,['0'],6,0.5644729999999072,,,25,18,Man,Rechts,1,
,xotask,xotask,dotcolour,21,0,21,21,training,positivefb,91,hard,26,1.2331470999999965,['c'],0,right,['8'],4,0.9802267000000029,,,25,18,Man,Rechts,1,
,xotask,xotask,dotcolour,22,0,22,22,training,positivefb,99,easy,71,0.8162604000001465,['c'],1,left,['9'],5,0.7096868000000995,,,25,18,Man,Rechts,1,
,xotask,xotask,dotcolour,23,0,23,23,training,positivefb,98,easy,72,1.2339856000000964,['c'],1,left,['9'],5,0.5116263999998409,,,25,18,Man,Rechts,1,
,xotask,xotask,dotcolour,24,0,24,24,training,positivefb,95,hard,29,1.1329662000000553,['n'],1,right,['8'],4,0.6306770999999571,,,25,18,Man,Rechts,1,
,xotask,xotask,dotcolour,25,0,25,25,training,positivefb,84,average,17,1.4342028000000937,['n'],1,right,['9'],5,1.0275834999999915,,,25,18,Man,Rechts,1,
,xotask,xotask,dotcolour,26,0,26,26,training,positivefb,48,easy,6,0.9833649000001969,['n'],1,right,['0'],6,0.3634810999999445,,,25,18,Man,Rechts,1,
,xotask,xotask,dotcolour,27,0,27,27,training,positivefb,95,easy,72,0.8834234999999353,['c'],1,left,['0'],6,0.3627753999999186,,,25,18,Man,Rechts,1,
,xotask,xotask,dotcolour,28,0,28,28,training,positivefb,81,easy,9,0.6009404999999788,['n'],1,right,['8'],4,0.46921160000010786,,,25,18,Man,Rechts,1,
,xotask,xotask,dotcolour,29,0,29,29,training,positivefb,99,easy,71,0.750725999999986,['c'],1,left,['9'],5,1.0995954999998503,,,25,18,Man,Rechts,1,
,xotask,xotask,dotcolour,30,0,30,30,training,positivefb,83,average,61,0.899880899999971,['n'],0,left,['9'],5,0.3399120999999923,,,25,18,Man,Rechts,1,
,xotask,xotask,dotcolour,31,0,31,31,training,positivefb,97,hard,25,0.9005993999999191,['n'],1,right,['9'],5,0.5308233999999175,,,25,18,Man,Rechts,1,
,xotask,xotask,dotcolour,32,0,32,32,training,positivefb,87,average,17,0.5497557000001052,['n'],1,right,['8'],4,0.5277012999999897,,,25,18,Man,Rechts,1,
,xotask,xotask,dotcolour,33,0,33,33,training,positivefb,90,hard,27,0.7658160999999382,['n'],1,right,['0'],6,0.4035020000001168,,,25,18,Man,Rechts,1,
,xotask,xotask,dotcolour,34,0,34,34,training,positivefb,93,easy,71,0.7668174999998882,['c'],1,left,['9'],5,0.41355410000005577,,,25,18,Man,Rechts,1,
,xotask,xotask,dotcolour,35,0,35,35,training,positivefb,80,hard,53,0.6825162000000091,['c'],1,left,['9'],5,0.4655524999998306,,,25,18,Man,Rechts,1,
,xotask,xotask,dotcolour,36,0,36,36,training,positivefb,95,hard,53,0.866698900000074,['c'],1,left,['8'],4,0.5406556999998884,,,25,18,Man,Rechts,1,
,xotask,xotask,dotcolour,37,0,37,37,training,positivefb,93,average,18,0.5847442000001593,['n'],1,right,['9'],5,0.3918654999999944,,,25,18,Man,Rechts,1,
,xotask,xotask,dotcolour,38,0,38,38,training,positivefb,79,hard,51,1.5175037999999859,['c'],1,left,['3'],3,0.7239200000001347,,,25,18,Man,Rechts,1,
,xotask,xotask,dotcolour,39,0,39,39,training,positivefb,99,easy,7,0.6499746000001778,['n'],1,right,['0'],6,0.3575433000000885,,,25,18,Man,Rechts,1,
,xotask,xotask,dotcolour,40,0,40,40,training,positivefb,95,average,63,0.9493918999999096,['c'],1,left,['9'],5,0.6891496000000643,,,25,18,Man,Rechts,1,
,xotask,xotask,dotcolour,41,0,41,41,training,positivefb,99,hard,50,0.46745549999991454,['c'],1,left,['9'],5,0.33127090000016324,,,25,18,Man,Rechts,1,
,xotask,xotask,dotcolour,42,0,42,42,training,positivefb,80,hard,26,0.382974699999977,['c'],0,right,['0'],6,0.7985904999998183,,,25,18,Man,Rechts,1,
,xotask,xotask,dotcolour,43,0,43,43,training,positivefb,57,hard,50,0.48308719999999994,['n'],0,left,['9'],5,0.5398395999998229,,,25,18,Man,Rechts,1,
,xotask,xotask,dotcolour,44,0,44,44,training,positivefb,93,average,17,0.5169367999999395,['n'],1,right,['0'],6,0.40060570000014195,,,25,18,Man,Rechts,1,
,xotask,xotask,dotcolour,45,0,45,45,training,positivefb,97,easy,6,0.532571100000041,['n'],1,right,['0'],6,0.36357060000000274,,,25,18,Man,Rechts,1,
,xotask,xotask,dotcolour,46,0,46,46,training,positivefb,88,hard,29,0.734373400000095,['n'],1,right,['0'],6,0.23196770000004108,,,25,18,Man,Rechts,1,
,xotask,xotask,dotcolour,47,0,47,47,training,positivefb,97,average,18,0.41644780000001447,['n'],1,right,['9'],5,0.3421659999999065,,,25,18,Man,Rechts,1,
,xotask,xotask,dotcolour,48,0,48,48,training,positivefb,87,hard,53,0.4657097000001613,['n'],0,left,['1'],1,1.0310308999999052,,,25,18,Man,Rechts,1,
,xotask,xotask,dotcolour,49,0,49,49,training,positivefb,99,average,63,1.3848233000001073,['c'],1,left,['9'],5,1.0946105000000443,,,25,18,Man,Rechts,1,
,xotask,xotask,dotcolour,50,0,50,50,training,positivefb,89,hard,54,1.5837529000000359,['n'],0,left,['3'],3,1.1077531000000818,,,25,18,Man,Rechts,1,
,xotask,xotask,dotcolour,51,0,51,51,training,positivefb,92,average,63,1.083593399999927,['c'],1,left,['3'],3,0.6603061999999227,,,25,18,Man,Rechts,1,
,xotask,xotask,dotcolour,52,0,52,52,training,positivefb,95,easy,73,1.249766000000136,['c'],1,left,['0'],6,0.3760406999999759,,,25,18,Man,Rechts,1,
,xotask,xotask,dotcolour,53,0,53,53,training,positivefb,95,hard,29,1.0164789000000383,['n'],1,right,['1'],1,0.9291250000001128,,,25,18,Man,Rechts,1,
,xotask,xotask,dotcolour,54,0,54,54,training,positivefb,96,average,16,0.6160159000000931,['n'],1,right,['0'],6,0.35547390000010637,,,25,18,Man,Rechts,1,
,xotask,xotask,dotcolour,55,0,55,55,training,positivefb,93,easy,6,1.0000248000001193,['n'],1,right,['0'],6,0.3414198000000397,,,25,18,Man,Rechts,1,
,xotask,xotask,dotcolour,56,0,56,56,training,positivefb,98,average,18,0.5822602000000643,['n'],1,right,['9'],5,0.4492000000000189,,,25,18,Man,Rechts,1,
,xotask,xotask,dotcolour,57,0,57,57,training,positivefb,97,average,62,0.7843365000001086,['c'],1,left,['9'],5,0.6638098999999329,,,25,18,Man,Rechts,1,
,xotask,xotask,dotcolour,58,0,58,58,training,positivefb,92,easy,71,1.0501983999999993,['c'],1,left,['0'],6,0.2839429000000564,,,25,18,Man,Rechts,1,
,xotask,xotask,dotcolour,59,0,59,59,training,positivefb,99,average,62,1.5009864999999536,['c'],1,left,['8'],4,0.9646109999998771,,,25,18,Man,Rechts,1,
,xotask,xotask,dotcolour,0,1,60,60,training,positivefb,86,hard,27,0.9187153999998827,['n'],1,right,['9'],5,0.39046940000002905,,,25,18,Man,Rechts,1,
,xotask,xotask,dotcolour,1,1,61,61,training,positivefb,93,hard,27,0.7003798999999162,['n'],1,right,['9'],5,0.3715451000000485,,,25,18,Man,Rechts,1,
,xotask,xotask,dotcolour,2,1,62,62,training,positivefb,96,average,64,0.8167626000001746,['c'],1,left,['3'],3,0.32401210000011815,,,25,18,Man,Rechts,1,
,xotask,xotask,dotcolour,3,1,63,63,training,positivefb,98,easy,71,1.3330023000000892,['c'],1,left,['9'],5,0.6738001000001077,,,25,18,Man,Rechts,1,
,xotask,xotask,dotcolour,4,1,64,64,training,positivefb,98,easy,71,0.6328098999999838,['c'],1,left,['9'],5,0.34958609999989676,,,25,18,Man,Rechts,1,
,xotask,xotask,dotcolour,5,1,65,65,training,positivefb,98,easy,72,0.6494067000000996,['c'],1,left,['0'],6,0.38199599999984457,,,25,18,Man,Rechts,1,
,xotask,xotask,dotcolour,6,1,66,66,training,positivefb,90,average,62,0.4168650000001435,['c'],1,left,['0'],6,0.3412974000000304,,,25,18,Man,Rechts,1,
,xotask,xotask,dotcolour,7,1,67,67,training,positivefb,91,average,62,0.39977189999990514,['c'],1,left,['9'],5,0.7691584000001512,,,25,18,Man,Rechts,1,
,xotask,xotask,dotcolour,8,1,68,68,training,positivefb,95,hard,25,0.4164255000000594,['n'],1,right,['9'],5,0.4177333999998609,,,25,18,Man,Rechts,1,
,xotask,xotask,dotcolour,9,1,69,69,training,positivefb,90,average,61,0.8832727999999861,['c'],1,left,['9'],5,0.36497800000006464,,,25,18,Man,Rechts,1,
,xotask,xotask,dotcolour,10,1,70,70,training,positivefb,96,average,16,0.7497909000001073,['n'],1,right,['0'],6,0.5127749000000676,,,25,18,Man,Rechts,1,
,xotask,xotask,dotcolour,11,1,71,71,training,positivefb,86,hard,54,1.6163810000000467,['c'],1,left,['8'],4,0.7083739999998215,,,25,18,Man,Rechts,1,
,xotask,xotask,dotcolour,12,1,72,72,training,positivefb,73,average,64,0.9006583000000319,['c'],1,left,['0'],6,0.26802500000007967,,,25,18,Man,Rechts,1,
,xotask,xotask,dotcolour,13,1,73,73,training,positivefb,96,easy,71,1.0987987999999405,['c'],1,left,['8'],4,0.34163189999981114,,,25,18,Man,Rechts,1,
,xotask,xotask,dotcolour,14,1,74,74,training,positivefb,96,average,15,0.5839630000000398,['n'],1,right,['9'],5,0.49650309999992714,,,25,18,Man,Rechts,1,
,xotask,xotask,dotcolour,15,1,75,75,training,positivefb,87,hard,53,0.8834352999999737,['n'],0,left,['9'],5,0.39326180000011846,,,25,18,Man,Rechts,1,
,xotask,xotask,dotcolour,16,1,76,76,training,positivefb,95,easy,73,0.9508504000000357,['c'],1,left,['9'],5,0.4370189000001119,,,25,18,Man,Rechts,1,
,xotask,xotask,dotcolour,17,1,77,77,training,positivefb,90,easy,5,0.7659325999998146,['n'],1,right,['0'],6,0.2924999999997908,,,25,18,Man,Rechts,1,
,xotask,xotask,dotcolour,18,1,78,78,training,positivefb,94,easy,71,0.8159769999999753,['c'],1,left,['0'],6,0.4719406000001527,,,25,18,Man,Rechts,1,
,xotask,xotask,dotcolour,19,1,79,79,training,positivefb,89,hard,29,1.0002314000000752,['n'],1,right,['8'],4,0.5501948999999513,,,25,18,Man,Rechts,1,
,xotask,xotask,dotcolour,20,1,80,80,training,positivefb,78,average,64,1.3660363000001325,['c'],1,left,['9'],5,0.40857630000004974,,,25,18,Man,Rechts,1,
,xotask,xotask,dotcolour,21,1,81,81,training,positivefb,98,average,18,0.8338896999998724,['n'],1,right,['0'],6,0.37554019999993216,,,25,18,Man,Rechts,1,
,xotask,xotask,dotcolour,22,1,82,82,training,positivefb,86,easy,7,1.0504845999998906,['n'],1,right,['0'],6,0.37471049999999195,,,25,18,Man,Rechts,1,
,xotask,xotask,dotcolour,23,1,83,83,training,positivefb,99,easy,71,0.7662202999999863,['c'],1,left,['9'],5,0.41778640000006817,,,25,18,Man,Rechts,1,
,xotask,xotask,dotcolour,24,1,84,84,training,positivefb,97,hard,53,0.6328074999998989,['c'],1,left,['9'],5,0.3355627999999342,,,25,18,Man,Rechts,1,
,xotask,xotask,dotcolour,25,1,85,85,training,positivefb,93,hard,27,1.3667244999999184,['n'],1,right,['8'],4,0.8119968000000881,,,25,18,Man,Rechts,1,
,xotask,xotask,dotcolour,26,1,86,86,training,positivefb,86,hard,26,1.383456100000103,['n'],1,right,['9'],5,0.24387309999997342,,,25,18,Man,Rechts,1,
,xotask,xotask,dotcolour,27,1,87,87,training,positivefb,99,average,19,0.949990200000002,['n'],1,right,['0'],6,0.5891062000000602,,,25,18,Man,Rechts,1,
,xotask,xotask,dotcolour,28,1,88,88,training,positivefb,97,hard,27,0.6994872000000214,['n'],1,right,['9'],5,0.3698468000000048,,,25,18,Man,Rechts,1,
,xotask,xotask,dotcolour,29,1,89,89,training,positivefb,82,hard,52,0.7679218000002948,['c'],1,left,['9'],5,0.35623649999979534,,,25,18,Man,Rechts,1,
,xotask,xotask,dotcolour,30,1,90,90,training,positivefb,96,hard,54,1.066668700000264,['c'],1,left,['8'],4,1.0761584000001676,,,25,18,Man,Rechts,1,
,xotask,xotask,dotcolour,31,1,91,91,training,positivefb,90,hard,28,1.066973400000279,['n'],1,right,['9'],5,0.8056908000003205,,,25,18,Man,Rechts,1,
,xotask,xotask,dotcolour,32,1,92,92,training,positivefb,96,easy,71,0.8503781999997955,['c'],1,left,['0'],6,0.41258479999987685,,,25,18,Man,Rechts,1,
,xotask,xotask,dotcolour,33,1,93,93,training,positivefb,94,easy,7,0.7996183000000201,['n'],1,right,['0'],6,0.3241342999999688,,,25,18,Man,Rechts,1,
,xotask,xotask,dotcolour,34,1,94,94,training,positivefb,92,average,64,0.6843002999999044,['c'],1,left,['9'],5,0.3557760999997299,,,25,18,Man,Rechts,1,
,xotask,xotask,dotcolour,35,1,95,95,training,positivefb,84,average,64,0.8007489000001442,['c'],1,left,['9'],5,0.3582152999997561,,,25,18,Man,Rechts,1,
,xotask,xotask,dotcolour,36,1,96,96,training,positivefb,98,hard,27,0.7508005999998204,['n'],1,right,['0'],6,0.5138655000000654,,,25,18,Man,Rechts,1,
,xotask,xotask,dotcolour,37,1,97,97,training,positivefb,98,easy,6,0.8669823000000179,['n'],1,right,['0'],6,0.27592820000018037,,,25,18,Man,Rechts,1,
,xotask,xotask,dotcolour,38,1,98,98,training,positivefb,89,hard,53,0.9838862999999947,['c'],1,left,['3'],3,1.3056446999999025,,,25,18,Man,Rechts,1,
,xotask,xotask,dotcolour,39,1,99,99,training,positivefb,88,easy,8,0.6000158000001647,['n'],1,right,['0'],6,0.30101120000017545,,,25,18,Man,Rechts,1,
,xotask,xotask,dotcolour,40,1,100,100,training,positivefb,88,hard,28,0.7679497999997693,['n'],1,right,['0'],6,0.2748105000000578,,,25,18,Man,Rechts,1,
,xotask,xotask,dotcolour,41,1,101,101,training,positivefb,93,hard,50,1.4841329999999289,['c'],1,left,['3'],3,0.7170407999997224,,,25,18,Man,Rechts,1,
,xotask,xotask,dotcolour,42,1,102,102,training,positivefb,69,average,63,2.633074100000158,['n'],0,left,['1'],1,1.1670673999997234,,,25,18,Man,Rechts,1,
,xotask,xotask,dotcolour,43,1,103,103,training,positivefb,92,average,18,0.9331824000000779,['n'],1,right,['9'],5,0.3301848000000973,,,25,18,Man,Rechts,1,
,xotask,xotask,dotcolour,44,1,104,104,training,positivefb,84,easy,7,0.7328521999997974,['n'],1,right,['0'],6,0.28039750000016284,,,25,18,Man,Rechts,1,
,xotask,xotask,dotcolour,45,1,105,105,training,positivefb,67,average,61,1.1165881000001718,['c'],1,left,['8'],4,0.3693094000000201,,,25,18,Man,Rechts,1,
,xotask,xotask,dotcolour,46,1,106,106,training,positivefb,87,hard,51,2.6495764000001145,['c'],1,left,['1'],1,1.048946800000067,,,25,18,Man,Rechts,1,
,xotask,xotask,dotcolour,47,1,107,107,training,positivefb,94,easy,72,0.7997575999997935,['c'],1,left,['0'],6,0.25487810000004174,,,25,18,Man,Rechts,1,
,xotask,xotask,dotcolour,48,1,108,108,training,positivefb,94,easy,7,2.549685799999679,['n'],1,right,['3'],3,1.135084900000038,,,25,18,Man,Rechts,1,
,xotask,xotask,dotcolour,49,1,109,109,training,positivefb,71,average,16,0.9336475999998584,['n'],1,right,['0'],6,0.2761820999999145,,,25,18,Man,Rechts,1,
,xotask,xotask,dotcolour,50,1,110,110,training,positivefb,96,average,15,0.9844599999996717,['n'],1,right,['9'],5,0.3697676000001593,,,25,18,Man,Rechts,1,
,xotask,xotask,dotcolour,51,1,111,111,training,positivefb,95,average,15,0.6673733000002358,['n'],1,right,['9'],5,0.2890741999999591,,,25,18,Man,Rechts,1,
,xotask,xotask,dotcolour,52,1,112,112,training,positivefb,97,average,15,0.6329415000000154,['n'],1,right,['9'],5,0.3007069999998748,,,25,18,Man,Rechts,1,
,xotask,xotask,dotcolour,53,1,113,113,training,positivefb,93,easy,70,1.0839599999999336,['c'],1,left,['0'],6,0.3803370000000541,,,25,18,Man,Rechts,1,
,xotask,xotask,dotcolour,54,1,114,114,training,positivefb,95,hard,50,1.4511539000000084,['c'],1,left,['9'],5,0.3320232000000942,,,25,18,Man,Rechts,1,
,xotask,xotask,dotcolour,55,1,115,115,training,positivefb,83,easy,7,1.0498459999998886,['n'],1,right,['0'],6,0.2452381000002788,,,25,18,Man,Rechts,1,
,xotask,xotask,dotcolour,56,1,116,116,training,positivefb,100,easy,5,0.7500929999996515,['n'],1,right,['9'],5,0.40578670000013517,,,25,18,Man,Rechts,1,
,xotask,xotask,dotcolour,57,1,117,117,training,positivefb,87,average,18,0.5328498999997464,['n'],1,right,['9'],5,0.1999989999999343,,,25,18,Man,Rechts,1,
,xotask,xotask,dotcolour,58,1,118,118,training,positivefb,96,easy,5,0.5668507000000318,['n'],1,right,['9'],5,0.26490629999989324,,,25,18,Man,Rechts,1,
,xotask,xotask,dotcolour,59,1,119,119,training,positivefb,88,hard,50,0.8658939000001737,['c'],1,left,['8'],4,0.4597460999998475,,,25,18,Man,Rechts,1,
,dotcolour,xotask,dotcolour,0,2,120,120,main,positivefb,-99,average,,1.317879300000186,['n'],1,right,['9'],5,1.0249042999998892,25,,25,18,Man,Rechts,1,
,dotcolour,xotask,dotcolour,1,2,121,121,main,positivefb,-99,hard,,0.8343036000001121,['c'],1,left,['0'],6,0.6473405000001549,44,,25,18,Man,Rechts,1,
,dotcolour,xotask,dotcolour,2,2,122,122,main,positivefb,-99,average,,2.3175515999996605,['n'],1,right,['3'],3,1.51459849999992,28,,25,18,Man,Rechts,1,
,dotcolour,xotask,dotcolour,3,2,123,123,main,positivefb,-99,hard,,1.8673963000001095,['n'],1,right,['8'],4,1.4516783999997642,35,,25,18,Man,Rechts,1,
,dotcolour,xotask,dotcolour,4,2,124,124,main,positivefb,-99,average,,1.0000286000004053,['c'],1,left,['2'],2,1.234561699999631,54,,25,18,Man,Rechts,1,
,dotcolour,xotask,dotcolour,5,2,125,125,main,positivefb,-99,average,,1.3843465999998443,['c'],1,left,['3'],3,1.890218100000311,55,,25,18,Man,Rechts,1,
,dotcolour,xotask,dotcolour,6,2,126,126,main,positivefb,-99,easy,,1.3678283999997802,['n'],1,right,['9'],5,1.257000799999787,16,,25,18,Man,Rechts,1,
,dotcolour,xotask,dotcolour,7,2,127,127,main,positivefb,-99,easy,,0.9672622999996747,['n'],1,right,['0'],6,1.4169044000000213,16,,25,18,Man,Rechts,1,
,dotcolour,xotask,dotcolour,8,2,128,128,main,positivefb,-99,hard,,1.3669746999999006,['c'],1,left,['2'],2,0.8579043999998248,43,,25,18,Man,Rechts,1,
,dotcolour,xotask,dotcolour,9,2,129,129,main,positivefb,-99,easy,,1.1178993999997147,['c'],1,left,['9'],5,1.2523130999998102,65,,25,18,Man,Rechts,1,
,dotcolour,xotask,dotcolour,10,2,130,130,main,positivefb,-99,hard,,2.016877900000054,['c'],0,right,['2'],2,0.6746280000002116,39,,25,18,Man,Rechts,1,
,dotcolour,xotask,dotcolour,11,2,131,131,main,positivefb,-99,hard,,2.8507196999998996,['n'],1,right,['3'],3,0.8780643000000055,39,,25,18,Man,Rechts,1,
,dotcolour,xotask,dotcolour,12,2,132,132,main,positivefb,-99,easy,,1.1676559000002271,['n'],0,left,['1'],1,1.6616405000004306,64,,25,18,Man,Rechts,1,
,dotcolour,xotask,dotcolour,13,2,133,133,main,positivefb,-99,hard,,2.983389999999872,['n'],0,left,['3'],3,0.6525203000001056,43,,25,18,Man,Rechts,1,
,dotcolour,xotask,dotcolour,14,2,134,134,main,positivefb,-99,average,,2.667640399999982,['c'],1,left,['0'],6,0.6004754999999022,52,,25,18,Man,Rechts,1,
,dotcolour,xotask,dotcolour,15,2,135,135,main,positivefb,-99,easy,,2.451429199999893,['n'],0,left,['8'],4,0.830830700000206,62,,25,18,Man,Rechts,1,
,dotcolour,xotask,dotcolour,16,2,136,136,main,positivefb,-99,easy,,1.0340000000001055,['c'],1,left,['9'],5,1.7727240000003803,64,,25,18,Man,Rechts,1,
,dotcolour,xotask,dotcolour,17,2,137,137,main,positivefb,-99,hard,,1.2842235000002802,['n'],1,right,['8'],4,0.8918672999998307,38,,25,18,Man,Rechts,1,
,dotcolour,xotask,dotcolour,18,2,138,138,main,positivefb,-99,average,,1.1343560000000252,['c'],1,left,['9'],5,0.7719482000002245,51,,25,18,Man,Rechts,1,
,dotcolour,xotask,dotcolour,19,2,139,139,main,positivefb,-99,hard,,1.6000476999997773,['c'],1,left,['9'],5,1.0222164000001612,43,,25,18,Man,Rechts,1,
,dotcolour,xotask,dotcolour,20,2,140,140,main,positivefb,-99,hard,,1.0678590999996231,['n'],1,right,['8'],4,0.8991332000000511,38,,25,18,Man,Rechts,1,
,dotcolour,xotask,dotcolour,21,2,141,141,main,positivefb,-99,hard,,1.233765399999811,['c'],1,left,['8'],4,0.711068300000079,41,,25,18,Man,Rechts,1,
,dotcolour,xotask,dotcolour,22,2,142,142,main,positivefb,-99,average,,0.7168946000001597,['n'],1,right,['0'],6,0.5025692999997773,27,,25,18,Man,Rechts,1,
,dotcolour,xotask,dotcolour,23,2,143,143,main,positivefb,-99,average,,1.0010369999999966,['c'],1,left,['0'],6,0.37113219999992,52,,25,18,Man,Rechts,1,
,dotcolour,xotask,dotcolour,24,2,144,144,main,positivefb,-99,easy,,0.6507825999997294,['c'],1,left,['0'],6,0.4187913999999182,64,,25,18,Man,Rechts,1,
,dotcolour,xotask,dotcolour,25,2,145,145,main,positivefb,-99,easy,,1.234856099999888,['c'],1,left,['0'],6,0.45781840000017837,62,,25,18,Man,Rechts,1,
,dotcolour,xotask,dotcolour,26,2,146,146,main,positivefb,-99,average,,1.0846927999996296,['c'],1,left,['0'],6,0.4609216999997443,52,,25,18,Man,Rechts,1,
,dotcolour,xotask,dotcolour,27,2,147,147,main,positivefb,-99,average,,0.7006298000001152,['c'],1,left,['9'],5,0.3117957999997998,54,,25,18,Man,Rechts,1,
,dotcolour,xotask,dotcolour,28,2,148,148,main,positivefb,-99,average,,0.7507243999998536,['n'],1,right,['9'],5,0.3830407999998897,25,,25,18,Man,Rechts,1,
,dotcolour,xotask,dotcolour,29,2,149,149,main,positivefb,-99,hard,,1.3684050000001662,['c'],1,left,['9'],5,0.3294568999999683,43,,25,18,Man,Rechts,1,
,dotcolour,xotask,dotcolour,30,2,150,150,main,positivefb,-99,easy,,0.7681345999999394,['n'],1,right,['9'],5,0.5180442000000767,17,,25,18,Man,Rechts,1,
,dotcolour,xotask,dotcolour,31,2,151,151,main,positivefb,-99,average,,0.668291599999975,['n'],1,right,['9'],5,0.38395379999974466,26,,25,18,Man,Rechts,1,
,dotcolour,xotask,dotcolour,32,2,152,152,main,positivefb,-99,easy,,0.7841921999997794,['c'],1,left,['0'],6,0.2579615999998168,63,,25,18,Man,Rechts,1,
,dotcolour,xotask,dotcolour,33,2,153,153,main,positivefb,-99,average,,1.1179343000003428,['n'],1,right,['9'],5,0.42031299999962357,26,,25,18,Man,Rechts,1,
,dotcolour,xotask,dotcolour,34,2,154,154,main,positivefb,-99,easy,,0.8013010999998187,['c'],1,left,['9'],5,0.4521927999999207,61,,25,18,Man,Rechts,1,
,dotcolour,xotask,dotcolour,35,2,155,155,main,positivefb,-99,easy,,0.8507826000000023,['c'],1,left,['9'],5,0.3200048000003335,65,,25,18,Man,Rechts,1,
,dotcolour,xotask,dotcolour,36,2,156,156,main,positivefb,-99,easy,,0.6507749999996122,['n'],1,right,['0'],6,0.7062710000000152,18,,25,18,Man,Rechts,1,
,dotcolour,xotask,dotcolour,37,2,157,157,main,positivefb,-99,easy,,0.5678033999997751,['n'],1,right,['0'],6,0.2804220000002715,16,,25,18,Man,Rechts,1,
,dotcolour,xotask,dotcolour,38,2,158,158,main,positivefb,-99,easy,,0.7515680999999859,['c'],1,left,['9'],5,0.28072970000039277,61,,25,18,Man,Rechts,1,
,dotcolour,xotask,dotcolour,39,2,159,159,main,positivefb,-99,hard,,0.9518742999998722,['c'],1,left,['9'],5,0.2725040000000263,45,,25,18,Man,Rechts,1,
,dotcolour,xotask,dotcolour,40,2,160,160,main,positivefb,-99,average,,0.6339024000003519,['c'],1,left,['9'],5,0.22104230000013558,54,,25,18,Man,Rechts,1,
,dotcolour,xotask,dotcolour,41,2,161,161,main,positivefb,-99,average,,0.7344356999997217,['n'],1,right,['0'],6,0.3201806000001852,27,,25,18,Man,Rechts,1,
,dotcolour,xotask,dotcolour,42,2,162,162,main,positivefb,-99,average,,1.8843673999999737,['c'],1,left,['9'],5,0.4407344999999623,53,,25,18,Man,Rechts,1,
,dotcolour,xotask,dotcolour,43,2,163,163,main,positivefb,-99,easy,,0.585832599999776,['n'],1,right,['0'],6,0.34444759999996677,15,,25,18,Man,Rechts,1,
,dotcolour,xotask,dotcolour,44,2,164,164,main,positivefb,-99,hard,,1.166912400000001,['c'],1,left,['9'],5,0.26958020000029137,42,,25,18,Man,Rechts,1,
,dotcolour,xotask,dotcolour,45,2,165,165,main,positivefb,-99,hard,,0.867275200000222,['n'],1,right,['9'],5,0.23189990000037142,39,,25,18,Man,Rechts,1,
,dotcolour,xotask,dotcolour,46,2,166,166,main,positivefb,-99,easy,,0.7177907000000232,['n'],1,right,['0'],6,0.2835168999999951,17,,25,18,Man,Rechts,1,
,dotcolour,xotask,dotcolour,47,2,167,167,main,positivefb,-99,hard,,0.6674979000003987,['c'],1,left,['0'],6,0.32593169999972815,45,,25,18,Man,Rechts,1,
,dotcolour,xotask,dotcolour,48,2,168,168,main,positivefb,-99,average,,1.2670874999998887,['n'],1,right,['9'],5,0.34286240000028556,26,,25,18,Man,Rechts,1,
,dotcolour,xotask,dotcolour,49,2,169,169,main,positivefb,-99,average,,0.967032499999732,['c'],1,left,['9'],5,0.49214130000018486,54,,25,18,Man,Rechts,1,
,dotcolour,xotask,dotcolour,50,2,170,170,main,positivefb,-99,easy,,0.6841298000003917,['n'],1,right,['0'],6,0.357556299999942,15,,25,18,Man,Rechts,1,
,dotcolour,xotask,dotcolour,51,2,171,171,main,positivefb,-99,hard,,2.9180719999999383,['n'],0,left,['2'],2,1.7478587000000516,43,,25,18,Man,Rechts,1,
,dotcolour,xotask,dotcolour,52,2,172,172,main,positivefb,-99,average,,0.9675828000004003,['n'],1,right,['9'],5,0.3838026000003083,27,,25,18,Man,Rechts,1,
,dotcolour,xotask,dotcolour,53,2,173,173,main,positivefb,-99,hard,,1.634356200000184,['n'],1,right,['3'],3,0.21571789999961766,35,,25,18,Man,Rechts,1,
,dotcolour,xotask,dotcolour,54,2,174,174,main,positivefb,-99,hard,,2.249785200000133,['c'],0,right,['9'],5,0.557963600000221,36,,25,18,Man,Rechts,1,
,dotcolour,xotask,dotcolour,55,2,175,175,main,positivefb,-99,average,,0.7520022000003337,['n'],1,right,['9'],5,0.29818850000037855,28,,25,18,Man,Rechts,1,
,dotcolour,xotask,dotcolour,56,2,176,176,main,positivefb,-99,hard,,1.0186438000000635,['n'],1,right,['2'],2,0.5424152000000504,38,,25,18,Man,Rechts,1,
,dotcolour,xotask,dotcolour,57,2,177,177,main,positivefb,-99,easy,,0.5851262999999562,['n'],1,right,['0'],6,0.3065766999998232,17,,25,18,Man,Rechts,1,
,dotcolour,xotask,dotcolour,58,2,178,178,main,positivefb,-99,hard,,1.5340616000003138,['n'],1,right,['0'],6,0.30527600000004895,35,,25,18,Man,Rechts,1,
,dotcolour,xotask,dotcolour,59,2,179,179,main,positivefb,-99,easy,,0.7848202000000128,['n'],1,right,['0'],6,0.19091429999980392,16,,25,18,Man,Rechts,1,
,dotcolour,xotask,dotcolour,0,3,180,180,main,positivefb,-99,hard,,1.5345679000001837,['n'],1,right,['9'],5,0.4066481999998359,39,,25,18,Man,Rechts,1,
,dotcolour,xotask,dotcolour,1,3,181,181,main,positivefb,-99,easy,,0.900580699999864,['n'],0,left,['9'],5,0.16344929999968372,63,,25,18,Man,Rechts,1,
,dotcolour,xotask,dotcolour,2,3,182,182,main,positivefb,-99,average,,2.4666369000001396,['n'],1,right,['9'],5,0.7714112999997269,26,,25,18,Man,Rechts,1,
,dotcolour,xotask,dotcolour,3,3,183,183,main,positivefb,-99,hard,,0.8673960000000989,['c'],0,right,['8'],4,0.4106246999999712,39,,25,18,Man,Rechts,1,
,dotcolour,xotask,dotcolour,4,3,184,184,main,positivefb,-99,average,,2.4679944999998042,['c'],0,right,['3'],3,1.440357800000129,29,,25,18,Man,Rechts,1,
,dotcolour,xotask,dotcolour,5,3,185,185,main,positivefb,-99,hard,,1.717960999999832,['n'],1,right,['8'],4,5.63505239999995,35,,25,18,Man,Rechts,1,
,dotcolour,xotask,dotcolour,6,3,186,186,main,positivefb,-99,easy,,1.0002020000001721,['n'],1,right,['0'],6,0.6341175999996267,19,,25,18,Man,Rechts,1,
,dotcolour,xotask,dotcolour,7,3,187,187,main,positivefb,-99,easy,,0.9342348999998649,['c'],1,left,['0'],6,0.5883969000001343,62,,25,18,Man,Rechts,1,
,dotcolour,xotask,dotcolour,8,3,188,188,main,positivefb,-99,easy,,0.8841757000000143,['n'],1,right,['0'],6,0.47427979999974923,19,,25,18,Man,Rechts,1,
,dotcolour,xotask,dotcolour,9,3,189,189,main,positivefb,-99,easy,,0.7683059000000867,['c'],1,left,['0'],6,0.2891944000002695,64,,25,18,Man,Rechts,1,
,dotcolour,xotask,dotcolour,10,3,190,190,main,positivefb,-99,average,,1.984598200000164,['n'],0,left,['2'],2,0.6951890999998795,51,,25,18,Man,Rechts,1,
,dotcolour,xotask,dotcolour,11,3,191,191,main,positivefb,-99,easy,,1.0680275000004258,['n'],1,right,['0'],6,0.5944233000000168,16,,25,18,Man,Rechts,1,
,dotcolour,xotask,dotcolour,12,3,192,192,main,positivefb,-99,easy,,2.4841025999999147,['c'],1,left,['9'],5,2.840152599999783,64,,25,18,Man,Rechts,1,
,dotcolour,xotask,dotcolour,13,3,193,193,main,positivefb,-99,hard,,0.9846929999998792,['n'],1,right,['9'],5,0.3689374000000498,35,,25,18,Man,Rechts,1,
,dotcolour,xotask,dotcolour,14,3,194,194,main,positivefb,-99,average,,1.2666620999998486,['c'],1,left,['9'],5,4.119442600000184,52,,25,18,Man,Rechts,1,
,dotcolour,xotask,dotcolour,15,3,195,195,main,positivefb,-99,average,,1.9004079000001184,['n'],1,right,['8'],4,0.8962059999998928,29,,25,18,Man,Rechts,1,
,dotcolour,xotask,dotcolour,16,3,196,196,main,positivefb,-99,hard,,2.2676046999999926,['n'],1,right,['8'],4,0.6822077000001627,36,,25,18,Man,Rechts,1,
,dotcolour,xotask,dotcolour,17,3,197,197,main,positivefb,-99,average,,1.1668067999999039,['n'],1,right,['3'],3,1.3205947999999808,26,,25,18,Man,Rechts,1,
,dotcolour,xotask,dotcolour,18,3,198,198,main,positivefb,-99,average,,1.5840249000002586,['c'],1,left,['0'],6,0.43760629999997036,51,,25,18,Man,Rechts,1,
,dotcolour,xotask,dotcolour,19,3,199,199,main,positivefb,-99,easy,,1.0833299999999326,['n'],1,right,['9'],5,0.8423125999997865,16,,25,18,Man,Rechts,1,
,dotcolour,xotask,dotcolour,20,3,200,200,main,positivefb,-99,easy,,1.6510776000000078,['c'],1,left,['8'],4,0.9109845999996651,64,,25,18,Man,Rechts,1,
,dotcolour,xotask,dotcolour,21,3,201,201,main,positivefb,-99,easy,,1.1510475999998562,['n'],1,right,['9'],5,0.7658219999998437,19,,25,18,Man,Rechts,1,
,dotcolour,xotask,dotcolour,22,3,202,202,main,positivefb,-99,average,,0.7675781000002644,['c'],1,left,['0'],6,0.3363944000002448,53,,25,18,Man,Rechts,1,
,dotcolour,xotask,dotcolour,23,3,203,203,main,positivefb,-99,average,,0.6840422000000217,['c'],1,left,['0'],6,0.17710619999979826,53,,25,18,Man,Rechts,1,
,dotcolour,xotask,dotcolour,24,3,204,204,main,positivefb,-99,hard,,1.3344978999998602,['n'],0,left,['2'],2,0.49355740000009973,41,,25,18,Man,Rechts,1,
,dotcolour,xotask,dotcolour,25,3,205,205,main,positivefb,-99,easy,,0.8511741000002075,['c'],1,left,['0'],6,0.32854749999978594,63,,25,18,Man,Rechts,1,
,dotcolour,xotask,dotcolour,26,3,206,206,main,positivefb,-99,hard,,2.100594000000001,['n'],0,left,['3'],3,1.5132441000000654,45,,25,18,Man,Rechts,1,
,dotcolour,xotask,dotcolour,27,3,207,207,main,positivefb,-99,average,,3.083515499999976,['n'],1,right,['8'],4,0.8343089999998483,29,,25,18,Man,Rechts,1,
,dotcolour,xotask,dotcolour,28,3,208,208,main,positivefb,-99,hard,,1.2004314999999224,['c'],1,left,['9'],5,0.40131590000009965,45,,25,18,Man,Rechts,1,
,dotcolour,xotask,dotcolour,29,3,209,209,main,positivefb,-99,hard,,2.8175289999999222,['c'],1,left,['8'],4,0.9134359999998196,41,,25,18,Man,Rechts,1,
,dotcolour,xotask,dotcolour,30,3,210,210,main,positivefb,-99,hard,,2.733821100000114,['c'],0,right,['2'],2,1.2410569999997279,36,,25,18,Man,Rechts,1,
,dotcolour,xotask,dotcolour,31,3,211,211,main,positivefb,-99,hard,,1.61756430000014,['n'],1,right,['9'],5,0.4793643000002703,36,,25,18,Man,Rechts,1,
,dotcolour,xotask,dotcolour,32,3,212,212,main,positivefb,-99,hard,,3.81658809999999,['n'],1,right,['8'],4,0.6764793000002101,36,,25,18,Man,Rechts,1,
,dotcolour,xotask,dotcolour,33,3,213,213,main,positivefb,-99,easy,,1.033487199999854,['n'],1,right,['0'],6,0.3135425000000396,16,,25,18,Man,Rechts,1,
,dotcolour,xotask,dotcolour,34,3,214,214,main,positivefb,-99,hard,,0.9686205000002701,['c'],1,left,['9'],5,0.4473920000000362,45,,25,18,Man,Rechts,1,
,dotcolour,xotask,dotcolour,35,3,215,215,main,positivefb,-99,average,,0.6019785000003139,['n'],1,right,['9'],5,0.37413610000021436,28,,25,18,Man,Rechts,1,
,dotcolour,xotask,dotcolour,36,3,216,216,main,positivefb,-99,average,,0.6355070999998134,['n'],1,right,['9'],5,0.21511610000015935,25,,25,18,Man,Rechts,1,
,dotcolour,xotask,dotcolour,37,3,217,217,main,positivefb,-99,hard,,1.283502799999951,['c'],1,left,['2'],2,0.30050230000006195,43,,25,18,Man,Rechts,1,
,dotcolour,xotask,dotcolour,38,3,218,218,main,positivefb,-99,easy,,1.5847839999996722,['n'],1,right,['9'],5,0.24961339999981647,19,,25,18,Man,Rechts,1,
,dotcolour,xotask,dotcolour,39,3,219,219,main,positivefb,-99,average,,1.1505882999999812,['c'],1,left,['9'],5,0.1141021999997065,52,,25,18,Man,Rechts,1,
,dotcolour,xotask,dotcolour,40,3,220,220,main,positivefb,-99,average,,0.7513581999996859,['c'],1,left,['9'],5,0.2806104999999661,52,,25,18,Man,Rechts,1,
,dotcolour,xotask,dotcolour,41,3,221,221,main,positivefb,-99,easy,,0.6676385999999184,['n'],1,right,['9'],5,0.3073821999996653,18,,25,18,Man,Rechts,1,
,dotcolour,xotask,dotcolour,42,3,222,222,main,positivefb,-99,hard,,1.735521399999925,['n'],0,left,['9'],5,0.2668524000000616,45,,25,18,Man,Rechts,1,
,dotcolour,xotask,dotcolour,43,3,223,223,main,positivefb,-99,average,,0.8010579000001599,['c'],1,left,['0'],6,0.504244799999924,53,,25,18,Man,Rechts,1,
,dotcolour,xotask,dotcolour,44,3,224,224,main,positivefb,-99,average,,0.6506842999997389,['n'],1,right,['0'],6,0.3077272999998968,29,,25,18,Man,Rechts,1,
,dotcolour,xotask,dotcolour,45,3,225,225,main,positivefb,-99,average,,1.317337999999836,['c'],1,left,['9'],5,0.3876367000002574,51,,25,18,Man,Rechts,1,
,dotcolour,xotask,dotcolour,46,3,226,226,main,positivefb,-99,easy,,0.7515011000000413,['c'],1,left,['9'],5,0.5506962999997995,64,,25,18,Man,Rechts,1,
,dotcolour,xotask,dotcolour,47,3,227,227,main,positivefb,-99,hard,,1.5188063000000511,['c'],1,left,['8'],4,0.684700199999952,44,,25,18,Man,Rechts,1,
,dotcolour,xotask,dotcolour,48,3,228,228,main,positivefb,-99,average,,0.8508050999998886,['c'],1,left,['0'],6,0.33598879999999554,52,,25,18,Man,Rechts,1,
,dotcolour,xotask,dotcolour,49,3,229,229,main,positivefb,-99,easy,,0.8000541000001249,['c'],1,left,['9'],5,0.48399209999979576,64,,25,18,Man,Rechts,1,
,dotcolour,xotask,dotcolour,50,3,230,230,main,positivefb,-99,average,,0.7013731999995798,['n'],1,right,['9'],5,0.40420080000012604,27,,25,18,Man,Rechts,1,
,dotcolour,xotask,dotcolour,51,3,231,231,main,positivefb,-99,easy,,0.7183261999998649,['c'],1,left,['9'],5,0.3289036999999553,63,,25,18,Man,Rechts,1,
,dotcolour,xotask,dotcolour,52,3,232,232,main,positivefb,-99,easy,,0.6505469999997331,['n'],1,right,['0'],6,0.2748953000000256,16,,25,18,Man,Rechts,1,
,dotcolour,xotask,dotcolour,53,3,233,233,main,positivefb,-99,average,,0.7338634000002457,['n'],1,right,['9'],5,0.30740780000041923,26,,25,18,Man,Rechts,1,
,dotcolour,xotask,dotcolour,54,3,234,234,main,positivefb,-99,easy,,0.7004194000001007,['n'],1,right,['0'],6,0.4522249000001466,17,,25,18,Man,Rechts,1,
,dotcolour,xotask,dotcolour,55,3,235,235,main,positivefb,-99,hard,,1.5188212999996722,['c'],1,left,['8'],4,0.6703000000002248,44,,25,18,Man,Rechts,1,
,dotcolour,xotask,dotcolour,56,3,236,236,main,positivefb,-99,hard,,2.051133099999788,['n'],0,left,['3'],3,0.8661144000002423,41,,25,18,Man,Rechts,1,
,dotcolour,xotask,dotcolour,57,3,237,237,main,positivefb,-99,easy,,0.8678155000002334,['c'],1,left,['9'],5,0.23727120000012292,63,,25,18,Man,Rechts,1,
,dotcolour,xotask,dotcolour,58,3,238,238,main,positivefb,-99,hard,,1.9021057999998447,['n'],1,right,['3'],3,0.8330114000000322,37,,25,18,Man,Rechts,1,
,dotcolour,xotask,dotcolour,59,3,239,239,main,positivefb,-99,hard,,1.5345643999999083,['n'],1,right,['9'],5,0.5148438999999598,39,,25,18,Man,Rechts,1,
,dotcolour,xotask,dotcolour,0,4,240,240,main,positivefb,-99,easy,,1.0504037000000608,['n'],1,right,['9'],5,0.8953682999999728,19,,25,18,Man,Rechts,1,
,dotcolour,xotask,dotcolour,1,4,241,241,main,positivefb,-99,easy,,0.6336446000000251,['c'],1,left,['9'],5,2.1075981000003594,64,,25,18,Man,Rechts,1,
,dotcolour,xotask,dotcolour,2,4,242,242,main,positivefb,-99,easy,,0.4840389999999388,['n'],1,right,['0'],6,2.4366242000000966,18,,25,18,Man,Rechts,1,
,dotcolour,xotask,dotcolour,3,4,243,243,main,positivefb,-99,average,,1.4847325999999157,['n'],1,right,['9'],5,0.48882959999991726,25,,25,18,Man,Rechts,1,
,dotcolour,xotask,dotcolour,4,4,244,244,main,positivefb,-99,average,,0.8012706999998045,['n'],1,right,['9'],5,0.2696178000001055,26,,25,18,Man,Rechts,1,
,dotcolour,xotask,dotcolour,5,4,245,245,main,positivefb,-99,hard,,1.5176235999997516,['c'],1,left,['8'],4,0.8316601999999875,41,,25,18,Man,Rechts,1,
,dotcolour,xotask,dotcolour,6,4,246,246,main,positivefb,-99,hard,,1.1513147000000572,['c'],0,right,['8'],4,0.8484585999999581,39,,25,18,Man,Rechts,1,
,dotcolour,xotask,dotcolour,7,4,247,247,main,positivefb,-99,average,,0.634383600000092,['c'],1,left,['8'],4,0.34948309999981575,53,,25,18,Man,Rechts,1,
,dotcolour,xotask,dotcolour,8,4,248,248,main,positivefb,-99,hard,,2.6183076000002075,['c'],1,left,['3'],3,0.7996103999998923,41,,25,18,Man,Rechts,1,
,dotcolour,xotask,dotcolour,9,4,249,249,main,positivefb,-99,easy,,1.5514806000001045,['n'],1,right,['9'],5,0.6746847999997954,16,,25,18,Man,Rechts,1,
,dotcolour,xotask,dotcolour,10,4,250,250,main,positivefb,-99,average,,1.1838259999999536,['c'],1,left,['9'],5,0.3459005999998226,55,,25,18,Man,Rechts,1,
,dotcolour,xotask,dotcolour,11,4,251,251,main,positivefb,-99,easy,,0.7336651000000529,['n'],1,right,['8'],4,0.567841000000044,19,,25,18,Man,Rechts,1,
,dotcolour,xotask,dotcolour,12,4,252,252,main,positivefb,-99,hard,,1.3510464999999385,['c'],1,left,['9'],5,1.0191093999997065,44,,25,18,Man,Rechts,1,
,dotcolour,xotask,dotcolour,13,4,253,253,main,positivefb,-99,hard,,1.1845336999999745,['n'],0,left,['9'],5,0.2193606999999247,45,,25,18,Man,Rechts,1,
,dotcolour,xotask,dotcolour,14,4,254,254,main,positivefb,-99,easy,,0.7175849000000198,['c'],1,left,['0'],6,0.30362590000004275,62,,25,18,Man,Rechts,1,
,dotcolour,xotask,dotcolour,15,4,255,255,main,positivefb,-99,average,,0.8170079999999871,['n'],1,right,['9'],5,1.4194950999999492,27,,25,18,Man,Rechts,1,
,dotcolour,xotask,dotcolour,16,4,256,256,main,positivefb,-99,easy,,0.7168346000003112,['n'],1,right,['9'],5,0.7021132999998372,17,,25,18,Man,Rechts,1,
,dotcolour,xotask,dotcolour,17,4,257,257,main,positivefb,-99,average,,1.2174512999999934,['n'],1,right,['8'],4,0.8589668999998139,29,,25,18,Man,Rechts,1,
,dotcolour,xotask,dotcolour,18,4,258,258,main,positivefb,-99,average,,1.1178855999996813,['n'],1,right,['9'],5,0.9403118000000177,29,,25,18,Man,Rechts,1,
,dotcolour,xotask,dotcolour,19,4,259,259,main,positivefb,-99,hard,,1.484245699999974,['n'],0,left,['8'],4,0.7728315999997903,43,,25,18,Man,Rechts,1,
,dotcolour,xotask,dotcolour,20,4,260,260,main,positivefb,-99,average,,0.7514175999999679,['n'],1,right,['3'],3,0.7207026000000951,28,,25,18,Man,Rechts,1,
,dotcolour,xotask,dotcolour,21,4,261,261,main,positivefb,-99,easy,,1.3340134000000035,['n'],1,right,['0'],6,0.7353589999997894,19,,25,18,Man,Rechts,1,
,dotcolour,xotask,dotcolour,22,4,262,262,main,positivefb,-99,hard,,2.3007063999998536,['n'],1,right,['8'],4,0.7107571000001371,36,,25,18,Man,Rechts,1,
,dotcolour,xotask,dotcolour,23,4,263,263,main,positivefb,-99,hard,,1.6010882000000493,['c'],0,right,['2'],2,0.43558290000009947,36,,25,18,Man,Rechts,1,
,dotcolour,xotask,dotcolour,24,4,264,264,main,positivefb,-99,easy,,1.550575199999912,['c'],1,left,['2'],2,0.5484735000000001,61,,25,18,Man,Rechts,1,
,dotcolour,xotask,dotcolour,25,4,265,265,main,positivefb,-99,hard,,2.08500660000027,['c'],0,right,['3'],3,0.5161775000001398,37,,25,18,Man,Rechts,1,
,dotcolour,xotask,dotcolour,26,4,266,266,main,positivefb,-99,average,,0.8680377999999109,['n'],0,left,['0'],6,0.3972095999997691,55,,25,18,Man,Rechts,1,
,dotcolour,xotask,dotcolour,27,4,267,267,main,positivefb,-99,average,,0.6173514999995859,['n'],0,left,['0'],6,0.22133819999999105,54,,25,18,Man,Rechts,1,
,dotcolour,xotask,dotcolour,28,4,268,268,main,positivefb,-99,average,,1.067437400000017,['n'],1,right,['9'],5,0.3627633999999489,25,,25,18,Man,Rechts,1,
,dotcolour,xotask,dotcolour,29,4,269,269,main,positivefb,-99,easy,,0.7511019999997188,['n'],1,right,['9'],5,0.30367389999992156,16,,25,18,Man,Rechts,1,
,dotcolour,xotask,dotcolour,30,4,270,270,main,positivefb,-99,easy,,0.7822209000000839,['c'],1,left,['0'],6,0.9253592000000026,65,,25,18,Man,Rechts,1,
,dotcolour,xotask,dotcolour,31,4,271,271,main,positivefb,-99,easy,,0.7681986000002325,['n'],1,right,['0'],6,1.698852199999692,17,,25,18,Man,Rechts,1,
,dotcolour,xotask,dotcolour,32,4,272,272,main,positivefb,-99,hard,,1.9174736999998458,['n'],0,left,['8'],4,0.5704925999998522,41,,25,18,Man,Rechts,1,
,dotcolour,xotask,dotcolour,33,4,273,273,main,positivefb,-99,hard,,1.6182521000000634,['n'],1,right,['8'],4,0.6675283999998101,36,,25,18,Man,Rechts,1,
,dotcolour,xotask,dotcolour,34,4,274,274,main,positivefb,-99,hard,,1.4344841000001907,['n'],0,left,['3'],3,0.6721989000002395,41,,25,18,Man,Rechts,1,
,dotcolour,xotask,dotcolour,35,4,275,275,main,positivefb,-99,easy,,1.1172609000000193,['c'],1,left,['0'],6,0.8341592999995555,62,,25,18,Man,Rechts,1,
,dotcolour,xotask,dotcolour,36,4,276,276,main,positivefb,-99,easy,,0.7181419999997161,['c'],1,left,['0'],6,0.5010195999998359,63,,25,18,Man,Rechts,1,
,dotcolour,xotask,dotcolour,37,4,277,277,main,positivefb,-99,hard,,1.0514118999999482,['n'],1,right,['3'],3,1.9514976000000388,36,,25,18,Man,Rechts,1,
,dotcolour,xotask,dotcolour,38,4,278,278,main,positivefb,-99,hard,,1.833539700000074,['n'],1,right,['3'],3,1.1843521000000692,36,,25,18,Man,Rechts,1,
,dotcolour,xotask,dotcolour,39,4,279,279,main,positivefb,-99,average,,0.7509291999999732,['n'],0,left,['1'],1,1.6516797999997834,54,,25,18,Man,Rechts,1,
,dotcolour,xotask,dotcolour,40,4,280,280,main,positivefb,-99,hard,,1.8350044999997408,['n'],1,right,['3'],3,0.6969472999999198,36,,25,18,Man,Rechts,1,
,dotcolour,xotask,dotcolour,41,4,281,281,main,positivefb,-99,hard,,5.683848600000147,['n'],0,left,['1'],1,1.571232599999803,44,,25,18,Man,Rechts,1,
,dotcolour,xotask,dotcolour,42,4,282,282,main,positivefb,-99,easy,,1.117836299999908,['c'],1,left,['0'],6,0.6885352999997849,63,,25,18,Man,Rechts,1,
,dotcolour,xotask,dotcolour,43,4,283,283,main,positivefb,-99,average,,0.6019802000000709,['c'],1,left,['0'],6,0.8217907000002924,52,,25,18,Man,Rechts,1,
,dotcolour,xotask,dotcolour,44,4,284,284,main,positivefb,-99,average,,1.499672500000088,['c'],1,left,['8'],4,0.3225683000000572,54,,25,18,Man,Rechts,1,
,dotcolour,xotask,dotcolour,45,4,285,285,main,positivefb,-99,hard,,0.7999668000002202,['c'],1,left,['8'],4,0.3818206000000828,44,,25,18,Man,Rechts,1,
,dotcolour,xotask,dotcolour,46,4,286,286,main,positivefb,-99,average,,0.8340114999996331,['n'],1,right,['9'],5,0.7259608999997909,28,,25,18,Man,Rechts,1,
,dotcolour,xotask,dotcolour,47,4,287,287,main,positivefb,-99,hard,,1.617395199999919,['n'],1,right,['8'],4,0.6894452999999885,35,,25,18,Man,Rechts,1,
,dotcolour,xotask,dotcolour,48,4,288,288,main,positivefb,-99,hard,,0.967239999999947,['n'],1,right,['8'],4,0.7917434000000867,37,,25,18,Man,Rechts,1,
,dotcolour,xotask,dotcolour,49,4,289,289,main,positivefb,-99,hard,,2.2844113000001016,['n'],0,left,['2'],2,2.245760600000267,41,,25,18,Man,Rechts,1,
,dotcolour,xotask,dotcolour,50,4,290,290,main,positivefb,-99,average,,1.050410699999702,['c'],1,left,['0'],6,0.7307329000000209,55,,25,18,Man,Rechts,1,
,dotcolour,xotask,dotcolour,51,4,291,291,main,positivefb,-99,easy,,0.7518233999999211,['c'],1,left,['9'],5,0.416057500000079,64,,25,18,Man,Rechts,1,
,dotcolour,xotask,dotcolour,52,4,292,292,main,positivefb,-99,average,,0.8345770000000812,['n'],1,right,['9'],5,0.3909860000003391,26,,25,18,Man,Rechts,1,
,dotcolour,xotask,dotcolour,53,4,293,293,main,positivefb,-99,average,,0.7013281000004099,['c'],1,left,['9'],5,0.3564614000001711,55,,25,18,Man,Rechts,1,
,dotcolour,xotask,dotcolour,54,4,294,294,main,positivefb,-99,easy,,0.6836149999999179,['n'],1,right,['9'],5,0.3637728999997307,18,,25,18,Man,Rechts,1,
,dotcolour,xotask,dotcolour,55,4,295,295,main,positivefb,-99,easy,,0.7344113000003745,['n'],1,right,['0'],6,0.31258029999980863,16,,25,18,Man,Rechts,1,
,dotcolour,xotask,dotcolour,56,4,296,296,main,positivefb,-99,easy,,0.5678241000000526,['c'],1,left,['0'],6,0.25454880000006597,61,,25,18,Man,Rechts,1,
,dotcolour,xotask,dotcolour,57,4,297,297,main,positivefb,-99,average,,0.6008740000002035,['c'],1,left,['0'],6,0.20580110000037166,55,,25,18,Man,Rechts,1,
,dotcolour,xotask,dotcolour,58,4,298,298,main,positivefb,-99,average,,0.5851298000002316,['n'],1,right,['0'],6,0.20696610000004512,25,,25,18,Man,Rechts,1,
,dotcolour,xotask,dotcolour,59,4,299,299,main,positivefb,-99,easy,,0.5497163,['c'],1,left,['0'],6,0.25761289999991277,65,,25,18,Man,Rechts,1,
,xotask,xotask,dotcolour,0,0,0,300,training,positivefb,80,hard,28,2.150912999999946,['c'],0,right,['3'],3,1.743987500000003,,,25,18,Man,Rechts,1,
,xotask,xotask,dotcolour,1,0,1,301,training,positivefb,71,easy,71,2.3996829999996407,['n'],0,left,['9'],5,0.3622630999998364,,,25,18,Man,Rechts,1,
,xotask,xotask,dotcolour,2,0,2,302,training,positivefb,93,average,61,0.9497452000000521,['c'],1,left,['9'],5,0.3975703999999496,,,25,18,Man,Rechts,1,
,xotask,xotask,dotcolour,3,0,3,303,training,positivefb,98,hard,29,0.7174674000002597,['n'],1,right,['9'],5,0.3458292000000256,,,25,18,Man,Rechts,1,
,xotask,xotask,dotcolour,4,0,4,304,training,positivefb,97,easy,5,0.6672654999997576,['n'],1,right,['0'],6,0.40959449999991193,,,25,18,Man,Rechts,1,
,xotask,xotask,dotcolour,5,0,5,305,training,positivefb,98,easy,6,0.3999519999997574,['n'],1,right,['0'],6,0.5217630000001918,,,25,18,Man,Rechts,1,
,xotask,xotask,dotcolour,6,0,6,306,training,positivefb,98,easy,7,0.8500502000001688,['n'],1,right,['9'],5,0.2743826999999328,,,25,18,Man,Rechts,1,
,xotask,xotask,dotcolour,7,0,7,307,training,positivefb,99,easy,6,0.8164947000000211,['n'],1,right,['9'],5,0.5998360999997203,,,25,18,Man,Rechts,1,
,xotask,xotask,dotcolour,8,0,8,308,training,positivefb,81,average,60,1.0344470000000001,['c'],1,left,['9'],5,0.5978084999997009,,,25,18,Man,Rechts,1,
,xotask,xotask,dotcolour,9,0,9,309,training,positivefb,29,easy,73,0.7328674000000319,['n'],0,left,['1'],1,0.792442999999821,,,25,18,Man,Rechts,1,
,xotask,xotask,dotcolour,10,0,10,310,training,positivefb,86,hard,51,0.8512490999996771,['c'],1,left,['9'],5,0.36742499999991196,,,25,18,Man,Rechts,1,
,xotask,xotask,dotcolour,11,0,11,311,training,positivefb,83,hard,29,0.76631610000004,['n'],1,right,['9'],5,0.3863771999999699,,,25,18,Man,Rechts,1,
,xotask,xotask,dotcolour,12,0,12,312,training,positivefb,84,hard,26,0.5827822999999626,['n'],1,right,['9'],5,0.5077306000002864,,,25,18,Man,Rechts,1,
,xotask,xotask,dotcolour,13,0,13,313,training,positivefb,89,average,17,0.8676645000000462,['n'],1,right,['8'],4,0.42900060000010853,,,25,18,Man,Rechts,1,
,xotask,xotask,dotcolour,14,0,14,314,training,positivefb,91,average,61,0.7834212999996453,['c'],1,left,['9'],5,0.34880429999975604,,,25,18,Man,Rechts,1,
,xotask,xotask,dotcolour,15,0,15,315,training,positivefb,98,average,15,0.96731520000003,['n'],1,right,['8'],4,0.38395119999995586,,,25,18,Man,Rechts,1,
,xotask,xotask,dotcolour,16,0,16,316,training,positivefb,87,easy,70,0.9667460000000574,['c'],1,left,['9'],5,0.3299145999999382,,,25,18,Man,Rechts,1,
,xotask,xotask,dotcolour,17,0,17,317,training,positivefb,80,hard,54,0.8506124000000455,['c'],1,left,['8'],4,0.3552937999997994,,,25,18,Man,Rechts,1,
,xotask,xotask,dotcolour,18,0,18,318,training,positivefb,98,easy,5,1.0669024999997418,['n'],1,right,['8'],4,0.4830303999997341,,,25,18,Man,Rechts,1,
,xotask,xotask,dotcolour,19,0,19,319,training,positivefb,98,average,15,0.9834931999998844,['n'],1,right,['8'],4,0.3920959000001858,,,25,18,Man,Rechts,1,
,xotask,xotask,dotcolour,20,0,20,320,training,positivefb,62,easy,9,0.5332053000001906,['n'],1,right,['9'],5,0.4201984999999695,,,25,18,Man,Rechts,1,
,xotask,xotask,dotcolour,21,0,21,321,training,positivefb,74,average,62,0.7175084000000425,['c'],1,left,['8'],4,0.43869519999998374,,,25,18,Man,Rechts,1,
,xotask,xotask,dotcolour,22,0,22,322,training,positivefb,94,easy,7,0.9329710000001796,['n'],1,right,['9'],5,0.3671748000001571,,,25,18,Man,Rechts,1,
,xotask,xotask,dotcolour,23,0,23,323,training,positivefb,98,easy,74,0.7333393999997497,['c'],1,left,['9'],5,0.4195694000000003,,,25,18,Man,Rechts,1,
,xotask,xotask,dotcolour,24,0,24,324,training,positivefb,98,average,60,0.5992881000001944,['c'],1,left,['0'],6,0.5870028999997885,,,25,18,Man,Rechts,1,
,xotask,xotask,dotcolour,25,0,25,325,training,positivefb,99,average,15,0.6334294000002956,['n'],1,right,['9'],5,0.4020132000000558,,,25,18,Man,Rechts,1,
,xotask,xotask,dotcolour,26,0,26,326,training,positivefb,94,average,18,0.6833898999998382,['n'],1,right,['9'],5,0.47894799999994575,,,25,18,Man,Rechts,1,
,xotask,xotask,dotcolour,27,0,27,327,training,positivefb,94,easy,72,0.6177097999998296,['c'],1,left,['8'],4,0.3955233000001499,,,25,18,Man,Rechts,1,
,xotask,xotask,dotcolour,28,0,28,328,training,positivefb,95,easy,72,0.6669532999999319,['c'],1,left,['9'],5,0.30540819999987434,,,25,18,Man,Rechts,1,
,xotask,xotask,dotcolour,29,0,29,329,training,positivefb,91,easy,74,0.5003718000002664,['c'],1,left,['9'],5,0.40117110000028333,,,25,18,Man,Rechts,1,
,xotask,xotask,dotcolour,30,0,30,330,training,positivefb,80,hard,54,0.6825752999998258,['n'],0,left,['9'],5,0.32659479999983887,,,25,18,Man,Rechts,1,
,xotask,xotask,dotcolour,31,0,31,331,training,positivefb,89,average,19,0.6501549999998133,['c'],0,right,['9'],5,0.431966999999986,,,25,18,Man,Rechts,1,
,xotask,xotask,dotcolour,32,0,32,332,training,positivefb,97,easy,5,0.699911499999871,['n'],1,right,['9'],5,0.2986398000002737,,,25,18,Man,Rechts,1,
,xotask,xotask,dotcolour,33,0,33,333,training,positivefb,45,hard,50,0.8507307999998375,['n'],0,left,['8'],4,0.572744000000057,,,25,18,Man,Rechts,1,
,xotask,xotask,dotcolour,34,0,34,334,training,positivefb,95,average,64,0.8002515000002859,['c'],1,left,['9'],5,0.4301759999998467,,,25,18,Man,Rechts,1,
,xotask,xotask,dotcolour,35,0,35,335,training,positivefb,96,hard,27,0.8003281000001152,['n'],1,right,['9'],5,0.541258199999902,,,25,18,Man,Rechts,1,
,xotask,xotask,dotcolour,36,0,36,336,training,positivefb,89,average,64,0.6328530000000683,['c'],1,left,['9'],5,0.46273489999975936,,,25,18,Man,Rechts,1,
,xotask,xotask,dotcolour,37,0,37,337,training,positivefb,91,average,64,0.7668304000003445,['c'],1,left,['9'],5,0.389923600000202,,,25,18,Man,Rechts,1,
,xotask,xotask,dotcolour,38,0,38,338,training,positivefb,82,hard,28,0.8174728999997569,['n'],1,right,['8'],4,0.5259646000004068,,,25,18,Man,Rechts,1,
,xotask,xotask,dotcolour,39,0,39,339,training,positivefb,96,average,62,0.6510483000001841,['c'],1,left,['9'],5,0.37532939999982773,,,25,18,Man,Rechts,1,
,xotask,xotask,dotcolour,40,0,40,340,training,positivefb,85,hard,25,1.6329531999999745,['c'],0,right,['3'],3,0.4064981000001353,,,25,18,Man,Rechts,1,
,xotask,xotask,dotcolour,41,0,41,341,training,positivefb,94,hard,50,1.1505956000000879,['c'],1,left,['9'],5,0.5606923999998799,,,25,18,Man,Rechts,1,
,xotask,xotask,dotcolour,42,0,42,342,training,positivefb,74,average,19,1.0346792000000278,['n'],1,right,['9'],5,0.43293569999968895,,,25,18,Man,Rechts,1,
,xotask,xotask,dotcolour,43,0,43,343,training,positivefb,90,easy,74,0.6499305000002096,['c'],1,left,['9'],5,0.28606570000010834,,,25,18,Man,Rechts,1,
,xotask,xotask,dotcolour,44,0,44,344,training,positivefb,95,hard,29,0.700482700000066,['n'],1,right,['9'],5,0.27079070000036154,,,25,18,Man,Rechts,1,
,xotask,xotask,dotcolour,45,0,45,345,training,positivefb,97,easy,7,0.7995240000000194,['n'],1,right,['9'],5,0.29992429999992964,,,25,18,Man,Rechts,1,
,xotask,xotask,dotcolour,46,0,46,346,training,positivefb,90,hard,25,0.8166805999999269,['c'],0,right,['9'],5,0.2310406999999941,,,25,18,Man,Rechts,1,
,xotask,xotask,dotcolour,47,0,47,347,training,positivefb,70,hard,53,1.6331112000002577,['c'],1,left,['8'],4,0.4686664999999266,,,25,18,Man,Rechts,1,
,xotask,xotask,dotcolour,48,0,48,348,training,positivefb,95,average,61,0.7000899999998182,['c'],1,left,['9'],5,0.3498607000001357,,,25,18,Man,Rechts,1,
,xotask,xotask,dotcolour,49,0,49,349,training,positivefb,35,hard,51,1.4498459999999795,['n'],0,left,['1'],1,0.822396299999582,,,25,18,Man,Rechts,1,
,xotask,xotask,dotcolour,50,0,50,350,training,positivefb,98,easy,6,0.6669470000001638,['n'],1,right,['0'],6,0.3471008999999867,,,25,18,Man,Rechts,1,
,xotask,xotask,dotcolour,51,0,51,351,training,positivefb,52,hard,52,1.383327300000019,['n'],0,left,['9'],5,0.5584535000002688,,,25,18,Man,Rechts,1,
,xotask,xotask,dotcolour,52,0,52,352,training,positivefb,90,average,16,0.617175099999713,['n'],1,right,['0'],6,0.303896899999927,,,25,18,Man,Rechts,1,
,xotask,xotask,dotcolour,53,0,53,353,training,positivefb,85,hard,28,0.6159066000000166,['n'],1,right,['0'],6,0.3072052000002259,,,25,18,Man,Rechts,1,
,xotask,xotask,dotcolour,54,0,54,354,training,positivefb,91,hard,50,0.8510261999999784,['n'],0,left,['9'],5,0.2934635999999955,,,25,18,Man,Rechts,1,
,xotask,xotask,dotcolour,55,0,55,355,training,positivefb,84,average,17,0.817634999999882,['n'],1,right,['9'],5,0.23307280000017272,,,25,18,Man,Rechts,1,
,xotask,xotask,dotcolour,56,0,56,356,training,positivefb,99,easy,73,0.6677122000000963,['c'],1,left,['9'],5,0.285207100000207,,,25,18,Man,Rechts,1,
,xotask,xotask,dotcolour,57,0,57,357,training,positivefb,96,easy,71,0.5666814999999588,['c'],1,left,['9'],5,0.2271496999996998,,,25,18,Man,Rechts,1,
,xotask,xotask,dotcolour,58,0,58,358,training,positivefb,99,hard,51,0.5495362999999998,['c'],1,left,['9'],5,0.1645754000001034,,,25,18,Man,Rechts,1,
,xotask,xotask,dotcolour,59,0,59,359,training,positivefb,97,average,18,0.7339105000000927,['n'],1,right,['9'],5,0.2571880999998939,,,25,18,Man,Rechts,1,
,xotask,xotask,dotcolour,0,1,60,360,training,positivefb,92,hard,52,0.7177440000000388,['n'],0,left,['9'],5,0.1818889000001036,,,25,18,Man,Rechts,1,
,xotask,xotask,dotcolour,1,1,61,361,training,positivefb,79,easy,72,0.6339302000001226,['c'],1,left,['9'],5,0.2931740999997601,,,25,18,Man,Rechts,1,
,xotask,xotask,dotcolour,2,1,62,362,training,positivefb,98,average,15,1.1011931999996705,['n'],1,right,['9'],5,0.678126699999666,,,25,18,Man,Rechts,1,
,xotask,xotask,dotcolour,3,1,63,363,training,positivefb,95,hard,27,0.5505154000002221,['n'],1,right,['9'],5,0.34844650000013644,,,25,18,Man,Rechts,1,
,xotask,xotask,dotcolour,4,1,64,364,training,positivefb,99,easy,71,0.5823497999999745,['c'],1,left,['9'],5,0.2795683999997891,,,25,18,Man,Rechts,1,
,xotask,xotask,dotcolour,5,1,65,365,training,positivefb,94,easy,7,0.5327362000002722,['n'],1,right,['9'],5,0.37502420000009806,,,25,18,Man,Rechts,1,
,xotask,xotask,dotcolour,6,1,66,366,training,positivefb,99,average,60,0.45045640000034837,['c'],1,left,['9'],5,0.23015329999998357,,,25,18,Man,Rechts,1,
,xotask,xotask,dotcolour,7,1,67,367,training,positivefb,93,average,18,0.39987120000023424,['n'],1,right,['9'],5,0.28617110000004686,,,25,18,Man,Rechts,1,
,xotask,xotask,dotcolour,8,1,68,368,training,positivefb,98,easy,7,0.3499256999998579,['n'],1,right,['0'],6,0.5002003999998124,,,25,18,Man,Rechts,1,
,xotask,xotask,dotcolour,9,1,69,369,training,positivefb,96,hard,54,0.5156669000002694,['c'],1,left,['9'],5,0.2597982000002048,,,25,18,Man,Rechts,1,
,xotask,xotask,dotcolour,10,1,70,370,training,positivefb,92,average,19,0.784052999999858,['n'],1,right,['9'],5,0.4106292999999823,,,25,18,Man,Rechts,1,
,xotask,xotask,dotcolour,11,1,71,371,training,positivefb,98,average,60,0.5169855999997708,['c'],1,left,['9'],5,0.20592900000019654,,,25,18,Man,Rechts,1,
,xotask,xotask,dotcolour,12,1,72,372,training,positivefb,92,average,18,0.5830396999999721,['c'],0,right,['9'],5,0.33412029999999504,,,25,18,Man,Rechts,1,
,xotask,xotask,dotcolour,13,1,73,373,training,positivefb,74,easy,73,0.799271200000021,['c'],1,left,['0'],6,0.2967917999999372,,,25,18,Man,Rechts,1,
,xotask,xotask,dotcolour,14,1,74,374,training,positivefb,92,easy,8,0.5991927999998552,['n'],1,right,['8'],4,0.5098176000001331,,,25,18,Man,Rechts,1,
,xotask,xotask,dotcolour,15,1,75,375,training,positivefb,88,average,62,0.8832012000002578,['c'],1,left,['9'],5,0.3181798999999046,,,25,18,Man,Rechts,1,
,xotask,xotask,dotcolour,16,1,76,376,training,positivefb,46,average,61,0.5500894000001608,['n'],0,left,['1'],1,1.8033946999998989,,,25,18,Man,Rechts,1,
,xotask,xotask,dotcolour,17,1,77,377,training,positivefb,86,hard,28,0.6845425999999861,['n'],1,right,['9'],5,0.27234339999995427,,,25,18,Man,Rechts,1,
,xotask,xotask,dotcolour,18,1,78,378,training,positivefb,98,easy,73,0.7168303999997079,['c'],1,left,['9'],5,0.33618079999996553,,,25,18,Man,Rechts,1,
,xotask,xotask,dotcolour,19,1,79,379,training,positivefb,83,hard,29,1.567122400000244,['n'],1,right,['0'],6,0.36477249999961714,,,25,18,Man,Rechts,1,
,xotask,xotask,dotcolour,20,1,80,380,training,positivefb,90,hard,51,0.633692500000052,['c'],1,left,['9'],5,0.23602189999974144,,,25,18,Man,Rechts,1,
,xotask,xotask,dotcolour,21,1,81,381,training,positivefb,97,average,63,0.5831582000000708,['c'],1,left,['9'],5,0.23585069999990083,,,25,18,Man,Rechts,1,
,xotask,xotask,dotcolour,22,1,82,382,training,positivefb,99,easy,73,0.5664059000000634,['c'],1,left,['9'],5,0.260252600000058,,,25,18,Man,Rechts,1,
,xotask,xotask,dotcolour,23,1,83,383,training,positivefb,91,easy,74,0.5003962999999203,['c'],1,left,['0'],6,0.4136232000000746,,,25,18,Man,Rechts,1,
,xotask,xotask,dotcolour,24,1,84,384,training,positivefb,81,average,18,0.5336891000001742,['n'],1,right,['9'],5,0.2410850000001119,,,25,18,Man,Rechts,1,
,xotask,xotask,dotcolour,25,1,85,385,training,positivefb,85,average,62,0.449733599999945,['c'],1,left,['0'],6,0.32520000000022264,,,25,18,Man,Rechts,1,
,xotask,xotask,dotcolour,26,1,86,386,training,positivefb,95,hard,53,0.5168530000000828,['c'],1,left,['0'],6,0.26794810000001235,,,25,18,Man,Rechts,1,
,xotask,xotask,dotcolour,27,1,87,387,training,positivefb,96,hard,25,0.45042359999979453,['n'],1,right,['9'],5,0.22326269999985016,,,25,18,Man,Rechts,1,
,xotask,xotask,dotcolour,28,1,88,388,training,positivefb,94,hard,50,0.8007990000000973,['c'],1,left,['9'],5,0.25443529999984094,,,25,18,Man,Rechts,1,
,xotask,xotask,dotcolour,29,1,89,389,training,positivefb,85,hard,28,1.0663147999998728,['n'],1,right,['9'],5,0.2900123999997959,,,25,18,Man,Rechts,1,
,xotask,xotask,dotcolour,30,1,90,390,training,positivefb,97,easy,5,0.5507705999998507,['n'],1,right,['9'],5,0.25639719999981025,,,25,18,Man,Rechts,1,
,xotask,xotask,dotcolour,31,1,91,391,training,positivefb,72,average,16,0.5657636000000821,['c'],0,right,['1'],1,0.8877143000004253,,,25,18,Man,Rechts,1,
,xotask,xotask,dotcolour,32,1,92,392,training,positivefb,95,easy,9,0.684190800000124,['n'],1,right,['9'],5,0.20964180000009947,,,25,18,Man,Rechts,1,
,xotask,xotask,dotcolour,33,1,93,393,training,positivefb,83,easy,74,0.5173024000000623,['c'],1,left,['9'],5,0.2684309999999641,,,25,18,Man,Rechts,1,
,xotask,xotask,dotcolour,34,1,94,394,training,positivefb,73,easy,8,0.6829981000000771,['c'],0,right,['0'],6,0.2063321000000542,,,25,18,Man,Rechts,1,
,xotask,xotask,dotcolour,35,1,95,395,training,positivefb,85,hard,25,1.0504555000002256,['n'],1,right,['0'],6,0.42050190000009025,,,25,18,Man,Rechts,1,
,xotask,xotask,dotcolour,36,1,96,396,training,positivefb,95,hard,29,0.6828309000002264,['n'],1,right,['0'],6,0.3044694000000163,,,25,18,Man,Rechts,1,
,xotask,xotask,dotcolour,37,1,97,397,training,positivefb,95,easy,72,0.717083300000013,['c'],1,left,['9'],5,0.2473955999998907,,,25,18,Man,Rechts,1,
,xotask,xotask,dotcolour,38,1,98,398,training,positivefb,97,easy,9,0.8008036000001084,['n'],1,right,['9'],5,0.349378699999761,,,25,18,Man,Rechts,1,
,xotask,xotask,dotcolour,39,1,99,399,training,positivefb,64,average,60,1.0007540999999947,['c'],1,left,['9'],5,0.344079899999997,,,25,18,Man,Rechts,1,
,xotask,xotask,dotcolour,40,1,100,400,training,positivefb,97,average,17,0.5502495000000636,['n'],1,right,['9'],5,0.24408870000024763,,,25,18,Man,Rechts,1,
,xotask,xotask,dotcolour,41,1,101,401,training,positivefb,74,hard,51,0.5836343999999372,['c'],1,left,['9'],5,0.29146750000018073,,,25,18,Man,Rechts,1,
,xotask,xotask,dotcolour,42,1,102,402,training,positivefb,95,average,18,0.3835063999999875,['n'],1,right,['9'],5,0.24951140000030136,,,25,18,Man,Rechts,1,
,xotask,xotask,dotcolour,43,1,103,403,training,positivefb,87,hard,51,1.0838562000003549,['c'],1,left,['9'],5,0.059325799999896844,,,25,18,Man,Rechts,1,
,xotask,xotask,dotcolour,44,1,104,404,training,positivefb,95,hard,53,0.7495490000001155,['c'],1,left,['9'],5,0.2520019000003231,,,25,18,Man,Rechts,1,
,xotask,xotask,dotcolour,45,1,105,405,training,positivefb,99,hard,27,0.8657502000000932,['n'],1,right,['9'],5,0.24689600000010614,,,25,18,Man,Rechts,1,
,xotask,xotask,dotcolour,46,1,106,406,training,positivefb,91,hard,52,0.7838257000003068,['c'],1,left,['9'],5,0.26266960000020845,,,25,18,Man,Rechts,1,
,xotask,xotask,dotcolour,47,1,107,407,training,positivefb,95,hard,52,1.0007398000002468,['c'],1,left,['9'],5,0.18828730000041105,,,25,18,Man,Rechts,1,
,xotask,xotask,dotcolour,48,1,108,408,training,positivefb,99,average,61,0.7340917999999874,['c'],1,left,['9'],5,0.20808589999978722,,,25,18,Man,Rechts,1,
,xotask,xotask,dotcolour,49,1,109,409,training,positivefb,97,easy,71,0.6005546999999751,['c'],1,left,['0'],6,0.2713018999997985,,,25,18,Man,Rechts,1,
,xotask,xotask,dotcolour,50,1,110,410,training,positivefb,70,hard,26,1.5659833999998227,['n'],1,right,['9'],5,0.36678889999984676,,,25,18,Man,Rechts,1,
,xotask,xotask,dotcolour,51,1,111,411,training,positivefb,92,easy,9,0.850433399999929,['n'],1,right,['9'],5,0.28557649999993373,,,25,18,Man,Rechts,1,
,xotask,xotask,dotcolour,52,1,112,412,training,positivefb,94,average,62,0.8500262000002294,['c'],1,left,['9'],5,0.5925058999996509,,,25,18,Man,Rechts,1,
,xotask,xotask,dotcolour,53,1,113,413,training,positivefb,81,easy,5,0.6670758000000205,['n'],1,right,['9'],5,0.27065810000021884,,,25,18,Man,Rechts,1,
,xotask,xotask,dotcolour,54,1,114,414,training,positivefb,72,average,18,1.4830563000000438,['n'],1,right,['9'],5,0.8168762999998762,,,25,18,Man,Rechts,1,
,xotask,xotask,dotcolour,55,1,115,415,training,positivefb,93,easy,5,0.9175480000003517,['n'],1,right,['0'],6,0.32302549999985786,,,25,18,Man,Rechts,1,
,xotask,xotask,dotcolour,56,1,116,416,training,positivefb,86,hard,28,0.9511545000000297,['n'],1,right,['0'],6,0.19988960000000588,,,25,18,Man,Rechts,1,
,xotask,xotask,dotcolour,57,1,117,417,training,positivefb,90,average,61,0.9168104999998832,['c'],1,left,['9'],5,0.16369590000022072,,,25,18,Man,Rechts,1,
,xotask,xotask,dotcolour,58,1,118,418,training,positivefb,98,average,19,1.067273799999839,['n'],1,right,['0'],6,0.38695800000004965,,,25,18,Man,Rechts,1,
,xotask,xotask,dotcolour,59,1,119,419,training,positivefb,93,easy,71,0.6006277000001319,['c'],1,left,['9'],5,0.26724930000000313,,,25,18,Man,Rechts,1,
,xotask,xotask,dotcolour,0,2,120,420,main,positivefb,-99,easy,8,0.7346049000002495,['n'],1,right,['9'],5,0.3066163999997116,,,25,18,Man,Rechts,1,
,xotask,xotask,dotcolour,1,2,121,421,main,positivefb,-99,easy,5,0.701376099999834,['n'],1,right,['9'],5,0.2105268000000251,,,25,18,Man,Rechts,1,
,xotask,xotask,dotcolour,2,2,122,422,main,positivefb,-99,hard,29,0.8013160000000425,['n'],1,right,['9'],5,0.25995499999999083,,,25,18,Man,Rechts,1,
,xotask,xotask,dotcolour,3,2,123,423,main,positivefb,-99,hard,26,0.5832430000000386,['n'],1,right,['0'],6,0.18698099999983242,,,25,18,Man,Rechts,1,
,xotask,xotask,dotcolour,4,2,124,424,main,positivefb,-99,easy,9,0.5846830000000409,['n'],1,right,['0'],6,0.22043900000016947,,,25,18,Man,Rechts,1,
,xotask,xotask,dotcolour,5,2,125,425,main,positivefb,-99,average,61,1.2011567999998078,['c'],1,left,['8'],4,0.42095030000018596,,,25,18,Man,Rechts,1,
,xotask,xotask,dotcolour,6,2,126,426,main,positivefb,-99,hard,26,0.7678722000000562,['n'],1,right,['9'],5,0.25423449999971126,,,25,18,Man,Rechts,1,
,xotask,xotask,dotcolour,7,2,127,427,main,positivefb,-99,hard,50,0.6506030000000464,['c'],1,left,['0'],6,0.3066542000001391,,,25,18,Man,Rechts,1,
,xotask,xotask,dotcolour,8,2,128,428,main,positivefb,-99,hard,25,1.3842976999999337,['n'],1,right,['8'],4,0.20872099999996863,,,25,18,Man,Rechts,1,
,xotask,xotask,dotcolour,9,2,129,429,main,positivefb,-99,easy,72,0.7010199999999713,['c'],1,left,['9'],5,0.2685050999998566,,,25,18,Man,Rechts,1,
,xotask,xotask,dotcolour,10,2,130,430,main,positivefb,-99,average,19,0.7012562999998408,['n'],1,right,['9'],5,0.3672388999998475,,,25,18,Man,Rechts,1,
,xotask,xotask,dotcolour,11,2,131,431,main,positivefb,-99,easy,7,0.7000610999998571,['n'],1,right,['0'],6,0.18072750000010274,,,25,18,Man,Rechts,1,
,xotask,xotask,dotcolour,12,2,132,432,main,positivefb,-99,easy,74,0.834052299999712,['c'],1,left,['0'],6,0.26945260000002236,,,25,18,Man,Rechts,1,
,xotask,xotask,dotcolour,13,2,133,433,main,positivefb,-99,average,62,0.6007113000000572,['c'],1,left,['0'],6,0.33922450000000026,,,25,18,Man,Rechts,1,
,xotask,xotask,dotcolour,14,2,134,434,main,positivefb,-99,hard,54,1.1675559999998768,['c'],1,left,['8'],4,0.22407780000003186,,,25,18,Man,Rechts,1,
,xotask,xotask,dotcolour,15,2,135,435,main,positivefb,-99,easy,74,0.5846572999998898,['c'],1,left,['8'],4,0.31319540000004054,,,25,18,Man,Rechts,1,
,xotask,xotask,dotcolour,16,2,136,436,main,positivefb,-99,average,62,1.716045099999974,['c'],1,left,['9'],5,0.42434510000020964,,,25,18,Man,Rechts,1,
,xotask,xotask,dotcolour,17,2,137,437,main,positivefb,-99,hard,28,0.9011402999999518,['n'],1,right,['0'],6,0.31666400000040085,,,25,18,Man,Rechts,1,
,xotask,xotask,dotcolour,18,2,138,438,main,positivefb,-99,hard,51,0.6173966000001201,['n'],0,left,['0'],6,0.22408889999996973,,,25,18,Man,Rechts,1,
,xotask,xotask,dotcolour,19,2,139,439,main,positivefb,-99,easy,6,0.6346428000001652,['n'],1,right,['0'],6,0.15881090000038967,,,25,18,Man,Rechts,1,
,xotask,xotask,dotcolour,20,2,140,440,main,positivefb,-99,average,16,0.6507642000001397,['n'],1,right,['0'],6,0.36746180000000095,,,25,18,Man,Rechts,1,
,xotask,xotask,dotcolour,21,2,141,441,main,positivefb,-99,easy,74,0.7350884999996197,['c'],1,left,['8'],4,0.5478115999999318,,,25,18,Man,Rechts,1,
,xotask,xotask,dotcolour,22,2,142,442,main,positivefb,-99,easy,73,0.8020003000001452,['c'],1,left,['8'],4,0.3028641000000789,,,25,18,Man,Rechts,1,
,xotask,xotask,dotcolour,23,2,143,443,main,positivefb,-99,average,18,0.5839994000002662,['n'],1,right,['9'],5,0.4443303000002743,,,25,18,Man,Rechts,1,
,xotask,xotask,dotcolour,24,2,144,444,main,positivefb,-99,hard,28,0.6008683999998539,['n'],1,right,['9'],5,0.37940300000036586,,,25,18,Man,Rechts,1,
,xotask,xotask,dotcolour,25,2,145,445,main,positivefb,-99,average,63,0.6006641999997555,['c'],1,left,['8'],4,0.38911840000037046,,,25,18,Man,Rechts,1,
,xotask,xotask,dotcolour,26,2,146,446,main,positivefb,-99,hard,54,0.7350722999999562,['c'],1,left,['8'],4,0.29780899999968824,,,25,18,Man,Rechts,1,
,xotask,xotask,dotcolour,27,2,147,447,main,positivefb,-99,hard,50,0.9341856999999436,['c'],1,left,['9'],5,0.5140897999999652,,,25,18,Man,Rechts,1,
,xotask,xotask,dotcolour,28,2,148,448,main,positivefb,-99,easy,73,0.6513746000000538,['c'],1,left,['0'],6,0.26807149999967805,,,25,18,Man,Rechts,1,
,xotask,xotask,dotcolour,29,2,149,449,main,positivefb,-99,hard,26,0.6515982000000804,['n'],1,right,['9'],5,0.32781359999989945,,,25,18,Man,Rechts,1,
,xotask,xotask,dotcolour,30,2,150,450,main,positivefb,-99,easy,71,0.6171033999999054,['n'],0,left,['9'],5,0.47545590000027005,,,25,18,Man,Rechts,1,
,xotask,xotask,dotcolour,31,2,151,451,main,positivefb,-99,average,19,1.9503622000001997,['n'],1,right,['8'],4,1.0361665999998877,,,25,18,Man,Rechts,1,
,xotask,xotask,dotcolour,32,2,152,452,main,positivefb,-99,easy,5,0.7679763999999523,['n'],1,right,['0'],6,0.2763003000000026,,,25,18,Man,Rechts,1,
,xotask,xotask,dotcolour,33,2,153,453,main,positivefb,-99,average,62,0.851054700000077,['c'],1,left,['9'],5,0.34379930000022796,,,25,18,Man,Rechts,1,
,xotask,xotask,dotcolour,34,2,154,454,main,positivefb,-99,hard,28,0.6512084000000868,['n'],1,right,['9'],5,0.4256623999999647,,,25,18,Man,Rechts,1,
,xotask,xotask,dotcolour,35,2,155,455,main,positivefb,-99,hard,52,0.8177700000001096,['c'],1,left,['9'],5,0.35251190000008137,,,25,18,Man,Rechts,1,
,xotask,xotask,dotcolour,36,2,156,456,main,positivefb,-99,average,61,0.7011272000004283,['c'],1,left,['9'],5,0.5594568000001345,,,25,18,Man,Rechts,1,
,xotask,xotask,dotcolour,37,2,157,457,main,positivefb,-99,hard,53,0.6504374999999527,['c'],1,left,['0'],6,0.2400870000001305,,,25,18,Man,Rechts,1,
,xotask,xotask,dotcolour,38,2,158,458,main,positivefb,-99,average,16,0.7167912999998407,['n'],1,right,['0'],6,0.34706139999980223,,,25,18,Man,Rechts,1,
,xotask,xotask,dotcolour,39,2,159,459,main,positivefb,-99,hard,50,1.05046399999992,['c'],1,left,['8'],4,0.32418539999980567,,,25,18,Man,Rechts,1,
,xotask,xotask,dotcolour,40,2,160,460,main,positivefb,-99,average,18,2.818544799999927,['n'],1,right,['8'],4,0.2876197000000502,,,25,18,Man,Rechts,1,
,xotask,xotask,dotcolour,41,2,161,461,main,positivefb,-99,average,18,0.7174202999999579,['n'],1,right,['8'],4,0.9357515000001513,,,25,18,Man,Rechts,1,
,xotask,xotask,dotcolour,42,2,162,462,main,positivefb,-99,average,17,0.61695329999975,['n'],1,right,['9'],5,1.6270842999997512,,,25,18,Man,Rechts,1,
,xotask,xotask,dotcolour,43,2,163,463,main,positivefb,-99,easy,6,0.5346416999996109,['n'],1,right,['0'],6,0.16570580000006885,,,25,18,Man,Rechts,1,
,xotask,xotask,dotcolour,44,2,164,464,main,positivefb,-99,average,17,0.5511303000002954,['n'],1,right,['0'],6,0.13776169999982812,,,25,18,Man,Rechts,1,
,xotask,xotask,dotcolour,45,2,165,465,main,positivefb,-99,hard,52,1.0339807000000292,['c'],1,left,['8'],4,3.995997299999999,,,25,18,Man,Rechts,1,
,xotask,xotask,dotcolour,46,2,166,466,main,positivefb,-99,easy,5,1.768316700000014,['n'],1,right,['9'],5,0.7265065999999933,,,25,18,Man,Rechts,1,
,xotask,xotask,dotcolour,47,2,167,467,main,positivefb,-99,easy,70,0.8179835999999341,['c'],1,left,['9'],5,0.3455298999997467,,,25,18,Man,Rechts,1,
,xotask,xotask,dotcolour,48,2,168,468,main,positivefb,-99,hard,29,1.6338621999998395,['c'],0,right,['8'],4,0.3714361999996072,,,25,18,Man,Rechts,1,
,xotask,xotask,dotcolour,49,2,169,469,main,positivefb,-99,easy,8,0.6349993000003451,['n'],1,right,['0'],6,0.2835888999998133,,,25,18,Man,Rechts,1,
,xotask,xotask,dotcolour,50,2,170,470,main,positivefb,-99,easy,74,1.2511200999997527,['c'],1,left,['9'],5,0.38364380000029996,,,25,18,Man,Rechts,1,
,xotask,xotask,dotcolour,51,2,171,471,main,positivefb,-99,easy,72,1.7840908000002855,['n'],0,left,['3'],3,0.6414256999996724,,,25,18,Man,Rechts,1,
,xotask,xotask,dotcolour,52,2,172,472,main,positivefb,-99,easy,8,0.750789000000168,['n'],1,right,['9'],5,0.2825597999999445,,,25,18,Man,Rechts,1,
,xotask,xotask,dotcolour,53,2,173,473,main,positivefb,-99,average,62,2.884581100000105,['c'],1,left,['8'],4,0.6207766000002266,,,25,18,Man,Rechts,1,
,xotask,xotask,dotcolour,54,2,174,474,main,positivefb,-99,hard,25,1.0339736000000812,['n'],1,right,['9'],5,0.4993902999999591,,,25,18,Man,Rechts,1,
,xotask,xotask,dotcolour,55,2,175,475,main,positivefb,-99,average,60,1.4514358000001266,['c'],1,left,['8'],4,7.5342163000000255,,,25,18,Man,Rechts,1,
,xotask,xotask,dotcolour,56,2,176,476,main,positivefb,-99,average,61,0.900978799999848,['c'],1,left,['9'],5,0.3411490999997113,,,25,18,Man,Rechts,1,
,xotask,xotask,dotcolour,57,2,177,477,main,positivefb,-99,average,64,0.9329662000000098,['c'],1,left,['9'],5,0.4108698000000004,,,25,18,Man,Rechts,1,
,xotask,xotask,dotcolour,58,2,178,478,main,positivefb,-99,hard,50,0.7519487999998091,['c'],1,left,['9'],5,0.35832479999999123,,,25,18,Man,Rechts,1,
,xotask,xotask,dotcolour,59,2,179,479,main,positivefb,-99,average,17,1.101289899999756,['n'],1,right,['9'],5,0.340431599999647,,,25,18,Man,Rechts,1,
,xotask,xotask,dotcolour,0,3,180,480,main,positivefb,-99,hard,28,0.8333886999998867,['n'],1,right,['8'],4,0.5589408000000731,,,25,18,Man,Rechts,1,
,xotask,xotask,dotcolour,1,3,181,481,main,positivefb,-99,easy,6,0.7671259999997346,['n'],1,right,['9'],5,0.2669040999999197,,,25,18,Man,Rechts,1,
,xotask,xotask,dotcolour,2,3,182,482,main,positivefb,-99,hard,50,1.0494830999996339,['c'],1,left,['8'],4,0.6878089000001637,,,25,18,Man,Rechts,1,
,xotask,xotask,dotcolour,3,3,183,483,main,positivefb,-99,hard,51,0.7506000000003041,['c'],1,left,['9'],5,0.383189399999992,,,25,18,Man,Rechts,1,
,xotask,xotask,dotcolour,4,3,184,484,main,positivefb,-99,average,17,0.8008900999998332,['c'],0,right,['0'],6,0.43186299999979383,,,25,18,Man,Rechts,1,
,xotask,xotask,dotcolour,5,3,185,485,main,positivefb,-99,average,62,0.8675813999998354,['c'],1,left,['0'],6,0.18038930000011533,,,25,18,Man,Rechts,1,
,xotask,xotask,dotcolour,6,3,186,486,main,positivefb,-99,hard,54,0.8339900999999372,['c'],1,left,['9'],5,0.34083400000008623,,,25,18,Man,Rechts,1,
,xotask,xotask,dotcolour,7,3,187,487,main,positivefb,-99,average,18,0.6348758999997699,['n'],1,right,['9'],5,0.3829743999999664,,,25,18,Man,Rechts,1,
,xotask,xotask,dotcolour,8,3,188,488,main,positivefb,-99,average,63,0.7012902999999824,['c'],1,left,['9'],5,0.6368742000004204,,,25,18,Man,Rechts,1,
,xotask,xotask,dotcolour,9,3,189,489,main,positivefb,-99,average,61,0.7345821999997497,['c'],1,left,['9'],5,1.4709077999996225,,,25,18,Man,Rechts,1,
,xotask,xotask,dotcolour,10,3,190,490,main,positivefb,-99,easy,7,0.6336936999996396,['n'],1,right,['0'],6,0.47473989999980404,,,25,18,Man,Rechts,1,
,xotask,xotask,dotcolour,11,3,191,491,main,positivefb,-99,easy,73,0.8010654999998224,['c'],1,left,['8'],4,0.7848226999999497,,,25,18,Man,Rechts,1,
,xotask,xotask,dotcolour,12,3,192,492,main,positivefb,-99,easy,73,0.784382800000003,['c'],1,left,['8'],4,0.37120420000019294,,,25,18,Man,Rechts,1,
,xotask,xotask,dotcolour,13,3,193,493,main,positivefb,-99,easy,70,0.6844405000001643,['c'],1,left,['9'],5,0.1938996999997471,,,25,18,Man,Rechts,1,
,xotask,xotask,dotcolour,14,3,194,494,main,positivefb,-99,average,15,0.7350937999999587,['n'],1,right,['9'],5,0.27799389999972846,,,25,18,Man,Rechts,1,
,xotask,xotask,dotcolour,15,3,195,495,main,positivefb,-99,hard,52,1.8515590000001794,['c'],1,left,['8'],4,0.5939586999998028,,,25,18,Man,Rechts,1,
,xotask,xotask,dotcolour,16,3,196,496,main,positivefb,-99,average,15,0.7170826999999917,['n'],1,right,['9'],5,0.40649729999995543,,,25,18,Man,Rechts,1,
,xotask,xotask,dotcolour,17,3,197,497,main,positivefb,-99,average,15,1.60069969999995,['n'],1,right,['9'],5,0.4712296999996397,,,25,18,Man,Rechts,1,
,xotask,xotask,dotcolour,18,3,198,498,main,positivefb,-99,hard,25,1.9501625000002605,['n'],1,right,['8'],4,0.39902429999983724,,,25,18,Man,Rechts,1,
,xotask,xotask,dotcolour,19,3,199,499,main,positivefb,-99,easy,5,0.7340417000000343,['n'],1,right,['9'],5,0.2823692000001756,,,25,18,Man,Rechts,1,
,xotask,xotask,dotcolour,20,3,200,500,main,positivefb,-99,easy,72,1.2497108999996271,['c'],1,left,['2'],2,0.9502175000002353,,,25,18,Man,Rechts,1,
,xotask,xotask,dotcolour,21,3,201,501,main,positivefb,-99,hard,25,1.417710900000202,['n'],1,right,['9'],5,0.472298800000317,,,25,18,Man,Rechts,1,
,xotask,xotask,dotcolour,22,3,202,502,main,positivefb,-99,easy,72,1.0181170000000748,['c'],1,left,['9'],5,0.3248897000003126,,,25,18,Man,Rechts,1,
,xotask,xotask,dotcolour,23,3,203,503,main,positivefb,-99,average,18,1.0679046000000199,['n'],1,right,['9'],5,0.5265862000001107,,,25,18,Man,Rechts,1,
,xotask,xotask,dotcolour,24,3,204,504,main,positivefb,-99,hard,50,0.9673613999998452,['c'],1,left,['8'],4,0.6038109000000986,,,25,18,Man,Rechts,1,
,xotask,xotask,dotcolour,25,3,205,505,main,positivefb,-99,hard,27,1.4680075999999644,['n'],1,right,['9'],5,0.7694446000000426,,,25,18,Man,Rechts,1,
,xotask,xotask,dotcolour,26,3,206,506,main,positivefb,-99,hard,52,1.5846510000001217,['c'],1,left,['8'],4,0.42059029999973063,,,25,18,Man,Rechts,1,
,xotask,xotask,dotcolour,27,3,207,507,main,positivefb,-99,hard,54,3.317957100000058,['n'],0,left,['3'],3,0.7283349999997881,,,25,18,Man,Rechts,1,
,xotask,xotask,dotcolour,28,3,208,508,main,positivefb,-99,hard,53,1.2680680000003122,['c'],1,left,['9'],5,0.3531588999999258,,,25,18,Man,Rechts,1,
,xotask,xotask,dotcolour,29,3,209,509,main,positivefb,-99,average,61,1.0015098999997463,['c'],1,left,['9'],5,0.47588390000009895,,,25,18,Man,Rechts,1,
,xotask,xotask,dotcolour,30,3,210,510,main,positivefb,-99,average,60,0.6846582999996826,['c'],1,left,['9'],5,0.3187636999996357,,,25,18,Man,Rechts,1,
,xotask,xotask,dotcolour,31,3,211,511,main,positivefb,-99,average,63,0.6849474999999074,['c'],1,left,['0'],6,0.5429189000001315,,,25,18,Man,Rechts,1,
,xotask,xotask,dotcolour,32,3,212,512,main,positivefb,-99,easy,5,0.5669887000003655,['n'],1,right,['9'],5,0.43597700000009354,,,25,18,Man,Rechts,1,
,xotask,xotask,dotcolour,33,3,213,513,main,positivefb,-99,hard,51,1.3006735999997545,['c'],1,left,['9'],5,0.550684999999703,,,25,18,Man,Rechts,1,
,xotask,xotask,dotcolour,34,3,214,514,main,positivefb,-99,hard,29,1.0169984999997723,['c'],0,right,['9'],5,0.46504989999993995,,,25,18,Man,Rechts,1,
,xotask,xotask,dotcolour,35,3,215,515,main,positivefb,-99,easy,5,0.9841796000000613,['n'],1,right,['9'],5,0.4875398999997742,,,25,18,Man,Rechts,1,
,xotask,xotask,dotcolour,36,3,216,516,main,positivefb,-99,average,18,0.9347625000000335,['n'],1,right,['9'],5,0.34350979999999254,,,25,18,Man,Rechts,1,
,xotask,xotask,dotcolour,37,3,217,517,main,positivefb,-99,easy,6,2.2007988999998815,['n'],1,right,['8'],4,0.6988341000001128,,,25,18,Man,Rechts,1,
,xotask,xotask,dotcolour,38,3,218,518,main,positivefb,-99,hard,53,1.018325399999867,['c'],1,left,['8'],4,0.9750469000000521,,,25,18,Man,Rechts,1,
,xotask,xotask,dotcolour,39,3,219,519,main,positivefb,-99,average,60,0.8674052000001211,['c'],1,left,['9'],5,0.4147067000003517,,,25,18,Man,Rechts,1,
,xotask,xotask,dotcolour,40,3,220,520,main,positivefb,-99,easy,9,0.6180391999996573,['n'],1,right,['9'],5,0.3818434000004345,,,25,18,Man,Rechts,1,
,xotask,xotask,dotcolour,41,3,221,521,main,positivefb,-99,average,19,0.6506737999998222,['n'],1,right,['0'],6,0.35718220000035217,,,25,18,Man,Rechts,1,
,xotask,xotask,dotcolour,42,3,222,522,main,positivefb,-99,hard,29,1.5508770000001277,['n'],1,right,['8'],4,0.3299145999999382,,,25,18,Man,Rechts,1,
,xotask,xotask,dotcolour,43,3,223,523,main,positivefb,-99,average,64,0.9013279000000693,['c'],1,left,['9'],5,0.37767129999974713,,,25,18,Man,Rechts,1,
,xotask,xotask,dotcolour,44,3,224,524,main,positivefb,-99,hard,28,1.1677279999998973,['c'],0,right,['1'],1,1.260775900000226,,,25,18,Man,Rechts,1,
,xotask,xotask,dotcolour,45,3,225,525,main,positivefb,-99,easy,5,0.7340156999998726,['n'],1,right,['9'],5,0.3498906999998326,,,25,18,Man,Rechts,1,
,xotask,xotask,dotcolour,46,3,226,526,main,positivefb,-99,hard,29,1.4510209999998551,['n'],1,right,['8'],4,0.5907474000000548,,,25,18,Man,Rechts,1,
,xotask,xotask,dotcolour,47,3,227,527,main,positivefb,-99,average,18,0.9667011999999886,['n'],1,right,['9'],5,1.4576444999997875,,,25,18,Man,Rechts,1,
,xotask,xotask,dotcolour,48,3,228,528,main,positivefb,-99,average,15,0.5679110000000946,['n'],1,right,['8'],4,0.8336781000002702,,,25,18,Man,Rechts,1,
,xotask,xotask,dotcolour,49,3,229,529,main,positivefb,-99,easy,74,1.483641599999828,['c'],1,left,['8'],4,0.549740699999802,,,25,18,Man,Rechts,1,
,xotask,xotask,dotcolour,50,3,230,530,main,positivefb,-99,easy,73,0.6680902000002789,['c'],1,left,['9'],5,0.34163440000020273,,,25,18,Man,Rechts,1,
,xotask,xotask,dotcolour,51,3,231,531,main,positivefb,-99,hard,27,0.7504582000001392,['n'],1,right,['9'],5,0.25852560000021185,,,25,18,Man,Rechts,1,
,xotask,xotask,dotcolour,52,3,232,532,main,positivefb,-99,easy,5,0.651221600000099,['n'],1,right,['9'],5,0.3836543000002166,,,25,18,Man,Rechts,1,
,xotask,xotask,dotcolour,53,3,233,533,main,positivefb,-99,easy,71,0.7179330999997546,['c'],1,left,['9'],5,0.37991189999956987,,,25,18,Man,Rechts,1,
,xotask,xotask,dotcolour,54,3,234,534,main,positivefb,-99,easy,74,0.7855512000000999,['c'],1,left,['9'],5,0.4389934999999241,,,25,18,Man,Rechts,1,
,xotask,xotask,dotcolour,55,3,235,535,main,positivefb,-99,average,62,0.7512558999997054,['c'],1,left,['9'],5,0.6804301999995914,,,25,18,Man,Rechts,1,
,xotask,xotask,dotcolour,56,3,236,536,main,positivefb,-99,average,60,0.5671167999998943,['c'],1,left,['0'],6,0.2716368000001239,,,25,18,Man,Rechts,1,
,xotask,xotask,dotcolour,57,3,237,537,main,positivefb,-99,easy,6,0.5352261000002727,['n'],1,right,['0'],6,0.21678909999991447,,,25,18,Man,Rechts,1,
,xotask,xotask,dotcolour,58,3,238,538,main,positivefb,-99,hard,29,0.6338573999996697,['n'],1,right,['0'],6,0.22306809999963662,,,25,18,Man,Rechts,1,
,xotask,xotask,dotcolour,59,3,239,539,main,positivefb,-99,easy,73,0.633253699999841,['c'],1,left,['0'],6,0.18965850000040518,,,25,18,Man,Rechts,1,
,xotask,xotask,dotcolour,0,4,240,540,main,positivefb,-99,easy,7,0.9829356000000189,['n'],1,right,['9'],5,0.6217921999996179,,,25,18,Man,Rechts,1,
,xotask,xotask,dotcolour,1,4,241,541,main,positivefb,-99,average,60,0.61821400000008,['c'],1,left,['9'],5,0.5169717999997374,,,25,18,Man,Rechts,1,
,xotask,xotask,dotcolour,2,4,242,542,main,positivefb,-99,hard,26,0.8345958999998402,['n'],1,right,['9'],5,0.49613710000039646,,,25,18,Man,Rechts,1,
,xotask,xotask,dotcolour,3,4,243,543,main,positivefb,-99,average,17,0.7336276000000908,['n'],1,right,['9'],5,0.4476761999999326,,,25,18,Man,Rechts,1,
,xotask,xotask,dotcolour,4,4,244,544,main,positivefb,-99,hard,53,0.850504699999874,['c'],1,left,['0'],6,0.6519578000002184,,,25,18,Man,Rechts,1,
,xotask,xotask,dotcolour,5,4,245,545,main,positivefb,-99,hard,52,1.417483700000048,['c'],1,left,['8'],4,0.37044600000035643,,,25,18,Man,Rechts,1,
,xotask,xotask,dotcolour,6,4,246,546,main,positivefb,-99,easy,73,0.9346681000001809,['c'],1,left,['0'],6,0.526752199999919,,,25,18,Man,Rechts,1,
,xotask,xotask,dotcolour,7,4,247,547,main,positivefb,-99,hard,53,1.3841176999999334,['c'],1,left,['9'],5,0.6038028999996641,,,25,18,Man,Rechts,1,
,xotask,xotask,dotcolour,8,4,248,548,main,positivefb,-99,easy,72,0.8671468000002278,['c'],1,left,['9'],5,0.3373919999999089,,,25,18,Man,Rechts,1,
,xotask,xotask,dotcolour,9,4,249,549,main,positivefb,-99,hard,28,0.9843157000000247,['n'],1,right,['9'],5,0.3656070999995791,,,25,18,Man,Rechts,1,
,xotask,xotask,dotcolour,10,4,250,550,main,positivefb,-99,hard,26,0.9509203999996316,['n'],1,right,['9'],5,0.30517250000002605,,,25,18,Man,Rechts,1,
,xotask,xotask,dotcolour,11,4,251,551,main,positivefb,-99,easy,72,1.9176557999999204,['c'],1,left,['8'],4,1.7136233999999604,,,25,18,Man,Rechts,1,
,xotask,xotask,dotcolour,12,4,252,552,main,positivefb,-99,hard,52,1.1506702000001496,['c'],1,left,['8'],4,0.6079109000002063,,,25,18,Man,Rechts,1,
,xotask,xotask,dotcolour,13,4,253,553,main,positivefb,-99,average,19,3.8344555999997283,['n'],1,right,['2'],2,1.4799047999999857,,,25,18,Man,Rechts,1,
,xotask,xotask,dotcolour,14,4,254,554,main,positivefb,-99,hard,53,1.035133599999881,['c'],1,left,['9'],5,2.364144600000145,,,25,18,Man,Rechts,1,
,xotask,xotask,dotcolour,15,4,255,555,main,positivefb,-99,average,62,0.9680452999996305,['c'],1,left,['9'],5,3.2318341999998665,,,25,18,Man,Rechts,1,
,xotask,xotask,dotcolour,16,4,256,556,main,positivefb,-99,average,18,0.7846721000000798,['n'],1,right,['9'],5,0.3994652999999744,,,25,18,Man,Rechts,1,
,xotask,xotask,dotcolour,17,4,257,557,main,positivefb,-99,average,19,0.7845172999996066,['n'],1,right,['8'],4,1.0004600000002029,,,25,18,Man,Rechts,1,
,xotask,xotask,dotcolour,18,4,258,558,main,positivefb,-99,average,62,4.33520580000004,['c'],1,left,['9'],5,0.6599942000002557,,,25,18,Man,Rechts,1,
,xotask,xotask,dotcolour,19,4,259,559,main,positivefb,-99,average,63,2.4185677000000396,['c'],1,left,['3'],3,0.6265027000004011,,,25,18,Man,Rechts,1,
,xotask,xotask,dotcolour,20,4,260,560,main,positivefb,-99,average,16,1.9180832000001828,['n'],1,right,['9'],5,1.2458979000002728,,,25,18,Man,Rechts,1,
,xotask,xotask,dotcolour,21,4,261,561,main,positivefb,-99,hard,29,0.833828799999992,['n'],1,right,['0'],6,0.8111327000001438,,,25,18,Man,Rechts,1,
,xotask,xotask,dotcolour,22,4,262,562,main,positivefb,-99,easy,73,2.034857099999954,['c'],1,left,['9'],5,0.7071900999999343,,,25,18,Man,Rechts,1,
,xotask,xotask,dotcolour,23,4,263,563,main,positivefb,-99,hard,27,0.6834761000000071,['n'],1,right,['9'],5,0.3562464000001455,,,25,18,Man,Rechts,1,
,xotask,xotask,dotcolour,24,4,264,564,main,positivefb,-99,hard,51,1.0505322999997588,['c'],1,left,['9'],5,0.3970358000001397,,,25,18,Man,Rechts,1,
,xotask,xotask,dotcolour,25,4,265,565,main,positivefb,-99,hard,52,0.8844576999999845,['c'],1,left,['8'],4,0.45851059999995414,,,25,18,Man,Rechts,1,
,xotask,xotask,dotcolour,26,4,266,566,main,positivefb,-99,easy,9,0.651186499999767,['n'],1,right,['9'],5,0.5995577000003323,,,25,18,Man,Rechts,1,
,xotask,xotask,dotcolour,27,4,267,567,main,positivefb,-99,average,61,1.6187365000000682,['c'],1,left,['9'],5,0.8720367000000806,,,25,18,Man,Rechts,1,
,xotask,xotask,dotcolour,28,4,268,568,main,positivefb,-99,average,15,0.9680686000001515,['n'],1,right,['0'],6,0.4623586000002433,,,25,18,Man,Rechts,1,
,xotask,xotask,dotcolour,29,4,269,569,main,positivefb,-99,hard,29,0.9345488999997542,['n'],1,right,['9'],5,0.5043698999998014,,,25,18,Man,Rechts,1,
,xotask,xotask,dotcolour,30,4,270,570,main,positivefb,-99,hard,25,0.7512980000001335,['n'],1,right,['8'],4,1.6229183999998895,,,25,18,Man,Rechts,1,
,xotask,xotask,dotcolour,31,4,271,571,main,positivefb,-99,average,16,0.9165274000001773,['n'],1,right,['9'],5,2.059047300000202,,,25,18,Man,Rechts,1,
,xotask,xotask,dotcolour,32,4,272,572,main,positivefb,-99,hard,51,1.368247099999735,['c'],1,left,['8'],4,0.7866841000000022,,,25,18,Man,Rechts,1,
,xotask,xotask,dotcolour,33,4,273,573,main,positivefb,-99,easy,7,1.450926999999865,['n'],1,right,['9'],5,1.033038999999917,,,25,18,Man,Rechts,1,
,xotask,xotask,dotcolour,34,4,274,574,main,positivefb,-99,easy,74,0.8007001999999375,['c'],1,left,['0'],6,0.2651144999999815,,,25,18,Man,Rechts,1,
,xotask,xotask,dotcolour,35,4,275,575,main,positivefb,-99,easy,5,0.6511129000000437,['n'],1,right,['0'],6,0.37263480000001437,,,25,18,Man,Rechts,1,
,xotask,xotask,dotcolour,36,4,276,576,main,positivefb,-99,hard,51,0.8340158000000883,['c'],1,left,['9'],5,0.5094942000000628,,,25,18,Man,Rechts,1,
,xotask,xotask,dotcolour,37,4,277,577,main,positivefb,-99,easy,8,2.201017800000045,['n'],1,right,['0'],6,0.7461047000001599,,,25,18,Man,Rechts,1,
,xotask,xotask,dotcolour,38,4,278,578,main,positivefb,-99,average,16,0.7506644999998571,['n'],1,right,['0'],6,0.503789400000187,,,25,18,Man,Rechts,1,
,xotask,xotask,dotcolour,39,4,279,579,main,positivefb,-99,average,16,0.6173358000000917,['n'],1,right,['0'],6,0.3474879999998848,,,25,18,Man,Rechts,1,
,xotask,xotask,dotcolour,40,4,280,580,main,positivefb,-99,easy,9,0.6846090999997614,['n'],1,right,['0'],6,0.22734799999989264,,,25,18,Man,Rechts,1,
,xotask,xotask,dotcolour,41,4,281,581,main,positivefb,-99,average,61,1.2671935999997004,['c'],1,left,['8'],4,0.34418959999993604,,,25,18,Man,Rechts,1,
,xotask,xotask,dotcolour,42,4,282,582,main,positivefb,-99,easy,72,0.6507691000001614,['c'],1,left,['9'],5,0.2581909000000451,,,25,18,Man,Rechts,1,
,xotask,xotask,dotcolour,43,4,283,583,main,positivefb,-99,easy,74,0.6658577999996851,['c'],1,left,['9'],5,0.2226915999999619,,,25,18,Man,Rechts,1,
,xotask,xotask,dotcolour,44,4,284,584,main,positivefb,-99,hard,25,2.9673274000001584,['n'],1,right,['8'],4,1.055304999999862,,,25,18,Man,Rechts,1,
,xotask,xotask,dotcolour,45,4,285,585,main,positivefb,-99,average,17,0.6833498999999392,['n'],1,right,['9'],5,0.38669549999985975,,,25,18,Man,Rechts,1,
,xotask,xotask,dotcolour,46,4,286,586,main,positivefb,-99,hard,27,2.9180066999997507,['n'],1,right,['8'],4,0.8870841000002656,,,25,18,Man,Rechts,1,
,xotask,xotask,dotcolour,47,4,287,587,main,positivefb,-99,average,60,0.9840305000002445,['c'],1,left,['9'],5,0.29377610000028653,,,25,18,Man,Rechts,1,
,xotask,xotask,dotcolour,48,4,288,588,main,positivefb,-99,easy,7,0.7995519999999487,['n'],1,right,['9'],5,0.3312999999998283,,,25,18,Man,Rechts,1,
,xotask,xotask,dotcolour,49,4,289,589,main,positivefb,-99,hard,52,0.8506671999998616,['c'],1,left,['9'],5,0.8524489000001267,,,25,18,Man,Rechts,1,
,xotask,xotask,dotcolour,50,4,290,590,main,positivefb,-99,hard,28,0.6844456000003447,['c'],0,right,['1'],1,0.8243462999998883,,,25,18,Man,Rechts,1,
,xotask,xotask,dotcolour,51,4,291,591,main,positivefb,-99,easy,74,1.1507902000003014,['c'],1,left,['9'],5,0.2741422999997667,,,25,18,Man,Rechts,1,
,xotask,xotask,dotcolour,52,4,292,592,main,positivefb,-99,average,64,0.667827700000089,['c'],1,left,['0'],6,0.6218065000002753,,,25,18,Man,Rechts,1,
,xotask,xotask,dotcolour,53,4,293,593,main,positivefb,-99,easy,6,0.6337005000000318,['n'],1,right,['9'],5,0.2920793999996931,,,25,18,Man,Rechts,1,
,xotask,xotask,dotcolour,54,4,294,594,main,positivefb,-99,easy,74,0.718575200000032,['c'],1,left,['9'],5,0.300158200000169,,,25,18,Man,Rechts,1,
,xotask,xotask,dotcolour,55,4,295,595,main,positivefb,-99,easy,8,0.8678414000000885,['n'],1,right,['9'],5,0.5826425999998719,,,25,18,Man,Rechts,1,
,xotask,xotask,dotcolour,56,4,296,596,main,positivefb,-99,easy,7,0.6007055999998556,['n'],1,right,['9'],5,0.2719510000001719,,,25,18,Man,Rechts,1,
,xotask,xotask,dotcolour,57,4,297,597,main,positivefb,-99,average,61,0.6679668000001584,['c'],1,left,['8'],4,0.3312409000000116,,,25,18,Man,Rechts,1,
,xotask,xotask,dotcolour,58,4,298,598,main,positivefb,-99,average,64,1.550287500000195,['c'],1,left,['9'],5,0.7848470999997517,,,25,18,Man,Rechts,1,
,xotask,xotask,dotcolour,59,4,299,599,main,positivefb,-99,easy,73,0.7835805000004257,['c'],1,left,['8'],4,0.30687740000030317,,,25,18,Man,Rechts,1,
,xotask,xotask,dotcolour,0,0,0,600,training,positivefb,88,average,18,0.9670578999998725,['n'],1,right,['9'],5,0.38046769999982644,,,25,18,Man,Rechts,1,
,xotask,xotask,dotcolour,1,0,1,601,training,positivefb,84,hard,29,2.534141599999657,['n'],1,right,['8'],4,0.465045999999802,,,25,18,Man,Rechts,1,
,xotask,xotask,dotcolour,2,0,2,602,training,positivefb,85,hard,54,0.8660055000000284,['c'],1,left,['9'],5,0.33910800000012387,,,25,18,Man,Rechts,1,
,xotask,xotask,dotcolour,3,0,3,603,training,positivefb,91,easy,5,0.6329895999997461,['n'],1,right,['0'],6,0.22805269999980737,,,25,18,Man,Rechts,1,
,xotask,xotask,dotcolour,4,0,4,604,training,positivefb,68,hard,50,1.3335210999998708,['c'],1,left,['9'],5,0.6066290999997364,,,25,18,Man,Rechts,1,
,xotask,xotask,dotcolour,5,0,5,605,training,positivefb,90,easy,7,0.8341982000001735,['n'],1,right,['9'],5,0.27741180000020904,,,25,18,Man,Rechts,1,
,xotask,xotask,dotcolour,6,0,6,606,training,positivefb,100,average,61,1.0170383999998194,['c'],1,left,['8'],4,3.4735376999997243,,,25,18,Man,Rechts,1,
,xotask,xotask,dotcolour,7,0,7,607,training,positivefb,60,hard,26,5.2182426999997915,['c'],0,right,['3'],3,0.6779833000000508,,,25,18,Man,Rechts,1,
,xotask,xotask,dotcolour,8,0,8,608,training,positivefb,73,hard,29,1.2161446999998589,['n'],1,right,['9'],5,0.995058599999993,,,25,18,Man,Rechts,1,
,xotask,xotask,dotcolour,9,0,9,609,training,positivefb,93,easy,8,0.7167457000000468,['n'],1,right,['0'],6,0.21497150000004694,,,25,18,Man,Rechts,1,
,xotask,xotask,dotcolour,10,0,10,610,training,positivefb,88,average,18,0.8670510000001741,['n'],1,right,['9'],5,0.2595573999997214,,,25,18,Man,Rechts,1,
,xotask,xotask,dotcolour,11,0,11,611,training,positivefb,100,easy,5,2.732766800000263,['n'],1,right,['9'],5,5.108628299999964,,,25,18,Man,Rechts,1,
,xotask,xotask,dotcolour,12,0,12,612,training,positivefb,77,easy,73,2.7176730999999563,['c'],1,left,['9'],5,0.4979346000000078,,,25,18,Man,Rechts,1,
,xotask,xotask,dotcolour,13,0,13,613,training,positivefb,93,hard,27,13.7504042999999,['n'],1,right,['2'],2,7.255503500000032,,,25,18,Man,Rechts,1,
,xotask,xotask,dotcolour,14,0,14,614,training,positivefb,84,easy,6,1.4836209000000053,['c'],0,right,['9'],5,0.2239902000001166,,,25,18,Man,Rechts,1,
,xotask,xotask,dotcolour,15,0,15,615,training,positivefb,96,average,61,1.25045689999979,['c'],1,left,['8'],4,0.46232689999987997,,,25,18,Man,Rechts,1,
,xotask,xotask,dotcolour,16,0,16,616,training,positivefb,96,easy,9,0.48393869999972594,['n'],1,right,['0'],6,0.43991159999995944,,,25,18,Man,Rechts,1,
,xotask,xotask,dotcolour,17,0,17,617,training,positivefb,99,easy,74,1.7171824000001834,['c'],1,left,['9'],5,0.9946120999998129,,,25,18,Man,Rechts,1,
,xotask,xotask,dotcolour,18,0,18,618,training,positivefb,89,easy,70,0.7833648999999241,['c'],1,left,['9'],5,0.39634330000035334,,,25,18,Man,Rechts,1,
,xotask,xotask,dotcolour,19,0,19,619,training,positivefb,92,easy,74,1.7670400000001791,['n'],0,left,['9'],5,0.3252658000001247,,,25,18,Man,Rechts,1,
,xotask,xotask,dotcolour,20,0,20,620,training,positivefb,93,hard,53,0.6839136999997208,['c'],1,left,['8'],4,0.40583079999987604,,,25,18,Man,Rechts,1,
,xotask,xotask,dotcolour,21,0,21,621,training,positivefb,98,easy,72,0.8838970000001609,['c'],1,left,['9'],5,0.29863369999975475,,,25,18,Man,Rechts,1,
,xotask,xotask,dotcolour,22,0,22,622,training,positivefb,98,average,60,0.8176041000001533,['c'],1,left,['8'],4,0.3338441999999304,,,25,18,Man,Rechts,1,
,xotask,xotask,dotcolour,23,0,23,623,training,positivefb,86,average,19,0.6832196999998814,['n'],1,right,['9'],5,0.2926354999999603,,,25,18,Man,Rechts,1,
,xotask,xotask,dotcolour,24,0,24,624,training,positivefb,89,hard,28,1.0821604999996453,['n'],1,right,['9'],5,0.2700734999998531,,,25,18,Man,Rechts,1,
,xotask,xotask,dotcolour,25,0,25,625,training,positivefb,76,hard,50,0.8001255999997738,['n'],0,left,['8'],4,0.27553360000001703,,,25,18,Man,Rechts,1,
,xotask,xotask,dotcolour,26,0,26,626,training,positivefb,90,hard,53,1.2003396000000066,['c'],1,left,['8'],4,0.41728869999997187,,,25,18,Man,Rechts,1,
,xotask,xotask,dotcolour,27,0,27,627,training,positivefb,97,hard,52,0.8669707999997627,['c'],1,left,['9'],5,0.29398589999982505,,,25,18,Man,Rechts,1,
,xotask,xotask,dotcolour,28,0,28,628,training,positivefb,96,average,60,1.0342884000001504,['c'],1,left,['8'],4,0.27266789999976027,,,25,18,Man,Rechts,1,
,xotask,xotask,dotcolour,29,0,29,629,training,positivefb,94,average,15,0.5997111000001496,['n'],1,right,['9'],5,0.25434119999999893,,,25,18,Man,Rechts,1,
,xotask,xotask,dotcolour,30,0,30,630,training,positivefb,99,average,15,0.7673295999998118,['n'],1,right,['9'],5,0.3980007999998634,,,25,18,Man,Rechts,1,
,xotask,xotask,dotcolour,31,0,31,631,training,positivefb,96,hard,28,0.7155151000001752,['n'],1,right,['9'],5,0.21762540000008812,,,25,18,Man,Rechts,1,
,xotask,xotask,dotcolour,32,0,32,632,training,positivefb,93,easy,72,0.8848481999998512,['c'],1,left,['8'],4,0.2844750999997814,,,25,18,Man,Rechts,1,
,xotask,xotask,dotcolour,33,0,33,633,training,positivefb,96,easy,70,0.6511004999997567,['c'],1,left,['9'],5,0.27233269999987897,,,25,18,Man,Rechts,1,
,xotask,xotask,dotcolour,34,0,34,634,training,positivefb,93,hard,54,1.134004499999719,['c'],1,left,['9'],5,0.25590509999983624,,,25,18,Man,Rechts,1,
,xotask,xotask,dotcolour,35,0,35,635,training,positivefb,92,hard,26,0.8158069000000978,['n'],1,right,['9'],5,0.25243159999990894,,,25,18,Man,Rechts,1,
,xotask,xotask,dotcolour,36,0,36,636,training,positivefb,99,easy,7,0.6661393999997927,['n'],1,right,['9'],5,0.22370950000004086,,,25,18,Man,Rechts,1,
,xotask,xotask,dotcolour,37,0,37,637,training,positivefb,87,easy,73,0.8176539999999477,['c'],1,left,['9'],5,0.22245509999993374,,,25,18,Man,Rechts,1,
,xotask,xotask,dotcolour,38,0,38,638,training,positivefb,96,easy,5,0.684469799999988,['n'],1,right,['9'],5,0.314519399999881,,,25,18,Man,Rechts,1,
,xotask,xotask,dotcolour,39,0,39,639,training,positivefb,98,easy,7,0.7837460000000647,['n'],1,right,['0'],6,0.4070724000002883,,,25,18,Man,Rechts,1,
,xotask,xotask,dotcolour,40,0,40,640,training,positivefb,98,average,62,0.7171847999998135,['c'],1,left,['9'],5,0.26626360000000204,,,25,18,Man,Rechts,1,
,xotask,xotask,dotcolour,41,0,41,641,training,positivefb,95,average,16,0.6834399999997913,['c'],0,right,['1'],1,1.340290300000106,,,25,18,Man,Rechts,1,
,xotask,xotask,dotcolour,42,0,42,642,training,positivefb,97,average,18,0.7505389000002651,['n'],1,right,['9'],5,0.3765690000000177,,,25,18,Man,Rechts,1,
,xotask,xotask,dotcolour,43,0,43,643,training,positivefb,93,hard,50,0.7334453000003123,['c'],1,left,['9'],5,0.18857299999990573,,,25,18,Man,Rechts,1,
,xotask,xotask,dotcolour,44,0,44,644,training,positivefb,94,average,18,0.8660334999999577,['n'],1,right,['9'],5,0.09879440000031536,,,25,18,Man,Rechts,1,
,xotask,xotask,dotcolour,45,0,45,645,training,positivefb,95,easy,74,0.6499518000000535,['c'],1,left,['8'],4,0.4372197000002416,,,25,18,Man,Rechts,1,
,xotask,xotask,dotcolour,46,0,46,646,training,positivefb,92,average,62,0.6005356000000575,['c'],1,left,['9'],5,0.3394752000003791,,,25,18,Man,Rechts,1,
,xotask,xotask,dotcolour,47,0,47,647,training,positivefb,94,average,60,0.649949000000106,['c'],1,left,['9'],5,0.2280889999997271,,,25,18,Man,Rechts,1,
,xotask,xotask,dotcolour,48,0,48,648,training,positivefb,98,hard,26,0.7506311000001915,['n'],1,right,['9'],5,0.1815571999995882,,,25,18,Man,Rechts,1,
,xotask,xotask,dotcolour,49,0,49,649,training,positivefb,88,easy,72,0.7006734000001416,['c'],1,left,['9'],5,0.14568740000004254,,,25,18,Man,Rechts,1,
,xotask,xotask,dotcolour,50,0,50,650,training,positivefb,97,average,17,0.7330410999998094,['n'],1,right,['9'],5,0.20739320000029693,,,25,18,Man,Rechts,1,
,xotask,xotask,dotcolour,51,0,51,651,training,positivefb,92,hard,54,0.5834995000000163,['c'],1,left,['9'],5,0.16788280000037048,,,25,18,Man,Rechts,1,
,xotask,xotask,dotcolour,52,0,52,652,training,positivefb,96,average,64,0.6505280000001221,['c'],1,left,['9'],5,0.19182839999984935,,,25,18,Man,Rechts,1,
,xotask,xotask,dotcolour,53,0,53,653,training,positivefb,94,hard,50,0.7165096999997331,['c'],1,left,['9'],5,0.3079772999999477,,,25,18,Man,Rechts,1,
,xotask,xotask,dotcolour,54,0,54,654,training,positivefb,99,average,17,0.7165838999999323,['n'],1,right,['9'],5,0.3548377000001892,,,25,18,Man,Rechts,1,
,xotask,xotask,dotcolour,55,0,55,655,training,positivefb,94,average,64,0.7334115999997266,['c'],1,left,['9'],5,0.2555311000000984,,,25,18,Man,Rechts,1,
,xotask,xotask,dotcolour,56,0,56,656,training,positivefb,80,hard,26,0.7841136999995797,['n'],1,right,['9'],5,0.3180483999999524,,,25,18,Man,Rechts,1,
,xotask,xotask,dotcolour,57,0,57,657,training,positivefb,49,easy,8,0.7674314000000777,['c'],0,right,['1'],1,0.6514303999997537,,,25,18,Man,Rechts,1,
,xotask,xotask,dotcolour,58,0,58,658,training,positivefb,88,average,61,0.8334657000000334,['c'],1,left,['9'],5,0.34382789999972374,,,25,18,Man,Rechts,1,
,xotask,xotask,dotcolour,59,0,59,659,training,positivefb,92,hard,29,0.8503355000002557,['n'],1,right,['9'],5,0.5922740999999405,,,25,18,Man,Rechts,1,
,xotask,xotask,dotcolour,0,1,60,660,training,positivefb,81,average,64,0.7184508999998798,['c'],1,left,['9'],5,0.3217371999999159,,,25,18,Man,Rechts,1,
,xotask,xotask,dotcolour,1,1,61,661,training,positivefb,96,easy,73,0.683525500000087,['c'],1,left,['9'],5,0.217842500000188,,,25,18,Man,Rechts,1,
,xotask,xotask,dotcolour,2,1,62,662,training,positivefb,64,hard,29,1.6012282000001505,['c'],0,right,['8'],4,0.5442383999998128,,,25,18,Man,Rechts,1,
,xotask,xotask,dotcolour,3,1,63,663,training,positivefb,49,hard,53,0.9490696000002572,['c'],1,left,['9'],5,0.2530707999999322,,,25,18,Man,Rechts,1,
,xotask,xotask,dotcolour,4,1,64,664,training,positivefb,99,easy,73,0.6662959000000228,['c'],1,left,['0'],6,0.37649880000026315,,,25,18,Man,Rechts,1,
