starttime,task,fbtask,firsttask,withinblocktrial,block,withintasktrial,trial,running,feedback,fbscore,difflevel,n_xes,rt,resp,cor,cresp,conf_press,cj,RTconf,reddots,post1,post2,post3,post4,post5,stoptime,sub,age,gender,handedness,session,
1715669970,xotask,xotask,xotask,0,0,0,0,training,positivefb,83,average,19,1.1336533999999574,['n'],1,right,['9'],5,0.4304849000000104,,,,,,,,10,18,Vrouw,Rechts,2,
,xotask,xotask,xotask,1,0,1,1,training,positivefb,90,hard,53,1.182403900000054,['c'],1,left,['8'],4,0.4462119999998322,,,,,,,,10,18,Vrouw,Rechts,2,
,xotask,xotask,xotask,2,0,2,2,training,positivefb,87,hard,51,1.3669141000000309,['c'],1,left,['3'],3,2.950719100000015,,,,,,,,10,18,Vrouw,Rechts,2,
,xotask,xotask,xotask,3,0,3,3,training,positivefb,82,hard,25,1.217526899999939,['n'],1,right,['8'],4,0.47937849999993887,,,,,,,,10,18,Vrouw,Rechts,2,
,xotask,xotask,xotask,4,0,4,4,training,positivefb,94,hard,28,0.7010841000001165,['n'],1,right,['8'],4,0.5682271000000583,,,,,,,,10,18,Vrouw,Rechts,2,
,xotask,xotask,xotask,5,0,5,5,training,positivefb,98,easy,73,0.816786600000114,['c'],1,left,['8'],4,0.5049842999999328,,,,,,,,10,18,Vrouw,Rechts,2,
,xotask,xotask,xotask,6,0,6,6,training,positivefb,81,hard,28,1.0499311000000944,['n'],1,right,['9'],5,0.4509376999999404,,,,,,,,10,18,Vrouw,Rechts,2,
,xotask,xotask,xotask,7,0,7,7,training,positivefb,84,easy,71,0.9170740999998088,['c'],1,left,['3'],3,0.4443721000000096,,,,,,,,10,18,Vrouw,Rechts,2,
,xotask,xotask,xotask,8,0,8,8,training,positivefb,82,hard,54,1.1669205000000602,['c'],1,left,['8'],4,1.340703000000076,,,,,,,,10,18,Vrouw,Rechts,2,
,xotask,xotask,xotask,9,0,9,9,training,positivefb,87,hard,25,1.2005212000001393,['n'],1,right,['8'],4,0.534648500000003,,,,,,,,10,18,Vrouw,Rechts,2,
,xotask,xotask,xotask,10,0,10,10,training,positivefb,88,average,15,0.8181171999999606,['n'],1,right,['9'],5,0.43292140000016843,,,,,,,,10,18,Vrouw,Rechts,2,
,xotask,xotask,xotask,11,0,11,11,training,positivefb,99,easy,6,0.8166059999998652,['n'],1,right,['9'],5,0.4387543000000278,,,,,,,,10,18,Vrouw,Rechts,2,
,xotask,xotask,xotask,12,0,12,12,training,positivefb,96,average,17,0.7163501999998516,['n'],1,right,['9'],5,0.39318889999981366,,,,,,,,10,18,Vrouw,Rechts,2,
,xotask,xotask,xotask,13,0,13,13,training,positivefb,86,average,64,0.7658789999998135,['c'],1,left,['9'],5,0.26705740000011247,,,,,,,,10,18,Vrouw,Rechts,2,
,xotask,xotask,xotask,14,0,14,14,training,positivefb,96,easy,70,0.6497776000001068,['c'],1,left,['8'],4,0.42160519999993085,,,,,,,,10,18,Vrouw,Rechts,2,
,xotask,xotask,xotask,15,0,15,15,training,positivefb,98,easy,6,0.5319777999998223,['n'],1,right,['0'],6,0.6566651000000547,,,,,,,,10,18,Vrouw,Rechts,2,
,xotask,xotask,xotask,16,0,16,16,training,positivefb,66,hard,53,1.1670831999999791,['c'],1,left,['3'],3,1.495910800000047,,,,,,,,10,18,Vrouw,Rechts,2,
,xotask,xotask,xotask,17,0,17,17,training,positivefb,91,average,62,1.1667747999999847,['c'],1,left,['8'],4,1.157822699999997,,,,,,,,10,18,Vrouw,Rechts,2,
,xotask,xotask,xotask,18,0,18,18,training,positivefb,98,hard,29,0.8001138999998147,['n'],1,right,['8'],4,0.4003801999999723,,,,,,,,10,18,Vrouw,Rechts,2,
,xotask,xotask,xotask,19,0,19,19,training,positivefb,94,average,64,0.8178313999999318,['n'],0,left,['8'],4,0.3197993999999653,,,,,,,,10,18,Vrouw,Rechts,2,
,xotask,xotask,xotask,20,0,20,20,training,positivefb,90,hard,50,0.7998231999999916,['c'],1,left,['8'],4,0.4189151000000493,,,,,,,,10,18,Vrouw,Rechts,2,
,xotask,xotask,xotask,21,0,21,21,training,positivefb,78,hard,51,1.0172013999999763,['c'],1,left,['8'],4,0.3297539999998662,,,,,,,,10,18,Vrouw,Rechts,2,
,xotask,xotask,xotask,22,0,22,22,training,positivefb,99,easy,9,0.6332043999998405,['n'],1,right,['9'],5,0.31568509999988237,,,,,,,,10,18,Vrouw,Rechts,2,
,xotask,xotask,xotask,23,0,23,23,training,positivefb,97,average,62,1.2833236999999826,['c'],1,left,['8'],4,0.3397979999999734,,,,,,,,10,18,Vrouw,Rechts,2,
,xotask,xotask,xotask,24,0,24,24,training,positivefb,91,easy,74,0.6331334000001334,['c'],1,left,['8'],4,0.3731233999999404,,,,,,,,10,18,Vrouw,Rechts,2,
,xotask,xotask,xotask,25,0,25,25,training,positivefb,95,average,63,0.734222999999929,['c'],1,left,['8'],4,0.30517859999986285,,,,,,,,10,18,Vrouw,Rechts,2,
,xotask,xotask,xotask,26,0,26,26,training,positivefb,96,easy,5,0.667712500000107,['n'],1,right,['9'],5,0.2988845999998375,,,,,,,,10,18,Vrouw,Rechts,2,
,xotask,xotask,xotask,27,0,27,27,training,positivefb,75,average,64,0.6006290000000263,['c'],1,left,['0'],6,0.9110114000000067,,,,,,,,10,18,Vrouw,Rechts,2,
,xotask,xotask,xotask,28,0,28,28,training,positivefb,75,average,16,1.2666024999998626,['c'],0,right,['8'],4,0.3280970000000707,,,,,,,,10,18,Vrouw,Rechts,2,
,xotask,xotask,xotask,29,0,29,29,training,positivefb,97,hard,52,0.6827517000001535,['c'],1,left,['8'],4,0.20796390000009524,,,,,,,,10,18,Vrouw,Rechts,2,
,xotask,xotask,xotask,30,0,30,30,training,positivefb,96,easy,72,0.6502042000001893,['c'],1,left,['8'],4,0.26165470000000823,,,,,,,,10,18,Vrouw,Rechts,2,
,xotask,xotask,xotask,31,0,31,31,training,positivefb,85,hard,50,0.7348316000000068,['c'],1,left,['8'],4,0.2620554000000084,,,,,,,,10,18,Vrouw,Rechts,2,
,xotask,xotask,xotask,32,0,32,32,training,positivefb,88,average,16,0.6000779999999395,['n'],1,right,['9'],5,0.35629579999999805,,,,,,,,10,18,Vrouw,Rechts,2,
,xotask,xotask,xotask,33,0,33,33,training,positivefb,95,easy,7,0.8161513000000014,['n'],1,right,['9'],5,0.3099451999999019,,,,,,,,10,18,Vrouw,Rechts,2,
,xotask,xotask,xotask,34,0,34,34,training,positivefb,96,average,16,0.6340330000000449,['n'],1,right,['8'],4,0.2881456000000071,,,,,,,,10,18,Vrouw,Rechts,2,
,xotask,xotask,xotask,35,0,35,35,training,positivefb,99,hard,28,0.6333420999999362,['n'],1,right,['9'],5,0.3310939000000417,,,,,,,,10,18,Vrouw,Rechts,2,
,xotask,xotask,xotask,36,0,36,36,training,positivefb,99,easy,72,0.6168370999998842,['c'],1,left,['9'],5,0.34168559999989156,,,,,,,,10,18,Vrouw,Rechts,2,
,xotask,xotask,xotask,37,0,37,37,training,positivefb,59,average,15,2.0676593000000594,['c'],0,right,['3'],3,1.0699236999998902,,,,,,,,10,18,Vrouw,Rechts,2,
,xotask,xotask,xotask,38,0,38,38,training,positivefb,84,average,18,1.3662580000000162,['c'],0,right,['8'],4,0.3647711999999501,,,,,,,,10,18,Vrouw,Rechts,2,
,xotask,xotask,xotask,39,0,39,39,training,positivefb,99,easy,7,0.6996024000000034,['n'],1,right,['9'],5,0.2659344000001056,,,,,,,,10,18,Vrouw,Rechts,2,
,xotask,xotask,xotask,40,0,40,40,training,positivefb,96,hard,29,0.5667854999999236,['n'],1,right,['9'],5,0.24912259999996422,,,,,,,,10,18,Vrouw,Rechts,2,
,xotask,xotask,xotask,41,0,41,41,training,positivefb,98,average,60,0.9169830000000729,['c'],1,left,['9'],5,0.20235569999999825,,,,,,,,10,18,Vrouw,Rechts,2,
,xotask,xotask,xotask,42,0,42,42,training,positivefb,95,average,19,0.7168153000000075,['n'],1,right,['9'],5,0.26209210000001804,,,,,,,,10,18,Vrouw,Rechts,2,
,xotask,xotask,xotask,43,0,43,43,training,positivefb,92,average,64,0.7343978999999763,['c'],1,left,['9'],5,0.24664450000000215,,,,,,,,10,18,Vrouw,Rechts,2,
,xotask,xotask,xotask,44,0,44,44,training,positivefb,84,average,62,0.7329423000001043,['c'],1,left,['9'],5,0.2639771000001474,,,,,,,,10,18,Vrouw,Rechts,2,
,xotask,xotask,xotask,45,0,45,45,training,positivefb,91,easy,73,0.8824478999999883,['c'],1,left,['9'],5,0.24277200000005905,,,,,,,,10,18,Vrouw,Rechts,2,
,xotask,xotask,xotask,46,0,46,46,training,positivefb,73,average,18,1.5341557000001558,['c'],0,right,['9'],5,0.2279584000000341,,,,,,,,10,18,Vrouw,Rechts,2,
,xotask,xotask,xotask,47,0,47,47,training,positivefb,92,easy,9,0.5670201999998881,['n'],1,right,['0'],6,0.45250030000011066,,,,,,,,10,18,Vrouw,Rechts,2,
,xotask,xotask,xotask,48,0,48,48,training,positivefb,97,hard,27,0.5337391999998999,['n'],1,right,['0'],6,0.26949149999995825,,,,,,,,10,18,Vrouw,Rechts,2,
,xotask,xotask,xotask,49,0,49,49,training,positivefb,69,average,63,0.7333562999999685,['c'],1,left,['9'],5,0.26954969999997047,,,,,,,,10,18,Vrouw,Rechts,2,
,xotask,xotask,xotask,50,0,50,50,training,positivefb,99,hard,53,1.066758400000026,['c'],1,left,['3'],3,0.49648720000004687,,,,,,,,10,18,Vrouw,Rechts,2,
,xotask,xotask,xotask,51,0,51,51,training,positivefb,97,hard,54,0.9174487000000227,['c'],1,left,['8'],4,0.63164659999984,,,,,,,,10,18,Vrouw,Rechts,2,
,xotask,xotask,xotask,52,0,52,52,training,positivefb,98,easy,72,0.6840903000002072,['c'],1,left,['8'],4,0.2513923999999861,,,,,,,,10,18,Vrouw,Rechts,2,
,xotask,xotask,xotask,53,0,53,53,training,positivefb,78,easy,9,0.7501337999999578,['n'],1,right,['9'],5,0.24349070000016582,,,,,,,,10,18,Vrouw,Rechts,2,
,xotask,xotask,xotask,54,0,54,54,training,positivefb,98,hard,26,1.033205100000032,['n'],1,right,['9'],5,0.3046944000000167,,,,,,,,10,18,Vrouw,Rechts,2,
,xotask,xotask,xotask,55,0,55,55,training,positivefb,90,easy,70,0.6340854000000036,['c'],1,left,['9'],5,0.2916181000000506,,,,,,,,10,18,Vrouw,Rechts,2,
,xotask,xotask,xotask,56,0,56,56,training,positivefb,95,hard,27,1.2335391999999956,['n'],1,right,['8'],4,0.3586381000000074,,,,,,,,10,18,Vrouw,Rechts,2,
,xotask,xotask,xotask,57,0,57,57,training,positivefb,16,easy,9,0.981922600000189,['c'],0,right,['3'],3,0.6737574999999651,,,,,,,,10,18,Vrouw,Rechts,2,
,xotask,xotask,xotask,58,0,58,58,training,positivefb,98,easy,71,0.8832353000000239,['c'],1,left,['9'],5,0.2358799999999519,,,,,,,,10,18,Vrouw,Rechts,2,
,xotask,xotask,xotask,59,0,59,59,training,positivefb,97,easy,8,0.6006541000001562,['n'],1,right,['9'],5,0.3216064999999162,,,,,,,,10,18,Vrouw,Rechts,2,
,xotask,xotask,xotask,0,1,60,60,training,positivefb,89,average,64,1.6012521000000106,['c'],1,left,['8'],4,0.26922510000008515,,,,,,,,10,18,Vrouw,Rechts,2,
,xotask,xotask,xotask,1,1,61,61,training,positivefb,96,easy,8,0.6834989000001315,['n'],1,right,['9'],5,0.3103633999999147,,,,,,,,10,18,Vrouw,Rechts,2,
,xotask,xotask,xotask,2,1,62,62,training,positivefb,87,hard,54,0.6489739999999529,['n'],0,left,['9'],5,0.28134289999979956,,,,,,,,10,18,Vrouw,Rechts,2,
,xotask,xotask,xotask,3,1,63,63,training,positivefb,18,hard,28,1.732502299999851,['c'],0,right,['8'],4,1.1364846999999827,,,,,,,,10,18,Vrouw,Rechts,2,
,xotask,xotask,xotask,4,1,64,64,training,positivefb,87,hard,52,1.2842906000000767,['c'],1,left,['2'],2,1.9604647000001023,,,,,,,,10,18,Vrouw,Rechts,2,
,xotask,xotask,xotask,5,1,65,65,training,positivefb,89,hard,27,0.7504900000001271,['n'],1,right,['9'],5,0.3560870999999679,,,,,,,,10,18,Vrouw,Rechts,2,
,xotask,xotask,xotask,6,1,66,66,training,positivefb,62,hard,28,1.68329319999998,['n'],1,right,['8'],4,0.3145684999999503,,,,,,,,10,18,Vrouw,Rechts,2,
,xotask,xotask,xotask,7,1,67,67,training,positivefb,95,hard,51,0.9496817000001556,['c'],1,left,['8'],4,0.3277385999999751,,,,,,,,10,18,Vrouw,Rechts,2,
,xotask,xotask,xotask,8,1,68,68,training,positivefb,99,easy,8,0.583396200000152,['n'],1,right,['9'],5,0.24419130000001132,,,,,,,,10,18,Vrouw,Rechts,2,
,xotask,xotask,xotask,9,1,69,69,training,positivefb,99,easy,5,0.5672193000000334,['n'],1,right,['0'],6,0.331416900000022,,,,,,,,10,18,Vrouw,Rechts,2,
,xotask,xotask,xotask,10,1,70,70,training,positivefb,82,average,18,0.6840647999999874,['n'],1,right,['0'],6,0.3393959999998515,,,,,,,,10,18,Vrouw,Rechts,2,
,xotask,xotask,xotask,11,1,71,71,training,positivefb,91,hard,29,1.3337517999998454,['c'],0,right,['3'],3,0.9685962000000927,,,,,,,,10,18,Vrouw,Rechts,2,
,xotask,xotask,xotask,12,1,72,72,training,positivefb,98,average,64,0.8342744999999923,['c'],1,left,['3'],3,0.32885529999998653,,,,,,,,10,18,Vrouw,Rechts,2,
,xotask,xotask,xotask,13,1,73,73,training,positivefb,87,hard,53,1.250284499999907,['c'],1,left,['3'],3,0.6258770000001732,,,,,,,,10,18,Vrouw,Rechts,2,
,xotask,xotask,xotask,14,1,74,74,training,positivefb,98,easy,72,1.0680250000000342,['c'],1,left,['8'],4,0.36636799999996583,,,,,,,,10,18,Vrouw,Rechts,2,
,xotask,xotask,xotask,15,1,75,75,training,positivefb,89,easy,71,1.2665735999999015,['c'],1,left,['8'],4,0.237291599999935,,,,,,,,10,18,Vrouw,Rechts,2,
,xotask,xotask,xotask,16,1,76,76,training,positivefb,84,easy,74,1.1332387999998446,['c'],1,left,['9'],5,1.0546604000001025,,,,,,,,10,18,Vrouw,Rechts,2,
,xotask,xotask,xotask,17,1,77,77,training,positivefb,42,easy,72,1.60015599999997,['c'],1,left,['9'],5,0.6123109000000113,,,,,,,,10,18,Vrouw,Rechts,2,
,xotask,xotask,xotask,18,1,78,78,training,positivefb,97,average,61,0.9001049000000876,['c'],1,left,['9'],5,0.21641920000001846,,,,,,,,10,18,Vrouw,Rechts,2,
,xotask,xotask,xotask,19,1,79,79,training,positivefb,98,easy,74,0.666591599999947,['c'],1,left,['9'],5,0.22169469999994362,,,,,,,,10,18,Vrouw,Rechts,2,
,xotask,xotask,xotask,20,1,80,80,training,positivefb,90,easy,6,0.6502237000001969,['n'],1,right,['9'],5,0.21872209999992265,,,,,,,,10,18,Vrouw,Rechts,2,
,xotask,xotask,xotask,21,1,81,81,training,positivefb,95,hard,54,0.7656423999999333,['c'],1,left,['9'],5,0.20344730000010713,,,,,,,,10,18,Vrouw,Rechts,2,
,xotask,xotask,xotask,22,1,82,82,training,positivefb,89,average,61,0.6002015000001393,['c'],1,left,['9'],5,0.1955780999999206,,,,,,,,10,18,Vrouw,Rechts,2,
,xotask,xotask,xotask,23,1,83,83,training,positivefb,92,hard,27,0.6999966000000768,['n'],1,right,['9'],5,0.15998259999992115,,,,,,,,10,18,Vrouw,Rechts,2,
,xotask,xotask,xotask,24,1,84,84,training,positivefb,99,average,18,0.6501292999998896,['n'],1,right,['9'],5,0.20824660000016593,,,,,,,,10,18,Vrouw,Rechts,2,
,xotask,xotask,xotask,25,1,85,85,training,positivefb,95,easy,8,0.5677155999999286,['n'],1,right,['0'],6,0.33719440000004397,,,,,,,,10,18,Vrouw,Rechts,2,
,xotask,xotask,xotask,26,1,86,86,training,positivefb,96,easy,8,0.5005439000001388,['n'],1,right,['0'],6,0.2157976000000872,,,,,,,,10,18,Vrouw,Rechts,2,
,xotask,xotask,xotask,27,1,87,87,training,positivefb,81,average,19,0.4835123000000294,['n'],1,right,['0'],6,0.3081483000000844,,,,,,,,10,18,Vrouw,Rechts,2,
,xotask,xotask,xotask,28,1,88,88,training,positivefb,97,hard,53,0.5512120999999297,['n'],0,left,['2'],2,1.5862110999999004,,,,,,,,10,18,Vrouw,Rechts,2,
,xotask,xotask,xotask,29,1,89,89,training,positivefb,85,average,61,1.2492126999998163,['c'],1,left,['9'],5,0.22475459999986924,,,,,,,,10,18,Vrouw,Rechts,2,
,xotask,xotask,xotask,30,1,90,90,training,positivefb,97,easy,71,0.6839135000000169,['c'],1,left,['9'],5,0.195977700000185,,,,,,,,10,18,Vrouw,Rechts,2,
,xotask,xotask,xotask,31,1,91,91,training,positivefb,94,average,17,0.6657132000000274,['n'],1,right,['9'],5,0.24185560000000805,,,,,,,,10,18,Vrouw,Rechts,2,
,xotask,xotask,xotask,32,1,92,92,training,positivefb,97,easy,70,0.9832263000000694,['c'],1,left,['9'],5,0.2253341000000546,,,,,,,,10,18,Vrouw,Rechts,2,
,xotask,xotask,xotask,33,1,93,93,training,positivefb,96,average,60,0.6663220999998885,['c'],1,left,['9'],5,0.2782724999999573,,,,,,,,10,18,Vrouw,Rechts,2,
,xotask,xotask,xotask,34,1,94,94,training,positivefb,96,average,17,0.516375299999936,['c'],0,right,['9'],5,0.1746107999999822,,,,,,,,10,18,Vrouw,Rechts,2,
,xotask,xotask,xotask,35,1,95,95,training,positivefb,99,hard,52,0.5830857000000833,['c'],1,left,['9'],5,0.21697949999997945,,,,,,,,10,18,Vrouw,Rechts,2,
,xotask,xotask,xotask,36,1,96,96,training,positivefb,90,hard,29,0.9830789000000095,['c'],0,right,['9'],5,0.20127580000007583,,,,,,,,10,18,Vrouw,Rechts,2,
,xotask,xotask,xotask,37,1,97,97,training,positivefb,83,hard,26,0.7170258999999533,['n'],1,right,['9'],5,0.39670300000011594,,,,,,,,10,18,Vrouw,Rechts,2,
,xotask,xotask,xotask,38,1,98,98,training,positivefb,95,average,19,0.6999418000000333,['n'],1,right,['9'],5,0.24977940000007948,,,,,,,,10,18,Vrouw,Rechts,2,
,xotask,xotask,xotask,39,1,99,99,training,positivefb,91,hard,27,1.050243200000068,['c'],0,right,['8'],4,0.30138899999997193,,,,,,,,10,18,Vrouw,Rechts,2,
,xotask,xotask,xotask,40,1,100,100,training,positivefb,91,average,60,0.7171238999999332,['c'],1,left,['8'],4,0.20423810000011144,,,,,,,,10,18,Vrouw,Rechts,2,
,xotask,xotask,xotask,41,1,101,101,training,positivefb,95,hard,50,0.5341212999999243,['c'],1,left,['9'],5,0.28672819999997046,,,,,,,,10,18,Vrouw,Rechts,2,
,xotask,xotask,xotask,42,1,102,102,training,positivefb,55,hard,50,1.0345700000000306,['c'],1,left,['2'],2,0.4344657999999981,,,,,,,,10,18,Vrouw,Rechts,2,
,xotask,xotask,xotask,43,1,103,103,training,positivefb,96,average,19,0.5670476999998755,['n'],1,right,['9'],5,0.24227680000012697,,,,,,,,10,18,Vrouw,Rechts,2,
,xotask,xotask,xotask,44,1,104,104,training,positivefb,94,easy,5,0.5664162999999007,['n'],1,right,['0'],6,0.29016969999997855,,,,,,,,10,18,Vrouw,Rechts,2,
,xotask,xotask,xotask,45,1,105,105,training,positivefb,95,easy,70,0.7339254000000892,['c'],1,left,['9'],5,0.39429119999999784,,,,,,,,10,18,Vrouw,Rechts,2,
,xotask,xotask,xotask,46,1,106,106,training,positivefb,99,average,17,0.5012923000001592,['n'],1,right,['9'],5,0.21473459999992883,,,,,,,,10,18,Vrouw,Rechts,2,
,xotask,xotask,xotask,47,1,107,107,training,positivefb,94,average,17,0.5167048000000705,['n'],1,right,['0'],6,0.22532249999994747,,,,,,,,10,18,Vrouw,Rechts,2,
,xotask,xotask,xotask,48,1,108,108,training,positivefb,95,hard,53,0.9826790000001893,['c'],1,left,['9'],5,0.4737099000001308,,,,,,,,10,18,Vrouw,Rechts,2,
,xotask,xotask,xotask,49,1,109,109,training,positivefb,95,hard,26,0.6332798000000821,['n'],1,right,['9'],5,0.3018474000000424,,,,,,,,10,18,Vrouw,Rechts,2,
,xotask,xotask,xotask,50,1,110,110,training,positivefb,98,average,61,0.8664066999999704,['c'],1,left,['9'],5,0.3270379000000503,,,,,,,,10,18,Vrouw,Rechts,2,
,xotask,xotask,xotask,51,1,111,111,training,positivefb,99,average,63,0.7003029999998489,['c'],1,left,['9'],5,0.2865305000000262,,,,,,,,10,18,Vrouw,Rechts,2,
,xotask,xotask,xotask,52,1,112,112,training,positivefb,95,easy,71,0.6336174999999002,['c'],1,left,['9'],5,0.2497436999999536,,,,,,,,10,18,Vrouw,Rechts,2,
,xotask,xotask,xotask,53,1,113,113,training,positivefb,96,average,18,0.5502685999999812,['n'],1,right,['9'],5,0.1614263999999821,,,,,,,,10,18,Vrouw,Rechts,2,
,xotask,xotask,xotask,54,1,114,114,training,positivefb,97,hard,25,0.46849760000009155,['c'],0,right,['9'],5,0.12134179999998196,,,,,,,,10,18,Vrouw,Rechts,2,
,xotask,xotask,xotask,55,1,115,115,training,positivefb,93,easy,8,0.5007036999998036,['n'],1,right,['9'],5,0.25596539999992274,,,,,,,,10,18,Vrouw,Rechts,2,
,xotask,xotask,xotask,56,1,116,116,training,positivefb,94,easy,8,0.9004883000000063,['n'],1,right,['0'],6,0.21849199999996927,,,,,,,,10,18,Vrouw,Rechts,2,
,xotask,xotask,xotask,57,1,117,117,training,positivefb,86,easy,5,0.6348413000000619,['n'],1,right,['0'],6,0.21597350000001825,,,,,,,,10,18,Vrouw,Rechts,2,
,xotask,xotask,xotask,58,1,118,118,training,positivefb,74,average,62,0.5501050000000305,['n'],0,left,['0'],6,0.2021397999999408,,,,,,,,10,18,Vrouw,Rechts,2,
,xotask,xotask,xotask,59,1,119,119,training,positivefb,91,easy,71,0.5833491000000777,['c'],1,left,['9'],5,0.2659694999999829,,,,,,,,10,18,Vrouw,Rechts,2,
,xotask,xotask,xotask,0,2,120,120,main,positivefb,-99,hard,50,2.651000500000009,['c'],1,left,['8'],4,0.8638530000000628,,,,,,,,10,18,Vrouw,Rechts,2,
,xotask,xotask,xotask,1,2,121,121,main,positivefb,-99,hard,26,1.3171936000001097,['n'],1,right,['9'],5,0.3218249999999898,,,,,,,,10,18,Vrouw,Rechts,2,
,xotask,xotask,xotask,2,2,122,122,main,positivefb,-99,average,61,0.7673726000000443,['c'],1,left,['9'],5,0.29519140000002153,,,,,,,,10,18,Vrouw,Rechts,2,
,xotask,xotask,xotask,3,2,123,123,main,positivefb,-99,hard,51,1.0340132000001176,['c'],1,left,['9'],5,0.24336440000001858,,,,,,,,10,18,Vrouw,Rechts,2,
,xotask,xotask,xotask,4,2,124,124,main,positivefb,-99,average,60,0.7848427999999785,['c'],1,left,['9'],5,0.28356209999992643,,,,,,,,10,18,Vrouw,Rechts,2,
,xotask,xotask,xotask,5,2,125,125,main,positivefb,-99,easy,72,0.7507657000001018,['c'],1,left,['0'],6,0.27427110000007815,,,,,,,,10,18,Vrouw,Rechts,2,
,xotask,xotask,xotask,6,2,126,126,main,positivefb,-99,hard,50,1.200742499999933,['c'],1,left,['9'],5,0.2168255000001409,,,,,,,,10,18,Vrouw,Rechts,2,
,xotask,xotask,xotask,7,2,127,127,main,positivefb,-99,hard,27,0.6017283999999563,['n'],1,right,['9'],5,0.328320500000018,,,,,,,,10,18,Vrouw,Rechts,2,
,xotask,xotask,xotask,8,2,128,128,main,positivefb,-99,easy,5,0.9335351999998238,['n'],1,right,['0'],6,0.2791846000000078,,,,,,,,10,18,Vrouw,Rechts,2,
,xotask,xotask,xotask,9,2,129,129,main,positivefb,-99,easy,9,0.9829045999999835,['n'],1,right,['0'],6,0.3582113999998455,,,,,,,,10,18,Vrouw,Rechts,2,
,xotask,xotask,xotask,10,2,130,130,main,positivefb,-99,average,63,0.7684472000000824,['c'],1,left,['0'],6,0.3219099999998889,,,,,,,,10,18,Vrouw,Rechts,2,
,xotask,xotask,xotask,11,2,131,131,main,positivefb,-99,hard,25,0.7841713999998774,['n'],1,right,['9'],5,0.3265561999999136,,,,,,,,10,18,Vrouw,Rechts,2,
,xotask,xotask,xotask,12,2,132,132,main,positivefb,-99,average,15,0.9337788000000273,['n'],1,right,['9'],5,0.3731619000000137,,,,,,,,10,18,Vrouw,Rechts,2,
,xotask,xotask,xotask,13,2,133,133,main,positivefb,-99,hard,54,0.8680087000000185,['c'],1,left,['9'],5,0.2291901000000962,,,,,,,,10,18,Vrouw,Rechts,2,
,xotask,xotask,xotask,14,2,134,134,main,positivefb,-99,hard,53,0.7848309000000881,['c'],1,left,['9'],5,0.30983229999992545,,,,,,,,10,18,Vrouw,Rechts,2,
,xotask,xotask,xotask,15,2,135,135,main,positivefb,-99,easy,7,0.683897700000216,['n'],1,right,['9'],5,0.28700579999986076,,,,,,,,10,18,Vrouw,Rechts,2,
,xotask,xotask,xotask,16,2,136,136,main,positivefb,-99,easy,71,0.5339894999999615,['c'],1,left,['9'],5,0.25463940000008733,,,,,,,,10,18,Vrouw,Rechts,2,
,xotask,xotask,xotask,17,2,137,137,main,positivefb,-99,average,62,0.9834321999999247,['c'],1,left,['9'],5,0.1978308999998717,,,,,,,,10,18,Vrouw,Rechts,2,
,xotask,xotask,xotask,18,2,138,138,main,positivefb,-99,hard,52,0.6677839000001313,['c'],1,left,['9'],5,0.24387330000013208,,,,,,,,10,18,Vrouw,Rechts,2,
,xotask,xotask,xotask,19,2,139,139,main,positivefb,-99,average,18,0.7504359000001841,['n'],1,right,['9'],5,0.3253205999999409,,,,,,,,10,18,Vrouw,Rechts,2,
,xotask,xotask,xotask,20,2,140,140,main,positivefb,-99,hard,25,0.8342998999999054,['n'],1,right,['9'],5,0.26365050000003976,,,,,,,,10,18,Vrouw,Rechts,2,
,xotask,xotask,xotask,21,2,141,141,main,positivefb,-99,easy,74,0.8167455000000245,['c'],1,left,['9'],5,0.26253239999982725,,,,,,,,10,18,Vrouw,Rechts,2,
,xotask,xotask,xotask,22,2,142,142,main,positivefb,-99,average,17,0.6173707000000377,['n'],1,right,['9'],5,0.33952449999992496,,,,,,,,10,18,Vrouw,Rechts,2,
,xotask,xotask,xotask,23,2,143,143,main,positivefb,-99,easy,70,0.8171648000000005,['c'],1,left,['9'],5,0.350953299999901,,,,,,,,10,18,Vrouw,Rechts,2,
,xotask,xotask,xotask,24,2,144,144,main,positivefb,-99,hard,51,0.717114600000059,['c'],1,left,['9'],5,0.26900750000004336,,,,,,,,10,18,Vrouw,Rechts,2,
,xotask,xotask,xotask,25,2,145,145,main,positivefb,-99,average,62,0.617297199999939,['c'],1,left,['9'],5,0.27433529999984785,,,,,,,,10,18,Vrouw,Rechts,2,
,xotask,xotask,xotask,26,2,146,146,main,positivefb,-99,hard,27,0.7520213999998759,['n'],1,right,['9'],5,0.28211099999998623,,,,,,,,10,18,Vrouw,Rechts,2,
,xotask,xotask,xotask,27,2,147,147,main,positivefb,-99,average,62,0.9844443000001775,['c'],1,left,['9'],5,0.24843669999995655,,,,,,,,10,18,Vrouw,Rechts,2,
,xotask,xotask,xotask,28,2,148,148,main,positivefb,-99,easy,71,0.9174655000001621,['c'],1,left,['8'],4,0.2820678999999018,,,,,,,,10,18,Vrouw,Rechts,2,
,xotask,xotask,xotask,29,2,149,149,main,positivefb,-99,average,17,0.7012070999999196,['n'],1,right,['0'],6,0.37935859999993227,,,,,,,,10,18,Vrouw,Rechts,2,
,xotask,xotask,xotask,30,2,150,150,main,positivefb,-99,hard,52,0.9001580999999987,['c'],1,left,['8'],4,0.47400470000002315,,,,,,,,10,18,Vrouw,Rechts,2,
,xotask,xotask,xotask,31,2,151,151,main,positivefb,-99,easy,6,0.734392299999854,['n'],1,right,['0'],6,0.25045780000004925,,,,,,,,10,18,Vrouw,Rechts,2,
,xotask,xotask,xotask,32,2,152,152,main,positivefb,-99,easy,5,0.8004717000001165,['n'],1,right,['0'],6,0.3204674999999497,,,,,,,,10,18,Vrouw,Rechts,2,
,xotask,xotask,xotask,33,2,153,153,main,positivefb,-99,hard,26,1.2009553000000324,['c'],0,right,['8'],4,0.3733340999999655,,,,,,,,10,18,Vrouw,Rechts,2,
,xotask,xotask,xotask,34,2,154,154,main,positivefb,-99,average,64,1.2181554000001142,['c'],1,left,['9'],5,0.2386788000001161,,,,,,,,10,18,Vrouw,Rechts,2,
,xotask,xotask,xotask,35,2,155,155,main,positivefb,-99,easy,6,0.6842963999999938,['n'],1,right,['0'],6,0.28982840000003307,,,,,,,,10,18,Vrouw,Rechts,2,
,xotask,xotask,xotask,36,2,156,156,main,positivefb,-99,easy,70,0.8834188999999242,['c'],1,left,['8'],4,0.27678259999993315,,,,,,,,10,18,Vrouw,Rechts,2,
,xotask,xotask,xotask,37,2,157,157,main,positivefb,-99,hard,25,1.2506256000001486,['n'],1,right,['9'],5,0.31284389999996165,,,,,,,,10,18,Vrouw,Rechts,2,
,xotask,xotask,xotask,38,2,158,158,main,positivefb,-99,hard,26,0.8171145000001161,['n'],1,right,['9'],5,0.2848335999999563,,,,,,,,10,18,Vrouw,Rechts,2,
,xotask,xotask,xotask,39,2,159,159,main,positivefb,-99,easy,6,0.5842196000000968,['n'],1,right,['9'],5,0.34697490000007747,,,,,,,,10,18,Vrouw,Rechts,2,
,xotask,xotask,xotask,40,2,160,160,main,positivefb,-99,hard,54,0.7665392999999767,['c'],1,left,['8'],4,0.5436819999999898,,,,,,,,10,18,Vrouw,Rechts,2,
,xotask,xotask,xotask,41,2,161,161,main,positivefb,-99,easy,71,1.3518185000000358,['c'],1,left,['9'],5,0.30088770000020304,,,,,,,,10,18,Vrouw,Rechts,2,
,xotask,xotask,xotask,42,2,162,162,main,positivefb,-99,easy,73,0.9827812999999423,['c'],1,left,['9'],5,0.24144559999990634,,,,,,,,10,18,Vrouw,Rechts,2,
,xotask,xotask,xotask,43,2,163,163,main,positivefb,-99,easy,70,0.717704700000013,['c'],1,left,['9'],5,0.3568543999999747,,,,,,,,10,18,Vrouw,Rechts,2,
,xotask,xotask,xotask,44,2,164,164,main,positivefb,-99,average,19,0.8345041999998557,['c'],0,right,['9'],5,0.29413320000003296,,,,,,,,10,18,Vrouw,Rechts,2,
,xotask,xotask,xotask,45,2,165,165,main,positivefb,-99,easy,7,0.7335533000000396,['n'],1,right,['9'],5,0.3979832999998507,,,,,,,,10,18,Vrouw,Rechts,2,
,xotask,xotask,xotask,46,2,166,166,main,positivefb,-99,average,61,0.8008056000001034,['c'],1,left,['8'],4,0.7105910000000222,,,,,,,,10,18,Vrouw,Rechts,2,
,xotask,xotask,xotask,47,2,167,167,main,positivefb,-99,hard,28,1.2683944000000338,['n'],1,right,['9'],5,0.2881883000000016,,,,,,,,10,18,Vrouw,Rechts,2,
,xotask,xotask,xotask,48,2,168,168,main,positivefb,-99,average,19,2.0002125000000888,['n'],1,right,['8'],4,0.4060572000000775,,,,,,,,10,18,Vrouw,Rechts,2,
,xotask,xotask,xotask,49,2,169,169,main,positivefb,-99,hard,53,1.7175706999998965,['c'],1,left,['2'],2,0.4016624999999294,,,,,,,,10,18,Vrouw,Rechts,2,
,xotask,xotask,xotask,50,2,170,170,main,positivefb,-99,average,64,2.1842856000000666,['c'],1,left,['8'],4,0.443217900000036,,,,,,,,10,18,Vrouw,Rechts,2,
,xotask,xotask,xotask,51,2,171,171,main,positivefb,-99,easy,6,1.400615499999958,['n'],1,right,['9'],5,0.402961600000026,,,,,,,,10,18,Vrouw,Rechts,2,
,xotask,xotask,xotask,52,2,172,172,main,positivefb,-99,average,15,0.7827846000000136,['n'],1,right,['9'],5,0.7004297000000861,,,,,,,,10,18,Vrouw,Rechts,2,
,xotask,xotask,xotask,53,2,173,173,main,positivefb,-99,average,62,0.8678802000001724,['c'],1,left,['9'],5,0.23833089999993717,,,,,,,,10,18,Vrouw,Rechts,2,
,xotask,xotask,xotask,54,2,174,174,main,positivefb,-99,average,16,0.5004197999999178,['n'],1,right,['9'],5,0.2818397000000914,,,,,,,,10,18,Vrouw,Rechts,2,
,xotask,xotask,xotask,55,2,175,175,main,positivefb,-99,hard,25,0.6324520999999095,['n'],1,right,['9'],5,0.253691500000059,,,,,,,,10,18,Vrouw,Rechts,2,
,xotask,xotask,xotask,56,2,176,176,main,positivefb,-99,easy,72,0.5343560000001162,['c'],1,left,['9'],5,0.24714830000016264,,,,,,,,10,18,Vrouw,Rechts,2,
,xotask,xotask,xotask,57,2,177,177,main,positivefb,-99,easy,7,0.8008325999999215,['n'],1,right,['9'],5,0.2465253999998822,,,,,,,,10,18,Vrouw,Rechts,2,
,xotask,xotask,xotask,58,2,178,178,main,positivefb,-99,average,16,0.5340785999999298,['n'],1,right,['9'],5,0.2164921000000959,,,,,,,,10,18,Vrouw,Rechts,2,
,xotask,xotask,xotask,59,2,179,179,main,positivefb,-99,average,16,0.6512151000001722,['n'],1,right,['9'],5,0.2865738999998939,,,,,,,,10,18,Vrouw,Rechts,2,
,xotask,xotask,xotask,0,3,180,180,main,positivefb,-99,average,60,2.5164102999999614,['c'],1,left,['8'],4,0.19919859999981782,,,,,,,,10,18,Vrouw,Rechts,2,
,xotask,xotask,xotask,1,3,181,181,main,positivefb,-99,easy,7,0.6346713000000364,['n'],1,right,['9'],5,0.2858590999999251,,,,,,,,10,18,Vrouw,Rechts,2,
,xotask,xotask,xotask,2,3,182,182,main,positivefb,-99,average,18,1.067497400000093,['c'],0,right,['2'],2,0.28855429999998705,,,,,,,,10,18,Vrouw,Rechts,2,
,xotask,xotask,xotask,3,3,183,183,main,positivefb,-99,average,16,0.5667777999999544,['n'],1,right,['9'],5,0.23236420000012004,,,,,,,,10,18,Vrouw,Rechts,2,
,xotask,xotask,xotask,4,3,184,184,main,positivefb,-99,hard,27,0.4849621999999272,['n'],1,right,['9'],5,0.2358248000000458,,,,,,,,10,18,Vrouw,Rechts,2,
,xotask,xotask,xotask,5,3,185,185,main,positivefb,-99,hard,52,0.8683796000000257,['c'],1,left,['8'],4,0.33611180000002605,,,,,,,,10,18,Vrouw,Rechts,2,
,xotask,xotask,xotask,6,3,186,186,main,positivefb,-99,average,64,0.8343141999998807,['c'],1,left,['8'],4,0.2423885999999129,,,,,,,,10,18,Vrouw,Rechts,2,
,xotask,xotask,xotask,7,3,187,187,main,positivefb,-99,hard,27,1.0672311000000718,['n'],1,right,['8'],4,0.3595436000000518,,,,,,,,10,18,Vrouw,Rechts,2,
,xotask,xotask,xotask,8,3,188,188,main,positivefb,-99,average,61,1.484293100000059,['c'],1,left,['8'],4,0.4380282000001898,,,,,,,,10,18,Vrouw,Rechts,2,
,xotask,xotask,xotask,9,3,189,189,main,positivefb,-99,easy,6,0.7839319000001979,['c'],0,right,['0'],6,0.22185009999998329,,,,,,,,10,18,Vrouw,Rechts,2,
,xotask,xotask,xotask,10,3,190,190,main,positivefb,-99,hard,29,1.1182174000000487,['c'],0,right,['8'],4,0.25003240000000915,,,,,,,,10,18,Vrouw,Rechts,2,
,xotask,xotask,xotask,11,3,191,191,main,positivefb,-99,average,18,0.7845776999999998,['c'],0,right,['9'],5,0.17632590000016535,,,,,,,,10,18,Vrouw,Rechts,2,
,xotask,xotask,xotask,12,3,192,192,main,positivefb,-99,easy,9,1.0337635999999293,['n'],1,right,['9'],5,0.31326229999990574,,,,,,,,10,18,Vrouw,Rechts,2,
,xotask,xotask,xotask,13,3,193,193,main,positivefb,-99,hard,28,0.7169604000000618,['n'],1,right,['9'],5,0.26564749999988635,,,,,,,,10,18,Vrouw,Rechts,2,
,xotask,xotask,xotask,14,3,194,194,main,positivefb,-99,easy,72,0.650744499999746,['c'],1,left,['9'],5,0.3819594000001416,,,,,,,,10,18,Vrouw,Rechts,2,
,xotask,xotask,xotask,15,3,195,195,main,positivefb,-99,hard,50,0.9998811000000387,['c'],1,left,['9'],5,0.23942740000029517,,,,,,,,10,18,Vrouw,Rechts,2,
,xotask,xotask,xotask,16,3,196,196,main,positivefb,-99,easy,73,0.7666810000000623,['c'],1,left,['9'],5,0.24009920000025886,,,,,,,,10,18,Vrouw,Rechts,2,
,xotask,xotask,xotask,17,3,197,197,main,positivefb,-99,average,64,0.8672523000000183,['c'],1,left,['8'],4,0.26092990000006466,,,,,,,,10,18,Vrouw,Rechts,2,
,xotask,xotask,xotask,18,3,198,198,main,positivefb,-99,average,16,0.818190300000424,['n'],1,right,['9'],5,0.3859468000000561,,,,,,,,10,18,Vrouw,Rechts,2,
,xotask,xotask,xotask,19,3,199,199,main,positivefb,-99,average,64,0.9343589999998585,['c'],1,left,['8'],4,0.23043809999990117,,,,,,,,10,18,Vrouw,Rechts,2,
,xotask,xotask,xotask,20,3,200,200,main,positivefb,-99,hard,29,0.7830062999996699,['c'],0,right,['9'],5,0.1588024999996378,,,,,,,,10,18,Vrouw,Rechts,2,
,xotask,xotask,xotask,21,3,201,201,main,positivefb,-99,hard,53,0.7675549999999021,['c'],1,left,['8'],4,0.3392874999999549,,,,,,,,10,18,Vrouw,Rechts,2,
,xotask,xotask,xotask,22,3,202,202,main,positivefb,-99,easy,7,1.1514181000002282,['c'],0,right,['2'],2,1.2403801000000385,,,,,,,,10,18,Vrouw,Rechts,2,
,xotask,xotask,xotask,23,3,203,203,main,positivefb,-99,average,64,1.2509005000001707,['c'],1,left,['8'],4,0.2777378000000681,,,,,,,,10,18,Vrouw,Rechts,2,
,xotask,xotask,xotask,24,3,204,204,main,positivefb,-99,easy,72,0.7668718999998418,['c'],1,left,['8'],4,0.2451629000001958,,,,,,,,10,18,Vrouw,Rechts,2,
,xotask,xotask,xotask,25,3,205,205,main,positivefb,-99,easy,71,0.7164324000000306,['c'],1,left,['8'],4,0.14368210000020554,,,,,,,,10,18,Vrouw,Rechts,2,
,xotask,xotask,xotask,26,3,206,206,main,positivefb,-99,easy,7,0.9008488999998008,['n'],1,right,['9'],5,0.23875790000010966,,,,,,,,10,18,Vrouw,Rechts,2,
,xotask,xotask,xotask,27,3,207,207,main,positivefb,-99,hard,29,0.6005027999999584,['n'],1,right,['9'],5,0.28606600000011895,,,,,,,,10,18,Vrouw,Rechts,2,
,xotask,xotask,xotask,28,3,208,208,main,positivefb,-99,hard,51,0.8852506999996876,['c'],1,left,['2'],2,0.5205148000000008,,,,,,,,10,18,Vrouw,Rechts,2,
,xotask,xotask,xotask,29,3,209,209,main,positivefb,-99,easy,73,1.0504319000001487,['c'],1,left,['8'],4,0.24219570000013846,,,,,,,,10,18,Vrouw,Rechts,2,
,xotask,xotask,xotask,30,3,210,210,main,positivefb,-99,hard,25,0.98533819999966,['c'],0,right,['8'],4,0.1945450000002893,,,,,,,,10,18,Vrouw,Rechts,2,
,xotask,xotask,xotask,31,3,211,211,main,positivefb,-99,average,17,1.7349466999999095,['c'],0,right,['2'],2,0.36657759999980044,,,,,,,,10,18,Vrouw,Rechts,2,
,xotask,xotask,xotask,32,3,212,212,main,positivefb,-99,average,19,0.633849299999838,['n'],1,right,['9'],5,0.30328589999999167,,,,,,,,10,18,Vrouw,Rechts,2,
,xotask,xotask,xotask,33,3,213,213,main,positivefb,-99,average,19,0.6504177000001619,['n'],1,right,['9'],5,0.24995250000029046,,,,,,,,10,18,Vrouw,Rechts,2,
,xotask,xotask,xotask,34,3,214,214,main,positivefb,-99,easy,8,0.6503634000000602,['n'],1,right,['9'],5,0.3580639000001611,,,,,,,,10,18,Vrouw,Rechts,2,
,xotask,xotask,xotask,35,3,215,215,main,positivefb,-99,easy,70,0.8172338999997919,['c'],1,left,['9'],5,0.3200449999999364,,,,,,,,10,18,Vrouw,Rechts,2,
,xotask,xotask,xotask,36,3,216,216,main,positivefb,-99,hard,28,1.8508538999999473,['n'],1,right,['8'],4,0.22657299999991665,,,,,,,,10,18,Vrouw,Rechts,2,
,xotask,xotask,xotask,37,3,217,217,main,positivefb,-99,average,16,0.7174040999998397,['n'],1,right,['8'],4,0.3579205000000911,,,,,,,,10,18,Vrouw,Rechts,2,
,xotask,xotask,xotask,38,3,218,218,main,positivefb,-99,average,17,0.6338683999997556,['n'],1,right,['8'],4,0.7509994000001825,,,,,,,,10,18,Vrouw,Rechts,2,
,xotask,xotask,xotask,39,3,219,219,main,positivefb,-99,hard,26,0.5839594999997644,['n'],1,right,['8'],4,0.20298609999963446,,,,,,,,10,18,Vrouw,Rechts,2,
,xotask,xotask,xotask,40,3,220,220,main,positivefb,-99,easy,7,0.6676473000002261,['n'],1,right,['9'],5,0.23284949999970195,,,,,,,,10,18,Vrouw,Rechts,2,
,xotask,xotask,xotask,41,3,221,221,main,positivefb,-99,easy,8,0.7006920000003447,['n'],1,right,['9'],5,0.3561119000000872,,,,,,,,10,18,Vrouw,Rechts,2,
,xotask,xotask,xotask,42,3,222,222,main,positivefb,-99,average,15,0.5681076000000758,['n'],1,right,['9'],5,0.3763446000002659,,,,,,,,10,18,Vrouw,Rechts,2,
,xotask,xotask,xotask,43,3,223,223,main,positivefb,-99,average,62,1.5678244000000632,['c'],1,left,['2'],2,0.747617800000171,,,,,,,,10,18,Vrouw,Rechts,2,
,xotask,xotask,xotask,44,3,224,224,main,positivefb,-99,average,60,1.584391300000334,['c'],1,left,['8'],4,0.3748976000001676,,,,,,,,10,18,Vrouw,Rechts,2,
,xotask,xotask,xotask,45,3,225,225,main,positivefb,-99,average,64,0.6683462999999392,['c'],1,left,['8'],4,0.3511879000002409,,,,,,,,10,18,Vrouw,Rechts,2,
,xotask,xotask,xotask,46,3,226,226,main,positivefb,-99,average,64,0.5685945000000174,['c'],1,left,['8'],4,0.2827839999999924,,,,,,,,10,18,Vrouw,Rechts,2,
,xotask,xotask,xotask,47,3,227,227,main,positivefb,-99,easy,72,0.4838214000001244,['c'],1,left,['8'],4,0.2767431999996006,,,,,,,,10,18,Vrouw,Rechts,2,
,xotask,xotask,xotask,48,3,228,228,main,positivefb,-99,easy,71,0.4837150000003021,['c'],1,left,['8'],4,0.19923049999988507,,,,,,,,10,18,Vrouw,Rechts,2,
,xotask,xotask,xotask,49,3,229,229,main,positivefb,-99,hard,50,1.1184894999996686,['c'],1,left,['8'],4,0.3237813000000642,,,,,,,,10,18,Vrouw,Rechts,2,
,xotask,xotask,xotask,50,3,230,230,main,positivefb,-99,hard,50,0.8339848999999049,['c'],1,left,['8'],4,0.3179417999999714,,,,,,,,10,18,Vrouw,Rechts,2,
,xotask,xotask,xotask,51,3,231,231,main,positivefb,-99,easy,8,0.983638300000166,['n'],1,right,['9'],5,0.37861500000008164,,,,,,,,10,18,Vrouw,Rechts,2,
,xotask,xotask,xotask,52,3,232,232,main,positivefb,-99,easy,70,0.8171043000002101,['c'],1,left,['9'],5,0.24471939999966708,,,,,,,,10,18,Vrouw,Rechts,2,
,xotask,xotask,xotask,53,3,233,233,main,positivefb,-99,hard,54,1.149984300000142,['c'],1,left,['9'],5,0.3339399000001322,,,,,,,,10,18,Vrouw,Rechts,2,
,xotask,xotask,xotask,54,3,234,234,main,positivefb,-99,hard,53,0.7681169000002228,['c'],1,left,['9'],5,0.23442090000025928,,,,,,,,10,18,Vrouw,Rechts,2,
,xotask,xotask,xotask,55,3,235,235,main,positivefb,-99,hard,51,0.7001758000001246,['c'],1,left,['9'],5,0.25331910000022617,,,,,,,,10,18,Vrouw,Rechts,2,
,xotask,xotask,xotask,56,3,236,236,main,positivefb,-99,hard,27,0.5513043999999354,['c'],0,right,['9'],5,0.22994419999986349,,,,,,,,10,18,Vrouw,Rechts,2,
,xotask,xotask,xotask,57,3,237,237,main,positivefb,-99,easy,9,0.8172099000003072,['n'],1,right,['9'],5,0.26916780000010476,,,,,,,,10,18,Vrouw,Rechts,2,
,xotask,xotask,xotask,58,3,238,238,main,positivefb,-99,easy,71,0.9000259000004007,['c'],1,left,['9'],5,0.29609660000005533,,,,,,,,10,18,Vrouw,Rechts,2,
,xotask,xotask,xotask,59,3,239,239,main,positivefb,-99,hard,53,0.9339363999997659,['c'],1,left,['9'],5,0.2961276999999427,,,,,,,,10,18,Vrouw,Rechts,2,
,xotask,xotask,xotask,0,4,240,240,main,positivefb,-99,hard,51,1.8675987999999961,['c'],1,left,['8'],4,0.27841209999996863,,,,,,,,10,18,Vrouw,Rechts,2,
,xotask,xotask,xotask,1,4,241,241,main,positivefb,-99,average,60,0.7846230000000105,['c'],1,left,['8'],4,0.22110669999983656,,,,,,,,10,18,Vrouw,Rechts,2,
,xotask,xotask,xotask,2,4,242,242,main,positivefb,-99,easy,72,0.5838411999998243,['c'],1,left,['8'],4,0.1975431999999273,,,,,,,,10,18,Vrouw,Rechts,2,
,xotask,xotask,xotask,3,4,243,243,main,positivefb,-99,average,62,0.5849941000001309,['c'],1,left,['9'],5,0.1993053000001055,,,,,,,,10,18,Vrouw,Rechts,2,
,xotask,xotask,xotask,4,4,244,244,main,positivefb,-99,average,61,0.768554000000222,['c'],1,left,['9'],5,0.2088658999996369,,,,,,,,10,18,Vrouw,Rechts,2,
,xotask,xotask,xotask,5,4,245,245,main,positivefb,-99,hard,50,0.7678357999998298,['c'],1,left,['9'],5,0.22717569999986154,,,,,,,,10,18,Vrouw,Rechts,2,
,xotask,xotask,xotask,6,4,246,246,main,positivefb,-99,easy,70,0.6349795000000995,['c'],1,left,['9'],5,0.2981721999999536,,,,,,,,10,18,Vrouw,Rechts,2,
,xotask,xotask,xotask,7,4,247,247,main,positivefb,-99,average,16,0.6838864000001195,['n'],1,right,['9'],5,0.26691359999995257,,,,,,,,10,18,Vrouw,Rechts,2,
,xotask,xotask,xotask,8,4,248,248,main,positivefb,-99,easy,6,0.7008043000000725,['n'],1,right,['0'],6,0.24545650000027308,,,,,,,,10,18,Vrouw,Rechts,2,
,xotask,xotask,xotask,9,4,249,249,main,positivefb,-99,average,18,0.6843432000000575,['n'],1,right,['0'],6,0.3209623000002466,,,,,,,,10,18,Vrouw,Rechts,2,
,xotask,xotask,xotask,10,4,250,250,main,positivefb,-99,hard,54,1.6334296999998514,['n'],0,left,['8'],4,0.33191290000013396,,,,,,,,10,18,Vrouw,Rechts,2,
,xotask,xotask,xotask,11,4,251,251,main,positivefb,-99,average,19,0.9343825999999353,['n'],1,right,['8'],4,0.25774809999984427,,,,,,,,10,18,Vrouw,Rechts,2,
,xotask,xotask,xotask,12,4,252,252,main,positivefb,-99,average,62,1.0170347000002948,['c'],1,left,['8'],4,0.2560955999997532,,,,,,,,10,18,Vrouw,Rechts,2,
,xotask,xotask,xotask,13,4,253,253,main,positivefb,-99,average,62,1.0167320999998992,['c'],1,left,['8'],4,0.2456554000000324,,,,,,,,10,18,Vrouw,Rechts,2,
,xotask,xotask,xotask,14,4,254,254,main,positivefb,-99,average,19,0.9504839000001084,['n'],1,right,['9'],5,0.2871954999995978,,,,,,,,10,18,Vrouw,Rechts,2,
,xotask,xotask,xotask,15,4,255,255,main,positivefb,-99,hard,50,1.0508970999999292,['c'],1,left,['8'],4,0.2984010000000126,,,,,,,,10,18,Vrouw,Rechts,2,
,xotask,xotask,xotask,16,4,256,256,main,positivefb,-99,hard,26,0.9015291999999135,['n'],1,right,['8'],4,0.2747690999999577,,,,,,,,10,18,Vrouw,Rechts,2,
,xotask,xotask,xotask,17,4,257,257,main,positivefb,-99,hard,27,1.5843456999996306,['n'],1,right,['8'],4,0.2337217000003875,,,,,,,,10,18,Vrouw,Rechts,2,
,xotask,xotask,xotask,18,4,258,258,main,positivefb,-99,average,61,0.8178923999998915,['c'],1,left,['8'],4,0.5052191999998286,,,,,,,,10,18,Vrouw,Rechts,2,
,xotask,xotask,xotask,19,4,259,259,main,positivefb,-99,easy,5,0.5682956000000559,['n'],1,right,['8'],4,0.3023764999998093,,,,,,,,10,18,Vrouw,Rechts,2,
,xotask,xotask,xotask,20,4,260,260,main,positivefb,-99,average,62,1.8349911000000247,['c'],1,left,['8'],4,0.5382246999997733,,,,,,,,10,18,Vrouw,Rechts,2,
,xotask,xotask,xotask,21,4,261,261,main,positivefb,-99,hard,25,1.5184233999998469,['n'],1,right,['9'],5,0.30453170000009777,,,,,,,,10,18,Vrouw,Rechts,2,
,xotask,xotask,xotask,22,4,262,262,main,positivefb,-99,easy,73,2.3184620000001814,['c'],1,left,['8'],4,0.2725423000001683,,,,,,,,10,18,Vrouw,Rechts,2,
,xotask,xotask,xotask,23,4,263,263,main,positivefb,-99,easy,8,0.5675137999996878,['n'],1,right,['9'],5,0.21631969999998546,,,,,,,,10,18,Vrouw,Rechts,2,
,xotask,xotask,xotask,24,4,264,264,main,positivefb,-99,easy,6,1.1178523999997196,['n'],1,right,['9'],5,0.26741009999977905,,,,,,,,10,18,Vrouw,Rechts,2,
,xotask,xotask,xotask,25,4,265,265,main,positivefb,-99,hard,25,0.468199999999797,['n'],1,right,['9'],5,0.24615970000013476,,,,,,,,10,18,Vrouw,Rechts,2,
,xotask,xotask,xotask,26,4,266,266,main,positivefb,-99,hard,28,0.41776219999974273,['n'],1,right,['9'],5,0.28564249999999447,,,,,,,,10,18,Vrouw,Rechts,2,
,xotask,xotask,xotask,27,4,267,267,main,positivefb,-99,hard,52,0.5506096000003708,['n'],0,left,['9'],5,0.2850825000000441,,,,,,,,10,18,Vrouw,Rechts,2,
,xotask,xotask,xotask,28,4,268,268,main,positivefb,-99,hard,25,1.517427900000257,['n'],1,right,['2'],2,0.4608097000000271,,,,,,,,10,18,Vrouw,Rechts,2,
,xotask,xotask,xotask,29,4,269,269,main,positivefb,-99,average,64,0.9520274999999856,['c'],1,left,['8'],4,0.26987689999987197,,,,,,,,10,18,Vrouw,Rechts,2,
,xotask,xotask,xotask,30,4,270,270,main,positivefb,-99,average,15,0.6175445000003492,['n'],1,right,['9'],5,0.42779079999991154,,,,,,,,10,18,Vrouw,Rechts,2,
,xotask,xotask,xotask,31,4,271,271,main,positivefb,-99,average,63,0.9169880999997986,['c'],1,left,['8'],4,0.4546501999998327,,,,,,,,10,18,Vrouw,Rechts,2,
,xotask,xotask,xotask,32,4,272,272,main,positivefb,-99,easy,73,1.317657600000075,['c'],1,left,['8'],4,0.24045939999996335,,,,,,,,10,18,Vrouw,Rechts,2,
,xotask,xotask,xotask,33,4,273,273,main,positivefb,-99,easy,6,0.7507516000000578,['n'],1,right,['9'],5,0.23384840000016993,,,,,,,,10,18,Vrouw,Rechts,2,
,xotask,xotask,xotask,34,4,274,274,main,positivefb,-99,easy,9,0.5678939999997965,['n'],1,right,['9'],5,0.3387517000001026,,,,,,,,10,18,Vrouw,Rechts,2,
,xotask,xotask,xotask,35,4,275,275,main,positivefb,-99,hard,53,1.150974799999858,['c'],1,left,['8'],4,0.40020989999993617,,,,,,,,10,18,Vrouw,Rechts,2,
,xotask,xotask,xotask,36,4,276,276,main,positivefb,-99,hard,52,0.9514423999999053,['c'],1,left,['8'],4,0.17911020000019562,,,,,,,,10,18,Vrouw,Rechts,2,
,xotask,xotask,xotask,37,4,277,277,main,positivefb,-99,easy,73,1.1338184999999612,['c'],1,left,['9'],5,0.62378869999975,,,,,,,,10,18,Vrouw,Rechts,2,
,xotask,xotask,xotask,38,4,278,278,main,positivefb,-99,easy,8,0.7179756000000452,['n'],1,right,['9'],5,0.3224613999996109,,,,,,,,10,18,Vrouw,Rechts,2,
,xotask,xotask,xotask,39,4,279,279,main,positivefb,-99,hard,27,0.9335470000000896,['c'],0,right,['8'],4,0.5051478000000316,,,,,,,,10,18,Vrouw,Rechts,2,
,xotask,xotask,xotask,40,4,280,280,main,positivefb,-99,hard,50,0.8844919999996819,['c'],1,left,['8'],4,0.38750660000005155,,,,,,,,10,18,Vrouw,Rechts,2,
,xotask,xotask,xotask,41,4,281,281,main,positivefb,-99,average,18,0.918422499999906,['n'],1,right,['9'],5,0.344256200000018,,,,,,,,10,18,Vrouw,Rechts,2,
,xotask,xotask,xotask,42,4,282,282,main,positivefb,-99,average,19,0.8178102000001672,['n'],1,right,['9'],5,0.20276509999985137,,,,,,,,10,18,Vrouw,Rechts,2,
,xotask,xotask,xotask,43,4,283,283,main,positivefb,-99,hard,29,0.6829634000000624,['n'],1,right,['9'],5,0.31978280000021186,,,,,,,,10,18,Vrouw,Rechts,2,
,xotask,xotask,xotask,44,4,284,284,main,positivefb,-99,easy,70,0.8840307000000394,['c'],1,left,['8'],4,0.2879838999997446,,,,,,,,10,18,Vrouw,Rechts,2,
,xotask,xotask,xotask,45,4,285,285,main,positivefb,-99,hard,27,1.3000960999997915,['c'],0,right,['2'],2,0.338295399999879,,,,,,,,10,18,Vrouw,Rechts,2,
,xotask,xotask,xotask,46,4,286,286,main,positivefb,-99,easy,71,1.2496987999998055,['c'],1,left,['8'],4,0.40366660000017873,,,,,,,,10,18,Vrouw,Rechts,2,
,xotask,xotask,xotask,47,4,287,287,main,positivefb,-99,average,19,0.7670398999998724,['n'],1,right,['8'],4,0.3410644999999022,,,,,,,,10,18,Vrouw,Rechts,2,
,xotask,xotask,xotask,48,4,288,288,main,positivefb,-99,easy,6,0.8843393000001925,['n'],1,right,['9'],5,0.26089330000013433,,,,,,,,10,18,Vrouw,Rechts,2,
,xotask,xotask,xotask,49,4,289,289,main,positivefb,-99,easy,71,1.0846520999998575,['c'],1,left,['9'],5,0.40823909999971875,,,,,,,,10,18,Vrouw,Rechts,2,
,xotask,xotask,xotask,50,4,290,290,main,positivefb,-99,easy,71,1.1016100000001643,['c'],1,left,['9'],5,0.2927766999996493,,,,,,,,10,18,Vrouw,Rechts,2,
,xotask,xotask,xotask,51,4,291,291,main,positivefb,-99,easy,72,0.8180668999998488,['c'],1,left,['9'],5,0.2825459000000592,,,,,,,,10,18,Vrouw,Rechts,2,
,xotask,xotask,xotask,52,4,292,292,main,positivefb,-99,average,19,0.9176105999999891,['n'],1,right,['0'],6,0.2586857000001146,,,,,,,,10,18,Vrouw,Rechts,2,
,xotask,xotask,xotask,53,4,293,293,main,positivefb,-99,average,16,0.71709890000011,['n'],1,right,['0'],6,0.30891790000032415,,,,,,,,10,18,Vrouw,Rechts,2,
,xotask,xotask,xotask,54,4,294,294,main,positivefb,-99,easy,9,3.534256500000083,['c'],0,right,['2'],2,0.34830409999995027,,,,,,,,10,18,Vrouw,Rechts,2,
,xotask,xotask,xotask,55,4,295,295,main,positivefb,-99,average,62,1.3336803000001964,['c'],1,left,['8'],4,0.7298767999996016,,,,,,,,10,18,Vrouw,Rechts,2,
,xotask,xotask,xotask,56,4,296,296,main,positivefb,-99,hard,50,0.8502964999997857,['c'],1,left,['8'],4,0.48385789999974804,,,,,,,,10,18,Vrouw,Rechts,2,
,xotask,xotask,xotask,57,4,297,297,main,positivefb,-99,easy,6,0.5846625999997741,['n'],1,right,['9'],5,0.5696757999999136,,,,,,,,10,18,Vrouw,Rechts,2,
,xotask,xotask,xotask,58,4,298,298,main,positivefb,-99,hard,28,0.567033100000117,['n'],1,right,['9'],5,0.22923060000039186,,,,,,,,10,18,Vrouw,Rechts,2,
,xotask,xotask,xotask,59,4,299,299,main,positivefb,-99,hard,50,1.2829486999999062,['c'],1,left,['2'],2,0.2497281999999359,,,,,,,,10,18,Vrouw,Rechts,2,
,xotask,xotask,xotask,0,0,0,300,training,positivefb,82,average,19,0.6176921999999649,['n'],1,right,['9'],5,0.25585229999978765,,,,,,,,10,18,Vrouw,Rechts,2,
,xotask,xotask,xotask,1,0,1,301,training,positivefb,92,average,15,0.7498043000000507,['n'],1,right,['9'],5,0.28795679999984714,,,,,,,,10,18,Vrouw,Rechts,2,
,xotask,xotask,xotask,2,0,2,302,training,positivefb,98,hard,54,0.7170083000000886,['c'],1,left,['8'],4,0.20792290000008506,,,,,,,,10,18,Vrouw,Rechts,2,
,xotask,xotask,xotask,3,0,3,303,training,positivefb,95,easy,72,0.6508779000000686,['c'],1,left,['9'],5,0.26991339999995034,,,,,,,,10,18,Vrouw,Rechts,2,
,xotask,xotask,xotask,4,0,4,304,training,positivefb,95,hard,28,0.7006844000002275,['c'],0,right,['8'],4,0.20726960000001782,,,,,,,,10,18,Vrouw,Rechts,2,
,xotask,xotask,xotask,5,0,5,305,training,positivefb,87,average,17,0.73420410000017,['c'],0,right,['8'],4,0.20198069999969448,,,,,,,,10,18,Vrouw,Rechts,2,
,xotask,xotask,xotask,6,0,6,306,training,positivefb,97,easy,74,0.5846698000000288,['c'],1,left,['9'],5,0.3871387999997751,,,,,,,,10,18,Vrouw,Rechts,2,
,xotask,xotask,xotask,7,0,7,307,training,positivefb,91,average,18,1.6176673999998457,['n'],1,right,['8'],4,0.32303830000000744,,,,,,,,10,18,Vrouw,Rechts,2,
,xotask,xotask,xotask,8,0,8,308,training,positivefb,96,hard,50,0.7996637000001101,['c'],1,left,['8'],4,0.2460544000000482,,,,,,,,10,18,Vrouw,Rechts,2,
,xotask,xotask,xotask,9,0,9,309,training,positivefb,96,easy,6,0.7332036000002518,['n'],1,right,['9'],5,0.23948810000001686,,,,,,,,10,18,Vrouw,Rechts,2,
,xotask,xotask,xotask,10,0,10,310,training,positivefb,89,average,60,1.3163340000000971,['c'],1,left,['8'],4,0.21747199999981603,,,,,,,,10,18,Vrouw,Rechts,2,
,xotask,xotask,xotask,11,0,11,311,training,positivefb,99,easy,71,0.6667009000002508,['c'],1,left,['9'],5,0.4300977000002604,,,,,,,,10,18,Vrouw,Rechts,2,
,xotask,xotask,xotask,12,0,12,312,training,positivefb,95,hard,51,0.6161158999998406,['c'],1,left,['9'],5,0.23685240000031627,,,,,,,,10,18,Vrouw,Rechts,2,
,xotask,xotask,xotask,13,0,13,313,training,positivefb,99,easy,71,0.4507951000000503,['c'],1,left,['9'],5,0.22552959999984523,,,,,,,,10,18,Vrouw,Rechts,2,
,xotask,xotask,xotask,14,0,14,314,training,positivefb,95,easy,70,0.5162577999999485,['c'],1,left,['9'],5,0.2205933999998706,,,,,,,,10,18,Vrouw,Rechts,2,
,xotask,xotask,xotask,15,0,15,315,training,positivefb,98,average,18,0.43427120000023933,['c'],0,right,['9'],5,0.21831309999970472,,,,,,,,10,18,Vrouw,Rechts,2,
,xotask,xotask,xotask,16,0,16,316,training,positivefb,98,average,63,0.48435739999968064,['c'],1,left,['9'],5,0.15858299999990777,,,,,,,,10,18,Vrouw,Rechts,2,
,xotask,xotask,xotask,17,0,17,317,training,positivefb,71,hard,29,1.166120299999875,['n'],1,right,['8'],4,0.3300310999998146,,,,,,,,10,18,Vrouw,Rechts,2,
,xotask,xotask,xotask,18,0,18,318,training,positivefb,98,easy,73,1.0665447999999742,['c'],1,left,['8'],4,0.21026610000035362,,,,,,,,10,18,Vrouw,Rechts,2,
,xotask,xotask,xotask,19,0,19,319,training,positivefb,91,easy,6,0.9330237999997735,['n'],1,right,['9'],5,0.26906370000006063,,,,,,,,10,18,Vrouw,Rechts,2,
,xotask,xotask,xotask,20,0,20,320,training,positivefb,95,average,64,1.0007660000001124,['c'],1,left,['9'],5,0.2905025999998543,,,,,,,,10,18,Vrouw,Rechts,2,
,xotask,xotask,xotask,21,0,21,321,training,positivefb,47,easy,8,0.7505300999996507,['c'],0,right,['2'],2,0.7527297999999973,,,,,,,,10,18,Vrouw,Rechts,2,
,xotask,xotask,xotask,22,0,22,322,training,positivefb,86,hard,50,1.532706699999835,['c'],1,left,['9'],5,0.19771659999969415,,,,,,,,10,18,Vrouw,Rechts,2,
,xotask,xotask,xotask,23,0,23,323,training,positivefb,97,average,64,0.5994972999997117,['c'],1,left,['9'],5,0.24646050000001196,,,,,,,,10,18,Vrouw,Rechts,2,
,xotask,xotask,xotask,24,0,24,324,training,positivefb,93,easy,7,0.5832048999996005,['n'],1,right,['9'],5,0.2537404000004244,,,,,,,,10,18,Vrouw,Rechts,2,
,xotask,xotask,xotask,25,0,25,325,training,positivefb,51,average,17,0.5662345999999161,['n'],1,right,['0'],6,0.32525970000006055,,,,,,,,10,18,Vrouw,Rechts,2,
,xotask,xotask,xotask,26,0,26,326,training,positivefb,53,hard,26,3.3678196000000753,['c'],0,right,['8'],4,0.513821900000039,,,,,,,,10,18,Vrouw,Rechts,2,
,xotask,xotask,xotask,27,0,27,327,training,positivefb,71,hard,27,2.050895699999728,['c'],0,right,['2'],2,0.3079802000002019,,,,,,,,10,18,Vrouw,Rechts,2,
,xotask,xotask,xotask,28,0,28,328,training,positivefb,93,average,61,0.9167338000002019,['c'],1,left,['8'],4,0.2751973999997972,,,,,,,,10,18,Vrouw,Rechts,2,
,xotask,xotask,xotask,29,0,29,329,training,positivefb,89,hard,52,1.4173381000000518,['c'],1,left,['8'],4,0.1829625999998825,,,,,,,,10,18,Vrouw,Rechts,2,
,xotask,xotask,xotask,30,0,30,330,training,positivefb,94,hard,27,0.8664050000002135,['c'],0,right,['8'],4,0.21338049999985742,,,,,,,,10,18,Vrouw,Rechts,2,
,xotask,xotask,xotask,31,0,31,331,training,positivefb,86,average,60,0.6660148999999365,['c'],1,left,['9'],5,0.29865830000017013,,,,,,,,10,18,Vrouw,Rechts,2,
,xotask,xotask,xotask,32,0,32,332,training,positivefb,86,easy,71,0.8169459000000643,['c'],1,left,['9'],5,0.24631640000006882,,,,,,,,10,18,Vrouw,Rechts,2,
,xotask,xotask,xotask,33,0,33,333,training,positivefb,94,average,60,0.5497503000001416,['c'],1,left,['9'],5,0.16664070000024367,,,,,,,,10,18,Vrouw,Rechts,2,
,xotask,xotask,xotask,34,0,34,334,training,positivefb,98,easy,70,0.4499027000001661,['c'],1,left,['9'],5,0.18172340000000986,,,,,,,,10,18,Vrouw,Rechts,2,
,xotask,xotask,xotask,35,0,35,335,training,positivefb,96,hard,52,0.5006646000001638,['c'],1,left,['9'],5,0.17875089999961347,,,,,,,,10,18,Vrouw,Rechts,2,
,xotask,xotask,xotask,36,0,36,336,training,positivefb,95,hard,28,0.7842006000000765,['c'],0,right,['9'],5,0.14078590000008262,,,,,,,,10,18,Vrouw,Rechts,2,
,xotask,xotask,xotask,37,0,37,337,training,positivefb,95,average,64,0.5343034000002262,['c'],1,left,['9'],5,0.14621589999978823,,,,,,,,10,18,Vrouw,Rechts,2,
,xotask,xotask,xotask,38,0,38,338,training,positivefb,98,hard,25,0.7502992999998241,['n'],1,right,['0'],6,0.28710199999977704,,,,,,,,10,18,Vrouw,Rechts,2,
,xotask,xotask,xotask,39,0,39,339,training,positivefb,99,average,19,0.6674146000000292,['n'],1,right,['9'],5,0.5686126000000513,,,,,,,,10,18,Vrouw,Rechts,2,
,xotask,xotask,xotask,40,0,40,340,training,positivefb,95,easy,7,0.7665361999997913,['n'],1,right,['9'],5,0.21904489999997168,,,,,,,,10,18,Vrouw,Rechts,2,
,xotask,xotask,xotask,41,0,41,341,training,positivefb,97,easy,70,0.7337127000000692,['c'],1,left,['8'],4,0.23737449999998717,,,,,,,,10,18,Vrouw,Rechts,2,
,xotask,xotask,xotask,42,0,42,342,training,positivefb,95,easy,5,0.5664282000002459,['n'],1,right,['9'],5,0.21374090000017532,,,,,,,,10,18,Vrouw,Rechts,2,
,xotask,xotask,xotask,43,0,43,343,training,positivefb,67,easy,9,0.9162433999999848,['c'],0,right,['8'],4,0.23363870000002862,,,,,,,,10,18,Vrouw,Rechts,2,
,xotask,xotask,xotask,44,0,44,344,training,positivefb,89,easy,71,0.783842199999981,['c'],1,left,['8'],4,0.1840436000002228,,,,,,,,10,18,Vrouw,Rechts,2,
,xotask,xotask,xotask,45,0,45,345,training,positivefb,98,easy,6,0.6002555000000029,['n'],1,right,['9'],5,0.27258290000008856,,,,,,,,10,18,Vrouw,Rechts,2,
,xotask,xotask,xotask,46,0,46,346,training,positivefb,70,hard,25,0.6339112000000569,['c'],0,right,['8'],4,0.2286565999997947,,,,,,,,10,18,Vrouw,Rechts,2,
,xotask,xotask,xotask,47,0,47,347,training,positivefb,94,easy,8,0.6506976999999097,['n'],1,right,['9'],5,0.26647219999995286,,,,,,,,10,18,Vrouw,Rechts,2,
,xotask,xotask,xotask,48,0,48,348,training,positivefb,89,average,17,0.5835170000000289,['n'],1,right,['9'],5,0.20004659999995056,,,,,,,,10,18,Vrouw,Rechts,2,
,xotask,xotask,xotask,49,0,49,349,training,positivefb,98,easy,8,0.4511449999999968,['n'],1,right,['9'],5,0.25466519999963566,,,,,,,,10,18,Vrouw,Rechts,2,
,xotask,xotask,xotask,50,0,50,350,training,positivefb,99,hard,26,0.43414620000021387,['n'],1,right,['9'],5,0.3630938999999671,,,,,,,,10,18,Vrouw,Rechts,2,
,xotask,xotask,xotask,51,0,51,351,training,positivefb,97,average,64,0.6163142000000335,['c'],1,left,['8'],4,0.22906019999982163,,,,,,,,10,18,Vrouw,Rechts,2,
,xotask,xotask,xotask,52,0,52,352,training,positivefb,86,average,62,1.5996069000002535,['c'],1,left,['8'],4,0.2034604999998919,,,,,,,,10,18,Vrouw,Rechts,2,
,xotask,xotask,xotask,53,0,53,353,training,positivefb,87,hard,50,1.2832562000003236,['c'],1,left,['9'],5,0.15313250000008338,,,,,,,,10,18,Vrouw,Rechts,2,
,xotask,xotask,xotask,54,0,54,354,training,positivefb,86,hard,53,0.7504254000000401,['c'],1,left,['9'],5,0.22907709999981307,,,,,,,,10,18,Vrouw,Rechts,2,
,xotask,xotask,xotask,55,0,55,355,training,positivefb,96,hard,51,0.6007574000000204,['c'],1,left,['9'],5,0.21248620000005758,,,,,,,,10,18,Vrouw,Rechts,2,
,xotask,xotask,xotask,56,0,56,356,training,positivefb,98,average,15,0.5844849000000067,['n'],1,right,['9'],5,0.2768404999997074,,,,,,,,10,18,Vrouw,Rechts,2,
,xotask,xotask,xotask,57,0,57,357,training,positivefb,97,hard,53,0.7177600999998504,['c'],1,left,['9'],5,0.4219111000002158,,,,,,,,10,18,Vrouw,Rechts,2,
,xotask,xotask,xotask,58,0,58,358,training,positivefb,97,average,15,0.5012266999997337,['n'],1,right,['9'],5,0.2572288000001208,,,,,,,,10,18,Vrouw,Rechts,2,
,xotask,xotask,xotask,59,0,59,359,training,positivefb,76,hard,26,0.9844907000001513,['n'],1,right,['9'],5,0.2316685000000689,,,,,,,,10,18,Vrouw,Rechts,2,
,xotask,xotask,xotask,0,1,60,360,training,positivefb,81,average,17,1.0994370999997045,['n'],1,right,['9'],5,0.2953469999997651,,,,,,,,10,18,Vrouw,Rechts,2,
,xotask,xotask,xotask,1,1,61,361,training,positivefb,92,hard,51,0.583609400000114,['n'],0,left,['9'],5,0.2686181000003671,,,,,,,,10,18,Vrouw,Rechts,2,
,xotask,xotask,xotask,2,1,62,362,training,positivefb,98,easy,73,0.7164756000001944,['c'],1,left,['9'],5,0.16537590000007185,,,,,,,,10,18,Vrouw,Rechts,2,
,xotask,xotask,xotask,3,1,63,363,training,positivefb,96,average,15,0.5842312999998285,['n'],1,right,['9'],5,0.23136479999993753,,,,,,,,10,18,Vrouw,Rechts,2,
,xotask,xotask,xotask,4,1,64,364,training,positivefb,96,easy,6,0.5340250999997807,['n'],1,right,['9'],5,0.23300170000038634,,,,,,,,10,18,Vrouw,Rechts,2,
,xotask,xotask,xotask,5,1,65,365,training,positivefb,89,hard,29,0.7339162999996915,['c'],0,right,['9'],5,0.2506984999999986,,,,,,,,10,18,Vrouw,Rechts,2,
,xotask,xotask,xotask,6,1,66,366,training,positivefb,84,average,60,1.8177025999998477,['n'],0,left,['8'],4,0.5912405999997645,,,,,,,,10,18,Vrouw,Rechts,2,
,xotask,xotask,xotask,7,1,67,367,training,positivefb,96,easy,70,0.7334391999997933,['c'],1,left,['9'],5,0.17849470000010115,,,,,,,,10,18,Vrouw,Rechts,2,
,xotask,xotask,xotask,8,1,68,368,training,positivefb,94,average,64,0.5165713000001233,['c'],1,left,['9'],5,0.22344599999996717,,,,,,,,10,18,Vrouw,Rechts,2,
,xotask,xotask,xotask,9,1,69,369,training,positivefb,97,average,16,0.8171906000002309,['n'],1,right,['8'],4,0.2385122999999112,,,,,,,,10,18,Vrouw,Rechts,2,
,xotask,xotask,xotask,10,1,70,370,training,positivefb,97,average,63,1.0667213000001539,['c'],1,left,['8'],4,0.22656480000023294,,,,,,,,10,18,Vrouw,Rechts,2,
,xotask,xotask,xotask,11,1,71,371,training,positivefb,94,easy,71,2.4671816999998555,['c'],1,left,['8'],4,0.21517519999997603,,,,,,,,10,18,Vrouw,Rechts,2,
,xotask,xotask,xotask,12,1,72,372,training,positivefb,99,hard,50,0.7845757000000049,['c'],1,left,['8'],4,0.15061780000041836,,,,,,,,10,18,Vrouw,Rechts,2,
,xotask,xotask,xotask,13,1,73,373,training,positivefb,83,hard,29,0.6827800999999454,['c'],0,right,['8'],4,0.14959940000017014,,,,,,,,10,18,Vrouw,Rechts,2,
,xotask,xotask,xotask,14,1,74,374,training,positivefb,94,average,16,0.766508199999862,['c'],0,right,['8'],4,0.15330949999997756,,,,,,,,10,18,Vrouw,Rechts,2,
,xotask,xotask,xotask,15,1,75,375,training,positivefb,81,average,62,0.5674107000004369,['c'],1,left,['8'],4,0.1809570000000349,,,,,,,,10,18,Vrouw,Rechts,2,
,xotask,xotask,xotask,16,1,76,376,training,positivefb,98,hard,25,0.6170184000002337,['c'],0,right,['8'],4,0.22948820000010528,,,,,,,,10,18,Vrouw,Rechts,2,
,xotask,xotask,xotask,17,1,77,377,training,positivefb,90,average,63,0.5672531000000163,['c'],1,left,['8'],4,0.5820700999997825,,,,,,,,10,18,Vrouw,Rechts,2,
,xotask,xotask,xotask,18,1,78,378,training,positivefb,96,hard,52,0.6162985000000845,['c'],1,left,['9'],5,0.2220804999997199,,,,,,,,10,18,Vrouw,Rechts,2,
,xotask,xotask,xotask,19,1,79,379,training,positivefb,98,average,16,0.5175719000003483,['n'],1,right,['9'],5,0.25658449999991717,,,,,,,,10,18,Vrouw,Rechts,2,
,xotask,xotask,xotask,20,1,80,380,training,positivefb,97,hard,50,0.5667766000001393,['c'],1,left,['8'],4,0.2397012999999788,,,,,,,,10,18,Vrouw,Rechts,2,
,xotask,xotask,xotask,21,1,81,381,training,positivefb,96,hard,28,0.6497893000000659,['n'],1,right,['9'],5,0.2602194999999483,,,,,,,,10,18,Vrouw,Rechts,2,
,xotask,xotask,xotask,22,1,82,382,training,positivefb,98,easy,5,0.6169122999999672,['n'],1,right,['9'],5,0.2817267999998876,,,,,,,,10,18,Vrouw,Rechts,2,
,xotask,xotask,xotask,23,1,83,383,training,positivefb,94,average,18,0.4161610000001019,['n'],1,right,['9'],5,0.2540211000000454,,,,,,,,10,18,Vrouw,Rechts,2,
,xotask,xotask,xotask,24,1,84,384,training,positivefb,93,average,60,0.3500441999999566,['n'],0,left,['2'],2,0.8456052999999883,,,,,,,,10,18,Vrouw,Rechts,2,
,xotask,xotask,xotask,25,1,85,385,training,positivefb,94,easy,8,0.6840357999999469,['n'],1,right,['0'],6,0.7450625999999829,,,,,,,,10,18,Vrouw,Rechts,2,
,xotask,xotask,xotask,26,1,86,386,training,positivefb,77,hard,27,0.6171275000001515,['n'],1,right,['9'],5,0.2833155000002989,,,,,,,,10,18,Vrouw,Rechts,2,
,xotask,xotask,xotask,27,1,87,387,training,positivefb,95,average,64,0.8176422000001367,['c'],1,left,['9'],5,0.6874029999999038,,,,,,,,10,18,Vrouw,Rechts,2,
,xotask,xotask,xotask,28,1,88,388,training,positivefb,96,hard,53,0.6676354000001083,['c'],1,left,['9'],5,0.1695054000001619,,,,,,,,10,18,Vrouw,Rechts,2,
,xotask,xotask,xotask,29,1,89,389,training,positivefb,89,hard,52,0.484339899999668,['c'],1,left,['9'],5,0.23936219999995956,,,,,,,,10,18,Vrouw,Rechts,2,
,xotask,xotask,xotask,30,1,90,390,training,positivefb,93,hard,52,0.5673916000000645,['c'],1,left,['9'],5,0.27207899999984875,,,,,,,,10,18,Vrouw,Rechts,2,
,xotask,xotask,xotask,31,1,91,391,training,positivefb,86,average,63,0.5166872999998304,['c'],1,left,['9'],5,0.24859340000011798,,,,,,,,10,18,Vrouw,Rechts,2,
,xotask,xotask,xotask,32,1,92,392,training,positivefb,70,hard,52,0.9171841000002132,['c'],1,left,['8'],4,0.23321390000000974,,,,,,,,10,18,Vrouw,Rechts,2,
,xotask,xotask,xotask,33,1,93,393,training,positivefb,39,average,63,0.8821287000000666,['c'],1,left,['8'],4,1.3892116000001806,,,,,,,,10,18,Vrouw,Rechts,2,
,xotask,xotask,xotask,34,1,94,394,training,positivefb,84,hard,27,0.6002010000001974,['c'],0,right,['8'],4,0.4215288000000328,,,,,,,,10,18,Vrouw,Rechts,2,
,xotask,xotask,xotask,35,1,95,395,training,positivefb,85,easy,73,0.5667942999998559,['c'],1,left,['8'],4,0.17486810000036712,,,,,,,,10,18,Vrouw,Rechts,2,
,xotask,xotask,xotask,36,1,96,396,training,positivefb,88,easy,5,0.7013843999998244,['n'],1,right,['9'],5,0.24382250000007843,,,,,,,,10,18,Vrouw,Rechts,2,
,xotask,xotask,xotask,37,1,97,397,training,positivefb,93,easy,73,1.000473399999919,['c'],1,left,['8'],4,0.21112080000011701,,,,,,,,10,18,Vrouw,Rechts,2,
,xotask,xotask,xotask,38,1,98,398,training,positivefb,91,easy,6,0.8174257999999099,['c'],0,right,['8'],4,0.24160740000024816,,,,,,,,10,18,Vrouw,Rechts,2,
,xotask,xotask,xotask,39,1,99,399,training,positivefb,86,hard,29,0.9499350999999479,['n'],1,right,['9'],5,0.21827989999974307,,,,,,,,10,18,Vrouw,Rechts,2,
,xotask,xotask,xotask,40,1,100,400,training,positivefb,94,average,18,1.1008209999999963,['n'],1,right,['9'],5,0.24554429999989225,,,,,,,,10,18,Vrouw,Rechts,2,
,xotask,xotask,xotask,41,1,101,401,training,positivefb,97,easy,7,0.5514011999998729,['n'],1,right,['9'],5,0.3105422999997245,,,,,,,,10,18,Vrouw,Rechts,2,
,xotask,xotask,xotask,42,1,102,402,training,positivefb,98,easy,71,0.7331035999995947,['c'],1,left,['9'],5,0.18064300000014555,,,,,,,,10,18,Vrouw,Rechts,2,
,xotask,xotask,xotask,43,1,103,403,training,positivefb,95,hard,50,0.9006119000000581,['c'],1,left,['8'],4,0.31390449999980774,,,,,,,,10,18,Vrouw,Rechts,2,
,xotask,xotask,xotask,44,1,104,404,training,positivefb,94,easy,71,1.1499078000001646,['c'],1,left,['9'],5,0.28016399999978603,,,,,,,,10,18,Vrouw,Rechts,2,
,xotask,xotask,xotask,45,1,105,405,training,positivefb,92,average,18,0.6170013999999355,['n'],1,right,['9'],5,0.300919100000101,,,,,,,,10,18,Vrouw,Rechts,2,
,xotask,xotask,xotask,46,1,106,406,training,positivefb,99,easy,70,0.9845365999999558,['c'],1,left,['9'],5,0.913405899999816,,,,,,,,10,18,Vrouw,Rechts,2,
,xotask,xotask,xotask,47,1,107,407,training,positivefb,93,average,16,0.7007031999996798,['n'],1,right,['9'],5,0.2493893000000753,,,,,,,,10,18,Vrouw,Rechts,2,
,xotask,xotask,xotask,48,1,108,408,training,positivefb,97,easy,9,0.6007503000000725,['n'],1,right,['0'],6,0.3347969000001285,,,,,,,,10,18,Vrouw,Rechts,2,
,xotask,xotask,xotask,49,1,109,409,training,positivefb,81,hard,29,0.7668929000001299,['n'],1,right,['0'],6,0.3870348999998896,,,,,,,,10,18,Vrouw,Rechts,2,
,xotask,xotask,xotask,50,1,110,410,training,positivefb,72,hard,25,0.9005961000002571,['c'],0,right,['8'],4,0.32018939999989016,,,,,,,,10,18,Vrouw,Rechts,2,
,xotask,xotask,xotask,51,1,111,411,training,positivefb,93,hard,50,0.6339238999998997,['c'],1,left,['9'],5,0.21807360000002518,,,,,,,,10,18,Vrouw,Rechts,2,
,xotask,xotask,xotask,52,1,112,412,training,positivefb,84,easy,6,0.5668218000000707,['n'],1,right,['9'],5,0.19447859999991124,,,,,,,,10,18,Vrouw,Rechts,2,
,xotask,xotask,xotask,53,1,113,413,training,positivefb,85,average,62,0.7009226999998646,['c'],1,left,['9'],5,0.15140340000016295,,,,,,,,10,18,Vrouw,Rechts,2,
,xotask,xotask,xotask,54,1,114,414,training,positivefb,94,easy,8,0.5003375999999662,['n'],1,right,['0'],6,0.2774437999996735,,,,,,,,10,18,Vrouw,Rechts,2,
,xotask,xotask,xotask,55,1,115,415,training,positivefb,89,easy,70,1.2335330000000795,['c'],1,left,['0'],6,0.1695122999999512,,,,,,,,10,18,Vrouw,Rechts,2,
,xotask,xotask,xotask,56,1,116,416,training,positivefb,99,average,19,0.5996452999997928,['n'],1,right,['9'],5,0.2989724000003662,,,,,,,,10,18,Vrouw,Rechts,2,
,xotask,xotask,xotask,57,1,117,417,training,positivefb,98,easy,70,0.6003429000002143,['c'],1,left,['9'],5,0.23908699999992677,,,,,,,,10,18,Vrouw,Rechts,2,
,xotask,xotask,xotask,58,1,118,418,training,positivefb,97,hard,28,0.6832570999999916,['n'],1,right,['8'],4,0.458321099999921,,,,,,,,10,18,Vrouw,Rechts,2,
,xotask,xotask,xotask,59,1,119,419,training,positivefb,98,easy,6,0.7007833000002393,['n'],1,right,['9'],5,0.5081061000000773,,,,,,,,10,18,Vrouw,Rechts,2,
,dotcolour,xotask,xotask,0,2,120,420,main,positivefb,-99,average,,1.6014540999999554,['c'],1,left,['9'],5,0.37420320000001084,54,,,,,,,10,18,Vrouw,Rechts,2,
,dotcolour,xotask,xotask,1,2,121,421,main,positivefb,-99,average,,0.7342760999999882,['n'],1,right,['9'],5,0.40234190000001036,26,,,,,,,10,18,Vrouw,Rechts,2,
,dotcolour,xotask,xotask,2,2,122,422,main,positivefb,-99,easy,,0.8680912999998327,['c'],1,left,['8'],4,0.6326987999996163,63,,,,,,,10,18,Vrouw,Rechts,2,
,dotcolour,xotask,xotask,3,2,123,423,main,positivefb,-99,hard,,0.9678330000001552,['n'],0,left,['9'],5,0.3215682000000015,43,,,,,,,10,18,Vrouw,Rechts,2,
,dotcolour,xotask,xotask,4,2,124,424,main,positivefb,-99,hard,,1.0512139000002207,['n'],1,right,['9'],5,0.36384559999987687,35,,,,,,,10,18,Vrouw,Rechts,2,
,dotcolour,xotask,xotask,5,2,125,425,main,positivefb,-99,easy,,1.2171504000002642,['c'],1,left,['9'],5,0.32574209999984305,63,,,,,,,10,18,Vrouw,Rechts,2,
,dotcolour,xotask,xotask,6,2,126,426,main,positivefb,-99,hard,,1.5843478000001596,['n'],1,right,['8'],4,0.698457899999994,39,,,,,,,10,18,Vrouw,Rechts,2,
,dotcolour,xotask,xotask,7,2,127,427,main,positivefb,-99,average,,0.984744800000044,['n'],1,right,['8'],4,0.3277155999999195,26,,,,,,,10,18,Vrouw,Rechts,2,
,dotcolour,xotask,xotask,8,2,128,428,main,positivefb,-99,easy,,0.9013033000001087,['n'],1,right,['9'],5,0.42395570000007865,17,,,,,,,10,18,Vrouw,Rechts,2,
,dotcolour,xotask,xotask,9,2,129,429,main,positivefb,-99,hard,,1.2337134999997943,['c'],1,left,['9'],5,0.3345014000001356,44,,,,,,,10,18,Vrouw,Rechts,2,
,dotcolour,xotask,xotask,10,2,130,430,main,positivefb,-99,easy,,0.8006828000002315,['c'],1,left,['9'],5,0.3305172999998831,65,,,,,,,10,18,Vrouw,Rechts,2,
,dotcolour,xotask,xotask,11,2,131,431,main,positivefb,-99,average,,0.8185355999999047,['c'],1,left,['9'],5,0.2853829000000587,51,,,,,,,10,18,Vrouw,Rechts,2,
,dotcolour,xotask,xotask,12,2,132,432,main,positivefb,-99,easy,,0.8679999999999382,['n'],1,right,['0'],6,0.4078214000001026,16,,,,,,,10,18,Vrouw,Rechts,2,
,dotcolour,xotask,xotask,13,2,133,433,main,positivefb,-99,average,,1.3004347999999482,['n'],1,right,['8'],4,0.3646115000001373,27,,,,,,,10,18,Vrouw,Rechts,2,
,dotcolour,xotask,xotask,14,2,134,434,main,positivefb,-99,easy,,1.0177502000001368,['c'],1,left,['9'],5,0.3654566000000159,62,,,,,,,10,18,Vrouw,Rechts,2,
,dotcolour,xotask,xotask,15,2,135,435,main,positivefb,-99,hard,,1.0675051999996867,['n'],0,left,['9'],5,0.3086935999999696,42,,,,,,,10,18,Vrouw,Rechts,2,
,dotcolour,xotask,xotask,16,2,136,436,main,positivefb,-99,average,,0.8336121000002095,['n'],1,right,['9'],5,0.3124689000001126,29,,,,,,,10,18,Vrouw,Rechts,2,
,dotcolour,xotask,xotask,17,2,137,437,main,positivefb,-99,average,,1.034258200000295,['c'],1,left,['8'],4,0.24410850000003848,55,,,,,,,10,18,Vrouw,Rechts,2,
,dotcolour,xotask,xotask,18,2,138,438,main,positivefb,-99,hard,,0.8010663000000022,['n'],0,left,['9'],5,0.347624900000028,41,,,,,,,10,18,Vrouw,Rechts,2,
,dotcolour,xotask,xotask,19,2,139,439,main,positivefb,-99,average,,0.9012265999999727,['c'],1,left,['8'],4,0.25111500000002707,51,,,,,,,10,18,Vrouw,Rechts,2,
,dotcolour,xotask,xotask,20,2,140,440,main,positivefb,-99,hard,,1.451105600000119,['n'],1,right,['8'],4,0.28747329999987414,37,,,,,,,10,18,Vrouw,Rechts,2,
,dotcolour,xotask,xotask,21,2,141,441,main,positivefb,-99,hard,,1.033922199999779,['n'],1,right,['8'],4,0.3634269999997741,37,,,,,,,10,18,Vrouw,Rechts,2,
,dotcolour,xotask,xotask,22,2,142,442,main,positivefb,-99,hard,,2.08477159999984,['n'],1,right,['8'],4,0.322520600000189,38,,,,,,,10,18,Vrouw,Rechts,2,
,dotcolour,xotask,xotask,23,2,143,443,main,positivefb,-99,easy,,0.9012763000000632,['c'],1,left,['9'],5,0.6747118000002956,65,,,,,,,10,18,Vrouw,Rechts,2,
,dotcolour,xotask,xotask,24,2,144,444,main,positivefb,-99,hard,,0.8510187000001679,['c'],0,right,['9'],5,0.5516920999998547,37,,,,,,,10,18,Vrouw,Rechts,2,
,dotcolour,xotask,xotask,25,2,145,445,main,positivefb,-99,hard,,1.0018130999997084,['n'],1,right,['9'],5,0.4336028999996415,35,,,,,,,10,18,Vrouw,Rechts,2,
,dotcolour,xotask,xotask,26,2,146,446,main,positivefb,-99,average,,2.450738800000181,['n'],0,left,['8'],4,0.3746005999996669,54,,,,,,,10,18,Vrouw,Rechts,2,
,dotcolour,xotask,xotask,27,2,147,447,main,positivefb,-99,hard,,0.9830982000003132,['n'],1,right,['8'],4,0.3859714999998687,35,,,,,,,10,18,Vrouw,Rechts,2,
,dotcolour,xotask,xotask,28,2,148,448,main,positivefb,-99,average,,1.6509100999996917,['n'],0,left,['8'],4,0.25672420000000784,51,,,,,,,10,18,Vrouw,Rechts,2,
,dotcolour,xotask,xotask,29,2,149,449,main,positivefb,-99,easy,,0.7504093000002285,['n'],1,right,['9'],5,0.361518199999864,18,,,,,,,10,18,Vrouw,Rechts,2,
,dotcolour,xotask,xotask,30,2,150,450,main,positivefb,-99,hard,,1.0009610000001885,['c'],1,left,['8'],4,0.21227829999997994,45,,,,,,,10,18,Vrouw,Rechts,2,
,dotcolour,xotask,xotask,31,2,151,451,main,positivefb,-99,easy,,0.5176987999998346,['n'],1,right,['9'],5,0.2323804000002383,17,,,,,,,10,18,Vrouw,Rechts,2,
,dotcolour,xotask,xotask,32,2,152,452,main,positivefb,-99,average,,0.4841366000000562,['n'],1,right,['9'],5,0.23585730000013427,29,,,,,,,10,18,Vrouw,Rechts,2,
,dotcolour,xotask,xotask,33,2,153,453,main,positivefb,-99,easy,,0.4164850999995906,['n'],1,right,['9'],5,0.2108557000001383,17,,,,,,,10,18,Vrouw,Rechts,2,
,dotcolour,xotask,xotask,34,2,154,454,main,positivefb,-99,average,,0.5509428999998818,['n'],1,right,['9'],5,0.1977274999999281,25,,,,,,,10,18,Vrouw,Rechts,2,
,dotcolour,xotask,xotask,35,2,155,455,main,positivefb,-99,hard,,0.3506329000001642,['n'],1,right,['9'],5,0.17629450000004,35,,,,,,,10,18,Vrouw,Rechts,2,
,dotcolour,xotask,xotask,36,2,156,456,main,positivefb,-99,easy,,0.7009769000001143,['c'],1,left,['9'],5,0.16677070000014282,65,,,,,,,10,18,Vrouw,Rechts,2,
,dotcolour,xotask,xotask,37,2,157,457,main,positivefb,-99,average,,0.5507407999998577,['n'],1,right,['9'],5,0.15512119999993956,27,,,,,,,10,18,Vrouw,Rechts,2,
,dotcolour,xotask,xotask,38,2,158,458,main,positivefb,-99,hard,,1.2511254000000918,['c'],0,right,['8'],4,0.18712310000000798,39,,,,,,,10,18,Vrouw,Rechts,2,
,dotcolour,xotask,xotask,39,2,159,459,main,positivefb,-99,average,,0.8680765999997675,['c'],1,left,['9'],5,0.289633099999719,53,,,,,,,10,18,Vrouw,Rechts,2,
,dotcolour,xotask,xotask,40,2,160,460,main,positivefb,-99,average,,0.6670301999997719,['n'],1,right,['9'],5,0.22042539999984,29,,,,,,,10,18,Vrouw,Rechts,2,
,dotcolour,xotask,xotask,41,2,161,461,main,positivefb,-99,easy,,0.5840686999999889,['c'],1,left,['9'],5,0.1656343999998171,61,,,,,,,10,18,Vrouw,Rechts,2,
,dotcolour,xotask,xotask,42,2,162,462,main,positivefb,-99,hard,,0.9672468999997363,['n'],0,left,['9'],5,0.15300220000017362,42,,,,,,,10,18,Vrouw,Rechts,2,
,dotcolour,xotask,xotask,43,2,163,463,main,positivefb,-99,easy,,0.8179282999999486,['n'],1,right,['9'],5,0.1873366999998325,19,,,,,,,10,18,Vrouw,Rechts,2,
,dotcolour,xotask,xotask,44,2,164,464,main,positivefb,-99,easy,,1.0511188999998922,['n'],1,right,['9'],5,0.16265960000009727,17,,,,,,,10,18,Vrouw,Rechts,2,
,dotcolour,xotask,xotask,45,2,165,465,main,positivefb,-99,easy,,0.5344857999998567,['n'],1,right,['0'],6,0.23099249999995664,17,,,,,,,10,18,Vrouw,Rechts,2,
,dotcolour,xotask,xotask,46,2,166,466,main,positivefb,-99,easy,,0.8000333999998475,['c'],1,left,['9'],5,0.20672160000003714,64,,,,,,,10,18,Vrouw,Rechts,2,
,dotcolour,xotask,xotask,47,2,167,467,main,positivefb,-99,average,,0.7175051999997777,['c'],1,left,['9'],5,0.2345906999998988,55,,,,,,,10,18,Vrouw,Rechts,2,
,dotcolour,xotask,xotask,48,2,168,468,main,positivefb,-99,average,,0.5338689000000159,['c'],1,left,['9'],5,0.14092189999973925,55,,,,,,,10,18,Vrouw,Rechts,2,
,dotcolour,xotask,xotask,49,2,169,469,main,positivefb,-99,easy,,0.5844328000002861,['c'],1,left,['9'],5,0.1363618000000315,61,,,,,,,10,18,Vrouw,Rechts,2,
,dotcolour,xotask,xotask,50,2,170,470,main,positivefb,-99,average,,0.6170849000000089,['n'],1,right,['9'],5,0.2282559999998739,29,,,,,,,10,18,Vrouw,Rechts,2,
,dotcolour,xotask,xotask,51,2,171,471,main,positivefb,-99,easy,,0.6003326000000015,['c'],1,left,['9'],5,0.21941079999987778,63,,,,,,,10,18,Vrouw,Rechts,2,
,dotcolour,xotask,xotask,52,2,172,472,main,positivefb,-99,easy,,0.6010050999998384,['n'],1,right,['9'],5,0.20356349999974555,16,,,,,,,10,18,Vrouw,Rechts,2,
,dotcolour,xotask,xotask,53,2,173,473,main,positivefb,-99,average,,0.6339284000000589,['c'],1,left,['9'],5,0.18661509999992631,55,,,,,,,10,18,Vrouw,Rechts,2,
,dotcolour,xotask,xotask,54,2,174,474,main,positivefb,-99,easy,,0.5346266999999898,['n'],1,right,['9'],5,0.26260809999985213,17,,,,,,,10,18,Vrouw,Rechts,2,
,dotcolour,xotask,xotask,55,2,175,475,main,positivefb,-99,hard,,2.2182714999999007,['n'],0,left,['8'],4,0.8053048000001581,41,,,,,,,10,18,Vrouw,Rechts,2,
,dotcolour,xotask,xotask,56,2,176,476,main,positivefb,-99,average,,0.8345816000000923,['c'],0,right,['9'],5,0.29230320000033316,27,,,,,,,10,18,Vrouw,Rechts,2,
,dotcolour,xotask,xotask,57,2,177,477,main,positivefb,-99,hard,,1.1838404000000082,['n'],0,left,['9'],5,0.33851240000012695,44,,,,,,,10,18,Vrouw,Rechts,2,
,dotcolour,xotask,xotask,58,2,178,478,main,positivefb,-99,hard,,1.3006470000000263,['c'],1,left,['8'],4,0.18628649999982372,42,,,,,,,10,18,Vrouw,Rechts,2,
,dotcolour,xotask,xotask,59,2,179,479,main,positivefb,-99,hard,,2.0177339000001666,['c'],1,left,['2'],2,0.7784197000000859,43,,,,,,,10,18,Vrouw,Rechts,2,
,dotcolour,xotask,xotask,0,3,180,480,main,positivefb,-99,average,,1.8177913000004082,['n'],0,left,['3'],3,0.8965520000001561,53,,,,,,,10,18,Vrouw,Rechts,2,
,dotcolour,xotask,xotask,1,3,181,481,main,positivefb,-99,average,,0.7170873999998548,['n'],1,right,['9'],5,0.35303520000024946,25,,,,,,,10,18,Vrouw,Rechts,2,
,dotcolour,xotask,xotask,2,3,182,482,main,positivefb,-99,easy,,0.6180811999997786,['n'],1,right,['9'],5,0.3151385000001028,17,,,,,,,10,18,Vrouw,Rechts,2,
,dotcolour,xotask,xotask,3,3,183,483,main,positivefb,-99,average,,0.7169407999999748,['n'],1,right,['9'],5,0.3145643999996537,26,,,,,,,10,18,Vrouw,Rechts,2,
,dotcolour,xotask,xotask,4,3,184,484,main,positivefb,-99,hard,,0.568145000000186,['n'],0,left,['9'],5,0.21616259999973408,45,,,,,,,10,18,Vrouw,Rechts,2,
,dotcolour,xotask,xotask,5,3,185,485,main,positivefb,-99,average,,0.5508442000000286,['n'],1,right,['9'],5,0.2656188999999358,27,,,,,,,10,18,Vrouw,Rechts,2,
,dotcolour,xotask,xotask,6,3,186,486,main,positivefb,-99,hard,,0.6512787000001481,['n'],1,right,['9'],5,0.2620314999999209,37,,,,,,,10,18,Vrouw,Rechts,2,
,dotcolour,xotask,xotask,7,3,187,487,main,positivefb,-99,average,,0.8008856999999807,['c'],1,left,['9'],5,0.2285898999998608,51,,,,,,,10,18,Vrouw,Rechts,2,
,dotcolour,xotask,xotask,8,3,188,488,main,positivefb,-99,easy,,0.5522031000000425,['c'],1,left,['9'],5,0.21445059999996374,61,,,,,,,10,18,Vrouw,Rechts,2,
,dotcolour,xotask,xotask,9,3,189,489,main,positivefb,-99,easy,,0.7346305999999458,['n'],1,right,['0'],6,0.2089154000000235,16,,,,,,,10,18,Vrouw,Rechts,2,
,dotcolour,xotask,xotask,10,3,190,490,main,positivefb,-99,easy,,0.7516253999997389,['c'],1,left,['0'],6,0.28411800000003495,65,,,,,,,10,18,Vrouw,Rechts,2,
,dotcolour,xotask,xotask,11,3,191,491,main,positivefb,-99,average,,0.5841092999999091,['c'],1,left,['0'],6,0.2576614999998128,53,,,,,,,10,18,Vrouw,Rechts,2,
,dotcolour,xotask,xotask,12,3,192,492,main,positivefb,-99,average,,1.7841118999999708,['n'],0,left,['8'],4,0.25726970000005167,53,,,,,,,10,18,Vrouw,Rechts,2,
,dotcolour,xotask,xotask,13,3,193,493,main,positivefb,-99,average,,1.5347136000000319,['n'],1,right,['8'],4,0.19470200000023397,29,,,,,,,10,18,Vrouw,Rechts,2,
,dotcolour,xotask,xotask,14,3,194,494,main,positivefb,-99,hard,,0.8181036999999378,['n'],1,right,['9'],5,0.5713684000002104,39,,,,,,,10,18,Vrouw,Rechts,2,
,dotcolour,xotask,xotask,15,3,195,495,main,positivefb,-99,easy,,0.6678753000001052,['c'],1,left,['9'],5,0.21110839999983,64,,,,,,,10,18,Vrouw,Rechts,2,
,dotcolour,xotask,xotask,16,3,196,496,main,positivefb,-99,easy,,0.6519777999997132,['c'],1,left,['9'],5,0.25700460000007297,65,,,,,,,10,18,Vrouw,Rechts,2,
,dotcolour,xotask,xotask,17,3,197,497,main,positivefb,-99,easy,,0.6016339000002517,['n'],1,right,['9'],5,0.27215730000034455,19,,,,,,,10,18,Vrouw,Rechts,2,
,dotcolour,xotask,xotask,18,3,198,498,main,positivefb,-99,easy,,0.6168339000000742,['n'],1,right,['9'],5,0.30157199999985096,18,,,,,,,10,18,Vrouw,Rechts,2,
,dotcolour,xotask,xotask,19,3,199,499,main,positivefb,-99,easy,,0.5010807999997269,['n'],1,right,['9'],5,0.3584439999999631,17,,,,,,,10,18,Vrouw,Rechts,2,
,dotcolour,xotask,xotask,20,3,200,500,main,positivefb,-99,hard,,0.6504629000000932,['n'],1,right,['9'],5,0.39867150000009133,38,,,,,,,10,18,Vrouw,Rechts,2,
,dotcolour,xotask,xotask,21,3,201,501,main,positivefb,-99,hard,,1.1172545000003993,['c'],1,left,['8'],4,0.3231668999997055,42,,,,,,,10,18,Vrouw,Rechts,2,
,dotcolour,xotask,xotask,22,3,202,502,main,positivefb,-99,hard,,0.750799399999778,['c'],1,left,['8'],4,0.2968832999999904,45,,,,,,,10,18,Vrouw,Rechts,2,
,dotcolour,xotask,xotask,23,3,203,503,main,positivefb,-99,easy,,0.8997389000001021,['n'],1,right,['9'],5,0.21869770000012068,17,,,,,,,10,18,Vrouw,Rechts,2,
,dotcolour,xotask,xotask,24,3,204,504,main,positivefb,-99,average,,1.1336248000002342,['c'],1,left,['8'],4,0.2764458999999988,52,,,,,,,10,18,Vrouw,Rechts,2,
,dotcolour,xotask,xotask,25,3,205,505,main,positivefb,-99,average,,0.5498688000002403,['c'],1,left,['9'],5,0.2770249000000149,55,,,,,,,10,18,Vrouw,Rechts,2,
,dotcolour,xotask,xotask,26,3,206,506,main,positivefb,-99,hard,,0.6176927000001342,['n'],1,right,['9'],5,0.23393880000003264,39,,,,,,,10,18,Vrouw,Rechts,2,
,dotcolour,xotask,xotask,27,3,207,507,main,positivefb,-99,hard,,1.017431100000067,['n'],0,left,['9'],5,0.20912060000000565,42,,,,,,,10,18,Vrouw,Rechts,2,
,dotcolour,xotask,xotask,28,3,208,508,main,positivefb,-99,average,,0.8180106999998316,['c'],1,left,['9'],5,0.1925916000000143,52,,,,,,,10,18,Vrouw,Rechts,2,
,dotcolour,xotask,xotask,29,3,209,509,main,positivefb,-99,hard,,0.9001960000000508,['n'],1,right,['9'],5,0.23023299999977098,35,,,,,,,10,18,Vrouw,Rechts,2,
,dotcolour,xotask,xotask,30,3,210,510,main,positivefb,-99,average,,0.7834407999998803,['n'],1,right,['8'],4,0.27888530000018363,25,,,,,,,10,18,Vrouw,Rechts,2,
,dotcolour,xotask,xotask,31,3,211,511,main,positivefb,-99,easy,,0.8681043000001409,['n'],1,right,['9'],5,0.22657289999960994,19,,,,,,,10,18,Vrouw,Rechts,2,
,dotcolour,xotask,xotask,32,3,212,512,main,positivefb,-99,average,,0.5009175000000141,['n'],1,right,['9'],5,0.27010920000020633,27,,,,,,,10,18,Vrouw,Rechts,2,
,dotcolour,xotask,xotask,33,3,213,513,main,positivefb,-99,easy,,0.7338251999999557,['c'],1,left,['8'],4,0.2554010999997445,61,,,,,,,10,18,Vrouw,Rechts,2,
,dotcolour,xotask,xotask,34,3,214,514,main,positivefb,-99,average,,0.6342725000004066,['n'],1,right,['9'],5,0.22823860000016793,25,,,,,,,10,18,Vrouw,Rechts,2,
,dotcolour,xotask,xotask,35,3,215,515,main,positivefb,-99,hard,,1.3175870000000032,['c'],1,left,['8'],4,0.2471264999999221,44,,,,,,,10,18,Vrouw,Rechts,2,
,dotcolour,xotask,xotask,36,3,216,516,main,positivefb,-99,hard,,0.517642700000124,['n'],1,right,['9'],5,0.29795560000002297,35,,,,,,,10,18,Vrouw,Rechts,2,
,dotcolour,xotask,xotask,37,3,217,517,main,positivefb,-99,easy,,1.4343254999998862,['c'],1,left,['9'],5,0.4687251999998807,62,,,,,,,10,18,Vrouw,Rechts,2,
,dotcolour,xotask,xotask,38,3,218,518,main,positivefb,-99,hard,,0.93342229999962,['n'],1,right,['9'],5,0.1813716999999997,39,,,,,,,10,18,Vrouw,Rechts,2,
,dotcolour,xotask,xotask,39,3,219,519,main,positivefb,-99,easy,,0.6174591000003602,['c'],1,left,['9'],5,0.19823540000015782,61,,,,,,,10,18,Vrouw,Rechts,2,
,dotcolour,xotask,xotask,40,3,220,520,main,positivefb,-99,hard,,0.6514093999999204,['n'],0,left,['9'],5,0.25316979999979594,41,,,,,,,10,18,Vrouw,Rechts,2,
,dotcolour,xotask,xotask,41,3,221,521,main,positivefb,-99,easy,,0.7176328999998987,['n'],1,right,['9'],5,0.1988455000000613,18,,,,,,,10,18,Vrouw,Rechts,2,
,dotcolour,xotask,xotask,42,3,222,522,main,positivefb,-99,hard,,0.4161068999997042,['n'],1,right,['9'],5,0.21490270000003875,39,,,,,,,10,18,Vrouw,Rechts,2,
,dotcolour,xotask,xotask,43,3,223,523,main,positivefb,-99,hard,,0.9680008000000271,['n'],1,right,['9'],5,0.17640480000000025,35,,,,,,,10,18,Vrouw,Rechts,2,
,dotcolour,xotask,xotask,44,3,224,524,main,positivefb,-99,hard,,0.5177954000000682,['n'],0,left,['9'],5,0.2143793000000187,43,,,,,,,10,18,Vrouw,Rechts,2,
,dotcolour,xotask,xotask,45,3,225,525,main,positivefb,-99,average,,0.584237199999734,['c'],1,left,['9'],5,0.1902952999998888,52,,,,,,,10,18,Vrouw,Rechts,2,
,dotcolour,xotask,xotask,46,3,226,526,main,positivefb,-99,easy,,0.5506600000003345,['n'],1,right,['9'],5,0.19340009999996255,19,,,,,,,10,18,Vrouw,Rechts,2,
,dotcolour,xotask,xotask,47,3,227,527,main,positivefb,-99,average,,0.550654200000281,['n'],1,right,['9'],5,0.3332245999999941,26,,,,,,,10,18,Vrouw,Rechts,2,
,dotcolour,xotask,xotask,48,3,228,528,main,positivefb,-99,easy,,0.4838099999997212,['n'],1,right,['0'],6,0.26875820000032036,15,,,,,,,10,18,Vrouw,Rechts,2,
,dotcolour,xotask,xotask,49,3,229,529,main,positivefb,-99,easy,,0.8522415000002184,['c'],1,left,['8'],4,0.6495586999999432,64,,,,,,,10,18,Vrouw,Rechts,2,
,dotcolour,xotask,xotask,50,3,230,530,main,positivefb,-99,hard,,0.7500414999999521,['n'],0,left,['9'],5,0.273624600000403,41,,,,,,,10,18,Vrouw,Rechts,2,
,dotcolour,xotask,xotask,51,3,231,531,main,positivefb,-99,average,,5.433961900000213,['n'],1,right,['9'],5,1.2706470999996782,26,,,,,,,10,18,Vrouw,Rechts,2,
,dotcolour,xotask,xotask,52,3,232,532,main,positivefb,-99,hard,,0.8675834999999097,['n'],0,left,['9'],5,0.32218909999983225,45,,,,,,,10,18,Vrouw,Rechts,2,
,dotcolour,xotask,xotask,53,3,233,533,main,positivefb,-99,average,,0.5515096999997695,['n'],1,right,['9'],5,0.3038637999998173,27,,,,,,,10,18,Vrouw,Rechts,2,
,dotcolour,xotask,xotask,54,3,234,534,main,positivefb,-99,hard,,0.6678756000001158,['n'],0,left,['9'],5,0.2735946999996486,43,,,,,,,10,18,Vrouw,Rechts,2,
,dotcolour,xotask,xotask,55,3,235,535,main,positivefb,-99,hard,,0.567889799999648,['n'],1,right,['8'],4,0.3050607999998647,37,,,,,,,10,18,Vrouw,Rechts,2,
,dotcolour,xotask,xotask,56,3,236,536,main,positivefb,-99,easy,,1.0006855000001451,['c'],1,left,['8'],4,0.2540945999999167,64,,,,,,,10,18,Vrouw,Rechts,2,
,dotcolour,xotask,xotask,57,3,237,537,main,positivefb,-99,average,,1.2508953000001384,['c'],1,left,['8'],4,0.31477300000005926,52,,,,,,,10,18,Vrouw,Rechts,2,
,dotcolour,xotask,xotask,58,3,238,538,main,positivefb,-99,average,,0.8008675999999468,['c'],1,left,['8'],4,0.254709300000286,54,,,,,,,10,18,Vrouw,Rechts,2,
,dotcolour,xotask,xotask,59,3,239,539,main,positivefb,-99,easy,,1.0015238999999383,['c'],1,left,['8'],4,0.2458454000002348,61,,,,,,,10,18,Vrouw,Rechts,2,
,dotcolour,xotask,xotask,0,4,240,540,main,positivefb,-99,hard,,1.0682001000000128,['n'],1,right,['9'],5,0.4236731000000873,38,,,,,,,10,18,Vrouw,Rechts,2,
,dotcolour,xotask,xotask,1,4,241,541,main,positivefb,-99,easy,,0.5342106000002786,['n'],1,right,['9'],5,0.2899579999998423,19,,,,,,,10,18,Vrouw,Rechts,2,
,dotcolour,xotask,xotask,2,4,242,542,main,positivefb,-99,average,,0.8508862999997291,['c'],1,left,['8'],4,0.22173930000008113,54,,,,,,,10,18,Vrouw,Rechts,2,
,dotcolour,xotask,xotask,3,4,243,543,main,positivefb,-99,hard,,0.9675624999999854,['n'],0,left,['9'],5,0.3030460999998468,41,,,,,,,10,18,Vrouw,Rechts,2,
,dotcolour,xotask,xotask,4,4,244,544,main,positivefb,-99,hard,,0.5515967999999702,['n'],1,right,['9'],5,0.3176626999998007,36,,,,,,,10,18,Vrouw,Rechts,2,
,dotcolour,xotask,xotask,5,4,245,545,main,positivefb,-99,hard,,0.4514718999998877,['n'],1,right,['9'],5,0.2716867999997703,35,,,,,,,10,18,Vrouw,Rechts,2,
,dotcolour,xotask,xotask,6,4,246,546,main,positivefb,-99,easy,,0.43432890000030966,['n'],1,right,['9'],5,0.27676300000030096,18,,,,,,,10,18,Vrouw,Rechts,2,
,dotcolour,xotask,xotask,7,4,247,547,main,positivefb,-99,average,,0.4682556000002478,['n'],1,right,['9'],5,0.24785019999990254,25,,,,,,,10,18,Vrouw,Rechts,2,
,dotcolour,xotask,xotask,8,4,248,548,main,positivefb,-99,easy,,0.6516624000000775,['c'],1,left,['8'],4,0.4440407000001869,65,,,,,,,10,18,Vrouw,Rechts,2,
,dotcolour,xotask,xotask,9,4,249,549,main,positivefb,-99,average,,0.6843165000000226,['n'],1,right,['9'],5,0.29627690000006623,29,,,,,,,10,18,Vrouw,Rechts,2,
,dotcolour,xotask,xotask,10,4,250,550,main,positivefb,-99,hard,,0.5344853999999941,['n'],1,right,['9'],5,0.2402764999997089,37,,,,,,,10,18,Vrouw,Rechts,2,
,dotcolour,xotask,xotask,11,4,251,551,main,positivefb,-99,hard,,0.7672708999998576,['n'],0,left,['9'],5,0.22450179999987085,45,,,,,,,10,18,Vrouw,Rechts,2,
,dotcolour,xotask,xotask,12,4,252,552,main,positivefb,-99,hard,,1.3180426999997508,['n'],0,left,['9'],5,0.5002729999996518,45,,,,,,,10,18,Vrouw,Rechts,2,
,dotcolour,xotask,xotask,13,4,253,553,main,positivefb,-99,average,,0.8669638000001214,['c'],1,left,['9'],5,0.41419089999999414,55,,,,,,,10,18,Vrouw,Rechts,2,
,dotcolour,xotask,xotask,14,4,254,554,main,positivefb,-99,hard,,1.0006603000001633,['c'],1,left,['9'],5,0.15813269999989643,45,,,,,,,10,18,Vrouw,Rechts,2,
,dotcolour,xotask,xotask,15,4,255,555,main,positivefb,-99,easy,,0.6509072000003471,['n'],1,right,['9'],5,0.24683479999976043,19,,,,,,,10,18,Vrouw,Rechts,2,
,dotcolour,xotask,xotask,16,4,256,556,main,positivefb,-99,average,,0.6848513999998431,['n'],1,right,['9'],5,0.23505270000032397,25,,,,,,,10,18,Vrouw,Rechts,2,
,dotcolour,xotask,xotask,17,4,257,557,main,positivefb,-99,average,,1.1838692999999694,['c'],1,left,['9'],5,0.26694010000028356,55,,,,,,,10,18,Vrouw,Rechts,2,
,dotcolour,xotask,xotask,18,4,258,558,main,positivefb,-99,hard,,0.6018081000001985,['n'],1,right,['9'],5,0.5128267000000051,37,,,,,,,10,18,Vrouw,Rechts,2,
,dotcolour,xotask,xotask,19,4,259,559,main,positivefb,-99,hard,,0.5849232000000484,['n'],0,left,['9'],5,0.27028870000003735,42,,,,,,,10,18,Vrouw,Rechts,2,
,dotcolour,xotask,xotask,20,4,260,560,main,positivefb,-99,hard,,0.68451529999993,['n'],1,right,['0'],6,0.6647678999997879,37,,,,,,,10,18,Vrouw,Rechts,2,
,dotcolour,xotask,xotask,21,4,261,561,main,positivefb,-99,hard,,1.3835261999997783,['n'],1,right,['8'],4,0.33601469999985056,39,,,,,,,10,18,Vrouw,Rechts,2,
,dotcolour,xotask,xotask,22,4,262,562,main,positivefb,-99,average,,1.0012910000000375,['n'],1,right,['8'],4,0.4267904000003,26,,,,,,,10,18,Vrouw,Rechts,2,
,dotcolour,xotask,xotask,23,4,263,563,main,positivefb,-99,easy,,0.8170450000002347,['c'],1,left,['8'],4,0.2424181999999746,65,,,,,,,10,18,Vrouw,Rechts,2,
,dotcolour,xotask,xotask,24,4,264,564,main,positivefb,-99,hard,,0.8004668999997193,['n'],1,right,['9'],5,0.5135730000001786,38,,,,,,,10,18,Vrouw,Rechts,2,
,dotcolour,xotask,xotask,25,4,265,565,main,positivefb,-99,easy,,0.7682583000000704,['c'],1,left,['9'],5,0.27138890000014726,61,,,,,,,10,18,Vrouw,Rechts,2,
,dotcolour,xotask,xotask,26,4,266,566,main,positivefb,-99,average,,0.6827564000000166,['n'],1,right,['9'],5,0.35450270000001183,25,,,,,,,10,18,Vrouw,Rechts,2,
,dotcolour,xotask,xotask,27,4,267,567,main,positivefb,-99,average,,0.9354582000000846,['c'],1,left,['8'],4,0.39159220000010464,51,,,,,,,10,18,Vrouw,Rechts,2,
,dotcolour,xotask,xotask,28,4,268,568,main,positivefb,-99,easy,,0.9165861000001314,['n'],1,right,['9'],5,0.40532059999986814,16,,,,,,,10,18,Vrouw,Rechts,2,
,dotcolour,xotask,xotask,29,4,269,569,main,positivefb,-99,easy,,0.7333363999996436,['n'],1,right,['9'],5,0.3446813000000475,16,,,,,,,10,18,Vrouw,Rechts,2,
,dotcolour,xotask,xotask,30,4,270,570,main,positivefb,-99,easy,,0.600565799999913,['c'],1,left,['9'],5,0.39590640000005806,62,,,,,,,10,18,Vrouw,Rechts,2,
,dotcolour,xotask,xotask,31,4,271,571,main,positivefb,-99,hard,,1.0173903999998402,['n'],1,right,['9'],5,0.33957230000032723,36,,,,,,,10,18,Vrouw,Rechts,2,
,dotcolour,xotask,xotask,32,4,272,572,main,positivefb,-99,average,,1.0849072000000888,['c'],1,left,['9'],5,0.3315585000000283,53,,,,,,,10,18,Vrouw,Rechts,2,
,dotcolour,xotask,xotask,33,4,273,573,main,positivefb,-99,hard,,1.0344066999996357,['n'],0,left,['8'],4,0.27042900000014924,41,,,,,,,10,18,Vrouw,Rechts,2,
,dotcolour,xotask,xotask,34,4,274,574,main,positivefb,-99,average,,0.9499893999995948,['c'],1,left,['9'],5,0.2702703999998448,52,,,,,,,10,18,Vrouw,Rechts,2,
,dotcolour,xotask,xotask,35,4,275,575,main,positivefb,-99,hard,,1.8844612000002599,['c'],1,left,['8'],4,0.24110680000012508,43,,,,,,,10,18,Vrouw,Rechts,2,
,dotcolour,xotask,xotask,36,4,276,576,main,positivefb,-99,easy,,0.9007837999997719,['c'],1,left,['9'],5,0.2763519999998607,64,,,,,,,10,18,Vrouw,Rechts,2,
,dotcolour,xotask,xotask,37,4,277,577,main,positivefb,-99,easy,,0.617750999999771,['c'],1,left,['9'],5,0.22497130000010657,61,,,,,,,10,18,Vrouw,Rechts,2,
,dotcolour,xotask,xotask,38,4,278,578,main,positivefb,-99,easy,,0.6005486999997629,['c'],1,left,['9'],5,0.24907020000000557,64,,,,,,,10,18,Vrouw,Rechts,2,
,dotcolour,xotask,xotask,39,4,279,579,main,positivefb,-99,average,,0.6840906000002178,['c'],1,left,['9'],5,0.37339630000042234,55,,,,,,,10,18,Vrouw,Rechts,2,
,dotcolour,xotask,xotask,40,4,280,580,main,positivefb,-99,easy,,0.6004252000002452,['n'],1,right,['9'],5,0.29530099999965387,19,,,,,,,10,18,Vrouw,Rechts,2,
,dotcolour,xotask,xotask,41,4,281,581,main,positivefb,-99,average,,0.7502426000000924,['c'],1,left,['9'],5,0.1899940999996943,54,,,,,,,10,18,Vrouw,Rechts,2,
,dotcolour,xotask,xotask,42,4,282,582,main,positivefb,-99,easy,,0.9513377000002947,['c'],1,left,['9'],5,0.20902999999998428,61,,,,,,,10,18,Vrouw,Rechts,2,
,dotcolour,xotask,xotask,43,4,283,583,main,positivefb,-99,hard,,1.0340744999998606,['n'],0,left,['8'],4,0.30487810000022364,44,,,,,,,10,18,Vrouw,Rechts,2,
,dotcolour,xotask,xotask,44,4,284,584,main,positivefb,-99,hard,,0.9352097999999387,['c'],1,left,['8'],4,0.3523291000001336,43,,,,,,,10,18,Vrouw,Rechts,2,
,dotcolour,xotask,xotask,45,4,285,585,main,positivefb,-99,average,,0.7013097000003654,['n'],1,right,['9'],5,0.27092760000005,29,,,,,,,10,18,Vrouw,Rechts,2,
,dotcolour,xotask,xotask,46,4,286,586,main,positivefb,-99,average,,0.584863900000073,['n'],1,right,['9'],5,0.28499349999992774,26,,,,,,,10,18,Vrouw,Rechts,2,
,dotcolour,xotask,xotask,47,4,287,587,main,positivefb,-99,hard,,0.451107299999876,['n'],0,left,['9'],5,0.2656916999999339,44,,,,,,,10,18,Vrouw,Rechts,2,
,dotcolour,xotask,xotask,48,4,288,588,main,positivefb,-99,average,,0.8178302999999687,['c'],1,left,['8'],4,0.21435589999964577,51,,,,,,,10,18,Vrouw,Rechts,2,
,dotcolour,xotask,xotask,49,4,289,589,main,positivefb,-99,average,,1.0672801999999137,['n'],1,right,['9'],5,0.26712810000026366,28,,,,,,,10,18,Vrouw,Rechts,2,
,dotcolour,xotask,xotask,50,4,290,590,main,positivefb,-99,easy,,0.534163300000273,['n'],1,right,['9'],5,0.292462599999908,19,,,,,,,10,18,Vrouw,Rechts,2,
,dotcolour,xotask,xotask,51,4,291,591,main,positivefb,-99,average,,0.7340053000002627,['c'],1,left,['9'],5,0.3157482000001437,55,,,,,,,10,18,Vrouw,Rechts,2,
,dotcolour,xotask,xotask,52,4,292,592,main,positivefb,-99,easy,,1.0502019000000473,['n'],1,right,['9'],5,0.27008440000008704,17,,,,,,,10,18,Vrouw,Rechts,2,
,dotcolour,xotask,xotask,53,4,293,593,main,positivefb,-99,average,,0.5330628000001525,['n'],1,right,['9'],5,0.25535379999973884,29,,,,,,,10,18,Vrouw,Rechts,2,
,dotcolour,xotask,xotask,54,4,294,594,main,positivefb,-99,easy,,0.5171221999999034,['n'],1,right,['0'],6,0.3535026999998081,15,,,,,,,10,18,Vrouw,Rechts,2,
,dotcolour,xotask,xotask,55,4,295,595,main,positivefb,-99,average,,0.6006972999998652,['n'],1,right,['9'],5,0.28352659999973184,28,,,,,,,10,18,Vrouw,Rechts,2,
,dotcolour,xotask,xotask,56,4,296,596,main,positivefb,-99,easy,,0.4849418000003425,['n'],1,right,['9'],5,0.27740989999983867,15,,,,,,,10,18,Vrouw,Rechts,2,
,dotcolour,xotask,xotask,57,4,297,597,main,positivefb,-99,hard,,0.4678794999999809,['n'],1,right,['9'],5,0.21675709999999526,37,,,,,,,10,18,Vrouw,Rechts,2,
,dotcolour,xotask,xotask,58,4,298,598,main,positivefb,-99,easy,,0.616749499999969,['c'],1,left,['9'],5,0.2557284999998046,63,,,,,,,10,18,Vrouw,Rechts,2,
,dotcolour,xotask,xotask,59,4,299,599,main,positivefb,-99,easy,,0.6680719999999383,['c'],1,left,['9'],5,0.21256350000021484,63,,,,,,,10,18,Vrouw,Rechts,2,
,xotask,xotask,xotask,0,0,0,600,training,positivefb,87,average,19,0.7001850999999988,['n'],1,right,['9'],5,0.28461330000027374,,,,,,,,10,18,Vrouw,Rechts,2,
,xotask,xotask,xotask,1,0,1,601,training,positivefb,92,easy,71,0.6825268000002325,['c'],1,left,['9'],5,0.19756989999996222,,,,,,,,10,18,Vrouw,Rechts,2,
,xotask,xotask,xotask,2,0,2,602,training,positivefb,95,hard,52,0.6331242999999631,['c'],1,left,['8'],4,0.2202028000001519,,,,,,,,10,18,Vrouw,Rechts,2,
,xotask,xotask,xotask,3,0,3,603,training,positivefb,98,average,62,0.5336918999996669,['c'],1,left,['8'],4,0.19881519999989905,,,,,,,,10,18,Vrouw,Rechts,2,
,xotask,xotask,xotask,4,0,4,604,training,positivefb,96,easy,74,0.6332812999999078,['c'],1,left,['8'],4,0.21257500000001528,,,,,,,,10,18,Vrouw,Rechts,2,
,xotask,xotask,xotask,5,0,5,605,training,positivefb,98,hard,52,0.46619179999970584,['c'],1,left,['8'],4,0.2104008999999678,,,,,,,,10,18,Vrouw,Rechts,2,
,xotask,xotask,xotask,6,0,6,606,training,positivefb,86,hard,25,0.49981720000005225,['c'],0,right,['8'],4,0.2701388999998926,,,,,,,,10,18,Vrouw,Rechts,2,
,xotask,xotask,xotask,7,0,7,607,training,positivefb,74,hard,52,0.45057249999990745,['c'],1,left,['8'],4,0.1697223999999551,,,,,,,,10,18,Vrouw,Rechts,2,
,xotask,xotask,xotask,8,0,8,608,training,positivefb,84,hard,28,0.8507937999997921,['n'],1,right,['8'],4,0.24083369999971183,,,,,,,,10,18,Vrouw,Rechts,2,
,xotask,xotask,xotask,9,0,9,609,training,positivefb,97,average,60,0.6838958999996976,['c'],1,left,['8'],4,0.2201297000001432,,,,,,,,10,18,Vrouw,Rechts,2,
,xotask,xotask,xotask,10,0,10,610,training,positivefb,96,easy,8,0.6003031000000192,['n'],1,right,['9'],5,0.22002969999994093,,,,,,,,10,18,Vrouw,Rechts,2,
,xotask,xotask,xotask,11,0,11,611,training,positivefb,99,easy,9,0.4661812999997892,['n'],1,right,['9'],5,0.2726783000002797,,,,,,,,10,18,Vrouw,Rechts,2,
,xotask,xotask,xotask,12,0,12,612,training,positivefb,80,hard,26,0.9511468999999124,['c'],0,right,['8'],4,0.36025259999996706,,,,,,,,10,18,Vrouw,Rechts,2,
,xotask,xotask,xotask,13,0,13,613,training,positivefb,90,average,64,0.699805600000218,['c'],1,left,['8'],4,0.1897028999997019,,,,,,,,10,18,Vrouw,Rechts,2,
,xotask,xotask,xotask,14,0,14,614,training,positivefb,84,hard,54,0.584349100000054,['c'],1,left,['8'],4,0.23117210000009436,,,,,,,,10,18,Vrouw,Rechts,2,
,xotask,xotask,xotask,15,0,15,615,training,positivefb,99,easy,7,0.5178141999999752,['n'],1,right,['0'],6,0.35297010000022055,,,,,,,,10,18,Vrouw,Rechts,2,
,xotask,xotask,xotask,16,0,16,616,training,positivefb,94,easy,71,0.8008555999999771,['c'],1,left,['0'],6,0.29912089999970704,,,,,,,,10,18,Vrouw,Rechts,2,
,xotask,xotask,xotask,17,0,17,617,training,positivefb,96,average,17,0.8505299000003106,['n'],1,right,['9'],5,0.26903089999996155,,,,,,,,10,18,Vrouw,Rechts,2,
,xotask,xotask,xotask,18,0,18,618,training,positivefb,98,average,63,0.6006102000001192,['c'],1,left,['8'],4,0.2670963999999003,,,,,,,,10,18,Vrouw,Rechts,2,
,xotask,xotask,xotask,19,0,19,619,training,positivefb,99,easy,73,0.6329861000003802,['c'],1,left,['9'],5,0.31899399999974776,,,,,,,,10,18,Vrouw,Rechts,2,
,xotask,xotask,xotask,20,0,20,620,training,positivefb,98,hard,53,0.4010083000002851,['c'],1,left,['9'],5,0.12222419999989143,,,,,,,,10,18,Vrouw,Rechts,2,
,xotask,xotask,xotask,21,0,21,621,training,positivefb,92,hard,28,0.7159162000002652,['n'],1,right,['9'],5,0.19307600000001912,,,,,,,,10,18,Vrouw,Rechts,2,
,xotask,xotask,xotask,22,0,22,622,training,positivefb,92,average,62,0.6332559999996192,['c'],1,left,['9'],5,0.16038700000035533,,,,,,,,10,18,Vrouw,Rechts,2,
,xotask,xotask,xotask,23,0,23,623,training,positivefb,93,hard,27,0.6499542999999903,['n'],1,right,['8'],4,0.3047694000001684,,,,,,,,10,18,Vrouw,Rechts,2,
,xotask,xotask,xotask,24,0,24,624,training,positivefb,96,average,17,0.7332426999996642,['n'],1,right,['9'],5,0.286467200000061,,,,,,,,10,18,Vrouw,Rechts,2,
,xotask,xotask,xotask,25,0,25,625,training,positivefb,93,hard,53,0.717837000000145,['c'],1,left,['9'],5,0.23052670000015496,,,,,,,,10,18,Vrouw,Rechts,2,
,xotask,xotask,xotask,26,0,26,626,training,positivefb,97,average,15,0.6995770999997148,['n'],1,right,['9'],5,0.26507409999976517,,,,,,,,10,18,Vrouw,Rechts,2,
,xotask,xotask,xotask,27,0,27,627,training,positivefb,92,hard,51,0.566888199999994,['n'],0,left,['8'],4,0.34410020000041186,,,,,,,,10,18,Vrouw,Rechts,2,
,xotask,xotask,xotask,28,0,28,628,training,positivefb,91,average,18,0.7163509000001795,['n'],1,right,['9'],5,0.30175420000023223,,,,,,,,10,18,Vrouw,Rechts,2,
,xotask,xotask,xotask,29,0,29,629,training,positivefb,92,average,60,1.0006397000001925,['c'],1,left,['9'],5,0.25830020000012155,,,,,,,,10,18,Vrouw,Rechts,2,
,xotask,xotask,xotask,30,0,30,630,training,positivefb,99,easy,5,0.5830326000000241,['n'],1,right,['9'],5,0.2725900000000365,,,,,,,,10,18,Vrouw,Rechts,2,
,xotask,xotask,xotask,31,0,31,631,training,positivefb,60,hard,54,1.1990928999998687,['c'],1,left,['8'],4,0.19798780000019178,,,,,,,,10,18,Vrouw,Rechts,2,
,xotask,xotask,xotask,32,0,32,632,training,positivefb,79,hard,53,0.5666416999997637,['n'],0,left,['9'],5,0.20020059999978912,,,,,,,,10,18,Vrouw,Rechts,2,
,xotask,xotask,xotask,33,0,33,633,training,positivefb,93,easy,5,0.5340297000002465,['n'],1,right,['9'],5,0.21039070000006177,,,,,,,,10,18,Vrouw,Rechts,2,
,xotask,xotask,xotask,34,0,34,634,training,positivefb,95,average,60,0.7167474000002585,['c'],1,left,['9'],5,0.14171310000028825,,,,,,,,10,18,Vrouw,Rechts,2,
,xotask,xotask,xotask,35,0,35,635,training,positivefb,91,hard,26,0.5168837999999596,['n'],1,right,['9'],5,0.20347839999976713,,,,,,,,10,18,Vrouw,Rechts,2,
,xotask,xotask,xotask,36,0,36,636,training,positivefb,98,easy,70,0.5167357000000266,['c'],1,left,['9'],5,0.15959380000003875,,,,,,,,10,18,Vrouw,Rechts,2,
,xotask,xotask,xotask,37,0,37,637,training,positivefb,82,hard,29,0.5011028999997507,['n'],1,right,['9'],5,0.24483349999991333,,,,,,,,10,18,Vrouw,Rechts,2,
,xotask,xotask,xotask,38,0,38,638,training,positivefb,97,easy,72,0.5837382999998226,['c'],1,left,['9'],5,0.1720854000000145,,,,,,,,10,18,Vrouw,Rechts,2,
,xotask,xotask,xotask,39,0,39,639,training,positivefb,95,average,60,0.5830644000002394,['c'],1,left,['9'],5,0.12652259999958915,,,,,,,,10,18,Vrouw,Rechts,2,
,xotask,xotask,xotask,40,0,40,640,training,positivefb,86,average,18,0.9005504000001565,['n'],1,right,['9'],5,0.2384129000001849,,,,,,,,10,18,Vrouw,Rechts,2,
,xotask,xotask,xotask,41,0,41,641,training,positivefb,89,easy,8,0.5666330999997626,['n'],1,right,['9'],5,0.22962300000017422,,,,,,,,10,18,Vrouw,Rechts,2,
,xotask,xotask,xotask,42,0,42,642,training,positivefb,99,easy,8,0.5008264000002782,['n'],1,right,['9'],5,0.2008763000003455,,,,,,,,10,18,Vrouw,Rechts,2,
,xotask,xotask,xotask,43,0,43,643,training,positivefb,96,average,15,0.46616220000032627,['n'],1,right,['9'],5,0.24699479999981122,,,,,,,,10,18,Vrouw,Rechts,2,
,xotask,xotask,xotask,44,0,44,644,training,positivefb,94,easy,74,0.6843086000003495,['c'],1,left,['9'],5,0.16219689999979892,,,,,,,,10,18,Vrouw,Rechts,2,
,xotask,xotask,xotask,45,0,45,645,training,positivefb,92,easy,70,0.883802199999991,['n'],0,left,['2'],2,0.897190899999714,,,,,,,,10,18,Vrouw,Rechts,2,
,xotask,xotask,xotask,46,0,46,646,training,positivefb,89,hard,27,1.4499832000001334,['n'],1,right,['8'],4,0.33981539999967936,,,,,,,,10,18,Vrouw,Rechts,2,
