starttime,task,fbtask,firsttask,withinblocktrial,block,withintasktrial,trial,running,feedback,fbscore,difflevel,n_xes,rt,resp,cor,cresp,conf_press,cj,RTconf,reddots,post1,post2,post3,post4,post5,stoptime,sub,age,gender,handedness,session,
1715680726,xotask,xotask,dotcolour,0,0,0,0,training,positivefb,100,easy,5,1.0513404000012088,['n'],1,right,['8'],4,1.6685201999989658,,,,,,,,27,18,Vrouw,Rechts,2,
,xotask,xotask,dotcolour,1,0,1,1,training,positivefb,95,hard,50,1.0490338999989035,['c'],1,left,['8'],4,1.5027384000004531,,,,,,,,27,18,Vrouw,Rechts,2,
,xotask,xotask,dotcolour,2,0,2,2,training,positivefb,78,easy,5,1.0171935000016674,['n'],1,right,['0'],6,0.45815419999962614,,,,,,,,27,18,Vrouw,Rechts,2,
,xotask,xotask,dotcolour,3,0,3,3,training,positivefb,83,average,64,1.0504692000013165,['c'],1,left,['0'],6,0.4299542000007932,,,,,,,,27,18,Vrouw,Rechts,2,
,xotask,xotask,dotcolour,4,0,4,4,training,positivefb,97,easy,71,1.2007137999989936,['c'],1,left,['9'],5,0.7006106999997428,,,,,,,,27,18,Vrouw,Rechts,2,
,xotask,xotask,dotcolour,5,0,5,5,training,positivefb,79,average,61,1.0170204999994894,['c'],1,left,['9'],5,0.36827789999915694,,,,,,,,27,18,Vrouw,Rechts,2,
,xotask,xotask,dotcolour,6,0,6,6,training,positivefb,94,average,63,0.85091790000115,['c'],1,left,['9'],5,0.43973259999984293,,,,,,,,27,18,Vrouw,Rechts,2,
,xotask,xotask,dotcolour,7,0,7,7,training,positivefb,90,average,63,1.2006033999987267,['c'],1,left,['1'],1,0.00634159999935946,,,,,,,,27,18,Vrouw,Rechts,2,
,xotask,xotask,dotcolour,8,0,8,8,training,positivefb,93,easy,5,1.1343319000006886,['n'],1,right,['9'],5,0.6810044000012567,,,,,,,,27,18,Vrouw,Rechts,2,
,xotask,xotask,dotcolour,9,0,9,9,training,positivefb,99,easy,73,1.1328107999997883,['c'],1,left,['8'],4,0.3611053999993601,,,,,,,,27,18,Vrouw,Rechts,2,
,xotask,xotask,dotcolour,10,0,10,10,training,positivefb,96,easy,7,0.8996209999986604,['n'],1,right,['9'],5,0.4303941999987728,,,,,,,,27,18,Vrouw,Rechts,2,
,xotask,xotask,dotcolour,11,0,11,11,training,positivefb,84,average,64,0.9323292000008223,['c'],1,left,['8'],4,0.9999643999999535,,,,,,,,27,18,Vrouw,Rechts,2,
,xotask,xotask,dotcolour,12,0,12,12,training,positivefb,86,easy,5,0.9159896000001027,['n'],1,right,['9'],5,1.0843081999992137,,,,,,,,27,18,Vrouw,Rechts,2,
,xotask,xotask,dotcolour,13,0,13,13,training,positivefb,98,easy,71,0.8517976000002818,['c'],1,left,['9'],5,0.35038209999947867,,,,,,,,27,18,Vrouw,Rechts,2,
,xotask,xotask,dotcolour,14,0,14,14,training,positivefb,72,average,17,1.4171551999988878,['c'],0,right,['8'],4,0.33620169999994687,,,,,,,,27,18,Vrouw,Rechts,2,
,xotask,xotask,dotcolour,15,0,15,15,training,positivefb,92,easy,6,0.7996933000013087,['n'],1,right,['0'],6,0.37080059999971127,,,,,,,,27,18,Vrouw,Rechts,2,
,xotask,xotask,dotcolour,16,0,16,16,training,positivefb,95,hard,52,1.0661111999997956,['c'],1,left,['9'],5,0.2572301000000152,,,,,,,,27,18,Vrouw,Rechts,2,
,xotask,xotask,dotcolour,17,0,17,17,training,positivefb,79,easy,8,1.117457700000159,['c'],0,right,['8'],4,0.3622462999992422,,,,,,,,27,18,Vrouw,Rechts,2,
,xotask,xotask,dotcolour,18,0,18,18,training,positivefb,85,hard,28,0.8493405999997776,['n'],1,right,['8'],4,0.9229849000003014,,,,,,,,27,18,Vrouw,Rechts,2,
,xotask,xotask,dotcolour,19,0,19,19,training,positivefb,99,hard,28,0.9343938000001799,['n'],1,right,['9'],5,0.8965817999996943,,,,,,,,27,18,Vrouw,Rechts,2,
,xotask,xotask,dotcolour,20,0,20,20,training,positivefb,88,hard,51,0.9167374999997264,['c'],1,left,['9'],5,0.44879089999994903,,,,,,,,27,18,Vrouw,Rechts,2,
,xotask,xotask,dotcolour,21,0,21,21,training,positivefb,90,hard,52,0.8341556999985187,['c'],1,left,['8'],4,0.6613784000001033,,,,,,,,27,18,Vrouw,Rechts,2,
,xotask,xotask,dotcolour,22,0,22,22,training,positivefb,90,average,64,1.216884099998424,['c'],1,left,['8'],4,0.24293000000034226,,,,,,,,27,18,Vrouw,Rechts,2,
,xotask,xotask,dotcolour,23,0,23,23,training,positivefb,80,hard,28,1.66749770000024,['n'],1,right,['8'],4,0.4062865000014426,,,,,,,,27,18,Vrouw,Rechts,2,
,xotask,xotask,dotcolour,24,0,24,24,training,positivefb,84,hard,26,2.016891699999178,['n'],1,right,['8'],4,0.3742056000010052,,,,,,,,27,18,Vrouw,Rechts,2,
,xotask,xotask,dotcolour,25,0,25,25,training,positivefb,88,easy,6,1.0009105000008276,['n'],1,right,['0'],6,0.5752242999988084,,,,,,,,27,18,Vrouw,Rechts,2,
,xotask,xotask,dotcolour,26,0,26,26,training,positivefb,97,hard,27,1.2173217999988992,['n'],1,right,['9'],5,0.4889767999993637,,,,,,,,27,18,Vrouw,Rechts,2,
,xotask,xotask,dotcolour,27,0,27,27,training,positivefb,98,hard,52,0.7492182000005414,['c'],1,left,['8'],4,0.6789628000005905,,,,,,,,27,18,Vrouw,Rechts,2,
,xotask,xotask,dotcolour,28,0,28,28,training,positivefb,87,easy,72,0.8669468999996752,['c'],1,left,['9'],5,0.3853620999998384,,,,,,,,27,18,Vrouw,Rechts,2,
,xotask,xotask,dotcolour,29,0,29,29,training,positivefb,98,easy,5,0.7501272999998037,['n'],1,right,['0'],6,0.4365226000008988,,,,,,,,27,18,Vrouw,Rechts,2,
,xotask,xotask,dotcolour,30,0,30,30,training,positivefb,94,easy,71,0.8173715000011725,['c'],1,left,['9'],5,0.3061279999983526,,,,,,,,27,18,Vrouw,Rechts,2,
,xotask,xotask,dotcolour,31,0,31,31,training,positivefb,86,hard,26,1.0834860999984812,['n'],1,right,['9'],5,0.38747890000013285,,,,,,,,27,18,Vrouw,Rechts,2,
,xotask,xotask,dotcolour,32,0,32,32,training,positivefb,99,easy,71,0.7509919999993144,['c'],1,left,['9'],5,0.3254837000004045,,,,,,,,27,18,Vrouw,Rechts,2,
,xotask,xotask,dotcolour,33,0,33,33,training,positivefb,94,average,60,0.8504522000002908,['c'],1,left,['9'],5,0.42301599999882455,,,,,,,,27,18,Vrouw,Rechts,2,
,xotask,xotask,dotcolour,34,0,34,34,training,positivefb,94,hard,27,0.9167546999997285,['n'],1,right,['8'],4,0.3937354999998206,,,,,,,,27,18,Vrouw,Rechts,2,
,xotask,xotask,dotcolour,35,0,35,35,training,positivefb,74,hard,52,1.016458000000057,['c'],1,left,['9'],5,0.5293473000001541,,,,,,,,27,18,Vrouw,Rechts,2,
,xotask,xotask,dotcolour,36,0,36,36,training,positivefb,99,easy,70,0.7341957999997248,['c'],1,left,['0'],6,0.9763498999982403,,,,,,,,27,18,Vrouw,Rechts,2,
,xotask,xotask,dotcolour,37,0,37,37,training,positivefb,65,average,15,0.8826661000002787,['n'],1,right,['8'],4,0.7574769999991986,,,,,,,,27,18,Vrouw,Rechts,2,
,xotask,xotask,dotcolour,38,0,38,38,training,positivefb,98,average,60,0.8834236999991845,['c'],1,left,['9'],5,0.4448783999996522,,,,,,,,27,18,Vrouw,Rechts,2,
,xotask,xotask,dotcolour,39,0,39,39,training,positivefb,93,hard,54,1.68277229999876,['c'],1,left,['8'],4,0.5035020000013901,,,,,,,,27,18,Vrouw,Rechts,2,
,xotask,xotask,dotcolour,40,0,40,40,training,positivefb,99,average,18,1.017984099999012,['n'],1,right,['0'],6,0.9392207000000781,,,,,,,,27,18,Vrouw,Rechts,2,
,xotask,xotask,dotcolour,41,0,41,41,training,positivefb,92,average,19,1.1165612999993755,['n'],1,right,['9'],5,0.4409515999996074,,,,,,,,27,18,Vrouw,Rechts,2,
,xotask,xotask,dotcolour,42,0,42,42,training,positivefb,93,average,62,0.8994851999996172,['c'],1,left,['9'],5,0.41189529999974184,,,,,,,,27,18,Vrouw,Rechts,2,
,xotask,xotask,dotcolour,43,0,43,43,training,positivefb,98,easy,73,0.7826292000008834,['c'],1,left,['9'],5,0.548839199998838,,,,,,,,27,18,Vrouw,Rechts,2,
,xotask,xotask,dotcolour,44,0,44,44,training,positivefb,99,easy,71,0.883866099999068,['c'],1,left,['0'],6,0.5796840999992128,,,,,,,,27,18,Vrouw,Rechts,2,
,xotask,xotask,dotcolour,45,0,45,45,training,positivefb,81,hard,52,1.0174663000016153,['c'],1,left,['8'],4,0.33184409999921627,,,,,,,,27,18,Vrouw,Rechts,2,
,xotask,xotask,dotcolour,46,0,46,46,training,positivefb,83,average,18,0.7669126000000688,['n'],1,right,['8'],4,0.48056179999912274,,,,,,,,27,18,Vrouw,Rechts,2,
,xotask,xotask,dotcolour,47,0,47,47,training,positivefb,100,average,15,0.9500009999992471,['n'],1,right,['8'],4,1.0400817999998253,,,,,,,,27,18,Vrouw,Rechts,2,
,xotask,xotask,dotcolour,48,0,48,48,training,positivefb,85,hard,52,1.9342286000010063,['c'],1,left,['8'],4,0.40103559999988647,,,,,,,,27,18,Vrouw,Rechts,2,
,xotask,xotask,dotcolour,49,0,49,49,training,positivefb,94,average,60,0.7345767000006163,['c'],1,left,['0'],6,0.9074511999988317,,,,,,,,27,18,Vrouw,Rechts,2,
,xotask,xotask,dotcolour,50,0,50,50,training,positivefb,82,easy,73,0.8829690000002302,['c'],1,left,['9'],5,0.6043862999995326,,,,,,,,27,18,Vrouw,Rechts,2,
,xotask,xotask,dotcolour,51,0,51,51,training,positivefb,98,hard,25,0.9006539000001794,['n'],1,right,['9'],5,0.35983589999887045,,,,,,,,27,18,Vrouw,Rechts,2,
,xotask,xotask,dotcolour,52,0,52,52,training,positivefb,56,average,19,1.0499677000007068,['c'],0,right,['3'],3,1.4002455000008922,,,,,,,,27,18,Vrouw,Rechts,2,
,xotask,xotask,dotcolour,53,0,53,53,training,positivefb,92,hard,51,2.0497995000005176,['c'],1,left,['8'],4,0.3735586000002513,,,,,,,,27,18,Vrouw,Rechts,2,
,xotask,xotask,dotcolour,54,0,54,54,training,positivefb,90,average,18,0.749248299998726,['n'],1,right,['9'],5,0.9692225999988295,,,,,,,,27,18,Vrouw,Rechts,2,
,xotask,xotask,dotcolour,55,0,55,55,training,positivefb,93,average,16,0.8668167999985599,['n'],1,right,['9'],5,0.3912497000001167,,,,,,,,27,18,Vrouw,Rechts,2,
,xotask,xotask,dotcolour,56,0,56,56,training,positivefb,99,easy,9,0.7668440000015835,['n'],1,right,['0'],6,0.7135023999999248,,,,,,,,27,18,Vrouw,Rechts,2,
,xotask,xotask,dotcolour,57,0,57,57,training,positivefb,89,hard,25,1.182901899999706,['c'],0,right,['8'],4,0.3423077999996167,,,,,,,,27,18,Vrouw,Rechts,2,
,xotask,xotask,dotcolour,58,0,58,58,training,positivefb,97,average,17,0.6833257999987836,['n'],1,right,['0'],6,0.4382521000006818,,,,,,,,27,18,Vrouw,Rechts,2,
,xotask,xotask,dotcolour,59,0,59,59,training,positivefb,68,hard,27,0.80027119999977,['n'],1,right,['8'],4,0.7158401999986381,,,,,,,,27,18,Vrouw,Rechts,2,
,xotask,xotask,dotcolour,0,1,60,60,training,positivefb,100,easy,72,1.067929799999547,['c'],1,left,['0'],6,1.1995972999993683,,,,,,,,27,18,Vrouw,Rechts,2,
,xotask,xotask,dotcolour,1,1,61,61,training,positivefb,96,easy,73,0.8670944000004965,['c'],1,left,['9'],5,0.4282994000004692,,,,,,,,27,18,Vrouw,Rechts,2,
,xotask,xotask,dotcolour,2,1,62,62,training,positivefb,83,average,18,1.0503130999986752,['n'],1,right,['8'],4,0.5861473999993905,,,,,,,,27,18,Vrouw,Rechts,2,
,xotask,xotask,dotcolour,3,1,63,63,training,positivefb,92,hard,28,0.9836388999992778,['n'],1,right,['8'],4,0.3394514999999956,,,,,,,,27,18,Vrouw,Rechts,2,
,xotask,xotask,dotcolour,4,1,64,64,training,positivefb,94,average,17,0.9002722000004724,['n'],1,right,['9'],5,0.7698276000010082,,,,,,,,27,18,Vrouw,Rechts,2,
,xotask,xotask,dotcolour,5,1,65,65,training,positivefb,96,easy,73,0.5832420000006096,['c'],1,left,['9'],5,0.539951500000825,,,,,,,,27,18,Vrouw,Rechts,2,
,xotask,xotask,dotcolour,6,1,66,66,training,positivefb,87,hard,50,1.084352799998669,['c'],1,left,['9'],5,0.3312824000004184,,,,,,,,27,18,Vrouw,Rechts,2,
,xotask,xotask,dotcolour,7,1,67,67,training,positivefb,99,easy,6,0.7841289999996661,['n'],1,right,['0'],6,0.4707149000005302,,,,,,,,27,18,Vrouw,Rechts,2,
,xotask,xotask,dotcolour,8,1,68,68,training,positivefb,92,average,63,0.8489090999992186,['c'],1,left,['8'],4,0.27426459999878716,,,,,,,,27,18,Vrouw,Rechts,2,
,xotask,xotask,dotcolour,9,1,69,69,training,positivefb,96,average,64,0.6668387000008806,['c'],1,left,['9'],5,0.3804813999995531,,,,,,,,27,18,Vrouw,Rechts,2,
,xotask,xotask,dotcolour,10,1,70,70,training,positivefb,97,easy,74,0.7825312000004487,['c'],1,left,['0'],6,0.3505656999986968,,,,,,,,27,18,Vrouw,Rechts,2,
,xotask,xotask,dotcolour,11,1,71,71,training,positivefb,88,average,62,0.7492205999988073,['c'],1,left,['0'],6,0.4108773999996629,,,,,,,,27,18,Vrouw,Rechts,2,
,xotask,xotask,dotcolour,12,1,72,72,training,positivefb,99,easy,74,0.6674452999995992,['c'],1,left,['0'],6,0.7121003000011115,,,,,,,,27,18,Vrouw,Rechts,2,
,xotask,xotask,dotcolour,13,1,73,73,training,positivefb,100,average,18,0.49975909999920987,['n'],1,right,['9'],5,0.504291799999919,,,,,,,,27,18,Vrouw,Rechts,2,
,xotask,xotask,dotcolour,14,1,74,74,training,positivefb,72,hard,52,0.8331300000008923,['c'],1,left,['8'],4,1.1547819999996136,,,,,,,,27,18,Vrouw,Rechts,2,
,xotask,xotask,dotcolour,15,1,75,75,training,positivefb,92,average,63,1.1665145000006305,['c'],1,left,['8'],4,0.5256317000003037,,,,,,,,27,18,Vrouw,Rechts,2,
,xotask,xotask,dotcolour,16,1,76,76,training,positivefb,99,easy,8,0.7336149000002479,['n'],1,right,['0'],6,0.40358999999989464,,,,,,,,27,18,Vrouw,Rechts,2,
,xotask,xotask,dotcolour,17,1,77,77,training,positivefb,93,easy,73,0.8340858000010485,['c'],1,left,['9'],5,0.5060897000003024,,,,,,,,27,18,Vrouw,Rechts,2,
,xotask,xotask,dotcolour,18,1,78,78,training,positivefb,96,hard,52,0.8008431000016571,['c'],1,left,['9'],5,0.2703514999993786,,,,,,,,27,18,Vrouw,Rechts,2,
,xotask,xotask,dotcolour,19,1,79,79,training,positivefb,96,hard,26,0.6655912000005628,['n'],1,right,['8'],4,0.3854885999990074,,,,,,,,27,18,Vrouw,Rechts,2,
,xotask,xotask,dotcolour,20,1,80,80,training,positivefb,65,hard,28,1.084423299998889,['n'],1,right,['8'],4,0.3022135999999591,,,,,,,,27,18,Vrouw,Rechts,2,
,xotask,xotask,dotcolour,21,1,81,81,training,positivefb,95,hard,54,1.0498777000011614,['c'],1,left,['9'],5,0.36786660000143456,,,,,,,,27,18,Vrouw,Rechts,2,
,xotask,xotask,dotcolour,22,1,82,82,training,positivefb,98,easy,7,0.6674108999995951,['n'],1,right,['0'],6,0.36683109999830776,,,,,,,,27,18,Vrouw,Rechts,2,
,xotask,xotask,dotcolour,23,1,83,83,training,positivefb,93,easy,71,0.6503773999993427,['c'],1,left,['9'],5,0.37406650000048103,,,,,,,,27,18,Vrouw,Rechts,2,
,xotask,xotask,dotcolour,24,1,84,84,training,positivefb,86,easy,9,1.533292000000074,['n'],1,right,['0'],6,0.43417200000112643,,,,,,,,27,18,Vrouw,Rechts,2,
,xotask,xotask,dotcolour,25,1,85,85,training,positivefb,95,hard,54,1.101248700000724,['c'],1,left,['8'],4,0.29317900000023656,,,,,,,,27,18,Vrouw,Rechts,2,
,xotask,xotask,dotcolour,26,1,86,86,training,positivefb,85,easy,6,0.7505373000003601,['n'],1,right,['0'],6,0.3721577999986039,,,,,,,,27,18,Vrouw,Rechts,2,
,xotask,xotask,dotcolour,27,1,87,87,training,positivefb,99,easy,73,0.5998424999997951,['c'],1,left,['0'],6,0.38067210000008345,,,,,,,,27,18,Vrouw,Rechts,2,
,xotask,xotask,dotcolour,28,1,88,88,training,positivefb,85,hard,54,1.2163405999999668,['n'],0,left,['8'],4,0.6607272000001103,,,,,,,,27,18,Vrouw,Rechts,2,
,xotask,xotask,dotcolour,29,1,89,89,training,positivefb,99,easy,74,0.7832318000000669,['c'],1,left,['0'],6,0.7392961000005016,,,,,,,,27,18,Vrouw,Rechts,2,
,xotask,xotask,dotcolour,30,1,90,90,training,positivefb,81,hard,25,0.7180246000007173,['n'],1,right,['0'],6,0.4974278999998205,,,,,,,,27,18,Vrouw,Rechts,2,
,xotask,xotask,dotcolour,31,1,91,91,training,positivefb,86,hard,53,1.266654799999742,['c'],1,left,['9'],5,0.41897700000117766,,,,,,,,27,18,Vrouw,Rechts,2,
,xotask,xotask,dotcolour,32,1,92,92,training,positivefb,87,average,63,0.7996520999986387,['c'],1,left,['9'],5,0.2905155999997078,,,,,,,,27,18,Vrouw,Rechts,2,
,xotask,xotask,dotcolour,33,1,93,93,training,positivefb,97,average,15,0.8503896000001987,['n'],1,right,['9'],5,0.3248767000004591,,,,,,,,27,18,Vrouw,Rechts,2,
,xotask,xotask,dotcolour,34,1,94,94,training,positivefb,96,average,18,0.8003071000002819,['n'],1,right,['9'],5,0.35216119999859075,,,,,,,,27,18,Vrouw,Rechts,2,
,xotask,xotask,dotcolour,35,1,95,95,training,positivefb,87,average,63,1.315927499999816,['c'],1,left,['8'],4,0.35868789999949513,,,,,,,,27,18,Vrouw,Rechts,2,
,xotask,xotask,dotcolour,36,1,96,96,training,positivefb,91,average,64,0.900143200000457,['c'],1,left,['9'],5,0.5720677000008436,,,,,,,,27,18,Vrouw,Rechts,2,
,xotask,xotask,dotcolour,37,1,97,97,training,positivefb,98,easy,5,0.784005999999863,['n'],1,right,['0'],6,0.405593499999668,,,,,,,,27,18,Vrouw,Rechts,2,
,xotask,xotask,dotcolour,38,1,98,98,training,positivefb,41,average,19,0.8343364000011206,['n'],1,right,['9'],5,0.508783899998889,,,,,,,,27,18,Vrouw,Rechts,2,
,xotask,xotask,dotcolour,39,1,99,99,training,positivefb,92,easy,6,0.9832454999996116,['n'],1,right,['0'],6,0.3613702000002377,,,,,,,,27,18,Vrouw,Rechts,2,
,xotask,xotask,dotcolour,40,1,100,100,training,positivefb,93,easy,72,0.6991022999991401,['c'],1,left,['9'],5,0.3033177999986947,,,,,,,,27,18,Vrouw,Rechts,2,
,xotask,xotask,dotcolour,41,1,101,101,training,positivefb,85,average,18,0.8350339000007807,['n'],1,right,['9'],5,0.3861407999993389,,,,,,,,27,18,Vrouw,Rechts,2,
,xotask,xotask,dotcolour,42,1,102,102,training,positivefb,90,hard,54,0.7498216999993019,['c'],1,left,['0'],6,0.45259529999930237,,,,,,,,27,18,Vrouw,Rechts,2,
,xotask,xotask,dotcolour,43,1,103,103,training,positivefb,72,average,60,1.1002296999995451,['c'],1,left,['8'],4,0.431147699999201,,,,,,,,27,18,Vrouw,Rechts,2,
,xotask,xotask,dotcolour,44,1,104,104,training,positivefb,95,average,18,1.0664690000012342,['n'],1,right,['9'],5,0.4756097999998019,,,,,,,,27,18,Vrouw,Rechts,2,
,xotask,xotask,dotcolour,45,1,105,105,training,positivefb,85,hard,29,0.9003709000007802,['n'],1,right,['9'],5,0.3407323000010365,,,,,,,,27,18,Vrouw,Rechts,2,
,xotask,xotask,dotcolour,46,1,106,106,training,positivefb,95,hard,26,0.8835911999995005,['n'],1,right,['9'],5,0.4282923999999184,,,,,,,,27,18,Vrouw,Rechts,2,
,xotask,xotask,dotcolour,47,1,107,107,training,positivefb,76,hard,29,0.8996052000002237,['c'],0,right,['8'],4,0.3836204999988695,,,,,,,,27,18,Vrouw,Rechts,2,
,xotask,xotask,dotcolour,48,1,108,108,training,positivefb,89,hard,28,1.0836378000003606,['n'],1,right,['8'],4,0.4371379000003799,,,,,,,,27,18,Vrouw,Rechts,2,
,xotask,xotask,dotcolour,49,1,109,109,training,positivefb,91,average,16,0.9500336000000971,['n'],1,right,['8'],4,0.29305120000026363,,,,,,,,27,18,Vrouw,Rechts,2,
,xotask,xotask,dotcolour,50,1,110,110,training,positivefb,96,average,15,0.8006912000000739,['n'],1,right,['9'],5,0.35434949999944365,,,,,,,,27,18,Vrouw,Rechts,2,
,xotask,xotask,dotcolour,51,1,111,111,training,positivefb,97,easy,8,0.6331648999985191,['n'],1,right,['0'],6,0.31523919999926875,,,,,,,,27,18,Vrouw,Rechts,2,
,xotask,xotask,dotcolour,52,1,112,112,training,positivefb,97,average,62,0.7841988000000129,['c'],1,left,['9'],5,0.38283899999987625,,,,,,,,27,18,Vrouw,Rechts,2,
,xotask,xotask,dotcolour,53,1,113,113,training,positivefb,96,easy,8,0.6997676999999385,['n'],1,right,['0'],6,0.3479267999991862,,,,,,,,27,18,Vrouw,Rechts,2,
,xotask,xotask,dotcolour,54,1,114,114,training,positivefb,97,average,61,0.8329386999994313,['c'],1,left,['0'],6,0.3487738999992871,,,,,,,,27,18,Vrouw,Rechts,2,
,xotask,xotask,dotcolour,55,1,115,115,training,positivefb,95,hard,50,1.0011647999999695,['c'],1,left,['9'],5,0.3431994000002305,,,,,,,,27,18,Vrouw,Rechts,2,
,xotask,xotask,dotcolour,56,1,116,116,training,positivefb,83,hard,52,1.0669027000003553,['c'],1,left,['8'],4,0.26325700000052166,,,,,,,,27,18,Vrouw,Rechts,2,
,xotask,xotask,dotcolour,57,1,117,117,training,positivefb,98,easy,6,0.9830734000006487,['n'],1,right,['0'],6,0.46983929999987595,,,,,,,,27,18,Vrouw,Rechts,2,
,xotask,xotask,dotcolour,58,1,118,118,training,positivefb,85,hard,26,1.500297299999147,['n'],1,right,['8'],4,0.5116749000007985,,,,,,,,27,18,Vrouw,Rechts,2,
,xotask,xotask,dotcolour,59,1,119,119,training,positivefb,82,hard,25,1.3004935999997542,['n'],1,right,['8'],4,0.3106222999995225,,,,,,,,27,18,Vrouw,Rechts,2,
,dotcolour,xotask,dotcolour,0,2,120,120,main,positivefb,-99,easy,,1.0010851000006369,['n'],1,right,['9'],5,0.7952734999998938,18,,,,,,,27,18,Vrouw,Rechts,2,
,dotcolour,xotask,dotcolour,1,2,121,121,main,positivefb,-99,hard,,0.8514459000016359,['c'],1,left,['9'],5,0.314085599999089,45,,,,,,,27,18,Vrouw,Rechts,2,
,dotcolour,xotask,dotcolour,2,2,122,122,main,positivefb,-99,hard,,0.8508220999992773,['n'],0,left,['9'],5,0.3643154000001232,41,,,,,,,27,18,Vrouw,Rechts,2,
,dotcolour,xotask,dotcolour,3,2,123,123,main,positivefb,-99,average,,0.7839805999992677,['c'],1,left,['0'],6,0.615715400001136,55,,,,,,,27,18,Vrouw,Rechts,2,
,dotcolour,xotask,dotcolour,4,2,124,124,main,positivefb,-99,hard,,1.0335768000004464,['n'],0,left,['8'],4,0.5024582000005466,41,,,,,,,27,18,Vrouw,Rechts,2,
,dotcolour,xotask,dotcolour,5,2,125,125,main,positivefb,-99,easy,,1.0352960000000166,['n'],1,right,['9'],5,0.8256890000011481,19,,,,,,,27,18,Vrouw,Rechts,2,
,dotcolour,xotask,dotcolour,6,2,126,126,main,positivefb,-99,average,,0.8340423000008741,['n'],1,right,['9'],5,0.38415139999960957,28,,,,,,,27,18,Vrouw,Rechts,2,
,dotcolour,xotask,dotcolour,7,2,127,127,main,positivefb,-99,easy,,0.7344326999991608,['c'],1,left,['0'],6,0.628408099999433,63,,,,,,,27,18,Vrouw,Rechts,2,
,dotcolour,xotask,dotcolour,8,2,128,128,main,positivefb,-99,hard,,0.7845820000002277,['c'],1,left,['9'],5,0.33271349999995437,44,,,,,,,27,18,Vrouw,Rechts,2,
,dotcolour,xotask,dotcolour,9,2,129,129,main,positivefb,-99,easy,,0.8669941000007384,['c'],1,left,['0'],6,0.29370750000089174,64,,,,,,,27,18,Vrouw,Rechts,2,
,dotcolour,xotask,dotcolour,10,2,130,130,main,positivefb,-99,average,,0.6837807000010798,['c'],1,left,['0'],6,0.34316320000107225,52,,,,,,,27,18,Vrouw,Rechts,2,
,dotcolour,xotask,dotcolour,11,2,131,131,main,positivefb,-99,easy,,0.6182427000003372,['c'],1,left,['0'],6,0.2740212999997311,64,,,,,,,27,18,Vrouw,Rechts,2,
,dotcolour,xotask,dotcolour,12,2,132,132,main,positivefb,-99,average,,0.5993053999991389,['n'],1,right,['0'],6,0.3917321000008087,26,,,,,,,27,18,Vrouw,Rechts,2,
,dotcolour,xotask,dotcolour,13,2,133,133,main,positivefb,-99,easy,,0.5511004999989382,['c'],1,left,['0'],6,0.31529330000012123,63,,,,,,,27,18,Vrouw,Rechts,2,
,dotcolour,xotask,dotcolour,14,2,134,134,main,positivefb,-99,hard,,1.2343848000000435,['c'],0,right,['0'],6,0.502332000000024,38,,,,,,,27,18,Vrouw,Rechts,2,
,dotcolour,xotask,dotcolour,15,2,135,135,main,positivefb,-99,average,,0.6345664000000397,['n'],1,right,['0'],6,0.3212549999989278,25,,,,,,,27,18,Vrouw,Rechts,2,
,dotcolour,xotask,dotcolour,16,2,136,136,main,positivefb,-99,average,,0.7176168999994843,['c'],1,left,['0'],6,0.21666390000063984,52,,,,,,,27,18,Vrouw,Rechts,2,
,dotcolour,xotask,dotcolour,17,2,137,137,main,positivefb,-99,easy,,0.7842832999995153,['n'],1,right,['0'],6,0.2571922999995877,18,,,,,,,27,18,Vrouw,Rechts,2,
,dotcolour,xotask,dotcolour,18,2,138,138,main,positivefb,-99,hard,,1.4011564000011276,['c'],1,left,['9'],5,0.496092100000169,45,,,,,,,27,18,Vrouw,Rechts,2,
,dotcolour,xotask,dotcolour,19,2,139,139,main,positivefb,-99,easy,,0.8171506999988196,['c'],1,left,['0'],6,0.27642519999972137,64,,,,,,,27,18,Vrouw,Rechts,2,
,dotcolour,xotask,dotcolour,20,2,140,140,main,positivefb,-99,hard,,0.7170947999984492,['n'],1,right,['0'],6,0.4304296999998769,37,,,,,,,27,18,Vrouw,Rechts,2,
,dotcolour,xotask,dotcolour,21,2,141,141,main,positivefb,-99,average,,0.7999209999998129,['n'],1,right,['0'],6,0.3584628000007797,26,,,,,,,27,18,Vrouw,Rechts,2,
,dotcolour,xotask,dotcolour,22,2,142,142,main,positivefb,-99,average,,1.0177253000001656,['n'],1,right,['0'],6,0.24846880000040983,25,,,,,,,27,18,Vrouw,Rechts,2,
,dotcolour,xotask,dotcolour,23,2,143,143,main,positivefb,-99,average,,0.6511418000009144,['n'],1,right,['0'],6,0.45344199999999546,27,,,,,,,27,18,Vrouw,Rechts,2,
,dotcolour,xotask,dotcolour,24,2,144,144,main,positivefb,-99,easy,,0.5839192000003095,['n'],1,right,['0'],6,0.40441899999859743,15,,,,,,,27,18,Vrouw,Rechts,2,
,dotcolour,xotask,dotcolour,25,2,145,145,main,positivefb,-99,hard,,0.9843285999995715,['c'],1,left,['8'],4,0.38968670000031125,43,,,,,,,27,18,Vrouw,Rechts,2,
,dotcolour,xotask,dotcolour,26,2,146,146,main,positivefb,-99,easy,,0.6508268999987195,['c'],1,left,['0'],6,0.26898700000128883,64,,,,,,,27,18,Vrouw,Rechts,2,
,dotcolour,xotask,dotcolour,27,2,147,147,main,positivefb,-99,hard,,1.517544700000144,['n'],0,left,['8'],4,0.8220729000004212,41,,,,,,,27,18,Vrouw,Rechts,2,
,dotcolour,xotask,dotcolour,28,2,148,148,main,positivefb,-99,average,,0.8674394999998185,['c'],1,left,['0'],6,0.22754559999884805,52,,,,,,,27,18,Vrouw,Rechts,2,
,dotcolour,xotask,dotcolour,29,2,149,149,main,positivefb,-99,easy,,0.5675321999988228,['c'],1,left,['0'],6,0.3171619999993709,62,,,,,,,27,18,Vrouw,Rechts,2,
,dotcolour,xotask,dotcolour,30,2,150,150,main,positivefb,-99,average,,0.517869299999802,['c'],1,left,['0'],6,0.26832869999998366,51,,,,,,,27,18,Vrouw,Rechts,2,
,dotcolour,xotask,dotcolour,31,2,151,151,main,positivefb,-99,average,,0.7841083000002982,['c'],1,left,['0'],6,0.4109145999991597,54,,,,,,,27,18,Vrouw,Rechts,2,
,dotcolour,xotask,dotcolour,32,2,152,152,main,positivefb,-99,average,,0.65197100000114,['c'],1,left,['0'],6,0.29852279999977327,55,,,,,,,27,18,Vrouw,Rechts,2,
,dotcolour,xotask,dotcolour,33,2,153,153,main,positivefb,-99,average,,0.800512499999968,['n'],1,right,['0'],6,0.41441580000173417,25,,,,,,,27,18,Vrouw,Rechts,2,
,dotcolour,xotask,dotcolour,34,2,154,154,main,positivefb,-99,easy,,0.651514799999859,['n'],1,right,['0'],6,0.4203830000005837,18,,,,,,,27,18,Vrouw,Rechts,2,
,dotcolour,xotask,dotcolour,35,2,155,155,main,positivefb,-99,easy,,0.8346386999983224,['c'],1,left,['0'],6,0.6108420000000478,64,,,,,,,27,18,Vrouw,Rechts,2,
,dotcolour,xotask,dotcolour,36,2,156,156,main,positivefb,-99,easy,,0.7165081999992253,['n'],1,right,['0'],6,0.37489519999871845,15,,,,,,,27,18,Vrouw,Rechts,2,
,dotcolour,xotask,dotcolour,37,2,157,157,main,positivefb,-99,hard,,1.2343406999989384,['c'],0,right,['8'],4,0.4554822999998578,38,,,,,,,27,18,Vrouw,Rechts,2,
,dotcolour,xotask,dotcolour,38,2,158,158,main,positivefb,-99,easy,,0.7183310999989772,['n'],1,right,['0'],6,0.29747889999998733,18,,,,,,,27,18,Vrouw,Rechts,2,
,dotcolour,xotask,dotcolour,39,2,159,159,main,positivefb,-99,hard,,1.33440039999914,['n'],1,right,['9'],5,0.5372544000001653,38,,,,,,,27,18,Vrouw,Rechts,2,
,dotcolour,xotask,dotcolour,40,2,160,160,main,positivefb,-99,easy,,1.267611899998883,['c'],1,left,['0'],6,0.8502478000009432,63,,,,,,,27,18,Vrouw,Rechts,2,
,dotcolour,xotask,dotcolour,41,2,161,161,main,positivefb,-99,easy,,0.7181060999992042,['c'],1,left,['0'],6,0.29215040000053705,61,,,,,,,27,18,Vrouw,Rechts,2,
,dotcolour,xotask,dotcolour,42,2,162,162,main,positivefb,-99,hard,,1.1014187000000675,['n'],1,right,['0'],6,0.8530735000003915,36,,,,,,,27,18,Vrouw,Rechts,2,
,dotcolour,xotask,dotcolour,43,2,163,163,main,positivefb,-99,average,,0.9177858999992168,['n'],1,right,['0'],6,0.3427406000009796,25,,,,,,,27,18,Vrouw,Rechts,2,
,dotcolour,xotask,dotcolour,44,2,164,164,main,positivefb,-99,easy,,0.6010824999993929,['n'],1,right,['0'],6,0.2986356999990676,18,,,,,,,27,18,Vrouw,Rechts,2,
,dotcolour,xotask,dotcolour,45,2,165,165,main,positivefb,-99,average,,0.6175636999996641,['n'],1,right,['0'],6,0.31888530000105675,25,,,,,,,27,18,Vrouw,Rechts,2,
,dotcolour,xotask,dotcolour,46,2,166,166,main,positivefb,-99,average,,0.651690900000176,['c'],1,left,['9'],5,0.35282980000010866,52,,,,,,,27,18,Vrouw,Rechts,2,
,dotcolour,xotask,dotcolour,47,2,167,167,main,positivefb,-99,easy,,0.600751300000411,['n'],1,right,['0'],6,0.36288859999876877,19,,,,,,,27,18,Vrouw,Rechts,2,
,dotcolour,xotask,dotcolour,48,2,168,168,main,positivefb,-99,hard,,0.834552000000258,['n'],1,right,['9'],5,0.5251010000010865,37,,,,,,,27,18,Vrouw,Rechts,2,
,dotcolour,xotask,dotcolour,49,2,169,169,main,positivefb,-99,hard,,1.3343279999990045,['c'],1,left,['8'],4,0.5067918999993708,45,,,,,,,27,18,Vrouw,Rechts,2,
,dotcolour,xotask,dotcolour,50,2,170,170,main,positivefb,-99,hard,,0.7843331000003673,['n'],1,right,['0'],6,0.29669730000023264,36,,,,,,,27,18,Vrouw,Rechts,2,
,dotcolour,xotask,dotcolour,51,2,171,171,main,positivefb,-99,hard,,0.8005683000010322,['n'],1,right,['0'],6,0.40645930000027874,35,,,,,,,27,18,Vrouw,Rechts,2,
,dotcolour,xotask,dotcolour,52,2,172,172,main,positivefb,-99,average,,0.7344278000000486,['c'],1,left,['9'],5,0.40957759999946575,55,,,,,,,27,18,Vrouw,Rechts,2,
,dotcolour,xotask,dotcolour,53,2,173,173,main,positivefb,-99,hard,,1.5002683000002435,['c'],1,left,['8'],4,0.4141294000000926,44,,,,,,,27,18,Vrouw,Rechts,2,
,dotcolour,xotask,dotcolour,54,2,174,174,main,positivefb,-99,easy,,0.8677449999995588,['n'],1,right,['0'],6,0.3872835000001942,19,,,,,,,27,18,Vrouw,Rechts,2,
,dotcolour,xotask,dotcolour,55,2,175,175,main,positivefb,-99,hard,,0.9011647000006633,['n'],1,right,['9'],5,0.3761479999993753,37,,,,,,,27,18,Vrouw,Rechts,2,
,dotcolour,xotask,dotcolour,56,2,176,176,main,positivefb,-99,hard,,0.8841983000002074,['n'],1,right,['9'],5,0.3913233000002947,35,,,,,,,27,18,Vrouw,Rechts,2,
,dotcolour,xotask,dotcolour,57,2,177,177,main,positivefb,-99,hard,,0.8520076000004337,['n'],0,left,['9'],5,0.3584172999999282,45,,,,,,,27,18,Vrouw,Rechts,2,
,dotcolour,xotask,dotcolour,58,2,178,178,main,positivefb,-99,average,,0.8339415999998891,['c'],1,left,['9'],5,0.28014580000126443,51,,,,,,,27,18,Vrouw,Rechts,2,
,dotcolour,xotask,dotcolour,59,2,179,179,main,positivefb,-99,average,,0.6177018999987922,['n'],1,right,['9'],5,0.38932130000102916,26,,,,,,,27,18,Vrouw,Rechts,2,
,dotcolour,xotask,dotcolour,0,3,180,180,main,positivefb,-99,average,,0.8338397000006808,['n'],1,right,['0'],6,0.9642077999997127,26,,,,,,,27,18,Vrouw,Rechts,2,
,dotcolour,xotask,dotcolour,1,3,181,181,main,positivefb,-99,hard,,0.6009147999993729,['c'],1,left,['9'],5,0.3021489000002475,45,,,,,,,27,18,Vrouw,Rechts,2,
,dotcolour,xotask,dotcolour,2,3,182,182,main,positivefb,-99,easy,,0.7844526000008045,['c'],1,left,['0'],6,0.24344840000048862,62,,,,,,,27,18,Vrouw,Rechts,2,
,dotcolour,xotask,dotcolour,3,3,183,183,main,positivefb,-99,average,,0.6342279000000417,['c'],1,left,['0'],6,0.6413686000014422,51,,,,,,,27,18,Vrouw,Rechts,2,
,dotcolour,xotask,dotcolour,4,3,184,184,main,positivefb,-99,hard,,0.6350729999994655,['n'],1,right,['0'],6,0.3036990999989939,35,,,,,,,27,18,Vrouw,Rechts,2,
,dotcolour,xotask,dotcolour,5,3,185,185,main,positivefb,-99,average,,1.1331572999988566,['c'],1,left,['9'],5,0.7906607999993867,53,,,,,,,27,18,Vrouw,Rechts,2,
,dotcolour,xotask,dotcolour,6,3,186,186,main,positivefb,-99,average,,0.7182319999992615,['c'],1,left,['0'],6,0.20307080000020505,52,,,,,,,27,18,Vrouw,Rechts,2,
,dotcolour,xotask,dotcolour,7,3,187,187,main,positivefb,-99,average,,0.86783959999957,['c'],1,left,['0'],6,0.3137323999999353,54,,,,,,,27,18,Vrouw,Rechts,2,
,dotcolour,xotask,dotcolour,8,3,188,188,main,positivefb,-99,average,,0.6836906999997154,['c'],1,left,['0'],6,0.3148798000001989,51,,,,,,,27,18,Vrouw,Rechts,2,
,dotcolour,xotask,dotcolour,9,3,189,189,main,positivefb,-99,hard,,0.7011543000007805,['n'],1,right,['0'],6,0.2912402000001748,35,,,,,,,27,18,Vrouw,Rechts,2,
,dotcolour,xotask,dotcolour,10,3,190,190,main,positivefb,-99,easy,,0.6679918000008911,['c'],1,left,['0'],6,0.3494561000006797,62,,,,,,,27,18,Vrouw,Rechts,2,
,dotcolour,xotask,dotcolour,11,3,191,191,main,positivefb,-99,hard,,1.3676640999983647,['n'],1,right,['9'],5,0.3698000000003958,35,,,,,,,27,18,Vrouw,Rechts,2,
,dotcolour,xotask,dotcolour,12,3,192,192,main,positivefb,-99,average,,0.7677213999995729,['n'],1,right,['9'],5,0.2685365000015736,29,,,,,,,27,18,Vrouw,Rechts,2,
,dotcolour,xotask,dotcolour,13,3,193,193,main,positivefb,-99,easy,,0.6177731999996467,['n'],1,right,['9'],5,0.3298341000008804,19,,,,,,,27,18,Vrouw,Rechts,2,
,dotcolour,xotask,dotcolour,14,3,194,194,main,positivefb,-99,hard,,0.9506887999996252,['c'],1,left,['9'],5,0.3925340000005235,43,,,,,,,27,18,Vrouw,Rechts,2,
,dotcolour,xotask,dotcolour,15,3,195,195,main,positivefb,-99,average,,0.7847357000009652,['n'],1,right,['0'],6,0.35428909999973257,29,,,,,,,27,18,Vrouw,Rechts,2,
,dotcolour,xotask,dotcolour,16,3,196,196,main,positivefb,-99,hard,,1.1345424999999523,['c'],1,left,['8'],4,0.463440300000002,42,,,,,,,27,18,Vrouw,Rechts,2,
,dotcolour,xotask,dotcolour,17,3,197,197,main,positivefb,-99,easy,,0.6179334999997081,['n'],1,right,['0'],6,0.301785599998766,15,,,,,,,27,18,Vrouw,Rechts,2,
,dotcolour,xotask,dotcolour,18,3,198,198,main,positivefb,-99,easy,,0.7180962000002182,['c'],1,left,['0'],6,0.27774910000152886,64,,,,,,,27,18,Vrouw,Rechts,2,
,dotcolour,xotask,dotcolour,19,3,199,199,main,positivefb,-99,easy,,0.633384599999772,['c'],1,left,['0'],6,0.2664813999999751,64,,,,,,,27,18,Vrouw,Rechts,2,
,dotcolour,xotask,dotcolour,20,3,200,200,main,positivefb,-99,average,,0.5345643999989989,['c'],1,left,['0'],6,0.2429954999988695,55,,,,,,,27,18,Vrouw,Rechts,2,
,dotcolour,xotask,dotcolour,21,3,201,201,main,positivefb,-99,easy,,0.5336682000015571,['n'],1,right,['0'],6,0.26942090000011376,19,,,,,,,27,18,Vrouw,Rechts,2,
,dotcolour,xotask,dotcolour,22,3,202,202,main,positivefb,-99,hard,,1.1178971999997884,['n'],1,right,['0'],6,0.3511069000014686,36,,,,,,,27,18,Vrouw,Rechts,2,
,dotcolour,xotask,dotcolour,23,3,203,203,main,positivefb,-99,easy,,0.5348575000007258,['n'],1,right,['0'],6,0.3002737000006164,16,,,,,,,27,18,Vrouw,Rechts,2,
,dotcolour,xotask,dotcolour,24,3,204,204,main,positivefb,-99,easy,,0.5675491000001784,['c'],1,left,['0'],6,0.45773060000101395,62,,,,,,,27,18,Vrouw,Rechts,2,
,dotcolour,xotask,dotcolour,25,3,205,205,main,positivefb,-99,hard,,1.3516362999998819,['c'],0,right,['8'],4,0.5058986999993067,36,,,,,,,27,18,Vrouw,Rechts,2,
,dotcolour,xotask,dotcolour,26,3,206,206,main,positivefb,-99,easy,,0.8343225000007806,['n'],1,right,['0'],6,0.33414129999982833,19,,,,,,,27,18,Vrouw,Rechts,2,
,dotcolour,xotask,dotcolour,27,3,207,207,main,positivefb,-99,easy,,0.5674491999998281,['c'],1,left,['0'],6,0.3066543000004458,64,,,,,,,27,18,Vrouw,Rechts,2,
,dotcolour,xotask,dotcolour,28,3,208,208,main,positivefb,-99,average,,0.7009969999999157,['n'],1,right,['0'],6,0.3628308000006655,26,,,,,,,27,18,Vrouw,Rechts,2,
,dotcolour,xotask,dotcolour,29,3,209,209,main,positivefb,-99,hard,,1.1180406000003131,['c'],1,left,['0'],6,0.33721430000150576,44,,,,,,,27,18,Vrouw,Rechts,2,
,dotcolour,xotask,dotcolour,30,3,210,210,main,positivefb,-99,hard,,1.350868999999875,['n'],0,left,['9'],5,0.4864391999999498,43,,,,,,,27,18,Vrouw,Rechts,2,
,dotcolour,xotask,dotcolour,31,3,211,211,main,positivefb,-99,average,,0.8680633999993006,['n'],1,right,['0'],6,0.26465880000068864,29,,,,,,,27,18,Vrouw,Rechts,2,
,dotcolour,xotask,dotcolour,32,3,212,212,main,positivefb,-99,average,,0.500075800000559,['n'],1,right,['0'],6,0.25908720000006724,25,,,,,,,27,18,Vrouw,Rechts,2,
,dotcolour,xotask,dotcolour,33,3,213,213,main,positivefb,-99,hard,,1.067823800000042,['c'],0,right,['9'],5,0.5428963999984262,39,,,,,,,27,18,Vrouw,Rechts,2,
,dotcolour,xotask,dotcolour,34,3,214,214,main,positivefb,-99,hard,,0.9850593999999546,['n'],1,right,['0'],6,0.3787797999993927,37,,,,,,,27,18,Vrouw,Rechts,2,
,dotcolour,xotask,dotcolour,35,3,215,215,main,positivefb,-99,average,,0.6850075000002107,['c'],1,left,['9'],5,0.43423359999906097,53,,,,,,,27,18,Vrouw,Rechts,2,
,dotcolour,xotask,dotcolour,36,3,216,216,main,positivefb,-99,easy,,0.5838373999995383,['n'],1,right,['0'],6,0.28970680000020366,16,,,,,,,27,18,Vrouw,Rechts,2,
,dotcolour,xotask,dotcolour,37,3,217,217,main,positivefb,-99,hard,,1.4507432999998855,['c'],1,left,['8'],4,0.2532097999992402,42,,,,,,,27,18,Vrouw,Rechts,2,
,dotcolour,xotask,dotcolour,38,3,218,218,main,positivefb,-99,easy,,0.6352762999995321,['n'],1,right,['0'],6,0.2586833999994269,17,,,,,,,27,18,Vrouw,Rechts,2,
,dotcolour,xotask,dotcolour,39,3,219,219,main,positivefb,-99,hard,,1.0005698000004486,['n'],1,right,['0'],6,0.37761759999921196,35,,,,,,,27,18,Vrouw,Rechts,2,
,dotcolour,xotask,dotcolour,40,3,220,220,main,positivefb,-99,easy,,0.6516566999998759,['n'],1,right,['0'],6,0.321397400000933,16,,,,,,,27,18,Vrouw,Rechts,2,
,dotcolour,xotask,dotcolour,41,3,221,221,main,positivefb,-99,average,,0.6671103000007861,['n'],1,right,['0'],6,0.3462346999986039,28,,,,,,,27,18,Vrouw,Rechts,2,
,dotcolour,xotask,dotcolour,42,3,222,222,main,positivefb,-99,easy,,0.8682714999995369,['n'],1,right,['0'],6,0.37093149999964226,16,,,,,,,27,18,Vrouw,Rechts,2,
,dotcolour,xotask,dotcolour,43,3,223,223,main,positivefb,-99,average,,0.9677722999986145,['n'],1,right,['0'],6,0.3826515000000654,25,,,,,,,27,18,Vrouw,Rechts,2,
,dotcolour,xotask,dotcolour,44,3,224,224,main,positivefb,-99,easy,,0.5513013000017963,['c'],1,left,['0'],6,0.2582717999994202,62,,,,,,,27,18,Vrouw,Rechts,2,
,dotcolour,xotask,dotcolour,45,3,225,225,main,positivefb,-99,average,,0.5176893999996537,['c'],1,left,['0'],6,0.18839250000019092,54,,,,,,,27,18,Vrouw,Rechts,2,
,dotcolour,xotask,dotcolour,46,3,226,226,main,positivefb,-99,easy,,0.5678435000008903,['n'],1,right,['0'],6,0.2625680999990436,15,,,,,,,27,18,Vrouw,Rechts,2,
,dotcolour,xotask,dotcolour,47,3,227,227,main,positivefb,-99,average,,0.7519777999987127,['c'],1,left,['0'],6,0.27909659999932046,55,,,,,,,27,18,Vrouw,Rechts,2,
,dotcolour,xotask,dotcolour,48,3,228,228,main,positivefb,-99,easy,,0.6343207999998413,['n'],0,left,['3'],3,1.5481651999998576,64,,,,,,,27,18,Vrouw,Rechts,2,
,dotcolour,xotask,dotcolour,49,3,229,229,main,positivefb,-99,hard,,2.5676750000002357,['c'],1,left,['8'],4,0.3521997999996529,45,,,,,,,27,18,Vrouw,Rechts,2,
,dotcolour,xotask,dotcolour,50,3,230,230,main,positivefb,-99,hard,,1.4180034000000887,['n'],0,left,['8'],4,0.5382085999990522,43,,,,,,,27,18,Vrouw,Rechts,2,
,dotcolour,xotask,dotcolour,51,3,231,231,main,positivefb,-99,hard,,0.6840116000003036,['c'],1,left,['9'],5,0.4900692999999592,44,,,,,,,27,18,Vrouw,Rechts,2,
,dotcolour,xotask,dotcolour,52,3,232,232,main,positivefb,-99,hard,,0.8843708999993396,['c'],0,right,['9'],5,0.29246969999985595,39,,,,,,,27,18,Vrouw,Rechts,2,
,dotcolour,xotask,dotcolour,53,3,233,233,main,positivefb,-99,average,,0.6841444000001502,['n'],1,right,['0'],6,0.28613599999880535,26,,,,,,,27,18,Vrouw,Rechts,2,
,dotcolour,xotask,dotcolour,54,3,234,234,main,positivefb,-99,average,,0.6516375999999582,['n'],1,right,['0'],6,0.4008972999999969,27,,,,,,,27,18,Vrouw,Rechts,2,
,dotcolour,xotask,dotcolour,55,3,235,235,main,positivefb,-99,average,,0.5674280999992334,['c'],1,left,['0'],6,0.39538899999934074,52,,,,,,,27,18,Vrouw,Rechts,2,
,dotcolour,xotask,dotcolour,56,3,236,236,main,positivefb,-99,hard,,1.0516568000002735,['n'],1,right,['9'],5,0.4348614999998972,35,,,,,,,27,18,Vrouw,Rechts,2,
,dotcolour,xotask,dotcolour,57,3,237,237,main,positivefb,-99,easy,,0.6338579000002937,['c'],1,left,['0'],6,0.2806684999995923,63,,,,,,,27,18,Vrouw,Rechts,2,
,dotcolour,xotask,dotcolour,58,3,238,238,main,positivefb,-99,easy,,0.5009540999999444,['c'],1,left,['0'],6,0.24270720000095025,64,,,,,,,27,18,Vrouw,Rechts,2,
,dotcolour,xotask,dotcolour,59,3,239,239,main,positivefb,-99,hard,,0.7993039000011777,['n'],0,left,['0'],6,0.24929209999936575,42,,,,,,,27,18,Vrouw,Rechts,2,
,dotcolour,xotask,dotcolour,0,4,240,240,main,positivefb,-99,average,,0.8167358999999124,['n'],1,right,['0'],6,0.7149747999992542,26,,,,,,,27,18,Vrouw,Rechts,2,
,dotcolour,xotask,dotcolour,1,4,241,241,main,positivefb,-99,hard,,0.6174893999996129,['n'],0,left,['9'],5,0.5906221000004734,43,,,,,,,27,18,Vrouw,Rechts,2,
,dotcolour,xotask,dotcolour,2,4,242,242,main,positivefb,-99,hard,,0.9672749000001204,['n'],0,left,['9'],5,0.30532230000062555,41,,,,,,,27,18,Vrouw,Rechts,2,
,dotcolour,xotask,dotcolour,3,4,243,243,main,positivefb,-99,average,,1.283837000000858,['c'],1,left,['9'],5,0.33832389999952284,52,,,,,,,27,18,Vrouw,Rechts,2,
,dotcolour,xotask,dotcolour,4,4,244,244,main,positivefb,-99,average,,0.7663267999996606,['c'],1,left,['9'],5,0.28670670000065,52,,,,,,,27,18,Vrouw,Rechts,2,
,dotcolour,xotask,dotcolour,5,4,245,245,main,positivefb,-99,hard,,0.9505240999988018,['n'],1,right,['9'],5,0.3104717999995046,38,,,,,,,27,18,Vrouw,Rechts,2,
,dotcolour,xotask,dotcolour,6,4,246,246,main,positivefb,-99,hard,,1.0349404999997205,['n'],1,right,['9'],5,0.32172909999826516,38,,,,,,,27,18,Vrouw,Rechts,2,
,dotcolour,xotask,dotcolour,7,4,247,247,main,positivefb,-99,hard,,0.7675753999992594,['n'],0,left,['9'],5,0.36645230000067386,41,,,,,,,27,18,Vrouw,Rechts,2,
,dotcolour,xotask,dotcolour,8,4,248,248,main,positivefb,-99,easy,,0.6342312000015227,['c'],1,left,['0'],6,0.2638475000003382,62,,,,,,,27,18,Vrouw,Rechts,2,
,dotcolour,xotask,dotcolour,9,4,249,249,main,positivefb,-99,hard,,1.9501817999989726,['c'],0,right,['0'],6,0.30449829999997746,38,,,,,,,27,18,Vrouw,Rechts,2,
,dotcolour,xotask,dotcolour,10,4,250,250,main,positivefb,-99,average,,0.8178571000007651,['n'],1,right,['0'],6,0.3010189000015089,27,,,,,,,27,18,Vrouw,Rechts,2,
,dotcolour,xotask,dotcolour,11,4,251,251,main,positivefb,-99,hard,,1.2176565999998274,['n'],1,right,['0'],6,0.3525625000002037,37,,,,,,,27,18,Vrouw,Rechts,2,
,dotcolour,xotask,dotcolour,12,4,252,252,main,positivefb,-99,hard,,1.4015011000010418,['n'],1,right,['0'],6,0.330936099999235,35,,,,,,,27,18,Vrouw,Rechts,2,
,dotcolour,xotask,dotcolour,13,4,253,253,main,positivefb,-99,easy,,0.734321900001305,['n'],1,right,['0'],6,0.25752060000013444,15,,,,,,,27,18,Vrouw,Rechts,2,
,dotcolour,xotask,dotcolour,14,4,254,254,main,positivefb,-99,easy,,0.5853691999982402,['c'],1,left,['0'],6,0.3130384000014601,64,,,,,,,27,18,Vrouw,Rechts,2,
,dotcolour,xotask,dotcolour,15,4,255,255,main,positivefb,-99,easy,,1.2679693999998563,['c'],1,left,['0'],6,0.714458200000081,64,,,,,,,27,18,Vrouw,Rechts,2,
,dotcolour,xotask,dotcolour,16,4,256,256,main,positivefb,-99,average,,0.8170108000012988,['c'],1,left,['0'],6,0.31072669999957725,54,,,,,,,27,18,Vrouw,Rechts,2,
,dotcolour,xotask,dotcolour,17,4,257,257,main,positivefb,-99,average,,0.7176679000003787,['n'],1,right,['0'],6,0.3101587000001018,29,,,,,,,27,18,Vrouw,Rechts,2,
,dotcolour,xotask,dotcolour,18,4,258,258,main,positivefb,-99,average,,0.7175963000008778,['n'],1,right,['0'],6,0.3014259999999922,29,,,,,,,27,18,Vrouw,Rechts,2,
,dotcolour,xotask,dotcolour,19,4,259,259,main,positivefb,-99,easy,,0.7677703999997902,['c'],1,left,['0'],6,0.2595411999991484,64,,,,,,,27,18,Vrouw,Rechts,2,
,dotcolour,xotask,dotcolour,20,4,260,260,main,positivefb,-99,average,,0.7010893000006035,['c'],1,left,['0'],6,0.23872780000056082,54,,,,,,,27,18,Vrouw,Rechts,2,
,dotcolour,xotask,dotcolour,21,4,261,261,main,positivefb,-99,average,,0.8176599999987957,['c'],1,left,['0'],6,0.22129779999886523,54,,,,,,,27,18,Vrouw,Rechts,2,
,dotcolour,xotask,dotcolour,22,4,262,262,main,positivefb,-99,easy,,0.5498514999999315,['n'],1,right,['0'],6,0.25550119999934395,15,,,,,,,27,18,Vrouw,Rechts,2,
,dotcolour,xotask,dotcolour,23,4,263,263,main,positivefb,-99,hard,,1.1834288999998535,['n'],0,left,['0'],6,0.27811649999966903,42,,,,,,,27,18,Vrouw,Rechts,2,
,dotcolour,xotask,dotcolour,24,4,264,264,main,positivefb,-99,average,,0.6510605999992549,['n'],1,right,['0'],6,0.30652029999873776,28,,,,,,,27,18,Vrouw,Rechts,2,
,dotcolour,xotask,dotcolour,25,4,265,265,main,positivefb,-99,hard,,0.5673791999997775,['n'],1,right,['0'],6,0.3207667999995465,35,,,,,,,27,18,Vrouw,Rechts,2,
,dotcolour,xotask,dotcolour,26,4,266,266,main,positivefb,-99,hard,,1.768146099999285,['n'],0,left,['9'],5,0.5184936000005109,43,,,,,,,27,18,Vrouw,Rechts,2,
,dotcolour,xotask,dotcolour,27,4,267,267,main,positivefb,-99,hard,,1.317542599999797,['n'],0,left,['9'],5,0.29325080000126036,42,,,,,,,27,18,Vrouw,Rechts,2,
,dotcolour,xotask,dotcolour,28,4,268,268,main,positivefb,-99,hard,,0.7172594000003301,['c'],1,left,['9'],5,0.3498187000004691,43,,,,,,,27,18,Vrouw,Rechts,2,
,dotcolour,xotask,dotcolour,29,4,269,269,main,positivefb,-99,easy,,0.8012876999982836,['c'],1,left,['0'],6,0.40061599999899045,64,,,,,,,27,18,Vrouw,Rechts,2,
,dotcolour,xotask,dotcolour,30,4,270,270,main,positivefb,-99,easy,,0.6844619999992574,['n'],1,right,['0'],6,0.3894469000006211,16,,,,,,,27,18,Vrouw,Rechts,2,
,dotcolour,xotask,dotcolour,31,4,271,271,main,positivefb,-99,hard,,1.318053000000873,['n'],1,right,['9'],5,0.3786870000003546,35,,,,,,,27,18,Vrouw,Rechts,2,
,dotcolour,xotask,dotcolour,32,4,272,272,main,positivefb,-99,easy,,0.6850142000002961,['c'],1,left,['0'],6,0.42548449999958393,63,,,,,,,27,18,Vrouw,Rechts,2,
,dotcolour,xotask,dotcolour,33,4,273,273,main,positivefb,-99,average,,0.6841726000002382,['c'],1,left,['0'],6,0.502240100000563,51,,,,,,,27,18,Vrouw,Rechts,2,
,dotcolour,xotask,dotcolour,34,4,274,274,main,positivefb,-99,easy,,0.81721909999942,['n'],1,right,['0'],6,0.41803470000013476,17,,,,,,,27,18,Vrouw,Rechts,2,
,dotcolour,xotask,dotcolour,35,4,275,275,main,positivefb,-99,hard,,1.5501227999993716,['n'],0,left,['8'],4,0.3878304999998363,45,,,,,,,27,18,Vrouw,Rechts,2,
,dotcolour,xotask,dotcolour,36,4,276,276,main,positivefb,-99,easy,,0.6666941999992559,['c'],1,left,['0'],6,0.31537269999898854,63,,,,,,,27,18,Vrouw,Rechts,2,
,dotcolour,xotask,dotcolour,37,4,277,277,main,positivefb,-99,easy,,0.6335291000013967,['c'],1,left,['0'],6,0.33378500000071654,62,,,,,,,27,18,Vrouw,Rechts,2,
,dotcolour,xotask,dotcolour,38,4,278,278,main,positivefb,-99,average,,0.7181557000003522,['n'],1,right,['0'],6,0.596313400001236,26,,,,,,,27,18,Vrouw,Rechts,2,
,dotcolour,xotask,dotcolour,39,4,279,279,main,positivefb,-99,average,,0.6842707000014343,['c'],1,left,['0'],6,0.3461724000007962,55,,,,,,,27,18,Vrouw,Rechts,2,
,dotcolour,xotask,dotcolour,40,4,280,280,main,positivefb,-99,average,,0.6341486000001169,['n'],1,right,['0'],6,0.3000716000005923,27,,,,,,,27,18,Vrouw,Rechts,2,
,dotcolour,xotask,dotcolour,41,4,281,281,main,positivefb,-99,hard,,0.8839212999992014,['n'],0,left,['0'],6,0.3655426000004809,41,,,,,,,27,18,Vrouw,Rechts,2,
,dotcolour,xotask,dotcolour,42,4,282,282,main,positivefb,-99,easy,,0.6502643000003445,['n'],1,right,['0'],6,0.27010150000023714,16,,,,,,,27,18,Vrouw,Rechts,2,
,dotcolour,xotask,dotcolour,43,4,283,283,main,positivefb,-99,hard,,1.201050600000599,['c'],1,left,['9'],5,0.6842145999999047,45,,,,,,,27,18,Vrouw,Rechts,2,
,dotcolour,xotask,dotcolour,44,4,284,284,main,positivefb,-99,easy,,0.668236400000751,['c'],1,left,['0'],6,0.6777418000001489,64,,,,,,,27,18,Vrouw,Rechts,2,
,dotcolour,xotask,dotcolour,45,4,285,285,main,positivefb,-99,average,,0.6672049000007974,['c'],1,left,['0'],6,0.25738339999952586,54,,,,,,,27,18,Vrouw,Rechts,2,
,dotcolour,xotask,dotcolour,46,4,286,286,main,positivefb,-99,easy,,0.7009072000000742,['n'],1,right,['0'],6,0.3158784999995987,15,,,,,,,27,18,Vrouw,Rechts,2,
,dotcolour,xotask,dotcolour,47,4,287,287,main,positivefb,-99,hard,,1.8347499999999854,['c'],0,right,['8'],4,0.318937799998821,38,,,,,,,27,18,Vrouw,Rechts,2,
,dotcolour,xotask,dotcolour,48,4,288,288,main,positivefb,-99,easy,,0.784187600000223,['n'],1,right,['0'],6,0.2996972000000824,16,,,,,,,27,18,Vrouw,Rechts,2,
,dotcolour,xotask,dotcolour,49,4,289,289,main,positivefb,-99,easy,,0.7678857999999309,['n'],1,right,['0'],6,0.31368099999963306,19,,,,,,,27,18,Vrouw,Rechts,2,
,dotcolour,xotask,dotcolour,50,4,290,290,main,positivefb,-99,easy,,1.000979800001005,['n'],1,right,['9'],5,0.5584792999998172,17,,,,,,,27,18,Vrouw,Rechts,2,
,dotcolour,xotask,dotcolour,51,4,291,291,main,positivefb,-99,hard,,0.8850465000014083,['c'],0,right,['8'],4,0.5980178999998316,37,,,,,,,27,18,Vrouw,Rechts,2,
,dotcolour,xotask,dotcolour,52,4,292,292,main,positivefb,-99,average,,0.6847402000003058,['n'],1,right,['0'],6,0.2831506000002264,25,,,,,,,27,18,Vrouw,Rechts,2,
,dotcolour,xotask,dotcolour,53,4,293,293,main,positivefb,-99,average,,0.600947000000815,['n'],1,right,['0'],6,0.33650999999917985,26,,,,,,,27,18,Vrouw,Rechts,2,
,dotcolour,xotask,dotcolour,54,4,294,294,main,positivefb,-99,easy,,0.5010577000011835,['n'],1,right,['0'],6,0.3438241999992897,15,,,,,,,27,18,Vrouw,Rechts,2,
,dotcolour,xotask,dotcolour,55,4,295,295,main,positivefb,-99,average,,0.6331637000002956,['c'],1,left,['0'],6,0.2814983999996912,55,,,,,,,27,18,Vrouw,Rechts,2,
,dotcolour,xotask,dotcolour,56,4,296,296,main,positivefb,-99,average,,0.6345471000004181,['n'],1,right,['0'],6,0.3174438000005466,26,,,,,,,27,18,Vrouw,Rechts,2,
,dotcolour,xotask,dotcolour,57,4,297,297,main,positivefb,-99,hard,,1.6343756999995094,['n'],1,right,['9'],5,0.4404899999990448,36,,,,,,,27,18,Vrouw,Rechts,2,
,dotcolour,xotask,dotcolour,58,4,298,298,main,positivefb,-99,average,,0.8334544000008464,['c'],1,left,['9'],5,0.5024419999990641,51,,,,,,,27,18,Vrouw,Rechts,2,
,dotcolour,xotask,dotcolour,59,4,299,299,main,positivefb,-99,easy,,1.1678197000001092,['c'],1,left,['0'],6,0.42845800000031886,64,,,,,,,27,18,Vrouw,Rechts,2,
,xotask,xotask,dotcolour,0,0,0,300,training,positivefb,87,easy,9,0.7681675000003452,['n'],1,right,['9'],5,0.81692909999947,,,,,,,,27,18,Vrouw,Rechts,2,
,xotask,xotask,dotcolour,1,0,1,301,training,positivefb,65,easy,73,0.7843417000003683,['c'],1,left,['0'],6,0.42485189999933937,,,,,,,,27,18,Vrouw,Rechts,2,
,xotask,xotask,dotcolour,2,0,2,302,training,positivefb,95,easy,6,0.7662634000007529,['n'],1,right,['0'],6,0.4502442000011797,,,,,,,,27,18,Vrouw,Rechts,2,
,xotask,xotask,dotcolour,3,0,3,303,training,positivefb,93,hard,52,0.7336078000007547,['c'],1,left,['9'],5,0.6667361999989225,,,,,,,,27,18,Vrouw,Rechts,2,
,xotask,xotask,dotcolour,4,0,4,304,training,positivefb,97,easy,73,0.7001593000004505,['c'],1,left,['9'],5,0.25987390000045707,,,,,,,,27,18,Vrouw,Rechts,2,
,xotask,xotask,dotcolour,5,0,5,305,training,positivefb,95,easy,73,0.7671066000002611,['c'],1,left,['0'],6,0.21956479999971634,,,,,,,,27,18,Vrouw,Rechts,2,
,xotask,xotask,dotcolour,6,0,6,306,training,positivefb,96,hard,50,0.800442200001271,['c'],1,left,['0'],6,0.2749425000001793,,,,,,,,27,18,Vrouw,Rechts,2,
,xotask,xotask,dotcolour,7,0,7,307,training,positivefb,77,hard,25,1.0661640000016632,['n'],1,right,['9'],5,0.5095658999998705,,,,,,,,27,18,Vrouw,Rechts,2,
,xotask,xotask,dotcolour,8,0,8,308,training,positivefb,95,average,64,0.6682754999983445,['c'],1,left,['0'],6,0.4151091000003362,,,,,,,,27,18,Vrouw,Rechts,2,
,xotask,xotask,dotcolour,9,0,9,309,training,positivefb,96,hard,51,0.5842856999988726,['c'],1,left,['0'],6,0.367079300000114,,,,,,,,27,18,Vrouw,Rechts,2,
,xotask,xotask,dotcolour,10,0,10,310,training,positivefb,99,average,62,0.5832039999986591,['c'],1,left,['0'],6,0.46444309999969846,,,,,,,,27,18,Vrouw,Rechts,2,
,xotask,xotask,dotcolour,11,0,11,311,training,positivefb,98,average,64,0.6837533000016265,['c'],1,left,['9'],5,0.33089379999910307,,,,,,,,27,18,Vrouw,Rechts,2,
,xotask,xotask,dotcolour,12,0,12,312,training,positivefb,99,easy,6,0.7169909000003827,['n'],1,right,['9'],5,0.2732142000004387,,,,,,,,27,18,Vrouw,Rechts,2,
,xotask,xotask,dotcolour,13,0,13,313,training,positivefb,91,easy,73,0.6168295000006765,['c'],1,left,['0'],6,0.2946882000014739,,,,,,,,27,18,Vrouw,Rechts,2,
,xotask,xotask,dotcolour,14,0,14,314,training,positivefb,97,average,19,0.7330385000004753,['n'],1,right,['0'],6,0.3101130999984889,,,,,,,,27,18,Vrouw,Rechts,2,
,xotask,xotask,dotcolour,15,0,15,315,training,positivefb,91,easy,7,0.5160421000000497,['n'],1,right,['0'],6,0.25235280000015337,,,,,,,,27,18,Vrouw,Rechts,2,
,xotask,xotask,dotcolour,16,0,16,316,training,positivefb,89,hard,53,0.6338694000005489,['n'],0,left,['9'],5,0.5290482000000338,,,,,,,,27,18,Vrouw,Rechts,2,
,xotask,xotask,dotcolour,17,0,17,317,training,positivefb,92,hard,50,0.7338159999999334,['c'],1,left,['8'],4,0.8474126999990403,,,,,,,,27,18,Vrouw,Rechts,2,
,xotask,xotask,dotcolour,18,0,18,318,training,positivefb,82,hard,26,1.44954609999877,['n'],1,right,['8'],4,0.24311520000082965,,,,,,,,27,18,Vrouw,Rechts,2,
,xotask,xotask,dotcolour,19,0,19,319,training,positivefb,65,hard,28,0.59945770000013,['c'],0,right,['8'],4,0.43459210000037274,,,,,,,,27,18,Vrouw,Rechts,2,
,xotask,xotask,dotcolour,20,0,20,320,training,positivefb,96,average,61,1.0006028000007063,['c'],1,left,['8'],4,0.4570476000008057,,,,,,,,27,18,Vrouw,Rechts,2,
,xotask,xotask,dotcolour,21,0,21,321,training,positivefb,96,average,19,0.6501754999990226,['n'],1,right,['9'],5,0.34933620000083465,,,,,,,,27,18,Vrouw,Rechts,2,
,xotask,xotask,dotcolour,22,0,22,322,training,positivefb,67,hard,29,0.8331541999996261,['n'],1,right,['8'],4,0.35729600000013306,,,,,,,,27,18,Vrouw,Rechts,2,
,xotask,xotask,dotcolour,23,0,23,323,training,positivefb,93,easy,8,0.6018148000002839,['n'],1,right,['9'],5,0.34330169999884674,,,,,,,,27,18,Vrouw,Rechts,2,
,xotask,xotask,dotcolour,24,0,24,324,training,positivefb,83,average,61,0.649936499999967,['c'],1,left,['9'],5,0.32076970000161964,,,,,,,,27,18,Vrouw,Rechts,2,
,xotask,xotask,dotcolour,25,0,25,325,training,positivefb,96,easy,8,0.8999942000009469,['n'],1,right,['0'],6,0.2795275999997102,,,,,,,,27,18,Vrouw,Rechts,2,
,xotask,xotask,dotcolour,26,0,26,326,training,positivefb,96,average,18,0.7657177999990381,['n'],1,right,['9'],5,0.294753899999705,,,,,,,,27,18,Vrouw,Rechts,2,
,xotask,xotask,dotcolour,27,0,27,327,training,positivefb,82,average,60,0.46631560000059835,['c'],1,left,['0'],6,0.31259980000140786,,,,,,,,27,18,Vrouw,Rechts,2,
,xotask,xotask,dotcolour,28,0,28,328,training,positivefb,95,easy,9,0.6676315999993676,['n'],1,right,['0'],6,0.24960860000101093,,,,,,,,27,18,Vrouw,Rechts,2,
,xotask,xotask,dotcolour,29,0,29,329,training,positivefb,97,hard,25,0.8175344000010227,['n'],1,right,['9'],5,0.5351114999994024,,,,,,,,27,18,Vrouw,Rechts,2,
,xotask,xotask,dotcolour,30,0,30,330,training,positivefb,84,average,60,0.800590300001204,['c'],1,left,['9'],5,0.4335871000002953,,,,,,,,27,18,Vrouw,Rechts,2,
,xotask,xotask,dotcolour,31,0,31,331,training,positivefb,73,hard,28,0.7848849999991216,['n'],1,right,['0'],6,0.4809225000008155,,,,,,,,27,18,Vrouw,Rechts,2,
,xotask,xotask,dotcolour,32,0,32,332,training,positivefb,97,average,63,1.0829553000003216,['c'],1,left,['8'],4,0.2509353999994346,,,,,,,,27,18,Vrouw,Rechts,2,
,xotask,xotask,dotcolour,33,0,33,333,training,positivefb,91,hard,28,1.2998854000015854,['n'],1,right,['9'],5,0.47620890000143845,,,,,,,,27,18,Vrouw,Rechts,2,
,xotask,xotask,dotcolour,34,0,34,334,training,positivefb,95,easy,70,0.7005830999987666,['c'],1,left,['9'],5,0.36634890000095766,,,,,,,,27,18,Vrouw,Rechts,2,
,xotask,xotask,dotcolour,35,0,35,335,training,positivefb,84,hard,53,1.1181391999998596,['c'],1,left,['9'],5,0.4261858999998367,,,,,,,,27,18,Vrouw,Rechts,2,
,xotask,xotask,dotcolour,36,0,36,336,training,positivefb,98,easy,5,0.6994895999996515,['n'],1,right,['9'],5,0.7660601000006864,,,,,,,,27,18,Vrouw,Rechts,2,
,xotask,xotask,dotcolour,37,0,37,337,training,positivefb,99,average,17,0.8173950000000332,['n'],1,right,['0'],6,0.7830149000001256,,,,,,,,27,18,Vrouw,Rechts,2,
,xotask,xotask,dotcolour,38,0,38,338,training,positivefb,83,hard,54,0.6334430999995675,['c'],1,left,['0'],6,0.2784063999988575,,,,,,,,27,18,Vrouw,Rechts,2,
,xotask,xotask,dotcolour,39,0,39,339,training,positivefb,95,hard,54,0.9506642000014836,['c'],1,left,['9'],5,0.373836200000369,,,,,,,,27,18,Vrouw,Rechts,2,
,xotask,xotask,dotcolour,40,0,40,340,training,positivefb,94,average,17,0.4994277999994665,['n'],1,right,['0'],6,0.3393759000009595,,,,,,,,27,18,Vrouw,Rechts,2,
,xotask,xotask,dotcolour,41,0,41,341,training,positivefb,93,average,18,0.5332749999997759,['n'],1,right,['0'],6,0.4243277000005037,,,,,,,,27,18,Vrouw,Rechts,2,
,xotask,xotask,dotcolour,42,0,42,342,training,positivefb,95,average,61,1.249478600000657,['c'],1,left,['9'],5,0.5651085000008607,,,,,,,,27,18,Vrouw,Rechts,2,
,xotask,xotask,dotcolour,43,0,43,343,training,positivefb,99,easy,70,0.7346096000001126,['c'],1,left,['0'],6,0.3940124000000651,,,,,,,,27,18,Vrouw,Rechts,2,
,xotask,xotask,dotcolour,44,0,44,344,training,positivefb,96,average,63,0.5664739999992889,['c'],1,left,['0'],6,0.7318097000006674,,,,,,,,27,18,Vrouw,Rechts,2,
,xotask,xotask,dotcolour,45,0,45,345,training,positivefb,85,hard,29,0.9992134000003716,['c'],0,right,['9'],5,0.3022285999995802,,,,,,,,27,18,Vrouw,Rechts,2,
,xotask,xotask,dotcolour,46,0,46,346,training,positivefb,87,hard,29,0.7159732000000076,['n'],1,right,['9'],5,0.37333679999937885,,,,,,,,27,18,Vrouw,Rechts,2,
,xotask,xotask,dotcolour,47,0,47,347,training,positivefb,96,hard,53,0.6330705999989732,['c'],1,left,['9'],5,0.309655400000338,,,,,,,,27,18,Vrouw,Rechts,2,
,xotask,xotask,dotcolour,48,0,48,348,training,positivefb,98,hard,53,0.9494500000000698,['c'],1,left,['9'],5,0.3631314000012935,,,,,,,,27,18,Vrouw,Rechts,2,
,xotask,xotask,dotcolour,49,0,49,349,training,positivefb,96,average,17,0.9494866000004549,['n'],1,right,['0'],6,0.5193067000000156,,,,,,,,27,18,Vrouw,Rechts,2,
,xotask,xotask,dotcolour,50,0,50,350,training,positivefb,93,average,19,0.6328837999990355,['n'],1,right,['9'],5,0.5457677000013064,,,,,,,,27,18,Vrouw,Rechts,2,
,xotask,xotask,dotcolour,51,0,51,351,training,positivefb,96,easy,71,0.7503983000005974,['c'],1,left,['0'],6,1.0464080000001559,,,,,,,,27,18,Vrouw,Rechts,2,
,xotask,xotask,dotcolour,52,0,52,352,training,positivefb,95,easy,71,0.8002553000005719,['c'],1,left,['0'],6,0.2763916000003519,,,,,,,,27,18,Vrouw,Rechts,2,
,xotask,xotask,dotcolour,53,0,53,353,training,positivefb,91,easy,7,0.7837672999994538,['n'],1,right,['0'],6,0.36288620000050287,,,,,,,,27,18,Vrouw,Rechts,2,
,xotask,xotask,dotcolour,54,0,54,354,training,positivefb,74,hard,26,1.183103100000153,['n'],1,right,['0'],6,0.27766130000054545,,,,,,,,27,18,Vrouw,Rechts,2,
,xotask,xotask,dotcolour,55,0,55,355,training,positivefb,92,easy,71,0.633350000000064,['c'],1,left,['0'],6,0.40956219999861787,,,,,,,,27,18,Vrouw,Rechts,2,
,xotask,xotask,dotcolour,56,0,56,356,training,positivefb,98,average,18,0.8339781000013318,['n'],1,right,['8'],4,0.520668499999374,,,,,,,,27,18,Vrouw,Rechts,2,
,xotask,xotask,dotcolour,57,0,57,357,training,positivefb,94,easy,9,0.6511632999990979,['n'],1,right,['9'],5,0.40975149999940186,,,,,,,,27,18,Vrouw,Rechts,2,
,xotask,xotask,dotcolour,58,0,58,358,training,positivefb,97,easy,73,0.7831619000007777,['c'],1,left,['0'],6,0.6185991000002105,,,,,,,,27,18,Vrouw,Rechts,2,
,xotask,xotask,dotcolour,59,0,59,359,training,positivefb,97,average,18,0.750054199999795,['n'],1,right,['0'],6,0.3799631000001682,,,,,,,,27,18,Vrouw,Rechts,2,
,xotask,xotask,dotcolour,0,1,60,360,training,positivefb,95,easy,71,0.8517699000003631,['c'],1,left,['0'],6,0.2748768999990716,,,,,,,,27,18,Vrouw,Rechts,2,
,xotask,xotask,dotcolour,1,1,61,361,training,positivefb,99,average,63,0.6339152000000468,['c'],1,left,['0'],6,0.287052899999253,,,,,,,,27,18,Vrouw,Rechts,2,
,xotask,xotask,dotcolour,2,1,62,362,training,positivefb,99,easy,9,0.5676776000000245,['n'],1,right,['0'],6,0.32541130000026897,,,,,,,,27,18,Vrouw,Rechts,2,
,xotask,xotask,dotcolour,3,1,63,363,training,positivefb,86,average,61,0.5835700000006909,['c'],1,left,['9'],5,0.36086859999886656,,,,,,,,27,18,Vrouw,Rechts,2,
,xotask,xotask,dotcolour,4,1,64,364,training,positivefb,94,hard,50,0.6672490999990259,['c'],1,left,['8'],4,0.3928400999993755,,,,,,,,27,18,Vrouw,Rechts,2,
,xotask,xotask,dotcolour,5,1,65,365,training,positivefb,97,average,15,0.6828043000004982,['n'],1,right,['9'],5,0.26976119999926595,,,,,,,,27,18,Vrouw,Rechts,2,
,xotask,xotask,dotcolour,6,1,66,366,training,positivefb,71,hard,28,1.21784579999985,['n'],1,right,['8'],4,0.33911020000050485,,,,,,,,27,18,Vrouw,Rechts,2,
,xotask,xotask,dotcolour,7,1,67,367,training,positivefb,81,average,16,0.7164394000010361,['n'],1,right,['9'],5,0.32075240000085614,,,,,,,,27,18,Vrouw,Rechts,2,
,xotask,xotask,dotcolour,8,1,68,368,training,positivefb,84,average,17,0.8672507999999652,['n'],1,right,['9'],5,0.3535900999995647,,,,,,,,27,18,Vrouw,Rechts,2,
,xotask,xotask,dotcolour,9,1,69,369,training,positivefb,80,average,17,0.6334713000014744,['n'],1,right,['9'],5,0.3065740000001824,,,,,,,,27,18,Vrouw,Rechts,2,
,xotask,xotask,dotcolour,10,1,70,370,training,positivefb,74,hard,26,0.7153538999991724,['n'],1,right,['9'],5,0.3209951999997429,,,,,,,,27,18,Vrouw,Rechts,2,
,xotask,xotask,dotcolour,11,1,71,371,training,positivefb,92,average,64,0.7663324999994074,['c'],1,left,['9'],5,0.2944807000003493,,,,,,,,27,18,Vrouw,Rechts,2,
,xotask,xotask,dotcolour,12,1,72,372,training,positivefb,84,hard,52,0.9003306999984488,['c'],1,left,['8'],4,0.3108611000006931,,,,,,,,27,18,Vrouw,Rechts,2,
,xotask,xotask,dotcolour,13,1,73,373,training,positivefb,73,hard,52,1.1996878999998444,['c'],1,left,['8'],4,0.25155050000103074,,,,,,,,27,18,Vrouw,Rechts,2,
,xotask,xotask,dotcolour,14,1,74,374,training,positivefb,99,easy,72,0.8998025999990205,['c'],1,left,['9'],5,0.41325049999977637,,,,,,,,27,18,Vrouw,Rechts,2,
,xotask,xotask,dotcolour,15,1,75,375,training,positivefb,90,hard,29,0.6668649000002915,['n'],1,right,['9'],5,0.338587500000358,,,,,,,,27,18,Vrouw,Rechts,2,
,xotask,xotask,dotcolour,16,1,76,376,training,positivefb,91,easy,9,0.6175616000000446,['n'],1,right,['0'],6,0.30819850000079896,,,,,,,,27,18,Vrouw,Rechts,2,
,xotask,xotask,dotcolour,17,1,77,377,training,positivefb,85,average,19,1.0506159000015032,['n'],1,right,['9'],5,0.4542328000006819,,,,,,,,27,18,Vrouw,Rechts,2,
,xotask,xotask,dotcolour,18,1,78,378,training,positivefb,60,hard,53,0.6341913000014756,['c'],1,left,['8'],4,0.690700500001185,,,,,,,,27,18,Vrouw,Rechts,2,
,xotask,xotask,dotcolour,19,1,79,379,training,positivefb,99,easy,70,0.6337561000000278,['c'],1,left,['0'],6,0.6223442000009527,,,,,,,,27,18,Vrouw,Rechts,2,
,xotask,xotask,dotcolour,20,1,80,380,training,positivefb,97,average,17,0.6502510999998776,['n'],1,right,['0'],6,0.2841177999998763,,,,,,,,27,18,Vrouw,Rechts,2,
,xotask,xotask,dotcolour,21,1,81,381,training,positivefb,98,average,60,0.917502100001002,['n'],0,left,['8'],4,1.1396810999995068,,,,,,,,27,18,Vrouw,Rechts,2,
,xotask,xotask,dotcolour,22,1,82,382,training,positivefb,91,hard,53,0.7998979000003601,['c'],1,left,['9'],5,0.989780999998402,,,,,,,,27,18,Vrouw,Rechts,2,
,xotask,xotask,dotcolour,23,1,83,383,training,positivefb,96,average,61,0.9005911999993259,['c'],1,left,['9'],5,0.3221721999998408,,,,,,,,27,18,Vrouw,Rechts,2,
,xotask,xotask,dotcolour,24,1,84,384,training,positivefb,98,average,17,1.0512582999999722,['n'],1,right,['9'],5,1.563839899999948,,,,,,,,27,18,Vrouw,Rechts,2,
,xotask,xotask,dotcolour,25,1,85,385,training,positivefb,28,hard,54,1.4329763000005187,['c'],1,left,['9'],5,0.8920460999997886,,,,,,,,27,18,Vrouw,Rechts,2,
,xotask,xotask,dotcolour,26,1,86,386,training,positivefb,97,hard,51,1.3496073999995133,['c'],1,left,['9'],5,0.7865320999990217,,,,,,,,27,18,Vrouw,Rechts,2,
,xotask,xotask,dotcolour,27,1,87,387,training,positivefb,98,easy,71,0.7845890000007785,['c'],1,left,['9'],5,0.33252340000035474,,,,,,,,27,18,Vrouw,Rechts,2,
,xotask,xotask,dotcolour,28,1,88,388,training,positivefb,92,easy,7,0.8007533999989391,['n'],1,right,['0'],6,0.3505650999995851,,,,,,,,27,18,Vrouw,Rechts,2,
,xotask,xotask,dotcolour,29,1,89,389,training,positivefb,81,easy,73,0.8832762000001821,['c'],1,left,['0'],6,0.38096840000071097,,,,,,,,27,18,Vrouw,Rechts,2,
,xotask,xotask,dotcolour,30,1,90,390,training,positivefb,83,hard,28,0.650371499999892,['n'],1,right,['9'],5,0.4678797000015038,,,,,,,,27,18,Vrouw,Rechts,2,
,xotask,xotask,dotcolour,31,1,91,391,training,positivefb,96,easy,72,0.7332698999998684,['c'],1,left,['0'],6,0.3403606000010768,,,,,,,,27,18,Vrouw,Rechts,2,
,xotask,xotask,dotcolour,32,1,92,392,training,positivefb,98,easy,7,0.7993501000000833,['n'],1,right,['0'],6,0.43006269999932556,,,,,,,,27,18,Vrouw,Rechts,2,
,xotask,xotask,dotcolour,33,1,93,393,training,positivefb,97,hard,27,1.3994542000000365,['n'],1,right,['9'],5,0.5178544999998849,,,,,,,,27,18,Vrouw,Rechts,2,
,xotask,xotask,dotcolour,34,1,94,394,training,positivefb,99,average,61,1.0005409000004875,['c'],1,left,['9'],5,0.44108739999865065,,,,,,,,27,18,Vrouw,Rechts,2,
,xotask,xotask,dotcolour,35,1,95,395,training,positivefb,92,hard,26,0.8335393000015756,['n'],1,right,['9'],5,0.4549609000005148,,,,,,,,27,18,Vrouw,Rechts,2,
,xotask,xotask,dotcolour,36,1,96,396,training,positivefb,87,hard,54,0.8335432000003493,['c'],1,left,['9'],5,0.3557952999999543,,,,,,,,27,18,Vrouw,Rechts,2,
,xotask,xotask,dotcolour,37,1,97,397,training,positivefb,97,hard,25,1.300558099999762,['n'],1,right,['9'],5,0.3375546999996004,,,,,,,,27,18,Vrouw,Rechts,2,
,xotask,xotask,dotcolour,38,1,98,398,training,positivefb,98,easy,71,0.5663709999989806,['c'],1,left,['0'],6,0.47782289999850036,,,,,,,,27,18,Vrouw,Rechts,2,
,xotask,xotask,dotcolour,39,1,99,399,training,positivefb,91,average,60,0.6497608000008768,['c'],1,left,['0'],6,0.2565412000003562,,,,,,,,27,18,Vrouw,Rechts,2,
,xotask,xotask,dotcolour,40,1,100,400,training,positivefb,96,easy,6,0.8162047000005259,['n'],1,right,['0'],6,0.3507906999984698,,,,,,,,27,18,Vrouw,Rechts,2,
,xotask,xotask,dotcolour,41,1,101,401,training,positivefb,85,average,16,0.8996643999998923,['n'],1,right,['0'],6,0.6525304000006145,,,,,,,,27,18,Vrouw,Rechts,2,
,xotask,xotask,dotcolour,42,1,102,402,training,positivefb,98,easy,71,0.8662991000001057,['c'],1,left,['0'],6,0.3834601999988081,,,,,,,,27,18,Vrouw,Rechts,2,
,xotask,xotask,dotcolour,43,1,103,403,training,positivefb,94,easy,8,0.8002873999994335,['n'],1,right,['0'],6,0.29665270000077726,,,,,,,,27,18,Vrouw,Rechts,2,
,xotask,xotask,dotcolour,44,1,104,404,training,positivefb,90,average,64,0.7668606999995973,['c'],1,left,['0'],6,0.2786320999985037,,,,,,,,27,18,Vrouw,Rechts,2,
,xotask,xotask,dotcolour,45,1,105,405,training,positivefb,92,hard,52,0.9170567999990453,['c'],1,left,['0'],6,0.391767200000686,,,,,,,,27,18,Vrouw,Rechts,2,
,xotask,xotask,dotcolour,46,1,106,406,training,positivefb,87,average,63,0.8333008999998128,['c'],1,left,['0'],6,0.47095830000034766,,,,,,,,27,18,Vrouw,Rechts,2,
,xotask,xotask,dotcolour,47,1,107,407,training,positivefb,94,easy,7,0.8512828999992053,['n'],1,right,['0'],6,0.44957009999961883,,,,,,,,27,18,Vrouw,Rechts,2,
,xotask,xotask,dotcolour,48,1,108,408,training,positivefb,91,average,60,0.6335220000000845,['c'],1,left,['0'],6,0.3108042999992904,,,,,,,,27,18,Vrouw,Rechts,2,
,xotask,xotask,dotcolour,49,1,109,409,training,positivefb,89,average,16,0.799759699999413,['n'],1,right,['0'],6,0.3067817000010109,,,,,,,,27,18,Vrouw,Rechts,2,
,xotask,xotask,dotcolour,50,1,110,410,training,positivefb,91,hard,26,1.301107499999489,['n'],1,right,['8'],4,0.594733300000371,,,,,,,,27,18,Vrouw,Rechts,2,
,xotask,xotask,dotcolour,51,1,111,411,training,positivefb,93,average,16,0.7994120000003022,['c'],0,right,['9'],5,0.3550039999990986,,,,,,,,27,18,Vrouw,Rechts,2,
,xotask,xotask,dotcolour,52,1,112,412,training,positivefb,98,easy,5,1.1843115000010584,['n'],1,right,['0'],6,0.3258349999996426,,,,,,,,27,18,Vrouw,Rechts,2,
,xotask,xotask,dotcolour,53,1,113,413,training,positivefb,99,easy,74,0.5832976000001509,['c'],1,left,['0'],6,0.314143999999942,,,,,,,,27,18,Vrouw,Rechts,2,
,xotask,xotask,dotcolour,54,1,114,414,training,positivefb,83,hard,25,0.9833815000001778,['n'],1,right,['9'],5,0.4947004999994533,,,,,,,,27,18,Vrouw,Rechts,2,
,xotask,xotask,dotcolour,55,1,115,415,training,positivefb,88,easy,5,1.4838565999998536,['n'],1,right,['9'],5,0.3673595000000205,,,,,,,,27,18,Vrouw,Rechts,2,
,xotask,xotask,dotcolour,56,1,116,416,training,positivefb,97,easy,5,0.6494646999999532,['n'],1,right,['0'],6,0.5752078000004985,,,,,,,,27,18,Vrouw,Rechts,2,
,xotask,xotask,dotcolour,57,1,117,417,training,positivefb,93,hard,29,0.7166416999989451,['n'],1,right,['9'],5,0.41995630000019446,,,,,,,,27,18,Vrouw,Rechts,2,
,xotask,xotask,dotcolour,58,1,118,418,training,positivefb,94,easy,71,0.5833847999983846,['c'],1,left,['0'],6,0.3879431999994267,,,,,,,,27,18,Vrouw,Rechts,2,
,xotask,xotask,dotcolour,59,1,119,419,training,positivefb,94,hard,54,1.384214100000463,['c'],1,left,['8'],4,0.30967559999953664,,,,,,,,27,18,Vrouw,Rechts,2,
,xotask,xotask,dotcolour,0,2,120,420,main,positivefb,-99,easy,70,0.8179427000013675,['c'],1,left,['0'],6,0.4591383000006317,,,,,,,,27,18,Vrouw,Rechts,2,
,xotask,xotask,dotcolour,1,2,121,421,main,positivefb,-99,easy,70,0.8346235000008164,['c'],1,left,['9'],5,0.34451679999983753,,,,,,,,27,18,Vrouw,Rechts,2,
,xotask,xotask,dotcolour,2,2,122,422,main,positivefb,-99,average,61,1.2510118999998667,['c'],1,left,['8'],4,0.4664022999986628,,,,,,,,27,18,Vrouw,Rechts,2,
,xotask,xotask,dotcolour,3,2,123,423,main,positivefb,-99,average,61,0.8337268000013864,['c'],1,left,['9'],5,0.2950661000013497,,,,,,,,27,18,Vrouw,Rechts,2,
,xotask,xotask,dotcolour,4,2,124,424,main,positivefb,-99,easy,8,0.7513891999988118,['n'],1,right,['0'],6,0.3417310000004363,,,,,,,,27,18,Vrouw,Rechts,2,
,xotask,xotask,dotcolour,5,2,125,425,main,positivefb,-99,hard,25,1.200780199998917,['n'],1,right,['9'],5,0.37756439999975555,,,,,,,,27,18,Vrouw,Rechts,2,
,xotask,xotask,dotcolour,6,2,126,426,main,positivefb,-99,easy,8,0.8848993999999948,['n'],1,right,['0'],6,0.24848879999990459,,,,,,,,27,18,Vrouw,Rechts,2,
,xotask,xotask,dotcolour,7,2,127,427,main,positivefb,-99,easy,73,1.4336071999987325,['c'],1,left,['0'],6,0.541605399999753,,,,,,,,27,18,Vrouw,Rechts,2,
,xotask,xotask,dotcolour,8,2,128,428,main,positivefb,-99,easy,7,0.6503628000009485,['n'],1,right,['0'],6,0.3186777000009897,,,,,,,,27,18,Vrouw,Rechts,2,
,xotask,xotask,dotcolour,9,2,129,429,main,positivefb,-99,easy,8,0.8676648000000569,['n'],1,right,['0'],6,0.6719444999998814,,,,,,,,27,18,Vrouw,Rechts,2,
,xotask,xotask,dotcolour,10,2,130,430,main,positivefb,-99,average,17,1.0678361999998742,['n'],1,right,['0'],6,0.29120810000131314,,,,,,,,27,18,Vrouw,Rechts,2,
,xotask,xotask,dotcolour,11,2,131,431,main,positivefb,-99,easy,73,0.6506913000011991,['c'],1,left,['0'],6,0.39876270000058867,,,,,,,,27,18,Vrouw,Rechts,2,
,xotask,xotask,dotcolour,12,2,132,432,main,positivefb,-99,easy,8,0.6683656000004703,['n'],1,right,['0'],6,0.34094849999928556,,,,,,,,27,18,Vrouw,Rechts,2,
,xotask,xotask,dotcolour,13,2,133,433,main,positivefb,-99,average,19,0.7007926000005682,['n'],1,right,['0'],6,0.3163879999992787,,,,,,,,27,18,Vrouw,Rechts,2,
,xotask,xotask,dotcolour,14,2,134,434,main,positivefb,-99,easy,8,0.6841386000014609,['n'],1,right,['0'],6,0.29293850000067323,,,,,,,,27,18,Vrouw,Rechts,2,
,xotask,xotask,dotcolour,15,2,135,435,main,positivefb,-99,average,62,0.7182029999985389,['c'],1,left,['0'],6,0.33448950000092736,,,,,,,,27,18,Vrouw,Rechts,2,
,xotask,xotask,dotcolour,16,2,136,436,main,positivefb,-99,hard,54,0.9841594999998051,['c'],1,left,['0'],6,0.3298825999991095,,,,,,,,27,18,Vrouw,Rechts,2,
,xotask,xotask,dotcolour,17,2,137,437,main,positivefb,-99,average,62,0.5674816999999166,['c'],1,left,['0'],6,0.32668349999948987,,,,,,,,27,18,Vrouw,Rechts,2,
,xotask,xotask,dotcolour,18,2,138,438,main,positivefb,-99,average,16,0.5850325999999768,['n'],1,right,['0'],6,0.2439766999996209,,,,,,,,27,18,Vrouw,Rechts,2,
,xotask,xotask,dotcolour,19,2,139,439,main,positivefb,-99,hard,25,0.8848674000000756,['n'],1,right,['0'],6,0.2561872000005678,,,,,,,,27,18,Vrouw,Rechts,2,
,xotask,xotask,dotcolour,20,2,140,440,main,positivefb,-99,hard,54,1.4834964000001492,['n'],0,left,['8'],4,0.2987800999999308,,,,,,,,27,18,Vrouw,Rechts,2,
,xotask,xotask,dotcolour,21,2,141,441,main,positivefb,-99,easy,6,1.1670406000012008,['n'],1,right,['0'],6,0.35319349999917904,,,,,,,,27,18,Vrouw,Rechts,2,
,xotask,xotask,dotcolour,22,2,142,442,main,positivefb,-99,hard,27,1.1681175000012445,['n'],1,right,['9'],5,0.3969962999999552,,,,,,,,27,18,Vrouw,Rechts,2,
,xotask,xotask,dotcolour,23,2,143,443,main,positivefb,-99,average,63,0.9005606999999145,['c'],1,left,['0'],6,0.37105909999991127,,,,,,,,27,18,Vrouw,Rechts,2,
,xotask,xotask,dotcolour,24,2,144,444,main,positivefb,-99,hard,29,1.6172107999991567,['n'],1,right,['8'],4,0.46013420000053884,,,,,,,,27,18,Vrouw,Rechts,2,
,xotask,xotask,dotcolour,25,2,145,445,main,positivefb,-99,easy,72,0.8672045999992406,['c'],1,left,['0'],6,0.3676973999990878,,,,,,,,27,18,Vrouw,Rechts,2,
,xotask,xotask,dotcolour,26,2,146,446,main,positivefb,-99,average,60,0.7335090000015043,['c'],1,left,['0'],6,0.25237230000129784,,,,,,,,27,18,Vrouw,Rechts,2,
,xotask,xotask,dotcolour,27,2,147,447,main,positivefb,-99,hard,29,0.8510067000006529,['n'],1,right,['8'],4,0.62482590000036,,,,,,,,27,18,Vrouw,Rechts,2,
,xotask,xotask,dotcolour,28,2,148,448,main,positivefb,-99,hard,51,1.1846332999994047,['c'],1,left,['9'],5,0.3140194000006886,,,,,,,,27,18,Vrouw,Rechts,2,
,xotask,xotask,dotcolour,29,2,149,449,main,positivefb,-99,hard,53,0.8330998999990697,['c'],1,left,['9'],5,0.3415757000002486,,,,,,,,27,18,Vrouw,Rechts,2,
,xotask,xotask,dotcolour,30,2,150,450,main,positivefb,-99,average,15,0.6006660000002739,['n'],1,right,['0'],6,0.3603962999986834,,,,,,,,27,18,Vrouw,Rechts,2,
,xotask,xotask,dotcolour,31,2,151,451,main,positivefb,-99,hard,52,0.6679528000004211,['c'],1,left,['0'],6,0.35268340000038734,,,,,,,,27,18,Vrouw,Rechts,2,
,xotask,xotask,dotcolour,32,2,152,452,main,positivefb,-99,easy,7,0.7510999999994965,['n'],1,right,['0'],6,0.3976220000004105,,,,,,,,27,18,Vrouw,Rechts,2,
,xotask,xotask,dotcolour,33,2,153,453,main,positivefb,-99,easy,72,0.8165835999989213,['c'],1,left,['0'],6,0.260786900000312,,,,,,,,27,18,Vrouw,Rechts,2,
,xotask,xotask,dotcolour,34,2,154,454,main,positivefb,-99,hard,53,1.3838637999997445,['c'],1,left,['8'],4,0.3729051000009349,,,,,,,,27,18,Vrouw,Rechts,2,
,xotask,xotask,dotcolour,35,2,155,455,main,positivefb,-99,average,63,0.8017847999999503,['c'],1,left,['9'],5,0.25451760000032664,,,,,,,,27,18,Vrouw,Rechts,2,
,xotask,xotask,dotcolour,36,2,156,456,main,positivefb,-99,hard,28,0.616382899999735,['n'],1,right,['0'],6,0.31697859999985667,,,,,,,,27,18,Vrouw,Rechts,2,
,xotask,xotask,dotcolour,37,2,157,457,main,positivefb,-99,average,18,0.717698599999494,['n'],1,right,['9'],5,0.3884035999999469,,,,,,,,27,18,Vrouw,Rechts,2,
,xotask,xotask,dotcolour,38,2,158,458,main,positivefb,-99,hard,25,0.6676683999994566,['n'],1,right,['0'],6,0.35509559999991325,,,,,,,,27,18,Vrouw,Rechts,2,
,xotask,xotask,dotcolour,39,2,159,459,main,positivefb,-99,hard,29,1.784131399999751,['n'],1,right,['9'],5,0.35854979999930947,,,,,,,,27,18,Vrouw,Rechts,2,
,xotask,xotask,dotcolour,40,2,160,460,main,positivefb,-99,easy,70,0.7014451999984885,['c'],1,left,['0'],6,0.28494729999874835,,,,,,,,27,18,Vrouw,Rechts,2,
,xotask,xotask,dotcolour,41,2,161,461,main,positivefb,-99,average,17,0.600043899999946,['n'],1,right,['9'],5,0.4588569000006828,,,,,,,,27,18,Vrouw,Rechts,2,
,xotask,xotask,dotcolour,42,2,162,462,main,positivefb,-99,hard,54,1.067617299999256,['c'],1,left,['9'],5,0.7502819000001182,,,,,,,,27,18,Vrouw,Rechts,2,
,xotask,xotask,dotcolour,43,2,163,463,main,positivefb,-99,easy,70,0.8013580999995611,['c'],1,left,['0'],6,0.35312709999925573,,,,,,,,27,18,Vrouw,Rechts,2,
,xotask,xotask,dotcolour,44,2,164,464,main,positivefb,-99,hard,27,1.3504721999997855,['n'],1,right,['9'],5,0.40510360000007495,,,,,,,,27,18,Vrouw,Rechts,2,
,xotask,xotask,dotcolour,45,2,165,465,main,positivefb,-99,hard,52,0.8351916999999958,['c'],1,left,['9'],5,0.3571020999988832,,,,,,,,27,18,Vrouw,Rechts,2,
,xotask,xotask,dotcolour,46,2,166,466,main,positivefb,-99,hard,29,1.4671660999993037,['n'],1,right,['9'],5,0.3487019000003784,,,,,,,,27,18,Vrouw,Rechts,2,
,xotask,xotask,dotcolour,47,2,167,467,main,positivefb,-99,easy,71,0.9513815999998769,['c'],1,left,['9'],5,0.3371836999995139,,,,,,,,27,18,Vrouw,Rechts,2,
,xotask,xotask,dotcolour,48,2,168,468,main,positivefb,-99,hard,50,1.217905299999984,['n'],0,left,['9'],5,0.43619030000081693,,,,,,,,27,18,Vrouw,Rechts,2,
,xotask,xotask,dotcolour,49,2,169,469,main,positivefb,-99,easy,74,1.2010508999992453,['c'],1,left,['9'],5,0.35563079999883485,,,,,,,,27,18,Vrouw,Rechts,2,
,xotask,xotask,dotcolour,50,2,170,470,main,positivefb,-99,average,16,0.8010020000001532,['n'],1,right,['9'],5,0.4143515000014304,,,,,,,,27,18,Vrouw,Rechts,2,
,xotask,xotask,dotcolour,51,2,171,471,main,positivefb,-99,easy,9,0.767726500000208,['n'],1,right,['0'],6,0.3511073000008764,,,,,,,,27,18,Vrouw,Rechts,2,
,xotask,xotask,dotcolour,52,2,172,472,main,positivefb,-99,average,18,0.7683402000002388,['n'],1,right,['0'],6,0.3714579000006779,,,,,,,,27,18,Vrouw,Rechts,2,
,xotask,xotask,dotcolour,53,2,173,473,main,positivefb,-99,easy,7,2.051144099999874,['n'],1,right,['9'],5,0.8833533999986685,,,,,,,,27,18,Vrouw,Rechts,2,
,xotask,xotask,dotcolour,54,2,174,474,main,positivefb,-99,hard,51,0.8668443999995361,['c'],1,left,['0'],6,0.3901592000001983,,,,,,,,27,18,Vrouw,Rechts,2,
,xotask,xotask,dotcolour,55,2,175,475,main,positivefb,-99,average,62,1.4506820000005973,['n'],0,left,['9'],5,0.3419104000004154,,,,,,,,27,18,Vrouw,Rechts,2,
,xotask,xotask,dotcolour,56,2,176,476,main,positivefb,-99,average,63,0.8841950999994879,['c'],1,left,['0'],6,0.5498211000012816,,,,,,,,27,18,Vrouw,Rechts,2,
,xotask,xotask,dotcolour,57,2,177,477,main,positivefb,-99,average,17,0.8669640000007348,['n'],1,right,['9'],5,0.6856831000004604,,,,,,,,27,18,Vrouw,Rechts,2,
,xotask,xotask,dotcolour,58,2,178,478,main,positivefb,-99,average,18,1.0669058999992558,['n'],1,right,['9'],5,0.2965532999987772,,,,,,,,27,18,Vrouw,Rechts,2,
,xotask,xotask,dotcolour,59,2,179,479,main,positivefb,-99,average,62,0.733549700000367,['c'],1,left,['0'],6,0.3444899999994959,,,,,,,,27,18,Vrouw,Rechts,2,
,xotask,xotask,dotcolour,0,3,180,480,main,positivefb,-99,average,16,0.7011066999984905,['n'],1,right,['9'],5,0.46202099999936763,,,,,,,,27,18,Vrouw,Rechts,2,
,xotask,xotask,dotcolour,1,3,181,481,main,positivefb,-99,hard,53,1.2170034000009764,['n'],0,left,['8'],4,0.3072537000007287,,,,,,,,27,18,Vrouw,Rechts,2,
,xotask,xotask,dotcolour,2,3,182,482,main,positivefb,-99,average,62,0.6680985999992117,['c'],1,left,['0'],6,0.3259961999992811,,,,,,,,27,18,Vrouw,Rechts,2,
,xotask,xotask,dotcolour,3,3,183,483,main,positivefb,-99,hard,53,1.3015520999997534,['c'],1,left,['9'],5,0.2940213000001677,,,,,,,,27,18,Vrouw,Rechts,2,
,xotask,xotask,dotcolour,4,3,184,484,main,positivefb,-99,easy,74,0.651325500000894,['c'],1,left,['0'],6,0.24902640000073006,,,,,,,,27,18,Vrouw,Rechts,2,
,xotask,xotask,dotcolour,5,3,185,485,main,positivefb,-99,hard,51,0.8502271000015753,['c'],1,left,['9'],5,0.2614521000014065,,,,,,,,27,18,Vrouw,Rechts,2,
,xotask,xotask,dotcolour,6,3,186,486,main,positivefb,-99,average,17,0.683457900000576,['n'],1,right,['0'],6,0.5373182000002998,,,,,,,,27,18,Vrouw,Rechts,2,
,xotask,xotask,dotcolour,7,3,187,487,main,positivefb,-99,easy,9,0.7002930999988166,['n'],1,right,['0'],6,0.23256989999936195,,,,,,,,27,18,Vrouw,Rechts,2,
,xotask,xotask,dotcolour,8,3,188,488,main,positivefb,-99,easy,71,0.7682748000006541,['c'],1,left,['0'],6,0.2494540000006964,,,,,,,,27,18,Vrouw,Rechts,2,
,xotask,xotask,dotcolour,9,3,189,489,main,positivefb,-99,hard,52,1.5163206000015634,['c'],1,left,['8'],4,0.5787196999990556,,,,,,,,27,18,Vrouw,Rechts,2,
,xotask,xotask,dotcolour,10,3,190,490,main,positivefb,-99,easy,7,0.9669862999999168,['n'],1,right,['9'],5,0.5591442999993887,,,,,,,,27,18,Vrouw,Rechts,2,
,xotask,xotask,dotcolour,11,3,191,491,main,positivefb,-99,average,64,0.7509329999993497,['c'],1,left,['0'],6,0.5712585999990551,,,,,,,,27,18,Vrouw,Rechts,2,
,xotask,xotask,dotcolour,12,3,192,492,main,positivefb,-99,average,16,1.0514473000002909,['n'],1,right,['0'],6,0.4189158999997744,,,,,,,,27,18,Vrouw,Rechts,2,
,xotask,xotask,dotcolour,13,3,193,493,main,positivefb,-99,easy,74,0.6848388000016712,['c'],1,left,['0'],6,0.2882797999991453,,,,,,,,27,18,Vrouw,Rechts,2,
,xotask,xotask,dotcolour,14,3,194,494,main,positivefb,-99,easy,9,0.9511033999988285,['n'],1,right,['0'],6,0.3433740000000398,,,,,,,,27,18,Vrouw,Rechts,2,
,xotask,xotask,dotcolour,15,3,195,495,main,positivefb,-99,average,64,0.8504030000003695,['c'],1,left,['9'],5,0.29719329999898036,,,,,,,,27,18,Vrouw,Rechts,2,
,xotask,xotask,dotcolour,16,3,196,496,main,positivefb,-99,easy,5,0.7843133999995189,['n'],1,right,['9'],5,0.40691680000054475,,,,,,,,27,18,Vrouw,Rechts,2,
,xotask,xotask,dotcolour,17,3,197,497,main,positivefb,-99,average,63,0.8682034000012209,['c'],1,left,['0'],6,0.2286561000000802,,,,,,,,27,18,Vrouw,Rechts,2,
,xotask,xotask,dotcolour,18,3,198,498,main,positivefb,-99,average,63,1.8848140999998577,['n'],0,left,['8'],4,0.5375368000004528,,,,,,,,27,18,Vrouw,Rechts,2,
,xotask,xotask,dotcolour,19,3,199,499,main,positivefb,-99,hard,53,1.2341467999995075,['c'],1,left,['8'],4,0.41130639999937557,,,,,,,,27,18,Vrouw,Rechts,2,
,xotask,xotask,dotcolour,20,3,200,500,main,positivefb,-99,hard,53,1.1333087000002706,['c'],1,left,['8'],4,0.3029871999988245,,,,,,,,27,18,Vrouw,Rechts,2,
,xotask,xotask,dotcolour,21,3,201,501,main,positivefb,-99,hard,53,0.8854472000002716,['c'],1,left,['8'],4,0.2960590999991837,,,,,,,,27,18,Vrouw,Rechts,2,
,xotask,xotask,dotcolour,22,3,202,502,main,positivefb,-99,easy,71,0.7010031000008894,['c'],1,left,['9'],5,0.3133750000015425,,,,,,,,27,18,Vrouw,Rechts,2,
,xotask,xotask,dotcolour,23,3,203,503,main,positivefb,-99,easy,5,0.8843541999995068,['n'],1,right,['0'],6,0.29885230000036245,,,,,,,,27,18,Vrouw,Rechts,2,
,xotask,xotask,dotcolour,24,3,204,504,main,positivefb,-99,hard,26,0.7841889999999694,['n'],1,right,['9'],5,0.4000558000007004,,,,,,,,27,18,Vrouw,Rechts,2,
,xotask,xotask,dotcolour,25,3,205,505,main,positivefb,-99,average,19,0.7172219000003679,['n'],1,right,['9'],5,0.26847300000008545,,,,,,,,27,18,Vrouw,Rechts,2,
,xotask,xotask,dotcolour,26,3,206,506,main,positivefb,-99,easy,9,0.6847777999992104,['n'],1,right,['9'],5,0.23912000000018452,,,,,,,,27,18,Vrouw,Rechts,2,
,xotask,xotask,dotcolour,27,3,207,507,main,positivefb,-99,average,17,0.5512016999982734,['n'],1,right,['9'],5,0.44774839999990945,,,,,,,,27,18,Vrouw,Rechts,2,
,xotask,xotask,dotcolour,28,3,208,508,main,positivefb,-99,easy,5,0.6004720000000816,['n'],1,right,['0'],6,0.2786330999988422,,,,,,,,27,18,Vrouw,Rechts,2,
,xotask,xotask,dotcolour,29,3,209,509,main,positivefb,-99,easy,70,0.6505692000009731,['c'],1,left,['0'],6,0.3392171000014059,,,,,,,,27,18,Vrouw,Rechts,2,
,xotask,xotask,dotcolour,30,3,210,510,main,positivefb,-99,easy,74,0.6007853000010073,['c'],1,left,['0'],6,0.38202020000062475,,,,,,,,27,18,Vrouw,Rechts,2,
,xotask,xotask,dotcolour,31,3,211,511,main,positivefb,-99,hard,26,0.9177044999996724,['n'],1,right,['0'],6,0.3790353000003961,,,,,,,,27,18,Vrouw,Rechts,2,
,xotask,xotask,dotcolour,32,3,212,512,main,positivefb,-99,easy,74,0.7013989999995829,['c'],1,left,['0'],6,0.2730699999992794,,,,,,,,27,18,Vrouw,Rechts,2,
,xotask,xotask,dotcolour,33,3,213,513,main,positivefb,-99,easy,70,0.5346328999985417,['c'],1,left,['0'],6,0.3532457000001159,,,,,,,,27,18,Vrouw,Rechts,2,
,xotask,xotask,dotcolour,34,3,214,514,main,positivefb,-99,hard,26,0.6189194000016869,['n'],1,right,['0'],6,0.3159231000008731,,,,,,,,27,18,Vrouw,Rechts,2,
,xotask,xotask,dotcolour,35,3,215,515,main,positivefb,-99,average,19,0.7343481999996584,['c'],0,right,['3'],3,2.6981821000008495,,,,,,,,27,18,Vrouw,Rechts,2,
,xotask,xotask,dotcolour,36,3,216,516,main,positivefb,-99,average,62,1.1852987999991456,['c'],1,left,['9'],5,0.319264399999156,,,,,,,,27,18,Vrouw,Rechts,2,
,xotask,xotask,dotcolour,37,3,217,517,main,positivefb,-99,hard,28,0.6510367999999289,['n'],1,right,['0'],6,0.5057230999991589,,,,,,,,27,18,Vrouw,Rechts,2,
,xotask,xotask,dotcolour,38,3,218,518,main,positivefb,-99,easy,72,1.0181487000008929,['c'],1,left,['0'],6,0.397658699999738,,,,,,,,27,18,Vrouw,Rechts,2,
,xotask,xotask,dotcolour,39,3,219,519,main,positivefb,-99,hard,25,0.7339669000011781,['n'],1,right,['0'],6,0.2899392999988777,,,,,,,,27,18,Vrouw,Rechts,2,
,xotask,xotask,dotcolour,40,3,220,520,main,positivefb,-99,hard,54,0.6676207000000431,['c'],1,left,['9'],5,0.5161907999990945,,,,,,,,27,18,Vrouw,Rechts,2,
,xotask,xotask,dotcolour,41,3,221,521,main,positivefb,-99,average,63,0.950036000000182,['c'],1,left,['9'],5,0.4829018999989785,,,,,,,,27,18,Vrouw,Rechts,2,
,xotask,xotask,dotcolour,42,3,222,522,main,positivefb,-99,hard,28,0.8845923000008042,['n'],1,right,['9'],5,0.5567489999993995,,,,,,,,27,18,Vrouw,Rechts,2,
,xotask,xotask,dotcolour,43,3,223,523,main,positivefb,-99,easy,6,0.8510178999986238,['n'],1,right,['0'],6,0.3567717999994784,,,,,,,,27,18,Vrouw,Rechts,2,
,xotask,xotask,dotcolour,44,3,224,524,main,positivefb,-99,average,15,0.618230100000801,['n'],1,right,['0'],6,0.2709977999984403,,,,,,,,27,18,Vrouw,Rechts,2,
,xotask,xotask,dotcolour,45,3,225,525,main,positivefb,-99,average,19,0.8004211999996187,['n'],1,right,['0'],6,0.5328108000012435,,,,,,,,27,18,Vrouw,Rechts,2,
,xotask,xotask,dotcolour,46,3,226,526,main,positivefb,-99,average,17,0.6506177999999636,['n'],1,right,['0'],6,0.286721899999975,,,,,,,,27,18,Vrouw,Rechts,2,
,xotask,xotask,dotcolour,47,3,227,527,main,positivefb,-99,hard,28,0.5177590000002965,['n'],1,right,['0'],6,0.28645630000028177,,,,,,,,27,18,Vrouw,Rechts,2,
,xotask,xotask,dotcolour,48,3,228,528,main,positivefb,-99,hard,54,0.6510500000003958,['c'],1,left,['0'],6,0.2989971000006335,,,,,,,,27,18,Vrouw,Rechts,2,
,xotask,xotask,dotcolour,49,3,229,529,main,positivefb,-99,easy,7,0.8167372000007163,['n'],1,right,['0'],6,0.2947199999998702,,,,,,,,27,18,Vrouw,Rechts,2,
,xotask,xotask,dotcolour,50,3,230,530,main,positivefb,-99,hard,27,0.768310700001166,['n'],1,right,['0'],6,0.34909349999907135,,,,,,,,27,18,Vrouw,Rechts,2,
,xotask,xotask,dotcolour,51,3,231,531,main,positivefb,-99,hard,51,0.7670589999997901,['n'],0,left,['0'],6,0.34534010000061244,,,,,,,,27,18,Vrouw,Rechts,2,
,xotask,xotask,dotcolour,52,3,232,532,main,positivefb,-99,average,62,0.6675116000005801,['c'],1,left,['0'],6,0.33793770000011136,,,,,,,,27,18,Vrouw,Rechts,2,
,xotask,xotask,dotcolour,53,3,233,533,main,positivefb,-99,hard,28,0.5511428999998316,['n'],1,right,['0'],6,0.2788362999999663,,,,,,,,27,18,Vrouw,Rechts,2,
,xotask,xotask,dotcolour,54,3,234,534,main,positivefb,-99,hard,25,0.7843022999986715,['n'],1,right,['0'],6,0.3579291000005469,,,,,,,,27,18,Vrouw,Rechts,2,
,xotask,xotask,dotcolour,55,3,235,535,main,positivefb,-99,average,17,0.9010297999993782,['n'],1,right,['9'],5,0.37336429999959364,,,,,,,,27,18,Vrouw,Rechts,2,
,xotask,xotask,dotcolour,56,3,236,536,main,positivefb,-99,average,63,0.7182753000015509,['c'],1,left,['0'],6,0.298153400000956,,,,,,,,27,18,Vrouw,Rechts,2,
,xotask,xotask,dotcolour,57,3,237,537,main,positivefb,-99,average,62,0.9173685000005207,['n'],0,left,['9'],5,0.4258341000004293,,,,,,,,27,18,Vrouw,Rechts,2,
,xotask,xotask,dotcolour,58,3,238,538,main,positivefb,-99,easy,6,0.7174883999996382,['n'],1,right,['0'],6,0.2776367000005848,,,,,,,,27,18,Vrouw,Rechts,2,
,xotask,xotask,dotcolour,59,3,239,539,main,positivefb,-99,easy,71,0.567895000000135,['c'],1,left,['0'],6,0.27679750000061176,,,,,,,,27,18,Vrouw,Rechts,2,
,xotask,xotask,dotcolour,0,4,240,540,main,positivefb,-99,hard,51,1.5013880999995308,['c'],1,left,['9'],5,0.3511617000003753,,,,,,,,27,18,Vrouw,Rechts,2,
,xotask,xotask,dotcolour,1,4,241,541,main,positivefb,-99,easy,73,0.6674820999996882,['c'],1,left,['0'],6,0.2473043999998481,,,,,,,,27,18,Vrouw,Rechts,2,
,xotask,xotask,dotcolour,2,4,242,542,main,positivefb,-99,hard,26,0.6182434000002104,['n'],1,right,['0'],6,0.30230350000056205,,,,,,,,27,18,Vrouw,Rechts,2,
,xotask,xotask,dotcolour,3,4,243,543,main,positivefb,-99,hard,50,1.2348799999999756,['n'],0,left,['9'],5,0.6892078000000765,,,,,,,,27,18,Vrouw,Rechts,2,
,xotask,xotask,dotcolour,4,4,244,544,main,positivefb,-99,easy,9,0.9502472999993188,['n'],1,right,['0'],6,0.5204874999999447,,,,,,,,27,18,Vrouw,Rechts,2,
,xotask,xotask,dotcolour,5,4,245,545,main,positivefb,-99,hard,25,0.6675388000003295,['n'],1,right,['0'],6,0.31357849999949394,,,,,,,,27,18,Vrouw,Rechts,2,
,xotask,xotask,dotcolour,6,4,246,546,main,positivefb,-99,hard,25,0.7848286000007647,['n'],1,right,['0'],6,0.4873059000001376,,,,,,,,27,18,Vrouw,Rechts,2,
,xotask,xotask,dotcolour,7,4,247,547,main,positivefb,-99,easy,74,0.7179627000004984,['c'],1,left,['0'],6,0.37595320000036736,,,,,,,,27,18,Vrouw,Rechts,2,
,xotask,xotask,dotcolour,8,4,248,548,main,positivefb,-99,hard,28,0.834378800000195,['n'],1,right,['0'],6,0.2967162000004464,,,,,,,,27,18,Vrouw,Rechts,2,
,xotask,xotask,dotcolour,9,4,249,549,main,positivefb,-99,hard,50,0.7842453000012028,['n'],0,left,['9'],5,0.3984404999991966,,,,,,,,27,18,Vrouw,Rechts,2,
,xotask,xotask,dotcolour,10,4,250,550,main,positivefb,-99,average,15,0.733848300000318,['n'],1,right,['0'],6,0.3943330000001879,,,,,,,,27,18,Vrouw,Rechts,2,
,xotask,xotask,dotcolour,11,4,251,551,main,positivefb,-99,hard,28,1.2508777999992162,['n'],1,right,['0'],6,0.28967720000036934,,,,,,,,27,18,Vrouw,Rechts,2,
,xotask,xotask,dotcolour,12,4,252,552,main,positivefb,-99,hard,51,0.8688573999988876,['c'],1,left,['9'],5,0.348503700000947,,,,,,,,27,18,Vrouw,Rechts,2,
,xotask,xotask,dotcolour,13,4,253,553,main,positivefb,-99,average,19,0.6675054999996064,['n'],1,right,['0'],6,0.36422640000091633,,,,,,,,27,18,Vrouw,Rechts,2,
,xotask,xotask,dotcolour,14,4,254,554,main,positivefb,-99,hard,28,0.6678225000014208,['n'],1,right,['0'],6,0.24436060000152793,,,,,,,,27,18,Vrouw,Rechts,2,
,xotask,xotask,dotcolour,15,4,255,555,main,positivefb,-99,average,61,0.6350198000000091,['n'],0,left,['0'],6,0.31432520000089426,,,,,,,,27,18,Vrouw,Rechts,2,
,xotask,xotask,dotcolour,16,4,256,556,main,positivefb,-99,easy,71,0.7510443999999552,['c'],1,left,['0'],6,0.3683863000005658,,,,,,,,27,18,Vrouw,Rechts,2,
,xotask,xotask,dotcolour,17,4,257,557,main,positivefb,-99,average,61,0.8847784999998112,['c'],1,left,['9'],5,0.29506859999855806,,,,,,,,27,18,Vrouw,Rechts,2,
,xotask,xotask,dotcolour,18,4,258,558,main,positivefb,-99,easy,8,0.5840904999986378,['n'],1,right,['0'],6,0.2852001000010205,,,,,,,,27,18,Vrouw,Rechts,2,
,xotask,xotask,dotcolour,19,4,259,559,main,positivefb,-99,average,16,0.6519537000003766,['n'],1,right,['0'],6,0.2731550000007701,,,,,,,,27,18,Vrouw,Rechts,2,
,xotask,xotask,dotcolour,20,4,260,560,main,positivefb,-99,average,64,1.0346684000014648,['c'],1,left,['0'],6,0.34934959999918647,,,,,,,,27,18,Vrouw,Rechts,2,
,xotask,xotask,dotcolour,21,4,261,561,main,positivefb,-99,easy,70,0.7677977999992436,['c'],1,left,['0'],6,0.3934711000001698,,,,,,,,27,18,Vrouw,Rechts,2,
,xotask,xotask,dotcolour,22,4,262,562,main,positivefb,-99,easy,7,0.8671049000004132,['n'],1,right,['0'],6,0.18403150000085589,,,,,,,,27,18,Vrouw,Rechts,2,
,xotask,xotask,dotcolour,23,4,263,563,main,positivefb,-99,easy,71,0.7670694999997067,['c'],1,left,['0'],6,0.23499730000003183,,,,,,,,27,18,Vrouw,Rechts,2,
,xotask,xotask,dotcolour,24,4,264,564,main,positivefb,-99,easy,72,0.8008885999988706,['c'],1,left,['9'],5,0.266262099999949,,,,,,,,27,18,Vrouw,Rechts,2,
,xotask,xotask,dotcolour,25,4,265,565,main,positivefb,-99,average,16,0.9842907999991439,['n'],1,right,['0'],6,0.28129059999992023,,,,,,,,27,18,Vrouw,Rechts,2,
,xotask,xotask,dotcolour,26,4,266,566,main,positivefb,-99,average,60,0.7333715000004304,['c'],1,left,['0'],6,0.4168933000000834,,,,,,,,27,18,Vrouw,Rechts,2,
,xotask,xotask,dotcolour,27,4,267,567,main,positivefb,-99,average,61,0.6512879000001703,['c'],1,left,['0'],6,0.30292740000004414,,,,,,,,27,18,Vrouw,Rechts,2,
,xotask,xotask,dotcolour,28,4,268,568,main,positivefb,-99,average,61,0.7665944000000309,['c'],1,left,['9'],5,0.4690232000011747,,,,,,,,27,18,Vrouw,Rechts,2,
,xotask,xotask,dotcolour,29,4,269,569,main,positivefb,-99,easy,8,0.7506674000014755,['n'],1,right,['0'],6,0.5332204000005731,,,,,,,,27,18,Vrouw,Rechts,2,
,xotask,xotask,dotcolour,30,4,270,570,main,positivefb,-99,easy,73,0.8671503000005032,['c'],1,left,['0'],6,0.3175604000007297,,,,,,,,27,18,Vrouw,Rechts,2,
,xotask,xotask,dotcolour,31,4,271,571,main,positivefb,-99,easy,9,0.7677994999994553,['n'],1,right,['9'],5,0.4426932999995188,,,,,,,,27,18,Vrouw,Rechts,2,
,xotask,xotask,dotcolour,32,4,272,572,main,positivefb,-99,easy,8,0.7342436999988422,['c'],0,right,['3'],3,1.8774842000002536,,,,,,,,27,18,Vrouw,Rechts,2,
,xotask,xotask,dotcolour,33,4,273,573,main,positivefb,-99,average,60,0.8847224000001006,['c'],1,left,['9'],5,0.4803347999986727,,,,,,,,27,18,Vrouw,Rechts,2,
,xotask,xotask,dotcolour,34,4,274,574,main,positivefb,-99,hard,29,0.717341800000213,['n'],1,right,['9'],5,0.4407952000001387,,,,,,,,27,18,Vrouw,Rechts,2,
,xotask,xotask,dotcolour,35,4,275,575,main,positivefb,-99,easy,74,0.9347971999995934,['c'],1,left,['0'],6,0.21912159999919822,,,,,,,,27,18,Vrouw,Rechts,2,
,xotask,xotask,dotcolour,36,4,276,576,main,positivefb,-99,hard,52,1.8515664999995352,['c'],1,left,['9'],5,0.3209487000003719,,,,,,,,27,18,Vrouw,Rechts,2,
,xotask,xotask,dotcolour,37,4,277,577,main,positivefb,-99,average,19,1.184246599999824,['n'],1,right,['0'],6,0.5658363000002282,,,,,,,,27,18,Vrouw,Rechts,2,
,xotask,xotask,dotcolour,38,4,278,578,main,positivefb,-99,hard,51,0.6176768999994238,['c'],1,left,['9'],5,0.3516357999997126,,,,,,,,27,18,Vrouw,Rechts,2,
,xotask,xotask,dotcolour,39,4,279,579,main,positivefb,-99,average,15,0.668184600001041,['n'],1,right,['9'],5,0.31900929999937944,,,,,,,,27,18,Vrouw,Rechts,2,
,xotask,xotask,dotcolour,40,4,280,580,main,positivefb,-99,average,62,0.8011987000008958,['c'],1,left,['0'],6,0.21097150000059628,,,,,,,,27,18,Vrouw,Rechts,2,
,xotask,xotask,dotcolour,41,4,281,581,main,positivefb,-99,average,17,0.7505196000001888,['n'],1,right,['0'],6,0.20602549999966868,,,,,,,,27,18,Vrouw,Rechts,2,
,xotask,xotask,dotcolour,42,4,282,582,main,positivefb,-99,easy,7,0.6838370999994368,['n'],1,right,['0'],6,0.4991515999990952,,,,,,,,27,18,Vrouw,Rechts,2,
,xotask,xotask,dotcolour,43,4,283,583,main,positivefb,-99,hard,52,1.101278200001616,['c'],1,left,['8'],4,0.4994404000008217,,,,,,,,27,18,Vrouw,Rechts,2,
,xotask,xotask,dotcolour,44,4,284,584,main,positivefb,-99,easy,7,0.6838454999997339,['n'],1,right,['9'],5,0.32577350000065053,,,,,,,,27,18,Vrouw,Rechts,2,
,xotask,xotask,dotcolour,45,4,285,585,main,positivefb,-99,average,60,0.9511072000004788,['c'],1,left,['9'],5,0.37983189999977185,,,,,,,,27,18,Vrouw,Rechts,2,
,xotask,xotask,dotcolour,46,4,286,586,main,positivefb,-99,hard,51,0.7672127000005275,['c'],1,left,['8'],4,0.38216279999869585,,,,,,,,27,18,Vrouw,Rechts,2,
,xotask,xotask,dotcolour,47,4,287,587,main,positivefb,-99,easy,71,0.6518311999989237,['c'],1,left,['0'],6,0.26990029999979015,,,,,,,,27,18,Vrouw,Rechts,2,
,xotask,xotask,dotcolour,48,4,288,588,main,positivefb,-99,easy,5,0.7514941999997973,['n'],1,right,['0'],6,0.33402380000006815,,,,,,,,27,18,Vrouw,Rechts,2,
,xotask,xotask,dotcolour,49,4,289,589,main,positivefb,-99,average,19,0.9509776000013517,['n'],1,right,['0'],6,0.29958649999935005,,,,,,,,27,18,Vrouw,Rechts,2,
,xotask,xotask,dotcolour,50,4,290,590,main,positivefb,-99,hard,51,1.6515484999999899,['n'],0,left,['8'],4,0.28602260000116075,,,,,,,,27,18,Vrouw,Rechts,2,
,xotask,xotask,dotcolour,51,4,291,591,main,positivefb,-99,easy,70,0.8340840999990178,['c'],1,left,['9'],5,0.7537624000015057,,,,,,,,27,18,Vrouw,Rechts,2,
,xotask,xotask,dotcolour,52,4,292,592,main,positivefb,-99,average,63,1.334816900000078,['c'],1,left,['9'],5,0.3275324999995064,,,,,,,,27,18,Vrouw,Rechts,2,
,xotask,xotask,dotcolour,53,4,293,593,main,positivefb,-99,average,19,0.9008861000002071,['n'],1,right,['0'],6,0.3429534999995667,,,,,,,,27,18,Vrouw,Rechts,2,
,xotask,xotask,dotcolour,54,4,294,594,main,positivefb,-99,hard,25,1.651162000000113,['n'],1,right,['9'],5,0.4082591999995202,,,,,,,,27,18,Vrouw,Rechts,2,
,xotask,xotask,dotcolour,55,4,295,595,main,positivefb,-99,hard,29,0.7340362000013556,['n'],1,right,['9'],5,0.32371229999989737,,,,,,,,27,18,Vrouw,Rechts,2,
,xotask,xotask,dotcolour,56,4,296,596,main,positivefb,-99,hard,54,0.6672264000007999,['c'],1,left,['0'],6,0.42971810000017285,,,,,,,,27,18,Vrouw,Rechts,2,
,xotask,xotask,dotcolour,57,4,297,597,main,positivefb,-99,average,16,1.0341195999990305,['n'],1,right,['9'],5,0.339902700001403,,,,,,,,27,18,Vrouw,Rechts,2,
,xotask,xotask,dotcolour,58,4,298,598,main,positivefb,-99,easy,7,0.884111600000324,['n'],1,right,['0'],6,0.307966899999883,,,,,,,,27,18,Vrouw,Rechts,2,
,xotask,xotask,dotcolour,59,4,299,599,main,positivefb,-99,hard,25,0.8678295999998227,['n'],1,right,['0'],6,0.598191199998837,,,,,,,,27,18,Vrouw,Rechts,2,
,xotask,xotask,dotcolour,0,0,0,600,training,positivefb,95,easy,70,0.9845058000009885,['c'],1,left,['9'],5,0.3792758999989019,,,,,,,,27,18,Vrouw,Rechts,2,
,xotask,xotask,dotcolour,1,0,1,601,training,positivefb,97,average,15,0.8825926999998046,['n'],1,right,['9'],5,0.7219163000008848,,,,,,,,27,18,Vrouw,Rechts,2,
,xotask,xotask,dotcolour,2,0,2,602,training,positivefb,92,average,61,0.6323683999999048,['n'],0,left,['9'],5,0.3796389999988605,,,,,,,,27,18,Vrouw,Rechts,2,
,xotask,xotask,dotcolour,3,0,3,603,training,positivefb,96,easy,5,0.8167007000010926,['n'],1,right,['9'],5,0.2763900999998441,,,,,,,,27,18,Vrouw,Rechts,2,
,xotask,xotask,dotcolour,4,0,4,604,training,positivefb,98,average,61,0.68351629999961,['c'],1,left,['9'],5,0.2544336999999359,,,,,,,,27,18,Vrouw,Rechts,2,
,xotask,xotask,dotcolour,5,0,5,605,training,positivefb,74,easy,5,0.6339717999999266,['c'],0,right,['9'],5,0.2675204000006488,,,,,,,,27,18,Vrouw,Rechts,2,
,xotask,xotask,dotcolour,6,0,6,606,training,positivefb,98,easy,7,0.7678107000010641,['n'],1,right,['9'],5,0.26523159999851487,,,,,,,,27,18,Vrouw,Rechts,2,
,xotask,xotask,dotcolour,7,0,7,607,training,positivefb,96,easy,5,0.533237999999983,['n'],1,right,['0'],6,0.24990409999918484,,,,,,,,27,18,Vrouw,Rechts,2,
,xotask,xotask,dotcolour,8,0,8,608,training,positivefb,80,hard,51,1.3009550999995554,['n'],0,left,['8'],4,0.33176670000102604,,,,,,,,27,18,Vrouw,Rechts,2,
,xotask,xotask,dotcolour,9,0,9,609,training,positivefb,89,hard,50,0.7845758000003116,['c'],1,left,['9'],5,0.559477999999217,,,,,,,,27,18,Vrouw,Rechts,2,
,xotask,xotask,dotcolour,10,0,10,610,training,positivefb,82,hard,54,0.6839232999991509,['n'],0,left,['0'],6,0.35781110000061744,,,,,,,,27,18,Vrouw,Rechts,2,
,xotask,xotask,dotcolour,11,0,11,611,training,positivefb,92,hard,29,0.7335591999999451,['n'],1,right,['9'],5,0.33903409999948053,,,,,,,,27,18,Vrouw,Rechts,2,
,xotask,xotask,dotcolour,12,0,12,612,training,positivefb,98,average,60,0.7169681999985187,['c'],1,left,['9'],5,0.23274560000027122,,,,,,,,27,18,Vrouw,Rechts,2,
,xotask,xotask,dotcolour,13,0,13,613,training,positivefb,95,average,16,0.6170660999996471,['n'],1,right,['9'],5,0.2704634999990958,,,,,,,,27,18,Vrouw,Rechts,2,
,xotask,xotask,dotcolour,14,0,14,614,training,positivefb,97,easy,70,0.8835507999992842,['c'],1,left,['9'],5,0.24084450000009383,,,,,,,,27,18,Vrouw,Rechts,2,
,xotask,xotask,dotcolour,15,0,15,615,training,positivefb,97,average,60,0.7997223000002123,['c'],1,left,['9'],5,0.27106540000022505,,,,,,,,27,18,Vrouw,Rechts,2,
,xotask,xotask,dotcolour,16,0,16,616,training,positivefb,92,hard,27,1.033699700001307,['n'],1,right,['9'],5,0.3157870000013645,,,,,,,,27,18,Vrouw,Rechts,2,
,xotask,xotask,dotcolour,17,0,17,617,training,positivefb,84,easy,6,0.8340222000006179,['n'],1,right,['9'],5,0.4691755000003468,,,,,,,,27,18,Vrouw,Rechts,2,
,xotask,xotask,dotcolour,18,0,18,618,training,positivefb,100,easy,7,0.8337675000002491,['n'],1,right,['9'],5,0.5297356999999465,,,,,,,,27,18,Vrouw,Rechts,2,
,xotask,xotask,dotcolour,19,0,19,619,training,positivefb,87,average,61,0.7008595999996032,['c'],1,left,['9'],5,0.2491946000009193,,,,,,,,27,18,Vrouw,Rechts,2,
,xotask,xotask,dotcolour,20,0,20,620,training,positivefb,92,easy,71,0.6671347999999853,['c'],1,left,['0'],6,0.22809810000035213,,,,,,,,27,18,Vrouw,Rechts,2,
,xotask,xotask,dotcolour,21,0,21,621,training,positivefb,73,easy,71,0.7173162999988563,['c'],1,left,['0'],6,0.19902270000056888,,,,,,,,27,18,Vrouw,Rechts,2,
,xotask,xotask,dotcolour,22,0,22,622,training,positivefb,97,hard,51,0.9172508999999991,['c'],1,left,['8'],4,0.7702621999997064,,,,,,,,27,18,Vrouw,Rechts,2,
,xotask,xotask,dotcolour,23,0,23,623,training,positivefb,77,average,19,0.7339102000005369,['n'],1,right,['9'],5,0.3265315999997256,,,,,,,,27,18,Vrouw,Rechts,2,
,xotask,xotask,dotcolour,24,0,24,624,training,positivefb,92,easy,5,0.7667756999999256,['n'],1,right,['0'],6,0.5706343000001652,,,,,,,,27,18,Vrouw,Rechts,2,
,xotask,xotask,dotcolour,25,0,25,625,training,positivefb,90,hard,25,0.7492184000002453,['n'],1,right,['9'],5,0.34995550000166986,,,,,,,,27,18,Vrouw,Rechts,2,
,xotask,xotask,dotcolour,26,0,26,626,training,positivefb,77,hard,50,0.6824594000008801,['c'],1,left,['9'],5,0.2766230000015639,,,,,,,,27,18,Vrouw,Rechts,2,
,xotask,xotask,dotcolour,27,0,27,627,training,positivefb,96,average,63,0.9497245999991719,['c'],1,left,['9'],5,0.2519797999993898,,,,,,,,27,18,Vrouw,Rechts,2,
,xotask,xotask,dotcolour,28,0,28,628,training,positivefb,98,easy,6,0.5321640000001935,['n'],1,right,['0'],6,0.46935019999909855,,,,,,,,27,18,Vrouw,Rechts,2,
,xotask,xotask,dotcolour,29,0,29,629,training,positivefb,91,hard,54,1.0176288000002387,['c'],1,left,['9'],5,0.28916640000170446,,,,,,,,27,18,Vrouw,Rechts,2,
,xotask,xotask,dotcolour,30,0,30,630,training,positivefb,94,average,63,1.017516899999464,['c'],1,left,['9'],5,0.2936628000006749,,,,,,,,27,18,Vrouw,Rechts,2,
,xotask,xotask,dotcolour,31,0,31,631,training,positivefb,92,average,17,0.6335966999995435,['n'],1,right,['0'],6,0.47298009999940405,,,,,,,,27,18,Vrouw,Rechts,2,
,xotask,xotask,dotcolour,32,0,32,632,training,positivefb,93,hard,28,0.9671816999998555,['n'],1,right,['9'],5,0.3116291000005731,,,,,,,,27,18,Vrouw,Rechts,2,
,xotask,xotask,dotcolour,33,0,33,633,training,positivefb,93,easy,73,0.6503736000013305,['c'],1,left,['9'],5,0.48994459999994433,,,,,,,,27,18,Vrouw,Rechts,2,
,xotask,xotask,dotcolour,34,0,34,634,training,positivefb,78,hard,28,0.6008168999996997,['n'],1,right,['9'],5,0.29485720000047877,,,,,,,,27,18,Vrouw,Rechts,2,
