starttime,task,fbtask,firsttask,withinblocktrial,block,withintasktrial,trial,running,feedback,fbscore,difflevel,reddots,rt,resp,cor,cresp,conf_press,cj,RTconf,n_xes,post1,post2,post3,post4,post5,stoptime,sub,age,gender,handedness,session,
1715159305,dotcolour,dotcolour,dotcolour,0,0,0,0,training,negativefb,34,hard,45,1.5002896999999393,['n'],0,left,['2'],5,1.153663800000004,,,,,,,,5,19,Vrouw,Rechts,2,
,dotcolour,dotcolour,dotcolour,1,0,1,1,training,negativefb,38,hard,41,0.9995371999998497,['n'],0,left,['2'],5,0.45912799999996423,,,,,,,,5,19,Vrouw,Rechts,2,
,dotcolour,dotcolour,dotcolour,2,0,2,2,training,negativefb,99,easy,65,0.9336616999999023,['c'],1,left,['1'],6,1.6518663000001652,,,,,,,,5,19,Vrouw,Rechts,2,
,dotcolour,dotcolour,dotcolour,3,0,3,3,training,negativefb,84,hard,36,1.6997374999998556,['n'],1,right,['2'],5,0.4138815999999679,,,,,,,,5,19,Vrouw,Rechts,2,
,dotcolour,dotcolour,dotcolour,4,0,4,4,training,negativefb,79,average,55,1.2676340999998956,['c'],1,left,['3'],4,0.6114299999999275,,,,,,,,5,19,Vrouw,Rechts,2,
,dotcolour,dotcolour,dotcolour,5,0,5,5,training,negativefb,77,easy,62,0.683679500000153,['c'],1,left,['1'],6,0.744154299999991,,,,,,,,5,19,Vrouw,Rechts,2,
,dotcolour,dotcolour,dotcolour,6,0,6,6,training,negativefb,82,average,51,0.9174383999998099,['c'],1,left,['1'],6,0.45436049999989336,,,,,,,,5,19,Vrouw,Rechts,2,
,dotcolour,dotcolour,dotcolour,7,0,7,7,training,negativefb,53,average,26,0.8327003000001696,['n'],1,right,['1'],6,0.8829250000001139,,,,,,,,5,19,Vrouw,Rechts,2,
,dotcolour,dotcolour,dotcolour,8,0,8,8,training,negativefb,46,hard,42,2.1834877000001143,['c'],1,left,['3'],4,0.6724076000000423,,,,,,,,5,19,Vrouw,Rechts,2,
,dotcolour,dotcolour,dotcolour,9,0,9,9,training,negativefb,86,easy,17,0.6677913999999419,['n'],1,right,['1'],6,0.5071325999999772,,,,,,,,5,19,Vrouw,Rechts,2,
,dotcolour,dotcolour,dotcolour,10,0,10,10,training,negativefb,57,easy,19,0.7674744000000828,['n'],1,right,['1'],6,0.4806178999999702,,,,,,,,5,19,Vrouw,Rechts,2,
,dotcolour,dotcolour,dotcolour,11,0,11,11,training,negativefb,94,easy,64,0.9512634000000162,['c'],1,left,['1'],6,0.5921018999999887,,,,,,,,5,19,Vrouw,Rechts,2,
,dotcolour,dotcolour,dotcolour,12,0,12,12,training,negativefb,37,hard,37,0.917096100000208,['n'],1,right,['1'],6,0.4041030000000774,,,,,,,,5,19,Vrouw,Rechts,2,
,dotcolour,dotcolour,dotcolour,13,0,13,13,training,negativefb,85,hard,42,1.416986500000121,['c'],1,left,['3'],4,0.49939210000002277,,,,,,,,5,19,Vrouw,Rechts,2,
,dotcolour,dotcolour,dotcolour,14,0,14,14,training,negativefb,93,average,55,0.8334160000001702,['c'],1,left,['3'],4,0.4063413999999739,,,,,,,,5,19,Vrouw,Rechts,2,
,dotcolour,dotcolour,dotcolour,15,0,15,15,training,negativefb,72,average,25,0.8001324000001659,['n'],1,right,['1'],6,0.5983519000001252,,,,,,,,5,19,Vrouw,Rechts,2,
,dotcolour,dotcolour,dotcolour,16,0,16,16,training,negativefb,85,average,51,0.8339170000001559,['c'],1,left,['1'],6,0.5897138999998788,,,,,,,,5,19,Vrouw,Rechts,2,
,dotcolour,dotcolour,dotcolour,17,0,17,17,training,negativefb,83,average,29,0.9004006000000118,['n'],1,right,['1'],6,0.5306079000001773,,,,,,,,5,19,Vrouw,Rechts,2,
,dotcolour,dotcolour,dotcolour,18,0,18,18,training,negativefb,46,hard,38,1.217037499999833,['n'],1,right,['2'],5,0.6532487000001765,,,,,,,,5,19,Vrouw,Rechts,2,
,dotcolour,dotcolour,dotcolour,19,0,19,19,training,negativefb,35,average,29,0.7166360999999597,['n'],1,right,['1'],6,0.43881759999999304,,,,,,,,5,19,Vrouw,Rechts,2,
,dotcolour,dotcolour,dotcolour,20,0,20,20,training,negativefb,68,easy,19,0.799398900000142,['n'],1,right,['1'],6,0.40555510000012873,,,,,,,,5,19,Vrouw,Rechts,2,
,dotcolour,dotcolour,dotcolour,21,0,21,21,training,negativefb,83,easy,15,0.6169367999998485,['n'],1,right,['1'],6,0.4443246000000727,,,,,,,,5,19,Vrouw,Rechts,2,
,dotcolour,dotcolour,dotcolour,22,0,22,22,training,negativefb,69,easy,63,0.833043699999962,['c'],1,left,['1'],6,0.4418282999999974,,,,,,,,5,19,Vrouw,Rechts,2,
,dotcolour,dotcolour,dotcolour,23,0,23,23,training,negativefb,46,average,51,1.0004836999999043,['c'],1,left,['3'],4,0.408993799999962,,,,,,,,5,19,Vrouw,Rechts,2,
,dotcolour,dotcolour,dotcolour,24,0,24,24,training,negativefb,92,average,27,0.6839446999999836,['n'],1,right,['1'],6,0.524980400000004,,,,,,,,5,19,Vrouw,Rechts,2,
,dotcolour,dotcolour,dotcolour,25,0,25,25,training,negativefb,59,hard,36,1.049442400000089,['n'],1,right,['2'],5,0.3033116000001428,,,,,,,,5,19,Vrouw,Rechts,2,
,dotcolour,dotcolour,dotcolour,26,0,26,26,training,negativefb,79,hard,44,1.0000898999999208,['c'],1,left,['3'],4,0.4916041999999834,,,,,,,,5,19,Vrouw,Rechts,2,
,dotcolour,dotcolour,dotcolour,27,0,27,27,training,negativefb,91,average,52,0.9504351000000497,['c'],1,left,['3'],4,0.4741692999998577,,,,,,,,5,19,Vrouw,Rechts,2,
,dotcolour,dotcolour,dotcolour,28,0,28,28,training,negativefb,97,average,55,0.7508563000001232,['c'],1,left,['2'],5,0.5133119000001898,,,,,,,,5,19,Vrouw,Rechts,2,
,dotcolour,dotcolour,dotcolour,29,0,29,29,training,negativefb,79,easy,61,0.7666567999999643,['c'],1,left,['1'],6,0.4554223000000093,,,,,,,,5,19,Vrouw,Rechts,2,
,dotcolour,dotcolour,dotcolour,30,0,30,30,training,negativefb,57,easy,63,0.6163181000001714,['c'],1,left,['1'],6,0.4121675999999752,,,,,,,,5,19,Vrouw,Rechts,2,
,dotcolour,dotcolour,dotcolour,31,0,31,31,training,negativefb,17,hard,38,1.4499564000000191,['c'],0,right,['3'],4,0.44261260000007496,,,,,,,,5,19,Vrouw,Rechts,2,
,dotcolour,dotcolour,dotcolour,32,0,32,32,training,negativefb,87,hard,35,1.6169945000001462,['n'],1,right,['2'],5,0.5446405000000141,,,,,,,,5,19,Vrouw,Rechts,2,
,dotcolour,dotcolour,dotcolour,33,0,33,33,training,negativefb,87,easy,19,0.7165156999999454,['n'],1,right,['1'],6,0.2865932999998222,,,,,,,,5,19,Vrouw,Rechts,2,
,dotcolour,dotcolour,dotcolour,34,0,34,34,training,negativefb,70,hard,42,3.4663406999998188,['c'],1,left,['3'],4,0.3851697999998578,,,,,,,,5,19,Vrouw,Rechts,2,
,dotcolour,dotcolour,dotcolour,35,0,35,35,training,negativefb,80,easy,15,0.6168512000001556,['n'],1,right,['1'],6,0.528841600000078,,,,,,,,5,19,Vrouw,Rechts,2,
,dotcolour,dotcolour,dotcolour,36,0,36,36,training,negativefb,97,easy,15,0.650345199999947,['n'],1,right,['1'],6,0.5382157000001371,,,,,,,,5,19,Vrouw,Rechts,2,
,dotcolour,dotcolour,dotcolour,37,0,37,37,training,negativefb,62,easy,64,0.8164141000002019,['c'],1,left,['2'],5,0.45243410000011863,,,,,,,,5,19,Vrouw,Rechts,2,
,dotcolour,dotcolour,dotcolour,38,0,38,38,training,negativefb,75,average,27,0.6336352999999235,['n'],1,right,['1'],6,0.47278690000007373,,,,,,,,5,19,Vrouw,Rechts,2,
,dotcolour,dotcolour,dotcolour,39,0,39,39,training,negativefb,70,easy,62,0.7002648000000136,['c'],1,left,['1'],6,0.4982646000000841,,,,,,,,5,19,Vrouw,Rechts,2,
,dotcolour,dotcolour,dotcolour,40,0,40,40,training,negativefb,42,hard,35,1.5999709000000166,['c'],0,right,['3'],4,0.47922730000004776,,,,,,,,5,19,Vrouw,Rechts,2,
,dotcolour,dotcolour,dotcolour,41,0,41,41,training,negativefb,54,average,51,1.7508804999999938,['c'],1,left,['2'],5,0.4942435000000387,,,,,,,,5,19,Vrouw,Rechts,2,
,dotcolour,dotcolour,dotcolour,42,0,42,42,training,negativefb,60,average,27,0.7333840000001146,['n'],1,right,['1'],6,0.31815529999994396,,,,,,,,5,19,Vrouw,Rechts,2,
,dotcolour,dotcolour,dotcolour,43,0,43,43,training,negativefb,86,hard,37,1.4346939999998085,['n'],1,right,['2'],5,0.45565479999982017,,,,,,,,5,19,Vrouw,Rechts,2,
,dotcolour,dotcolour,dotcolour,44,0,44,44,training,negativefb,84,easy,18,0.583317599999873,['n'],1,right,['1'],6,0.3659924000000956,,,,,,,,5,19,Vrouw,Rechts,2,
,dotcolour,dotcolour,dotcolour,45,0,45,45,training,negativefb,95,average,29,2.866945099999839,['n'],1,right,['1'],6,1.8060130000001209,,,,,,,,5,19,Vrouw,Rechts,2,
,dotcolour,dotcolour,dotcolour,46,0,46,46,training,negativefb,37,easy,64,4.0831071000000065,['c'],1,left,['1'],6,0.38633580000009715,,,,,,,,5,19,Vrouw,Rechts,2,
,dotcolour,dotcolour,dotcolour,47,0,47,47,training,negativefb,66,easy,18,0.634599499999922,['n'],1,right,['1'],6,0.4017080999999507,,,,,,,,5,19,Vrouw,Rechts,2,
,dotcolour,dotcolour,dotcolour,48,0,48,48,training,negativefb,59,hard,38,1.0829396999999972,['n'],1,right,['3'],4,0.23866809999981342,,,,,,,,5,19,Vrouw,Rechts,2,
,dotcolour,dotcolour,dotcolour,49,0,49,49,training,negativefb,50,hard,42,1.0172955999998976,['c'],1,left,['1'],6,0.4212695999999596,,,,,,,,5,19,Vrouw,Rechts,2,
,dotcolour,dotcolour,dotcolour,50,0,50,50,training,negativefb,53,average,52,1.1349427000000105,['c'],1,left,['3'],4,0.4300286000000142,,,,,,,,5,19,Vrouw,Rechts,2,
,dotcolour,dotcolour,dotcolour,51,0,51,51,training,negativefb,56,hard,42,1.6167680999999448,['n'],0,left,['3'],4,0.8055279000000155,,,,,,,,5,19,Vrouw,Rechts,2,
,dotcolour,dotcolour,dotcolour,52,0,52,52,training,negativefb,64,average,25,0.9321477000000868,['n'],1,right,['2'],5,1.696544700000004,,,,,,,,5,19,Vrouw,Rechts,2,
,dotcolour,dotcolour,dotcolour,53,0,53,53,training,negativefb,60,average,52,1.0838410999999724,['c'],1,left,['2'],5,0.5616635999999744,,,,,,,,5,19,Vrouw,Rechts,2,
,dotcolour,dotcolour,dotcolour,54,0,54,54,training,negativefb,47,average,29,0.7990294000001086,['n'],1,right,['2'],5,0.4120605999999043,,,,,,,,5,19,Vrouw,Rechts,2,
,dotcolour,dotcolour,dotcolour,55,0,55,55,training,negativefb,81,hard,36,1.0163962000001447,['c'],0,right,['3'],4,0.37924860000021,,,,,,,,5,19,Vrouw,Rechts,2,
,dotcolour,dotcolour,dotcolour,56,0,56,56,training,negativefb,65,hard,44,1.5335973000001104,['n'],0,left,['3'],4,0.3835495999999239,,,,,,,,5,19,Vrouw,Rechts,2,
,dotcolour,dotcolour,dotcolour,57,0,57,57,training,negativefb,95,easy,64,0.7003546000000824,['c'],1,left,['1'],6,0.4842069999999694,,,,,,,,5,19,Vrouw,Rechts,2,
,dotcolour,dotcolour,dotcolour,58,0,58,58,training,negativefb,79,hard,42,1.2331011000001126,['n'],0,left,['2'],5,1.0875725000000784,,,,,,,,5,19,Vrouw,Rechts,2,
,dotcolour,dotcolour,dotcolour,59,0,59,59,training,negativefb,0,easy,19,1.0322853000000123,['c'],0,right,['0'],1,4.603022099999862,,,,,,,,5,19,Vrouw,Rechts,2,
,dotcolour,dotcolour,dotcolour,0,1,60,60,training,negativefb,56,hard,43,1.7326715000001514,['n'],0,left,['1'],6,1.9374457999999777,,,,,,,,5,19,Vrouw,Rechts,2,
,dotcolour,dotcolour,dotcolour,1,1,61,61,training,negativefb,44,hard,45,1.4154636999999184,['c'],1,left,['3'],4,0.4433552000000418,,,,,,,,5,19,Vrouw,Rechts,2,
,dotcolour,dotcolour,dotcolour,2,1,62,62,training,negativefb,82,easy,64,0.8990144000001692,['c'],1,left,['1'],6,0.4055200000000241,,,,,,,,5,19,Vrouw,Rechts,2,
,dotcolour,dotcolour,dotcolour,3,1,63,63,training,negativefb,94,easy,17,0.7345462999999199,['n'],1,right,['1'],6,0.3208501999999953,,,,,,,,5,19,Vrouw,Rechts,2,
,dotcolour,dotcolour,dotcolour,4,1,64,64,training,negativefb,87,easy,18,0.6662662999999611,['n'],1,right,['1'],6,0.31346309999980804,,,,,,,,5,19,Vrouw,Rechts,2,
,dotcolour,dotcolour,dotcolour,5,1,65,65,training,negativefb,81,average,51,0.9679866999999831,['c'],1,left,['1'],6,0.30274389999999585,,,,,,,,5,19,Vrouw,Rechts,2,
,dotcolour,dotcolour,dotcolour,6,1,66,66,training,negativefb,54,easy,64,0.7684838000000127,['c'],1,left,['1'],6,0.34776050000004943,,,,,,,,5,19,Vrouw,Rechts,2,
,dotcolour,dotcolour,dotcolour,7,1,67,67,training,negativefb,54,average,26,0.6829281000000265,['n'],1,right,['1'],6,0.3239553999999316,,,,,,,,5,19,Vrouw,Rechts,2,
,dotcolour,dotcolour,dotcolour,8,1,68,68,training,negativefb,21,easy,62,0.6660259000000224,['c'],1,left,['1'],6,0.34824090000006436,,,,,,,,5,19,Vrouw,Rechts,2,
,dotcolour,dotcolour,dotcolour,9,1,69,69,training,negativefb,83,hard,41,1.033499699999993,['n'],0,left,['3'],4,0.365265799999861,,,,,,,,5,19,Vrouw,Rechts,2,
,dotcolour,dotcolour,dotcolour,10,1,70,70,training,negativefb,56,hard,43,1.9676684999999452,['n'],0,left,['3'],4,0.28829530000007253,,,,,,,,5,19,Vrouw,Rechts,2,
,dotcolour,dotcolour,dotcolour,11,1,71,71,training,negativefb,65,average,26,0.6338980000000447,['n'],1,right,['1'],6,0.2674440000000686,,,,,,,,5,19,Vrouw,Rechts,2,
,dotcolour,dotcolour,dotcolour,12,1,72,72,training,negativefb,67,hard,37,1.515735000000177,['c'],0,right,['3'],4,0.49349019999999655,,,,,,,,5,19,Vrouw,Rechts,2,
,dotcolour,dotcolour,dotcolour,13,1,73,73,training,negativefb,50,hard,35,0.9317564999998922,['n'],1,right,['3'],4,0.4682746999999381,,,,,,,,5,19,Vrouw,Rechts,2,
,dotcolour,dotcolour,dotcolour,14,1,74,74,training,negativefb,69,average,27,0.6158757000000605,['n'],1,right,['1'],6,0.33663430000001426,,,,,,,,5,19,Vrouw,Rechts,2,
,dotcolour,dotcolour,dotcolour,15,1,75,75,training,negativefb,46,average,51,0.7834150999999565,['c'],1,left,['1'],6,0.372411700000157,,,,,,,,5,19,Vrouw,Rechts,2,
,dotcolour,dotcolour,dotcolour,16,1,76,76,training,negativefb,43,easy,65,0.8487936999999874,['c'],1,left,['1'],6,0.30792539999993096,,,,,,,,5,19,Vrouw,Rechts,2,
,dotcolour,dotcolour,dotcolour,17,1,77,77,training,negativefb,78,easy,16,0.6838948000001892,['n'],1,right,['1'],6,0.8206514999999399,,,,,,,,5,19,Vrouw,Rechts,2,
,dotcolour,dotcolour,dotcolour,18,1,78,78,training,negativefb,47,average,52,1.36704809999992,['c'],1,left,['3'],4,0.38885469999991074,,,,,,,,5,19,Vrouw,Rechts,2,
,dotcolour,dotcolour,dotcolour,19,1,79,79,training,negativefb,45,hard,43,2.166730400000006,['c'],1,left,['3'],4,0.592142099999819,,,,,,,,5,19,Vrouw,Rechts,2,
,dotcolour,dotcolour,dotcolour,20,1,80,80,training,negativefb,95,average,28,0.6328444000000673,['n'],1,right,['1'],6,0.575333799999953,,,,,,,,5,19,Vrouw,Rechts,2,
,dotcolour,dotcolour,dotcolour,21,1,81,81,training,negativefb,51,easy,17,0.6171103000001494,['n'],1,right,['1'],6,0.3358313999999609,,,,,,,,5,19,Vrouw,Rechts,2,
,dotcolour,dotcolour,dotcolour,22,1,82,82,training,negativefb,28,hard,35,0.7826164000000517,['n'],1,right,['1'],6,0.35530790000007073,,,,,,,,5,19,Vrouw,Rechts,2,
,dotcolour,dotcolour,dotcolour,23,1,83,83,training,negativefb,59,easy,18,0.5833235999998578,['n'],1,right,['1'],6,0.36525030000007064,,,,,,,,5,19,Vrouw,Rechts,2,
,dotcolour,dotcolour,dotcolour,24,1,84,84,training,negativefb,52,easy,16,4.466920900000105,['c'],0,right,['3'],4,0.4444301999999425,,,,,,,,5,19,Vrouw,Rechts,2,
,dotcolour,dotcolour,dotcolour,25,1,85,85,training,negativefb,41,easy,17,0.6505353000000014,['n'],1,right,['1'],6,0.4495675000000574,,,,,,,,5,19,Vrouw,Rechts,2,
,dotcolour,dotcolour,dotcolour,26,1,86,86,training,negativefb,41,hard,35,1.1161205000000791,['n'],1,right,['3'],4,0.499554900000021,,,,,,,,5,19,Vrouw,Rechts,2,
,dotcolour,dotcolour,dotcolour,27,1,87,87,training,negativefb,82,easy,61,1.2501872000000276,['c'],1,left,['1'],6,0.4209100999999009,,,,,,,,5,19,Vrouw,Rechts,2,
,dotcolour,dotcolour,dotcolour,28,1,88,88,training,negativefb,94,average,26,1.733972300000005,['n'],1,right,['1'],6,1.9113221000000067,,,,,,,,5,19,Vrouw,Rechts,2,
,dotcolour,dotcolour,dotcolour,29,1,89,89,training,negativefb,80,average,51,1.650577500000054,['c'],1,left,['1'],6,0.31291780000015024,,,,,,,,5,19,Vrouw,Rechts,2,
,dotcolour,dotcolour,dotcolour,30,1,90,90,training,negativefb,57,easy,16,0.6505041000000347,['n'],1,right,['1'],6,0.28310209999995095,,,,,,,,5,19,Vrouw,Rechts,2,
,dotcolour,dotcolour,dotcolour,31,1,91,91,training,negativefb,37,average,28,1.383137399999896,['n'],1,right,['1'],6,0.8084424000001036,,,,,,,,5,19,Vrouw,Rechts,2,
,dotcolour,dotcolour,dotcolour,32,1,92,92,training,negativefb,58,hard,38,1.916631599999846,['n'],1,right,['2'],5,0.32407439999997223,,,,,,,,5,19,Vrouw,Rechts,2,
,dotcolour,dotcolour,dotcolour,33,1,93,93,training,negativefb,87,hard,36,1.2171975999999631,['n'],1,right,['3'],4,0.9663734000000659,,,,,,,,5,19,Vrouw,Rechts,2,
,dotcolour,dotcolour,dotcolour,34,1,94,94,training,negativefb,89,average,51,0.9501264000000447,['c'],1,left,['2'],5,0.7465300999999727,,,,,,,,5,19,Vrouw,Rechts,2,
,dotcolour,dotcolour,dotcolour,35,1,95,95,training,negativefb,89,easy,64,0.7322513000001436,['c'],1,left,['1'],6,0.33580000000006294,,,,,,,,5,19,Vrouw,Rechts,2,
,dotcolour,dotcolour,dotcolour,36,1,96,96,training,negativefb,69,easy,61,0.667060900000024,['c'],1,left,['1'],6,0.3278900000000249,,,,,,,,5,19,Vrouw,Rechts,2,
,dotcolour,dotcolour,dotcolour,37,1,97,97,training,negativefb,84,average,28,0.6332117000001745,['n'],1,right,['1'],6,0.37803119999989576,,,,,,,,5,19,Vrouw,Rechts,2,
,dotcolour,dotcolour,dotcolour,38,1,98,98,training,negativefb,43,average,55,0.7828588999998374,['c'],1,left,['1'],6,0.36358860000018467,,,,,,,,5,19,Vrouw,Rechts,2,
,dotcolour,dotcolour,dotcolour,39,1,99,99,training,negativefb,56,easy,61,0.7160087999998268,['c'],1,left,['1'],6,0.48936589999993885,,,,,,,,5,19,Vrouw,Rechts,2,
,dotcolour,dotcolour,dotcolour,40,1,100,100,training,negativefb,79,average,51,0.9174755999999888,['c'],1,left,['2'],5,0.7052894999999353,,,,,,,,5,19,Vrouw,Rechts,2,
,dotcolour,dotcolour,dotcolour,41,1,101,101,training,negativefb,46,hard,39,0.966379699999834,['n'],1,right,['2'],5,0.39095369999995455,,,,,,,,5,19,Vrouw,Rechts,2,
,dotcolour,dotcolour,dotcolour,42,1,102,102,training,negativefb,99,easy,16,0.666322799999989,['n'],1,right,['1'],6,0.6450195999998414,,,,,,,,5,19,Vrouw,Rechts,2,
,dotcolour,dotcolour,dotcolour,43,1,103,103,training,negativefb,92,average,26,1.1176253000000997,['n'],1,right,['1'],6,0.23145030000000588,,,,,,,,5,19,Vrouw,Rechts,2,
,dotcolour,dotcolour,dotcolour,44,1,104,104,training,negativefb,91,average,51,0.8004658999998355,['c'],1,left,['1'],6,0.334560300000021,,,,,,,,5,19,Vrouw,Rechts,2,
,dotcolour,dotcolour,dotcolour,45,1,105,105,training,negativefb,56,hard,41,1.3013524000000416,['c'],1,left,['3'],4,0.36568609999994806,,,,,,,,5,19,Vrouw,Rechts,2,
,dotcolour,dotcolour,dotcolour,46,1,106,106,training,negativefb,82,hard,37,1.4003949000000375,['n'],1,right,['3'],4,0.30291220000003705,,,,,,,,5,19,Vrouw,Rechts,2,
,dotcolour,dotcolour,dotcolour,47,1,107,107,training,negativefb,84,hard,45,0.782983300000069,['c'],1,left,['2'],5,0.8912959000001592,,,,,,,,5,19,Vrouw,Rechts,2,
,dotcolour,dotcolour,dotcolour,48,1,108,108,training,negativefb,82,easy,64,0.7677583999998205,['c'],1,left,['1'],6,0.2976167000001624,,,,,,,,5,19,Vrouw,Rechts,2,
,dotcolour,dotcolour,dotcolour,49,1,109,109,training,negativefb,89,average,52,0.7498198000000684,['c'],1,left,['2'],5,0.5366742000001068,,,,,,,,5,19,Vrouw,Rechts,2,
,dotcolour,dotcolour,dotcolour,50,1,110,110,training,negativefb,51,hard,44,1.9668036999999003,['c'],1,left,['3'],4,0.2918121999998675,,,,,,,,5,19,Vrouw,Rechts,2,
,dotcolour,dotcolour,dotcolour,51,1,111,111,training,negativefb,38,hard,42,1.082676999999876,['n'],0,left,['1'],6,0.23815009999998438,,,,,,,,5,19,Vrouw,Rechts,2,
,dotcolour,dotcolour,dotcolour,52,1,112,112,training,negativefb,69,hard,35,0.8669502000000193,['n'],1,right,['1'],6,0.1855387000000519,,,,,,,,5,19,Vrouw,Rechts,2,
,dotcolour,dotcolour,dotcolour,53,1,113,113,training,negativefb,74,easy,15,0.6660562000001846,['n'],1,right,['1'],6,0.23196340000004056,,,,,,,,5,19,Vrouw,Rechts,2,
,dotcolour,dotcolour,dotcolour,54,1,114,114,training,negativefb,82,hard,44,1.05053369999996,['c'],1,left,['2'],5,0.38989730000002965,,,,,,,,5,19,Vrouw,Rechts,2,
,dotcolour,dotcolour,dotcolour,55,1,115,115,training,negativefb,58,hard,36,1.665943499999912,['c'],0,right,['2'],5,0.33153089999996155,,,,,,,,5,19,Vrouw,Rechts,2,
,dotcolour,dotcolour,dotcolour,56,1,116,116,training,negativefb,84,easy,61,0.6829024999999547,['c'],1,left,['1'],6,0.29179389999990235,,,,,,,,5,19,Vrouw,Rechts,2,
,dotcolour,dotcolour,dotcolour,57,1,117,117,training,negativefb,69,average,53,0.8837363000000096,['c'],1,left,['2'],5,0.3569992000000184,,,,,,,,5,19,Vrouw,Rechts,2,
,dotcolour,dotcolour,dotcolour,58,1,118,118,training,negativefb,12,average,29,0.6651738000000478,['n'],1,right,['1'],6,0.28431109999996806,,,,,,,,5,19,Vrouw,Rechts,2,
,dotcolour,dotcolour,dotcolour,59,1,119,119,training,negativefb,40,average,28,1.649779300000091,['n'],1,right,['1'],6,0.23885700000005272,,,,,,,,5,19,Vrouw,Rechts,2,
,dotcolour,dotcolour,dotcolour,0,2,120,120,main,negativefb,-99,easy,65,0.9677841000000171,['c'],1,left,['1'],6,0.8042089999999007,,,,,,,,5,19,Vrouw,Rechts,2,
,dotcolour,dotcolour,dotcolour,1,2,121,121,main,negativefb,-99,hard,41,1.0166659000001346,['n'],0,left,['2'],5,0.4044063000001188,,,,,,,,5,19,Vrouw,Rechts,2,
,dotcolour,dotcolour,dotcolour,2,2,122,122,main,negativefb,-99,hard,39,0.7504165000000285,['n'],1,right,['8'],3,1.7745310000000245,,,,,,,,5,19,Vrouw,Rechts,2,
,dotcolour,dotcolour,dotcolour,3,2,123,123,main,negativefb,-99,easy,19,0.6678426000000854,['n'],1,right,['1'],6,0.49415460000000166,,,,,,,,5,19,Vrouw,Rechts,2,
,dotcolour,dotcolour,dotcolour,4,2,124,124,main,negativefb,-99,average,54,0.7335960999998861,['c'],1,left,['1'],6,0.37440029999993385,,,,,,,,5,19,Vrouw,Rechts,2,
,dotcolour,dotcolour,dotcolour,5,2,125,125,main,negativefb,-99,average,29,0.7009673000000021,['n'],1,right,['1'],6,0.331711900000073,,,,,,,,5,19,Vrouw,Rechts,2,
,dotcolour,dotcolour,dotcolour,6,2,126,126,main,negativefb,-99,easy,19,1.0664248000000498,['n'],1,right,['1'],6,0.7573002999999972,,,,,,,,5,19,Vrouw,Rechts,2,
,dotcolour,dotcolour,dotcolour,7,2,127,127,main,negativefb,-99,easy,61,0.9665251999999782,['c'],1,left,['1'],6,0.5934356999998727,,,,,,,,5,19,Vrouw,Rechts,2,
,dotcolour,dotcolour,dotcolour,8,2,128,128,main,negativefb,-99,average,29,0.7164307000000463,['n'],1,right,['1'],6,0.6302809000001162,,,,,,,,5,19,Vrouw,Rechts,2,
,dotcolour,dotcolour,dotcolour,9,2,129,129,main,negativefb,-99,hard,43,2.13353589999997,['c'],1,left,['3'],4,1.440383600000132,,,,,,,,5,19,Vrouw,Rechts,2,
,dotcolour,dotcolour,dotcolour,10,2,130,130,main,negativefb,-99,average,27,1.4000045000000227,['n'],1,right,['2'],5,0.575150899999926,,,,,,,,5,19,Vrouw,Rechts,2,
,dotcolour,dotcolour,dotcolour,11,2,131,131,main,negativefb,-99,average,54,0.8508500999998887,['c'],1,left,['1'],6,0.3679773000001205,,,,,,,,5,19,Vrouw,Rechts,2,
,dotcolour,dotcolour,dotcolour,12,2,132,132,main,negativefb,-99,average,29,0.6675731000000269,['n'],1,right,['1'],6,0.743826800000079,,,,,,,,5,19,Vrouw,Rechts,2,
,dotcolour,dotcolour,dotcolour,13,2,133,133,main,negativefb,-99,hard,43,2.1665841999999884,['c'],1,left,['3'],4,0.4284104999999272,,,,,,,,5,19,Vrouw,Rechts,2,
,dotcolour,dotcolour,dotcolour,14,2,134,134,main,negativefb,-99,hard,38,1.5668605000000753,['n'],1,right,['3'],4,0.3583430999999564,,,,,,,,5,19,Vrouw,Rechts,2,
,dotcolour,dotcolour,dotcolour,15,2,135,135,main,negativefb,-99,average,27,0.6667797000000064,['n'],1,right,['1'],6,0.3657263000000057,,,,,,,,5,19,Vrouw,Rechts,2,
,dotcolour,dotcolour,dotcolour,16,2,136,136,main,negativefb,-99,easy,19,0.600860799999964,['n'],1,right,['1'],6,0.2882692999999108,,,,,,,,5,19,Vrouw,Rechts,2,
,dotcolour,dotcolour,dotcolour,17,2,137,137,main,negativefb,-99,average,52,0.9011204000000816,['c'],1,left,['1'],6,1.2801584999999704,,,,,,,,5,19,Vrouw,Rechts,2,
,dotcolour,dotcolour,dotcolour,18,2,138,138,main,negativefb,-99,hard,42,1.0666868999999224,['n'],0,left,['1'],6,0.46076080000011643,,,,,,,,5,19,Vrouw,Rechts,2,
,dotcolour,dotcolour,dotcolour,19,2,139,139,main,negativefb,-99,hard,37,0.8331332000000202,['n'],1,right,['1'],6,0.40215089999992415,,,,,,,,5,19,Vrouw,Rechts,2,
,dotcolour,dotcolour,dotcolour,20,2,140,140,main,negativefb,-99,easy,17,0.7169758000000002,['n'],1,right,['1'],6,0.2862913999999819,,,,,,,,5,19,Vrouw,Rechts,2,
,dotcolour,dotcolour,dotcolour,21,2,141,141,main,negativefb,-99,hard,35,2.1006887000000916,['c'],0,right,['1'],6,0.33528900000010253,,,,,,,,5,19,Vrouw,Rechts,2,
,dotcolour,dotcolour,dotcolour,22,2,142,142,main,negativefb,-99,easy,63,0.9342756000000918,['c'],1,left,['1'],6,0.3900681000000077,,,,,,,,5,19,Vrouw,Rechts,2,
,dotcolour,dotcolour,dotcolour,23,2,143,143,main,negativefb,-99,average,55,0.5665940999999748,['c'],1,left,['1'],6,0.36843580000004295,,,,,,,,5,19,Vrouw,Rechts,2,
,dotcolour,dotcolour,dotcolour,24,2,144,144,main,negativefb,-99,hard,35,1.0850359999999455,['n'],1,right,['2'],5,0.5901085000000421,,,,,,,,5,19,Vrouw,Rechts,2,
,dotcolour,dotcolour,dotcolour,25,2,145,145,main,negativefb,-99,hard,45,1.7346481000001859,['n'],0,left,['2'],5,0.3392283000000589,,,,,,,,5,19,Vrouw,Rechts,2,
,dotcolour,dotcolour,dotcolour,26,2,146,146,main,negativefb,-99,average,29,0.750666899999942,['n'],1,right,['2'],5,0.3049125999998523,,,,,,,,5,19,Vrouw,Rechts,2,
,dotcolour,dotcolour,dotcolour,27,2,147,147,main,negativefb,-99,easy,63,0.8339159999998174,['c'],1,left,['1'],6,0.33127250000006825,,,,,,,,5,19,Vrouw,Rechts,2,
,dotcolour,dotcolour,dotcolour,28,2,148,148,main,negativefb,-99,easy,64,0.6165184999999838,['c'],1,left,['1'],6,0.37528789999987566,,,,,,,,5,19,Vrouw,Rechts,2,
,dotcolour,dotcolour,dotcolour,29,2,149,149,main,negativefb,-99,easy,17,0.5662303999999949,['n'],1,right,['1'],6,0.34650409999994736,,,,,,,,5,19,Vrouw,Rechts,2,
,dotcolour,dotcolour,dotcolour,30,2,150,150,main,negativefb,-99,hard,39,0.9011031000000003,['n'],1,right,['2'],5,0.6327783000001546,,,,,,,,5,19,Vrouw,Rechts,2,
,dotcolour,dotcolour,dotcolour,31,2,151,151,main,negativefb,-99,hard,42,0.984570500000018,['n'],0,left,['2'],5,0.31405180000001565,,,,,,,,5,19,Vrouw,Rechts,2,
,dotcolour,dotcolour,dotcolour,32,2,152,152,main,negativefb,-99,hard,42,0.8166403999998693,['n'],0,left,['2'],5,0.28565309999999045,,,,,,,,5,19,Vrouw,Rechts,2,
,dotcolour,dotcolour,dotcolour,33,2,153,153,main,negativefb,-99,average,53,0.7343356999999742,['c'],1,left,['1'],6,0.3813905000001796,,,,,,,,5,19,Vrouw,Rechts,2,
,dotcolour,dotcolour,dotcolour,34,2,154,154,main,negativefb,-99,easy,15,0.9342038999998294,['n'],1,right,['1'],6,0.34569919999989907,,,,,,,,5,19,Vrouw,Rechts,2,
,dotcolour,dotcolour,dotcolour,35,2,155,155,main,negativefb,-99,easy,65,0.616466599999967,['c'],1,left,['1'],6,0.34076279999999315,,,,,,,,5,19,Vrouw,Rechts,2,
,dotcolour,dotcolour,dotcolour,36,2,156,156,main,negativefb,-99,hard,41,1.033655399999816,['n'],0,left,['2'],5,0.21523980000006304,,,,,,,,5,19,Vrouw,Rechts,2,
,dotcolour,dotcolour,dotcolour,37,2,157,157,main,negativefb,-99,average,27,0.6489979000000403,['n'],1,right,['2'],5,0.3498795999998947,,,,,,,,5,19,Vrouw,Rechts,2,
,dotcolour,dotcolour,dotcolour,38,2,158,158,main,negativefb,-99,hard,42,1.0842797000000246,['c'],1,left,['2'],5,0.39646220000008725,,,,,,,,5,19,Vrouw,Rechts,2,
,dotcolour,dotcolour,dotcolour,39,2,159,159,main,negativefb,-99,average,25,0.6830390999998599,['n'],1,right,['2'],5,0.5313106000000971,,,,,,,,5,19,Vrouw,Rechts,2,
,dotcolour,dotcolour,dotcolour,40,2,160,160,main,negativefb,-99,easy,62,0.7346800999998777,['c'],1,left,['2'],5,0.5295275999999376,,,,,,,,5,19,Vrouw,Rechts,2,
,dotcolour,dotcolour,dotcolour,41,2,161,161,main,negativefb,-99,hard,42,0.799987000000101,['n'],0,left,['3'],4,1.038028899999972,,,,,,,,5,19,Vrouw,Rechts,2,
,dotcolour,dotcolour,dotcolour,42,2,162,162,main,negativefb,-99,easy,61,0.884500300000127,['c'],1,left,['2'],5,0.7061361999999463,,,,,,,,5,19,Vrouw,Rechts,2,
,dotcolour,dotcolour,dotcolour,43,2,163,163,main,negativefb,-99,easy,16,0.6169962999999825,['n'],1,right,['1'],6,0.28589830000009897,,,,,,,,5,19,Vrouw,Rechts,2,
,dotcolour,dotcolour,dotcolour,44,2,164,164,main,negativefb,-99,average,55,0.8338341999999557,['c'],1,left,['1'],6,0.4418083000000479,,,,,,,,5,19,Vrouw,Rechts,2,
,dotcolour,dotcolour,dotcolour,45,2,165,165,main,negativefb,-99,average,51,1.2667301999999836,['c'],1,left,['2'],5,0.7345567999998366,,,,,,,,5,19,Vrouw,Rechts,2,
,dotcolour,dotcolour,dotcolour,46,2,166,166,main,negativefb,-99,hard,36,0.6001357000000098,['n'],1,right,['2'],5,0.4664053999999851,,,,,,,,5,19,Vrouw,Rechts,2,
,dotcolour,dotcolour,dotcolour,47,2,167,167,main,negativefb,-99,hard,36,1.084284099999877,['c'],0,right,['2'],5,0.48499179999998887,,,,,,,,5,19,Vrouw,Rechts,2,
,dotcolour,dotcolour,dotcolour,48,2,168,168,main,negativefb,-99,easy,18,0.9843831000000591,['n'],1,right,['1'],6,0.9392119999999977,,,,,,,,5,19,Vrouw,Rechts,2,
,dotcolour,dotcolour,dotcolour,49,2,169,169,main,negativefb,-99,average,52,1.349435000000085,['c'],1,left,['2'],5,0.4404488999998648,,,,,,,,5,19,Vrouw,Rechts,2,
,dotcolour,dotcolour,dotcolour,50,2,170,170,main,negativefb,-99,average,54,0.7335918000001129,['c'],1,left,['1'],6,0.3542376999998851,,,,,,,,5,19,Vrouw,Rechts,2,
,dotcolour,dotcolour,dotcolour,51,2,171,171,main,negativefb,-99,hard,37,0.7664683000000423,['n'],1,right,['2'],5,1.3186815999999908,,,,,,,,5,19,Vrouw,Rechts,2,
,dotcolour,dotcolour,dotcolour,52,2,172,172,main,negativefb,-99,average,29,0.6008198999998058,['n'],1,right,['2'],5,0.4181155999999646,,,,,,,,5,19,Vrouw,Rechts,2,
,dotcolour,dotcolour,dotcolour,53,2,173,173,main,negativefb,-99,easy,61,0.7492091000001437,['c'],1,left,['1'],6,0.38033690000020215,,,,,,,,5,19,Vrouw,Rechts,2,
,dotcolour,dotcolour,dotcolour,54,2,174,174,main,negativefb,-99,easy,17,0.5342365000001337,['n'],1,right,['1'],6,0.3531897000000299,,,,,,,,5,19,Vrouw,Rechts,2,
,dotcolour,dotcolour,dotcolour,55,2,175,175,main,negativefb,-99,average,26,0.7177401000001282,['n'],1,right,['2'],5,0.44717800000012176,,,,,,,,5,19,Vrouw,Rechts,2,
,dotcolour,dotcolour,dotcolour,56,2,176,176,main,negativefb,-99,average,53,0.6172578000000613,['c'],1,left,['1'],6,0.39862910000010743,,,,,,,,5,19,Vrouw,Rechts,2,
,dotcolour,dotcolour,dotcolour,57,2,177,177,main,negativefb,-99,hard,36,1.3164713999999549,['n'],1,right,['2'],5,0.37907220000010966,,,,,,,,5,19,Vrouw,Rechts,2,
,dotcolour,dotcolour,dotcolour,58,2,178,178,main,negativefb,-99,easy,18,0.8348945999998705,['n'],1,right,['1'],6,0.3230317999998533,,,,,,,,5,19,Vrouw,Rechts,2,
,dotcolour,dotcolour,dotcolour,59,2,179,179,main,negativefb,-99,easy,63,0.7176402999998572,['c'],1,left,['1'],6,0.3782476000001225,,,,,,,,5,19,Vrouw,Rechts,2,
,dotcolour,dotcolour,dotcolour,0,3,180,180,main,negativefb,-99,average,52,1.8338455999999042,['c'],1,left,['2'],5,0.9633759000000737,,,,,,,,5,19,Vrouw,Rechts,2,
,dotcolour,dotcolour,dotcolour,1,3,181,181,main,negativefb,-99,average,53,0.7004445000000032,['c'],1,left,['1'],6,0.3063525000000027,,,,,,,,5,19,Vrouw,Rechts,2,
,dotcolour,dotcolour,dotcolour,2,3,182,182,main,negativefb,-99,hard,37,1.6676422999998977,['c'],0,right,['2'],5,0.25247379999996156,,,,,,,,5,19,Vrouw,Rechts,2,
,dotcolour,dotcolour,dotcolour,3,3,183,183,main,negativefb,-99,average,53,0.68427470000006,['c'],1,left,['2'],5,0.7122352000001229,,,,,,,,5,19,Vrouw,Rechts,2,
,dotcolour,dotcolour,dotcolour,4,3,184,184,main,negativefb,-99,hard,42,0.9506631000001562,['n'],0,left,['1'],6,0.47869519999994736,,,,,,,,5,19,Vrouw,Rechts,2,
,dotcolour,dotcolour,dotcolour,5,3,185,185,main,negativefb,-99,average,53,0.7840092999999797,['c'],1,left,['1'],6,0.24569830000018555,,,,,,,,5,19,Vrouw,Rechts,2,
,dotcolour,dotcolour,dotcolour,6,3,186,186,main,negativefb,-99,easy,63,0.6015646000000743,['c'],1,left,['1'],6,0.34862589999988813,,,,,,,,5,19,Vrouw,Rechts,2,
,dotcolour,dotcolour,dotcolour,7,3,187,187,main,negativefb,-99,average,29,0.7003523000000769,['n'],1,right,['1'],6,0.22710150000011708,,,,,,,,5,19,Vrouw,Rechts,2,
,dotcolour,dotcolour,dotcolour,8,3,188,188,main,negativefb,-99,hard,35,1.5837960000001203,['c'],0,right,['3'],4,0.40411249999988286,,,,,,,,5,19,Vrouw,Rechts,2,
,dotcolour,dotcolour,dotcolour,9,3,189,189,main,negativefb,-99,hard,36,0.8009753000001183,['n'],1,right,['3'],4,0.3569950000000972,,,,,,,,5,19,Vrouw,Rechts,2,
,dotcolour,dotcolour,dotcolour,10,3,190,190,main,negativefb,-99,average,54,1.1008531999998468,['c'],1,left,['2'],5,1.1871452999998837,,,,,,,,5,19,Vrouw,Rechts,2,
,dotcolour,dotcolour,dotcolour,11,3,191,191,main,negativefb,-99,easy,64,0.6005570999998326,['c'],1,left,['1'],6,0.4293159999999716,,,,,,,,5,19,Vrouw,Rechts,2,
,dotcolour,dotcolour,dotcolour,12,3,192,192,main,negativefb,-99,easy,63,0.6179476999998315,['c'],1,left,['1'],6,0.4125692000000072,,,,,,,,5,19,Vrouw,Rechts,2,
,dotcolour,dotcolour,dotcolour,13,3,193,193,main,negativefb,-99,easy,63,0.7175357000000986,['c'],1,left,['1'],6,0.32083220000004076,,,,,,,,5,19,Vrouw,Rechts,2,
,dotcolour,dotcolour,dotcolour,14,3,194,194,main,negativefb,-99,easy,16,0.533884100000023,['n'],1,right,['1'],6,0.3271010999999362,,,,,,,,5,19,Vrouw,Rechts,2,
,dotcolour,dotcolour,dotcolour,15,3,195,195,main,negativefb,-99,hard,37,0.8179842999998073,['n'],1,right,['2'],5,0.2659800000001269,,,,,,,,5,19,Vrouw,Rechts,2,
,dotcolour,dotcolour,dotcolour,16,3,196,196,main,negativefb,-99,easy,64,0.8180081999998947,['c'],1,left,['1'],6,0.3596059999999852,,,,,,,,5,19,Vrouw,Rechts,2,
,dotcolour,dotcolour,dotcolour,17,3,197,197,main,negativefb,-99,hard,41,1.3839688999998998,['n'],0,left,['2'],5,0.2510389999999916,,,,,,,,5,19,Vrouw,Rechts,2,
,dotcolour,dotcolour,dotcolour,18,3,198,198,main,negativefb,-99,easy,18,0.5334676999998464,['n'],1,right,['2'],5,1.57236469999998,,,,,,,,5,19,Vrouw,Rechts,2,
,dotcolour,dotcolour,dotcolour,19,3,199,199,main,negativefb,-99,hard,39,1.0848579000000882,['n'],1,right,['2'],5,0.26720730000010917,,,,,,,,5,19,Vrouw,Rechts,2,
,dotcolour,dotcolour,dotcolour,20,3,200,200,main,negativefb,-99,average,26,0.6347013999998126,['n'],1,right,['1'],6,0.29629899999986264,,,,,,,,5,19,Vrouw,Rechts,2,
,dotcolour,dotcolour,dotcolour,21,3,201,201,main,negativefb,-99,hard,44,0.9841632999998637,['c'],1,left,['1'],6,0.3097402000000784,,,,,,,,5,19,Vrouw,Rechts,2,
,dotcolour,dotcolour,dotcolour,22,3,202,202,main,negativefb,-99,hard,37,0.9834733000000142,['n'],1,right,['2'],5,0.2591950999999426,,,,,,,,5,19,Vrouw,Rechts,2,
,dotcolour,dotcolour,dotcolour,23,3,203,203,main,negativefb,-99,easy,62,0.9001476000000821,['c'],1,left,['1'],6,0.30997819999993226,,,,,,,,5,19,Vrouw,Rechts,2,
,dotcolour,dotcolour,dotcolour,24,3,204,204,main,negativefb,-99,easy,19,1.3509723999998187,['n'],1,right,['1'],6,0.34037130000001525,,,,,,,,5,19,Vrouw,Rechts,2,
,dotcolour,dotcolour,dotcolour,25,3,205,205,main,negativefb,-99,easy,15,0.8344282999998995,['n'],1,right,['1'],6,0.32634379999990415,,,,,,,,5,19,Vrouw,Rechts,2,
,dotcolour,dotcolour,dotcolour,26,3,206,206,main,negativefb,-99,hard,45,1.134414500000048,['c'],1,left,['2'],5,1.0303686999998263,,,,,,,,5,19,Vrouw,Rechts,2,
,dotcolour,dotcolour,dotcolour,27,3,207,207,main,negativefb,-99,average,27,0.6512703999999303,['n'],1,right,['1'],6,0.28379100000006474,,,,,,,,5,19,Vrouw,Rechts,2,
,dotcolour,dotcolour,dotcolour,28,3,208,208,main,negativefb,-99,easy,19,0.5676452999998673,['n'],1,right,['1'],6,0.2981333000000177,,,,,,,,5,19,Vrouw,Rechts,2,
,dotcolour,dotcolour,dotcolour,29,3,209,209,main,negativefb,-99,easy,16,0.6166574000001219,['n'],1,right,['1'],6,0.2703883000001497,,,,,,,,5,19,Vrouw,Rechts,2,
,dotcolour,dotcolour,dotcolour,30,3,210,210,main,negativefb,-99,average,52,0.8170354000001225,['c'],1,left,['1'],6,0.29929730000003474,,,,,,,,5,19,Vrouw,Rechts,2,
,dotcolour,dotcolour,dotcolour,31,3,211,211,main,negativefb,-99,easy,18,0.6674442999999428,['n'],1,right,['1'],6,0.253496000000041,,,,,,,,5,19,Vrouw,Rechts,2,
,dotcolour,dotcolour,dotcolour,32,3,212,212,main,negativefb,-99,easy,63,0.8171386000001348,['c'],1,left,['1'],6,0.33262390000004416,,,,,,,,5,19,Vrouw,Rechts,2,
,dotcolour,dotcolour,dotcolour,33,3,213,213,main,negativefb,-99,hard,38,1.1000495999999202,['n'],1,right,['2'],5,0.17218039999988832,,,,,,,,5,19,Vrouw,Rechts,2,
,dotcolour,dotcolour,dotcolour,34,3,214,214,main,negativefb,-99,average,55,0.6844458999999006,['c'],1,left,['2'],5,0.42681710000010753,,,,,,,,5,19,Vrouw,Rechts,2,
,dotcolour,dotcolour,dotcolour,35,3,215,215,main,negativefb,-99,hard,35,0.6512803000000531,['n'],1,right,['2'],5,0.24835430000007364,,,,,,,,5,19,Vrouw,Rechts,2,
,dotcolour,dotcolour,dotcolour,36,3,216,216,main,negativefb,-99,hard,42,0.9007197999999335,['n'],0,left,['3'],4,0.6835711999999603,,,,,,,,5,19,Vrouw,Rechts,2,
,dotcolour,dotcolour,dotcolour,37,3,217,217,main,negativefb,-99,easy,16,0.76813130000005,['n'],1,right,['2'],5,0.23410750000016378,,,,,,,,5,19,Vrouw,Rechts,2,
,dotcolour,dotcolour,dotcolour,38,3,218,218,main,negativefb,-99,average,26,2.1333882000001267,['n'],1,right,['2'],5,1.1404240000001664,,,,,,,,5,19,Vrouw,Rechts,2,
,dotcolour,dotcolour,dotcolour,39,3,219,219,main,negativefb,-99,average,27,0.7000512000001891,['n'],1,right,['2'],5,0.4109204999999747,,,,,,,,5,19,Vrouw,Rechts,2,
,dotcolour,dotcolour,dotcolour,40,3,220,220,main,negativefb,-99,hard,44,1.5499653000001672,['n'],0,left,['3'],4,0.38235740000004625,,,,,,,,5,19,Vrouw,Rechts,2,
,dotcolour,dotcolour,dotcolour,41,3,221,221,main,negativefb,-99,average,25,0.9842971000000489,['n'],1,right,['1'],6,0.18315149999989444,,,,,,,,5,19,Vrouw,Rechts,2,
,dotcolour,dotcolour,dotcolour,42,3,222,222,main,negativefb,-99,easy,62,0.634213900000077,['c'],1,left,['1'],6,0.32067000000006374,,,,,,,,5,19,Vrouw,Rechts,2,
,dotcolour,dotcolour,dotcolour,43,3,223,223,main,negativefb,-99,easy,61,0.7350449999999,['c'],1,left,['1'],6,0.2386948000000757,,,,,,,,5,19,Vrouw,Rechts,2,
,dotcolour,dotcolour,dotcolour,44,3,224,224,main,negativefb,-99,average,26,0.9677220999999463,['n'],1,right,['1'],6,0.22361879999994017,,,,,,,,5,19,Vrouw,Rechts,2,
,dotcolour,dotcolour,dotcolour,45,3,225,225,main,negativefb,-99,hard,42,2.050984299999982,['c'],1,left,['3'],4,0.3822845999998208,,,,,,,,5,19,Vrouw,Rechts,2,
,dotcolour,dotcolour,dotcolour,46,3,226,226,main,negativefb,-99,hard,43,1.1187286000001677,['c'],1,left,['3'],4,0.7466729000000214,,,,,,,,5,19,Vrouw,Rechts,2,
,dotcolour,dotcolour,dotcolour,47,3,227,227,main,negativefb,-99,average,28,0.8504743000000872,['n'],1,right,['2'],5,0.4517922999998518,,,,,,,,5,19,Vrouw,Rechts,2,
,dotcolour,dotcolour,dotcolour,48,3,228,228,main,negativefb,-99,hard,42,0.9838977000001705,['c'],1,left,['2'],5,0.3470718000000943,,,,,,,,5,19,Vrouw,Rechts,2,
,dotcolour,dotcolour,dotcolour,49,3,229,229,main,negativefb,-99,average,52,0.5846116000000166,['c'],1,left,['2'],5,0.4720620999999028,,,,,,,,5,19,Vrouw,Rechts,2,
,dotcolour,dotcolour,dotcolour,50,3,230,230,main,negativefb,-99,easy,16,0.6844816000000264,['n'],1,right,['1'],6,0.2815150999999787,,,,,,,,5,19,Vrouw,Rechts,2,
,dotcolour,dotcolour,dotcolour,51,3,231,231,main,negativefb,-99,average,25,0.9505716999999549,['n'],1,right,['1'],6,0.28121409999994285,,,,,,,,5,19,Vrouw,Rechts,2,
,dotcolour,dotcolour,dotcolour,52,3,232,232,main,negativefb,-99,hard,36,1.3183888999999454,['n'],1,right,['3'],4,0.33076900000014575,,,,,,,,5,19,Vrouw,Rechts,2,
,dotcolour,dotcolour,dotcolour,53,3,233,233,main,negativefb,-99,average,25,0.6837037999998756,['n'],1,right,['1'],6,0.338850500000035,,,,,,,,5,19,Vrouw,Rechts,2,
,dotcolour,dotcolour,dotcolour,54,3,234,234,main,negativefb,-99,easy,15,0.5506226999998489,['n'],1,right,['1'],6,0.3928636999999071,,,,,,,,5,19,Vrouw,Rechts,2,
,dotcolour,dotcolour,dotcolour,55,3,235,235,main,negativefb,-99,average,55,0.7677516999999625,['c'],1,left,['1'],6,0.34671350000007806,,,,,,,,5,19,Vrouw,Rechts,2,
,dotcolour,dotcolour,dotcolour,56,3,236,236,main,negativefb,-99,hard,38,0.8337237000000641,['n'],1,right,['2'],5,0.33296709999990526,,,,,,,,5,19,Vrouw,Rechts,2,
,dotcolour,dotcolour,dotcolour,57,3,237,237,main,negativefb,-99,easy,62,0.7330215999998018,['c'],1,left,['1'],6,0.3147591999997985,,,,,,,,5,19,Vrouw,Rechts,2,
,dotcolour,dotcolour,dotcolour,58,3,238,238,main,negativefb,-99,average,53,0.701348199999984,['c'],1,left,['1'],6,0.3467909000000873,,,,,,,,5,19,Vrouw,Rechts,2,
,dotcolour,dotcolour,dotcolour,59,3,239,239,main,negativefb,-99,hard,41,0.6825430000001234,['n'],0,left,['2'],5,0.28400620000002164,,,,,,,,5,19,Vrouw,Rechts,2,
,dotcolour,dotcolour,dotcolour,0,4,240,240,main,negativefb,-99,average,25,1.1507034999999632,['n'],1,right,['2'],5,0.7789095000000543,,,,,,,,5,19,Vrouw,Rechts,2,
,dotcolour,dotcolour,dotcolour,1,4,241,241,main,negativefb,-99,hard,39,1.5499967000000652,['c'],0,right,['3'],4,0.3192344999999932,,,,,,,,5,19,Vrouw,Rechts,2,
,dotcolour,dotcolour,dotcolour,2,4,242,242,main,negativefb,-99,easy,15,0.4682081000000835,['n'],1,right,['1'],6,0.3440860000000612,,,,,,,,5,19,Vrouw,Rechts,2,
,dotcolour,dotcolour,dotcolour,3,4,243,243,main,negativefb,-99,easy,15,0.7173460999999861,['n'],1,right,['1'],6,0.27920610000001034,,,,,,,,5,19,Vrouw,Rechts,2,
,dotcolour,dotcolour,dotcolour,4,4,244,244,main,negativefb,-99,hard,36,0.9678251999998793,['c'],0,right,['2'],5,0.42222079999987727,,,,,,,,5,19,Vrouw,Rechts,2,
,dotcolour,dotcolour,dotcolour,5,4,245,245,main,negativefb,-99,average,52,0.6662999000000127,['c'],1,left,['2'],5,0.38050299999986237,,,,,,,,5,19,Vrouw,Rechts,2,
,dotcolour,dotcolour,dotcolour,6,4,246,246,main,negativefb,-99,easy,63,0.5498585999998795,['c'],1,left,['1'],6,0.34351730000003045,,,,,,,,5,19,Vrouw,Rechts,2,
,dotcolour,dotcolour,dotcolour,7,4,247,247,main,negativefb,-99,easy,16,0.5828466999998909,['n'],1,right,['1'],6,0.27630679999992935,,,,,,,,5,19,Vrouw,Rechts,2,
,dotcolour,dotcolour,dotcolour,8,4,248,248,main,negativefb,-99,easy,15,0.5001896999999644,['n'],1,right,['1'],6,0.26210290000017267,,,,,,,,5,19,Vrouw,Rechts,2,
,dotcolour,dotcolour,dotcolour,9,4,249,249,main,negativefb,-99,average,55,1.334883600000012,['c'],1,left,['2'],5,1.1838430999998764,,,,,,,,5,19,Vrouw,Rechts,2,
,dotcolour,dotcolour,dotcolour,10,4,250,250,main,negativefb,-99,easy,19,0.5843973999999434,['n'],1,right,['1'],6,0.32173360000001594,,,,,,,,5,19,Vrouw,Rechts,2,
,dotcolour,dotcolour,dotcolour,11,4,251,251,main,negativefb,-99,hard,45,1.8843591999998353,['c'],1,left,['2'],5,0.6507888999999523,,,,,,,,5,19,Vrouw,Rechts,2,
,dotcolour,dotcolour,dotcolour,12,4,252,252,main,negativefb,-99,hard,35,0.5670603999999457,['n'],1,right,['2'],5,1.0183328000000529,,,,,,,,5,19,Vrouw,Rechts,2,
,dotcolour,dotcolour,dotcolour,13,4,253,253,main,negativefb,-99,easy,65,0.6846737999999277,['c'],1,left,['1'],6,0.2939982999998847,,,,,,,,5,19,Vrouw,Rechts,2,
,dotcolour,dotcolour,dotcolour,14,4,254,254,main,negativefb,-99,hard,35,0.8675044999999955,['n'],1,right,['2'],5,0.21723969999993642,,,,,,,,5,19,Vrouw,Rechts,2,
,dotcolour,dotcolour,dotcolour,15,4,255,255,main,negativefb,-99,hard,44,1.2173927999999705,['c'],1,left,['3'],4,0.5291279000000486,,,,,,,,5,19,Vrouw,Rechts,2,
,dotcolour,dotcolour,dotcolour,16,4,256,256,main,negativefb,-99,easy,61,0.8338541999999052,['c'],1,left,['2'],5,0.3715916000001016,,,,,,,,5,19,Vrouw,Rechts,2,
,dotcolour,dotcolour,dotcolour,17,4,257,257,main,negativefb,-99,easy,65,0.5180778999999802,['c'],1,left,['1'],6,0.32052340000018376,,,,,,,,5,19,Vrouw,Rechts,2,
,dotcolour,dotcolour,dotcolour,18,4,258,258,main,negativefb,-99,hard,36,1.1337833999998566,['n'],1,right,['2'],5,0.367562800000087,,,,,,,,5,19,Vrouw,Rechts,2,
,dotcolour,dotcolour,dotcolour,19,4,259,259,main,negativefb,-99,easy,17,1.5682612000000518,['n'],1,right,['1'],6,1.2590193000000909,,,,,,,,5,19,Vrouw,Rechts,2,
,dotcolour,dotcolour,dotcolour,20,4,260,260,main,negativefb,-99,average,54,1.018962499999816,['c'],1,left,['2'],5,1.3296614999999292,,,,,,,,5,19,Vrouw,Rechts,2,
,dotcolour,dotcolour,dotcolour,21,4,261,261,main,negativefb,-99,hard,41,1.4510883000000376,['n'],0,left,['2'],5,0.41911609999988286,,,,,,,,5,19,Vrouw,Rechts,2,
,dotcolour,dotcolour,dotcolour,22,4,262,262,main,negativefb,-99,hard,35,0.884202200000118,['n'],1,right,['3'],4,0.5523322999999891,,,,,,,,5,19,Vrouw,Rechts,2,
,dotcolour,dotcolour,dotcolour,23,4,263,263,main,negativefb,-99,average,27,0.7170845000000554,['n'],1,right,['1'],6,0.2781423999999788,,,,,,,,5,19,Vrouw,Rechts,2,
,dotcolour,dotcolour,dotcolour,24,4,264,264,main,negativefb,-99,average,53,0.8841001999999207,['c'],1,left,['1'],6,0.2813519000001179,,,,,,,,5,19,Vrouw,Rechts,2,
,dotcolour,dotcolour,dotcolour,25,4,265,265,main,negativefb,-99,average,26,0.6343216999998731,['n'],1,right,['1'],6,0.22899599999982456,,,,,,,,5,19,Vrouw,Rechts,2,
,dotcolour,dotcolour,dotcolour,26,4,266,266,main,negativefb,-99,average,25,0.6836480999998003,['n'],1,right,['1'],6,0.2338383999999678,,,,,,,,5,19,Vrouw,Rechts,2,
,dotcolour,dotcolour,dotcolour,27,4,267,267,main,negativefb,-99,easy,61,0.8849189000000024,['c'],1,left,['1'],6,0.3506889999998748,,,,,,,,5,19,Vrouw,Rechts,2,
,dotcolour,dotcolour,dotcolour,28,4,268,268,main,negativefb,-99,easy,15,0.7837245999999141,['n'],1,right,['1'],6,0.20142600000008315,,,,,,,,5,19,Vrouw,Rechts,2,
,dotcolour,dotcolour,dotcolour,29,4,269,269,main,negativefb,-99,hard,42,1.899954600000001,['c'],1,left,['3'],4,0.38253580000014153,,,,,,,,5,19,Vrouw,Rechts,2,
,dotcolour,dotcolour,dotcolour,30,4,270,270,main,negativefb,-99,average,29,0.8836702000000969,['n'],1,right,['2'],5,0.5328225000000657,,,,,,,,5,19,Vrouw,Rechts,2,
,dotcolour,dotcolour,dotcolour,31,4,271,271,main,negativefb,-99,hard,35,1.8836052999999993,['c'],0,right,['2'],5,0.8450466999997843,,,,,,,,5,19,Vrouw,Rechts,2,
,dotcolour,dotcolour,dotcolour,32,4,272,272,main,negativefb,-99,average,29,0.832912800000031,['n'],1,right,['2'],5,0.3143989000000147,,,,,,,,5,19,Vrouw,Rechts,2,
,dotcolour,dotcolour,dotcolour,33,4,273,273,main,negativefb,-99,hard,39,1.731755000000021,['n'],1,right,['3'],4,0.4182327000000896,,,,,,,,5,19,Vrouw,Rechts,2,
,dotcolour,dotcolour,dotcolour,34,4,274,274,main,negativefb,-99,easy,63,0.7846395999999913,['c'],1,left,['1'],6,0.4192267000000811,,,,,,,,5,19,Vrouw,Rechts,2,
,dotcolour,dotcolour,dotcolour,35,4,275,275,main,negativefb,-99,easy,63,0.5679975999998987,['c'],1,left,['1'],6,0.3723847000001115,,,,,,,,5,19,Vrouw,Rechts,2,
,dotcolour,dotcolour,dotcolour,36,4,276,276,main,negativefb,-99,hard,44,0.8492155999999795,['n'],0,left,['2'],5,0.5163711000000148,,,,,,,,5,19,Vrouw,Rechts,2,
,dotcolour,dotcolour,dotcolour,37,4,277,277,main,negativefb,-99,average,51,0.7335877999998957,['c'],1,left,['2'],5,0.4426080999999158,,,,,,,,5,19,Vrouw,Rechts,2,
,dotcolour,dotcolour,dotcolour,38,4,278,278,main,negativefb,-99,average,29,0.6512010999999802,['n'],1,right,['1'],6,0.2720220999999583,,,,,,,,5,19,Vrouw,Rechts,2,
,dotcolour,dotcolour,dotcolour,39,4,279,279,main,negativefb,-99,hard,43,1.9671512999998413,['c'],1,left,['3'],4,0.39184579999982816,,,,,,,,5,19,Vrouw,Rechts,2,
,dotcolour,dotcolour,dotcolour,40,4,280,280,main,negativefb,-99,hard,44,4.166481599999997,['c'],1,left,['2'],5,0.5223932999999761,,,,,,,,5,19,Vrouw,Rechts,2,
,dotcolour,dotcolour,dotcolour,41,4,281,281,main,negativefb,-99,easy,19,0.7503856999999243,['n'],1,right,['1'],6,0.25638180000009925,,,,,,,,5,19,Vrouw,Rechts,2,
,dotcolour,dotcolour,dotcolour,42,4,282,282,main,negativefb,-99,average,53,0.6999146999999084,['c'],1,left,['1'],6,0.3075765000000956,,,,,,,,5,19,Vrouw,Rechts,2,
,dotcolour,dotcolour,dotcolour,43,4,283,283,main,negativefb,-99,hard,35,0.6669640000000072,['n'],1,right,['1'],6,0.5011580999998841,,,,,,,,5,19,Vrouw,Rechts,2,
,dotcolour,dotcolour,dotcolour,44,4,284,284,main,negativefb,-99,average,25,0.6842022999999244,['n'],1,right,['2'],5,0.6709914999999,,,,,,,,5,19,Vrouw,Rechts,2,
,dotcolour,dotcolour,dotcolour,45,4,285,285,main,negativefb,-99,average,27,0.5516867000001184,['n'],1,right,['1'],6,0.29501520000007986,,,,,,,,5,19,Vrouw,Rechts,2,
,dotcolour,dotcolour,dotcolour,46,4,286,286,main,negativefb,-99,hard,37,0.9669710000000578,['n'],1,right,['2'],5,0.41354480000018157,,,,,,,,5,19,Vrouw,Rechts,2,
,dotcolour,dotcolour,dotcolour,47,4,287,287,main,negativefb,-99,average,54,1.8842898000000332,['n'],0,left,['2'],5,0.38718010000002323,,,,,,,,5,19,Vrouw,Rechts,2,
,dotcolour,dotcolour,dotcolour,48,4,288,288,main,negativefb,-99,hard,43,0.6509763999999905,['n'],0,left,['3'],4,1.699009100000012,,,,,,,,5,19,Vrouw,Rechts,2,
,dotcolour,dotcolour,dotcolour,49,4,289,289,main,negativefb,-99,easy,62,0.6500561999998808,['c'],1,left,['1'],6,0.2772324000000026,,,,,,,,5,19,Vrouw,Rechts,2,
,dotcolour,dotcolour,dotcolour,50,4,290,290,main,negativefb,-99,hard,42,1.4008429000000433,['c'],1,left,['3'],4,0.3149120000000494,,,,,,,,5,19,Vrouw,Rechts,2,
,dotcolour,dotcolour,dotcolour,51,4,291,291,main,negativefb,-99,easy,17,0.5665172999999868,['n'],1,right,['1'],6,0.27254210000000967,,,,,,,,5,19,Vrouw,Rechts,2,
,dotcolour,dotcolour,dotcolour,52,4,292,292,main,negativefb,-99,easy,16,0.6503889999999046,['n'],1,right,['1'],6,0.261214199999813,,,,,,,,5,19,Vrouw,Rechts,2,
,dotcolour,dotcolour,dotcolour,53,4,293,293,main,negativefb,-99,average,28,1.1667175000000043,['n'],1,right,['2'],5,0.5652136000001065,,,,,,,,5,19,Vrouw,Rechts,2,
,dotcolour,dotcolour,dotcolour,54,4,294,294,main,negativefb,-99,average,53,0.7003468999998859,['c'],1,left,['1'],6,0.38770260000001144,,,,,,,,5,19,Vrouw,Rechts,2,
,dotcolour,dotcolour,dotcolour,55,4,295,295,main,negativefb,-99,easy,64,0.7175211999999647,['c'],1,left,['1'],6,0.34347569999999905,,,,,,,,5,19,Vrouw,Rechts,2,
,dotcolour,dotcolour,dotcolour,56,4,296,296,main,negativefb,-99,hard,44,1.4176371000000927,['c'],1,left,['3'],4,0.4107484999999542,,,,,,,,5,19,Vrouw,Rechts,2,
,dotcolour,dotcolour,dotcolour,57,4,297,297,main,negativefb,-99,average,51,0.7844067000000905,['c'],1,left,['3'],4,0.3083106999999927,,,,,,,,5,19,Vrouw,Rechts,2,
,dotcolour,dotcolour,dotcolour,58,4,298,298,main,negativefb,-99,average,55,0.6000759000000926,['c'],1,left,['2'],5,0.2570757999999387,,,,,,,,5,19,Vrouw,Rechts,2,
,dotcolour,dotcolour,dotcolour,59,4,299,299,main,negativefb,-99,easy,64,0.4334985999998935,['c'],1,left,['2'],5,0.4387931999999637,,,,,,,,5,19,Vrouw,Rechts,2,
,dotcolour,dotcolour,dotcolour,0,0,0,300,training,negativefb,48,easy,64,0.7669917999999143,['c'],1,left,['1'],6,0.4469172999999955,,,,,,,,5,19,Vrouw,Rechts,2,
,dotcolour,dotcolour,dotcolour,1,0,1,301,training,negativefb,38,hard,44,0.9506459000001541,['n'],0,left,['2'],5,0.3041699999998855,,,,,,,,5,19,Vrouw,Rechts,2,
,dotcolour,dotcolour,dotcolour,2,0,2,302,training,negativefb,84,average,52,1.3820563000001584,['c'],1,left,['3'],4,0.4195020000001932,,,,,,,,5,19,Vrouw,Rechts,2,
,dotcolour,dotcolour,dotcolour,3,0,3,303,training,negativefb,92,average,55,0.7003405000000384,['c'],1,left,['2'],5,0.3673829999997906,,,,,,,,5,19,Vrouw,Rechts,2,
,dotcolour,dotcolour,dotcolour,4,0,4,304,training,negativefb,93,easy,65,0.6830870000001141,['c'],1,left,['2'],5,0.3412894000000506,,,,,,,,5,19,Vrouw,Rechts,2,
,dotcolour,dotcolour,dotcolour,5,0,5,305,training,negativefb,89,hard,44,0.6669715999998971,['c'],1,left,['2'],5,0.3414652000001297,,,,,,,,5,19,Vrouw,Rechts,2,
,dotcolour,dotcolour,dotcolour,6,0,6,306,training,negativefb,75,average,25,1.1653393999999935,['n'],1,right,['2'],5,0.24159469999995054,,,,,,,,5,19,Vrouw,Rechts,2,
,dotcolour,dotcolour,dotcolour,7,0,7,307,training,negativefb,35,hard,42,1.0179198000000724,['n'],0,left,['2'],5,0.16012309999996432,,,,,,,,5,19,Vrouw,Rechts,2,
,dotcolour,dotcolour,dotcolour,8,0,8,308,training,negativefb,43,hard,45,0.9004420000001119,['c'],1,left,['3'],4,0.37338199999999233,,,,,,,,5,19,Vrouw,Rechts,2,
,dotcolour,dotcolour,dotcolour,9,0,9,309,training,negativefb,53,hard,44,1.0835888999999952,['n'],0,left,['3'],4,0.36456699999985176,,,,,,,,5,19,Vrouw,Rechts,2,
,dotcolour,dotcolour,dotcolour,10,0,10,310,training,negativefb,51,easy,63,0.8330069999999523,['c'],1,left,['2'],5,0.5738407999999708,,,,,,,,5,19,Vrouw,Rechts,2,
,dotcolour,dotcolour,dotcolour,11,0,11,311,training,negativefb,42,hard,42,0.9821667000001071,['n'],0,left,['3'],4,0.49585320000005595,,,,,,,,5,19,Vrouw,Rechts,2,
,dotcolour,dotcolour,dotcolour,12,0,12,312,training,negativefb,26,hard,42,1.734175999999934,['n'],0,left,['2'],5,0.5978947999999491,,,,,,,,5,19,Vrouw,Rechts,2,
,dotcolour,dotcolour,dotcolour,13,0,13,313,training,negativefb,77,easy,64,0.7509061999999176,['c'],1,left,['1'],6,0.34528709999995044,,,,,,,,5,19,Vrouw,Rechts,2,
,dotcolour,dotcolour,dotcolour,14,0,14,314,training,negativefb,30,hard,39,2.53447489999985,['c'],0,right,['3'],4,0.4388647000000674,,,,,,,,5,19,Vrouw,Rechts,2,
,dotcolour,dotcolour,dotcolour,15,0,15,315,training,negativefb,84,easy,16,0.7493233000000146,['n'],1,right,['1'],6,0.22342309999999088,,,,,,,,5,19,Vrouw,Rechts,2,
,dotcolour,dotcolour,dotcolour,16,0,16,316,training,negativefb,19,easy,61,0.6658471000000645,['c'],1,left,['1'],6,0.3406291000001147,,,,,,,,5,19,Vrouw,Rechts,2,
,dotcolour,dotcolour,dotcolour,17,0,17,317,training,negativefb,56,easy,18,0.7994611999999961,['n'],1,right,['1'],6,0.15837859999987813,,,,,,,,5,19,Vrouw,Rechts,2,
,dotcolour,dotcolour,dotcolour,18,0,18,318,training,negativefb,36,hard,45,1.201110700000072,['c'],1,left,['3'],4,0.4254763000001276,,,,,,,,5,19,Vrouw,Rechts,2,
,dotcolour,dotcolour,dotcolour,19,0,19,319,training,negativefb,46,average,55,0.7839598000000478,['c'],1,left,['2'],5,0.3449690999998438,,,,,,,,5,19,Vrouw,Rechts,2,
,dotcolour,dotcolour,dotcolour,20,0,20,320,training,negativefb,55,average,26,0.682662000000164,['n'],1,right,['1'],6,0.20045759999993606,,,,,,,,5,19,Vrouw,Rechts,2,
,dotcolour,dotcolour,dotcolour,21,0,21,321,training,negativefb,26,easy,65,0.7664365000000544,['c'],1,left,['1'],6,0.31333040000004075,,,,,,,,5,19,Vrouw,Rechts,2,
,dotcolour,dotcolour,dotcolour,22,0,22,322,training,negativefb,52,hard,38,0.9663064999999733,['n'],1,right,['2'],5,1.1112332000000151,,,,,,,,5,19,Vrouw,Rechts,2,
,dotcolour,dotcolour,dotcolour,23,0,23,323,training,negativefb,83,average,54,0.582814800000051,['c'],1,left,['2'],5,0.37201870000012605,,,,,,,,5,19,Vrouw,Rechts,2,
,dotcolour,dotcolour,dotcolour,24,0,24,324,training,negativefb,49,average,29,0.7503802999999607,['n'],1,right,['2'],5,0.7999958999998853,,,,,,,,5,19,Vrouw,Rechts,2,
,dotcolour,dotcolour,dotcolour,25,0,25,325,training,negativefb,60,easy,63,0.9334736999999222,['c'],1,left,['1'],6,0.43436620000011317,,,,,,,,5,19,Vrouw,Rechts,2,
,dotcolour,dotcolour,dotcolour,26,0,26,326,training,negativefb,67,average,54,1.332860799999935,['c'],1,left,['1'],6,0.3799957999999606,,,,,,,,5,19,Vrouw,Rechts,2,
,dotcolour,dotcolour,dotcolour,27,0,27,327,training,negativefb,92,average,52,0.6322916000001442,['c'],1,left,['2'],5,0.36385070000005726,,,,,,,,5,19,Vrouw,Rechts,2,
,dotcolour,dotcolour,dotcolour,28,0,28,328,training,negativefb,68,average,27,0.8152758999999605,['n'],1,right,['2'],5,0.7491241000000173,,,,,,,,5,19,Vrouw,Rechts,2,
,dotcolour,dotcolour,dotcolour,29,0,29,329,training,negativefb,71,average,55,1.3158733000000211,['c'],1,left,['2'],5,1.4350047999998878,,,,,,,,5,19,Vrouw,Rechts,2,
,dotcolour,dotcolour,dotcolour,30,0,30,330,training,negativefb,53,average,28,0.9994976000000406,['n'],1,right,['2'],5,1.2896190999999817,,,,,,,,5,19,Vrouw,Rechts,2,
,dotcolour,dotcolour,dotcolour,31,0,31,331,training,negativefb,42,hard,37,0.9842634999999973,['n'],1,right,['2'],5,0.39819630000010875,,,,,,,,5,19,Vrouw,Rechts,2,
,dotcolour,dotcolour,dotcolour,32,0,32,332,training,negativefb,11,hard,41,1.7995308000001842,['n'],0,left,['2'],5,0.4709664000001794,,,,,,,,5,19,Vrouw,Rechts,2,
,dotcolour,dotcolour,dotcolour,33,0,33,333,training,negativefb,86,easy,16,0.9503772000000481,['n'],1,right,['2'],5,0.5659705999999005,,,,,,,,5,19,Vrouw,Rechts,2,
,dotcolour,dotcolour,dotcolour,34,0,34,334,training,negativefb,99,easy,18,1.667726299999913,['n'],1,right,['2'],5,2.9090797999999722,,,,,,,,5,19,Vrouw,Rechts,2,
,dotcolour,dotcolour,dotcolour,35,0,35,335,training,negativefb,56,easy,15,0.8169788000000153,['n'],1,right,['2'],5,0.3281590999999935,,,,,,,,5,19,Vrouw,Rechts,2,
,dotcolour,dotcolour,dotcolour,36,0,36,336,training,negativefb,86,average,55,0.7833392999998523,['c'],1,left,['1'],6,0.684623800000054,,,,,,,,5,19,Vrouw,Rechts,2,
,dotcolour,dotcolour,dotcolour,37,0,37,337,training,negativefb,72,average,54,1.1659325999999055,['c'],1,left,['2'],5,0.410193000000163,,,,,,,,5,19,Vrouw,Rechts,2,
,dotcolour,dotcolour,dotcolour,38,0,38,338,training,negativefb,72,hard,37,1.4001765000000432,['n'],1,right,['2'],5,0.2822111999998924,,,,,,,,5,19,Vrouw,Rechts,2,
,dotcolour,dotcolour,dotcolour,39,0,39,339,training,negativefb,65,hard,35,0.7002929999998742,['n'],1,right,['2'],5,0.27523599999994985,,,,,,,,5,19,Vrouw,Rechts,2,
,dotcolour,dotcolour,dotcolour,40,0,40,340,training,negativefb,37,average,28,0.7329326999999921,['n'],1,right,['2'],5,0.33892900000000736,,,,,,,,5,19,Vrouw,Rechts,2,
,dotcolour,dotcolour,dotcolour,41,0,41,341,training,negativefb,72,hard,36,0.7988010999999915,['n'],1,right,['2'],5,0.325918799999954,,,,,,,,5,19,Vrouw,Rechts,2,
,dotcolour,dotcolour,dotcolour,42,0,42,342,training,negativefb,51,hard,36,0.8831331999999747,['n'],1,right,['2'],5,0.23795600000016748,,,,,,,,5,19,Vrouw,Rechts,2,
,dotcolour,dotcolour,dotcolour,43,0,43,343,training,negativefb,95,hard,41,0.8001835000000028,['c'],1,left,['3'],4,0.5402533999999832,,,,,,,,5,19,Vrouw,Rechts,2,
,dotcolour,dotcolour,dotcolour,44,0,44,344,training,negativefb,70,average,53,4.2329358000001776,['c'],1,left,['3'],4,0.5977454999999736,,,,,,,,5,19,Vrouw,Rechts,2,
,dotcolour,dotcolour,dotcolour,45,0,45,345,training,negativefb,81,average,29,0.899699099999907,['n'],1,right,['2'],5,0.4113495999999941,,,,,,,,5,19,Vrouw,Rechts,2,
,dotcolour,dotcolour,dotcolour,46,0,46,346,training,negativefb,35,easy,16,0.5828993999998602,['n'],1,right,['2'],5,0.3151589999999942,,,,,,,,5,19,Vrouw,Rechts,2,
,dotcolour,dotcolour,dotcolour,47,0,47,347,training,negativefb,88,easy,62,0.7005827000000409,['c'],1,left,['2'],5,0.44268529999999373,,,,,,,,5,19,Vrouw,Rechts,2,
,dotcolour,dotcolour,dotcolour,48,0,48,348,training,negativefb,82,average,26,0.8503714000000855,['n'],1,right,['2'],5,0.3517906000001858,,,,,,,,5,19,Vrouw,Rechts,2,
,dotcolour,dotcolour,dotcolour,49,0,49,349,training,negativefb,86,easy,17,0.6992956999999933,['n'],1,right,['2'],5,0.2292598999999882,,,,,,,,5,19,Vrouw,Rechts,2,
,dotcolour,dotcolour,dotcolour,50,0,50,350,training,negativefb,73,hard,38,1.2006194000000505,['n'],1,right,['3'],4,0.662041299999828,,,,,,,,5,19,Vrouw,Rechts,2,
,dotcolour,dotcolour,dotcolour,51,0,51,351,training,negativefb,89,easy,15,0.48426870000002964,['n'],1,right,['2'],5,0.23179800000002615,,,,,,,,5,19,Vrouw,Rechts,2,
,dotcolour,dotcolour,dotcolour,52,0,52,352,training,negativefb,85,easy,18,0.9001631000000998,['n'],1,right,['2'],5,0.1869536000001517,,,,,,,,5,19,Vrouw,Rechts,2,
,dotcolour,dotcolour,dotcolour,53,0,53,353,training,negativefb,33,easy,64,0.8991751000000932,['c'],1,left,['1'],6,0.32748849999984486,,,,,,,,5,19,Vrouw,Rechts,2,
,dotcolour,dotcolour,dotcolour,54,0,54,354,training,negativefb,65,easy,65,0.5656751999999869,['c'],1,left,['1'],6,0.26769689999991897,,,,,,,,5,19,Vrouw,Rechts,2,
,dotcolour,dotcolour,dotcolour,55,0,55,355,training,negativefb,79,hard,36,0.8016493000000082,['n'],1,right,['3'],4,0.45769289999998364,,,,,,,,5,19,Vrouw,Rechts,2,
,dotcolour,dotcolour,dotcolour,56,0,56,356,training,negativefb,92,average,26,0.6680309000000761,['n'],1,right,['2'],5,0.35725350000006983,,,,,,,,5,19,Vrouw,Rechts,2,
,dotcolour,dotcolour,dotcolour,57,0,57,357,training,negativefb,61,hard,37,0.9989850000001752,['n'],1,right,['2'],5,1.1032700999999179,,,,,,,,5,19,Vrouw,Rechts,2,
,dotcolour,dotcolour,dotcolour,58,0,58,358,training,negativefb,94,easy,15,0.650451799999928,['n'],1,right,['2'],5,1.0329517999998643,,,,,,,,5,19,Vrouw,Rechts,2,
,dotcolour,dotcolour,dotcolour,59,0,59,359,training,negativefb,59,average,28,1.0835805000001528,['n'],1,right,['2'],5,0.18890209999995022,,,,,,,,5,19,Vrouw,Rechts,2,
,dotcolour,dotcolour,dotcolour,0,1,60,360,training,negativefb,41,hard,42,3.1174409000000196,['n'],0,left,['3'],4,0.37726710000015373,,,,,,,,5,19,Vrouw,Rechts,2,
,dotcolour,dotcolour,dotcolour,1,1,61,361,training,negativefb,89,easy,17,0.9001072999999451,['n'],1,right,['2'],5,0.4376416000000063,,,,,,,,5,19,Vrouw,Rechts,2,
,dotcolour,dotcolour,dotcolour,2,1,62,362,training,negativefb,81,easy,63,0.7496247000003677,['c'],1,left,['1'],6,0.7113681000000724,,,,,,,,5,19,Vrouw,Rechts,2,
,dotcolour,dotcolour,dotcolour,3,1,63,363,training,negativefb,31,easy,63,0.49983030000021245,['c'],1,left,['1'],6,0.31822799999963536,,,,,,,,5,19,Vrouw,Rechts,2,
,dotcolour,dotcolour,dotcolour,4,1,64,364,training,negativefb,74,average,54,1.1319902999998703,['n'],0,left,['3'],4,0.213097999999718,,,,,,,,5,19,Vrouw,Rechts,2,
,dotcolour,dotcolour,dotcolour,5,1,65,365,training,negativefb,48,hard,35,0.6324635999999373,['n'],1,right,['2'],5,0.37150670000028185,,,,,,,,5,19,Vrouw,Rechts,2,
,dotcolour,dotcolour,dotcolour,6,1,66,366,training,negativefb,88,average,28,0.7155620000003182,['n'],1,right,['2'],5,0.31989009999961127,,,,,,,,5,19,Vrouw,Rechts,2,
,dotcolour,dotcolour,dotcolour,7,1,67,367,training,negativefb,88,average,51,0.8166156000002047,['c'],1,left,['1'],6,0.3638206000000537,,,,,,,,5,19,Vrouw,Rechts,2,
,dotcolour,dotcolour,dotcolour,8,1,68,368,training,negativefb,73,average,51,0.9823235999997451,['c'],1,left,['2'],5,0.32627869999987524,,,,,,,,5,19,Vrouw,Rechts,2,
,dotcolour,dotcolour,dotcolour,9,1,69,369,training,negativefb,61,hard,38,0.8667491999999584,['n'],1,right,['2'],5,0.46359350000011545,,,,,,,,5,19,Vrouw,Rechts,2,
,dotcolour,dotcolour,dotcolour,10,1,70,370,training,negativefb,22,hard,42,0.8994210000000749,['n'],0,left,['2'],5,1.105259699999806,,,,,,,,5,19,Vrouw,Rechts,2,
,dotcolour,dotcolour,dotcolour,11,1,71,371,training,negativefb,86,hard,42,1.3836672000002181,['n'],0,left,['3'],4,0.6304236999999375,,,,,,,,5,19,Vrouw,Rechts,2,
,dotcolour,dotcolour,dotcolour,12,1,72,372,training,negativefb,88,hard,42,1.2324155000001156,['c'],1,left,['3'],4,0.4360082000002876,,,,,,,,5,19,Vrouw,Rechts,2,
,dotcolour,dotcolour,dotcolour,13,1,73,373,training,negativefb,85,easy,61,0.6684457999999722,['c'],1,left,['2'],5,0.4477902000003269,,,,,,,,5,19,Vrouw,Rechts,2,
,dotcolour,dotcolour,dotcolour,14,1,74,374,training,negativefb,67,average,26,0.7996386999998322,['n'],1,right,['2'],5,0.33444809999991776,,,,,,,,5,19,Vrouw,Rechts,2,
,dotcolour,dotcolour,dotcolour,15,1,75,375,training,negativefb,47,easy,61,0.9851121000001513,['c'],1,left,['2'],5,0.45797929999980624,,,,,,,,5,19,Vrouw,Rechts,2,
,dotcolour,dotcolour,dotcolour,16,1,76,376,training,negativefb,70,hard,44,1.2345608000000539,['n'],0,left,['3'],4,0.2780674000000545,,,,,,,,5,19,Vrouw,Rechts,2,
,dotcolour,dotcolour,dotcolour,17,1,77,377,training,negativefb,85,average,28,0.6997027000002163,['n'],1,right,['3'],4,0.24771629999986544,,,,,,,,5,19,Vrouw,Rechts,2,
,dotcolour,dotcolour,dotcolour,18,1,78,378,training,negativefb,56,average,51,0.9327459999999519,['c'],1,left,['3'],4,0.5615371999997478,,,,,,,,5,19,Vrouw,Rechts,2,
,dotcolour,dotcolour,dotcolour,19,1,79,379,training,negativefb,76,easy,18,1.0322556999999506,['n'],1,right,['2'],5,0.922584100000222,,,,,,,,5,19,Vrouw,Rechts,2,
,dotcolour,dotcolour,dotcolour,20,1,80,380,training,negativefb,76,average,29,2.3991605999999592,['n'],1,right,['2'],5,0.3896813999999722,,,,,,,,5,19,Vrouw,Rechts,2,
,dotcolour,dotcolour,dotcolour,21,1,81,381,training,negativefb,90,easy,18,0.6672957999999198,['n'],1,right,['1'],6,0.46789480000006733,,,,,,,,5,19,Vrouw,Rechts,2,
,dotcolour,dotcolour,dotcolour,22,1,82,382,training,negativefb,73,easy,65,0.849992100000236,['c'],1,left,['1'],6,0.44742349999978615,,,,,,,,5,19,Vrouw,Rechts,2,
,dotcolour,dotcolour,dotcolour,23,1,83,383,training,negativefb,59,hard,43,1.482931799999733,['c'],1,left,['1'],6,0.3154233000000204,,,,,,,,5,19,Vrouw,Rechts,2,
,dotcolour,dotcolour,dotcolour,24,1,84,384,training,negativefb,83,average,29,0.6667200000001685,['n'],1,right,['2'],5,0.2040646000000379,,,,,,,,5,19,Vrouw,Rechts,2,
,dotcolour,dotcolour,dotcolour,25,1,85,385,training,negativefb,82,average,28,0.6500154999998813,['n'],1,right,['2'],5,0.34585310000011305,,,,,,,,5,19,Vrouw,Rechts,2,
,dotcolour,dotcolour,dotcolour,26,1,86,386,training,negativefb,79,hard,43,0.9668799000000945,['n'],0,left,['2'],5,0.31063369999992574,,,,,,,,5,19,Vrouw,Rechts,2,
,dotcolour,dotcolour,dotcolour,27,1,87,387,training,negativefb,78,average,51,1.0327861000000667,['c'],1,left,['2'],5,0.7455182999997305,,,,,,,,5,19,Vrouw,Rechts,2,
,dotcolour,dotcolour,dotcolour,28,1,88,388,training,negativefb,89,easy,62,0.8508443000000625,['c'],1,left,['1'],6,0.2892442999996092,,,,,,,,5,19,Vrouw,Rechts,2,
,dotcolour,dotcolour,dotcolour,29,1,89,389,training,negativefb,74,average,53,0.6662071999999171,['c'],1,left,['1'],6,0.27558470000030866,,,,,,,,5,19,Vrouw,Rechts,2,
,dotcolour,dotcolour,dotcolour,30,1,90,390,training,negativefb,59,average,54,0.6489767000002757,['c'],1,left,['1'],6,0.35072630000013305,,,,,,,,5,19,Vrouw,Rechts,2,
,dotcolour,dotcolour,dotcolour,31,1,91,391,training,negativefb,83,easy,61,0.9501272000002245,['c'],1,left,['1'],6,0.46730410000009215,,,,,,,,5,19,Vrouw,Rechts,2,
,dotcolour,dotcolour,dotcolour,32,1,92,392,training,negativefb,80,hard,44,1.1170093000000634,['c'],1,left,['2'],5,0.6996423999999024,,,,,,,,5,19,Vrouw,Rechts,2,
,dotcolour,dotcolour,dotcolour,33,1,93,393,training,negativefb,100,easy,17,0.8664859000000433,['n'],1,right,['1'],6,0.8056162000002587,,,,,,,,5,19,Vrouw,Rechts,2,
,dotcolour,dotcolour,dotcolour,34,1,94,394,training,negativefb,59,hard,39,1.3997838999998748,['n'],1,right,['3'],4,0.557925200000227,,,,,,,,5,19,Vrouw,Rechts,2,
,dotcolour,dotcolour,dotcolour,35,1,95,395,training,negativefb,3,easy,19,0.7330179999999018,['c'],0,right,['0'],1,1.9783495000001494,,,,,,,,5,19,Vrouw,Rechts,2,
,dotcolour,dotcolour,dotcolour,36,1,96,396,training,negativefb,91,easy,17,0.96559759999991,['n'],1,right,['1'],6,0.8295382000001155,,,,,,,,5,19,Vrouw,Rechts,2,
,dotcolour,dotcolour,dotcolour,37,1,97,397,training,negativefb,65,hard,42,1.4488753000000543,['c'],1,left,['3'],4,0.3304947000001448,,,,,,,,5,19,Vrouw,Rechts,2,
,dotcolour,dotcolour,dotcolour,38,1,98,398,training,negativefb,89,easy,19,1.1330118999999286,['n'],1,right,['2'],5,0.5205307999999604,,,,,,,,5,19,Vrouw,Rechts,2,
,dotcolour,dotcolour,dotcolour,39,1,99,399,training,negativefb,51,average,28,0.9837031000001843,['n'],1,right,['2'],5,0.3644256000002315,,,,,,,,5,19,Vrouw,Rechts,2,
,dotcolour,dotcolour,dotcolour,40,1,100,400,training,negativefb,64,easy,17,0.550181000000066,['n'],1,right,['2'],5,0.2405962000002546,,,,,,,,5,19,Vrouw,Rechts,2,
,dotcolour,dotcolour,dotcolour,41,1,101,401,training,negativefb,67,easy,15,0.9170150999998441,['n'],1,right,['2'],5,0.2584962999999334,,,,,,,,5,19,Vrouw,Rechts,2,
,dotcolour,dotcolour,dotcolour,42,1,102,402,training,negativefb,60,hard,43,1.8834200000001147,['c'],1,left,['3'],4,0.3741534999999203,,,,,,,,5,19,Vrouw,Rechts,2,
,dotcolour,dotcolour,dotcolour,43,1,103,403,training,negativefb,73,easy,61,0.6832441999999901,['c'],1,left,['2'],5,0.4041421000001719,,,,,,,,5,19,Vrouw,Rechts,2,
,dotcolour,dotcolour,dotcolour,44,1,104,404,training,negativefb,82,average,27,1.0994596999998976,['n'],1,right,['3'],4,0.3516892000002372,,,,,,,,5,19,Vrouw,Rechts,2,
,dotcolour,dotcolour,dotcolour,45,1,105,405,training,negativefb,71,hard,39,0.9825025999998616,['n'],1,right,['3'],4,0.33844440000029863,,,,,,,,5,19,Vrouw,Rechts,2,
,dotcolour,dotcolour,dotcolour,46,1,106,406,training,negativefb,94,average,53,1.1340500000001157,['c'],1,left,['2'],5,1.0162023000002591,,,,,,,,5,19,Vrouw,Rechts,2,
,dotcolour,dotcolour,dotcolour,47,1,107,407,training,negativefb,97,easy,17,0.8500718000000234,['n'],1,right,['1'],6,0.4857664000001023,,,,,,,,5,19,Vrouw,Rechts,2,
,dotcolour,dotcolour,dotcolour,48,1,108,408,training,negativefb,73,average,25,3.766661699999986,['n'],1,right,['2'],5,0.908279599999787,,,,,,,,5,19,Vrouw,Rechts,2,
,dotcolour,dotcolour,dotcolour,49,1,109,409,training,negativefb,68,hard,36,0.8993160999998508,['n'],1,right,['2'],5,0.1960412000003089,,,,,,,,5,19,Vrouw,Rechts,2,
,dotcolour,dotcolour,dotcolour,50,1,110,410,training,negativefb,33,hard,37,1.3002630000000863,['c'],0,right,['2'],5,0.3771436000001813,,,,,,,,5,19,Vrouw,Rechts,2,
,dotcolour,dotcolour,dotcolour,51,1,111,411,training,negativefb,92,easy,61,1.1667907999999443,['c'],1,left,['3'],4,0.42768470000009984,,,,,,,,5,19,Vrouw,Rechts,2,
,dotcolour,dotcolour,dotcolour,52,1,112,412,training,negativefb,19,hard,39,0.7155945000004067,['n'],1,right,['2'],5,0.5179109000000608,,,,,,,,5,19,Vrouw,Rechts,2,
,dotcolour,dotcolour,dotcolour,53,1,113,413,training,negativefb,40,average,29,0.6658291000003373,['n'],1,right,['2'],5,0.23053589999972246,,,,,,,,5,19,Vrouw,Rechts,2,
,dotcolour,dotcolour,dotcolour,54,1,114,414,training,negativefb,91,average,53,0.8497294999997393,['c'],1,left,['3'],4,0.3246044000002257,,,,,,,,5,19,Vrouw,Rechts,2,
,dotcolour,dotcolour,dotcolour,55,1,115,415,training,negativefb,64,hard,35,0.850082200000088,['n'],1,right,['3'],4,0.26959469999974317,,,,,,,,5,19,Vrouw,Rechts,2,
,dotcolour,dotcolour,dotcolour,56,1,116,416,training,negativefb,58,hard,39,1.7499668999998903,['c'],0,right,['2'],5,0.5410580000002483,,,,,,,,5,19,Vrouw,Rechts,2,
,dotcolour,dotcolour,dotcolour,57,1,117,417,training,negativefb,74,easy,65,0.9661110000001827,['c'],1,left,['2'],5,1.1135057000001325,,,,,,,,5,19,Vrouw,Rechts,2,
,dotcolour,dotcolour,dotcolour,58,1,118,418,training,negativefb,71,hard,35,1.3661425999998755,['n'],1,right,['2'],5,0.2863720000000285,,,,,,,,5,19,Vrouw,Rechts,2,
,dotcolour,dotcolour,dotcolour,59,1,119,419,training,negativefb,95,average,55,0.9332039999999324,['c'],1,left,['2'],5,0.9251796999997168,,,,,,,,5,19,Vrouw,Rechts,2,
,xotask,dotcolour,dotcolour,0,2,120,420,main,negativefb,-99,average,,1.2673122999999578,['n'],1,right,['3'],4,1.4041459999998551,18,,,,,,,5,19,Vrouw,Rechts,2,
,xotask,dotcolour,dotcolour,1,2,121,421,main,negativefb,-99,easy,,0.7513202000000092,['n'],1,right,['3'],4,0.4081433000001198,5,,,,,,,5,19,Vrouw,Rechts,2,
,xotask,dotcolour,dotcolour,2,2,122,422,main,negativefb,-99,average,,0.9829992999998467,['c'],1,left,['2'],5,0.4817728000002717,61,,,,,,,5,19,Vrouw,Rechts,2,
,xotask,dotcolour,dotcolour,3,2,123,423,main,negativefb,-99,easy,,1.2333871999999246,['c'],1,left,['2'],5,0.3104355000000396,73,,,,,,,5,19,Vrouw,Rechts,2,
,xotask,dotcolour,dotcolour,4,2,124,424,main,negativefb,-99,hard,,1.4835979000004045,['c'],1,left,['3'],4,0.33497319999969477,51,,,,,,,5,19,Vrouw,Rechts,2,
,xotask,dotcolour,dotcolour,5,2,125,425,main,negativefb,-99,hard,,1.6674635999997918,['n'],0,left,['3'],4,0.5992200000000594,53,,,,,,,5,19,Vrouw,Rechts,2,
,xotask,dotcolour,dotcolour,6,2,126,426,main,negativefb,-99,hard,,0.7671479999999065,['n'],1,right,['3'],4,0.29825750000009066,29,,,,,,,5,19,Vrouw,Rechts,2,
,xotask,dotcolour,dotcolour,7,2,127,427,main,negativefb,-99,easy,,0.6993258000002243,['n'],1,right,['2'],5,0.3708488000002035,6,,,,,,,5,19,Vrouw,Rechts,2,
,xotask,dotcolour,dotcolour,8,2,128,428,main,negativefb,-99,average,,0.9010549999998148,['c'],1,left,['2'],5,0.3534264999998413,64,,,,,,,5,19,Vrouw,Rechts,2,
,xotask,dotcolour,dotcolour,9,2,129,429,main,negativefb,-99,hard,,1.2841106999999283,['c'],1,left,['2'],5,0.4889445999997406,54,,,,,,,5,19,Vrouw,Rechts,2,
,xotask,dotcolour,dotcolour,10,2,130,430,main,negativefb,-99,hard,,1.267403700000159,['c'],1,left,['2'],5,0.37864940000008573,52,,,,,,,5,19,Vrouw,Rechts,2,
,xotask,dotcolour,dotcolour,11,2,131,431,main,negativefb,-99,average,,0.7339664000000994,['n'],1,right,['2'],5,0.6488730000000942,18,,,,,,,5,19,Vrouw,Rechts,2,
,xotask,dotcolour,dotcolour,12,2,132,432,main,negativefb,-99,average,,0.966257300000052,['c'],1,left,['2'],5,0.32866969999986395,64,,,,,,,5,19,Vrouw,Rechts,2,
,xotask,dotcolour,dotcolour,13,2,133,433,main,negativefb,-99,easy,,1.2676707999999053,['n'],1,right,['2'],5,0.2898494999999457,8,,,,,,,5,19,Vrouw,Rechts,2,
,xotask,dotcolour,dotcolour,14,2,134,434,main,negativefb,-99,easy,,0.7015059000000292,['n'],1,right,['2'],5,0.25100709999969695,9,,,,,,,5,19,Vrouw,Rechts,2,
,xotask,dotcolour,dotcolour,15,2,135,435,main,negativefb,-99,average,,0.6493420000001606,['n'],1,right,['2'],5,0.6882082000001901,15,,,,,,,5,19,Vrouw,Rechts,2,
,xotask,dotcolour,dotcolour,16,2,136,436,main,negativefb,-99,easy,,0.9007179999998698,['c'],1,left,['1'],6,0.8418980999999803,71,,,,,,,5,19,Vrouw,Rechts,2,
,xotask,dotcolour,dotcolour,17,2,137,437,main,negativefb,-99,hard,,0.9003517000001011,['n'],1,right,['2'],5,0.19649600000002465,27,,,,,,,5,19,Vrouw,Rechts,2,
,xotask,dotcolour,dotcolour,18,2,138,438,main,negativefb,-99,easy,,1.3166928999999072,['c'],1,left,['1'],6,0.37722759999996924,71,,,,,,,5,19,Vrouw,Rechts,2,
,xotask,dotcolour,dotcolour,19,2,139,439,main,negativefb,-99,average,,1.3671057999999903,['n'],1,right,['3'],4,0.4052252999999837,15,,,,,,,5,19,Vrouw,Rechts,2,
,xotask,dotcolour,dotcolour,20,2,140,440,main,negativefb,-99,easy,,1.6497078000002148,['c'],1,left,['2'],5,1.2188671999997496,74,,,,,,,5,19,Vrouw,Rechts,2,
,xotask,dotcolour,dotcolour,21,2,141,441,main,negativefb,-99,easy,,0.6842664000000696,['n'],1,right,['2'],5,0.2886783000003561,7,,,,,,,5,19,Vrouw,Rechts,2,
,xotask,dotcolour,dotcolour,22,2,142,442,main,negativefb,-99,easy,,0.6179956000000857,['n'],1,right,['1'],6,0.2770071999998436,7,,,,,,,5,19,Vrouw,Rechts,2,
,xotask,dotcolour,dotcolour,23,2,143,443,main,negativefb,-99,average,,0.9834211000002142,['c'],1,left,['2'],5,0.5794591999997465,62,,,,,,,5,19,Vrouw,Rechts,2,
,xotask,dotcolour,dotcolour,24,2,144,444,main,negativefb,-99,easy,,0.6504847999999583,['n'],1,right,['2'],5,0.5152838999997584,8,,,,,,,5,19,Vrouw,Rechts,2,
,xotask,dotcolour,dotcolour,25,2,145,445,main,negativefb,-99,average,,0.8337894999999662,['c'],1,left,['1'],6,0.3259656999998697,64,,,,,,,5,19,Vrouw,Rechts,2,
,xotask,dotcolour,dotcolour,26,2,146,446,main,negativefb,-99,average,,1.4160915999996178,['c'],1,left,['2'],5,0.5061993999997867,63,,,,,,,5,19,Vrouw,Rechts,2,
,xotask,dotcolour,dotcolour,27,2,147,447,main,negativefb,-99,hard,,1.3838941000003615,['n'],1,right,['3'],4,0.27169690000027913,28,,,,,,,5,19,Vrouw,Rechts,2,
,xotask,dotcolour,dotcolour,28,2,148,448,main,negativefb,-99,hard,,0.6175461999996514,['n'],1,right,['3'],4,0.18904589999965538,28,,,,,,,5,19,Vrouw,Rechts,2,
,xotask,dotcolour,dotcolour,29,2,149,449,main,negativefb,-99,hard,,1.215613900000335,['n'],1,right,['2'],5,0.197290200000225,29,,,,,,,5,19,Vrouw,Rechts,2,
,xotask,dotcolour,dotcolour,30,2,150,450,main,negativefb,-99,average,,0.9173820000000887,['n'],1,right,['2'],5,0.30626470000015615,15,,,,,,,5,19,Vrouw,Rechts,2,
,xotask,dotcolour,dotcolour,31,2,151,451,main,negativefb,-99,hard,,1.0173764999999548,['c'],0,right,['1'],6,0.5186407999999574,26,,,,,,,5,19,Vrouw,Rechts,2,
,xotask,dotcolour,dotcolour,32,2,152,452,main,negativefb,-99,easy,,0.8001694000004136,['c'],1,left,['1'],6,0.48256910000009157,70,,,,,,,5,19,Vrouw,Rechts,2,
,xotask,dotcolour,dotcolour,33,2,153,453,main,negativefb,-99,average,,0.7166866999996273,['n'],1,right,['2'],5,0.6273986999999579,16,,,,,,,5,19,Vrouw,Rechts,2,
,xotask,dotcolour,dotcolour,34,2,154,454,main,negativefb,-99,easy,,0.8173036000002867,['c'],1,left,['1'],6,0.4185056999999688,72,,,,,,,5,19,Vrouw,Rechts,2,
,xotask,dotcolour,dotcolour,35,2,155,455,main,negativefb,-99,hard,,1.9163510999997015,['n'],0,left,['2'],5,0.2542947000001732,52,,,,,,,5,19,Vrouw,Rechts,2,
,xotask,dotcolour,dotcolour,36,2,156,456,main,negativefb,-99,hard,,0.9832965999999033,['n'],0,left,['2'],5,0.3578088000003845,50,,,,,,,5,19,Vrouw,Rechts,2,
,xotask,dotcolour,dotcolour,37,2,157,457,main,negativefb,-99,average,,0.6008692000000337,['n'],1,right,['2'],5,0.27224029999979393,16,,,,,,,5,19,Vrouw,Rechts,2,
,xotask,dotcolour,dotcolour,38,2,158,458,main,negativefb,-99,hard,,1.5176683999998204,['c'],1,left,['2'],5,0.7294409000000996,54,,,,,,,5,19,Vrouw,Rechts,2,
,xotask,dotcolour,dotcolour,39,2,159,459,main,negativefb,-99,average,,0.7496326999998928,['c'],1,left,['2'],5,0.3839821000001393,63,,,,,,,5,19,Vrouw,Rechts,2,
,xotask,dotcolour,dotcolour,40,2,160,460,main,negativefb,-99,hard,,1.6839340999999877,['n'],1,right,['3'],4,0.5014725999999428,26,,,,,,,5,19,Vrouw,Rechts,2,
,xotask,dotcolour,dotcolour,41,2,161,461,main,negativefb,-99,easy,,1.4333047000000079,['c'],1,left,['3'],4,0.5442023000000518,74,,,,,,,5,19,Vrouw,Rechts,2,
,xotask,dotcolour,dotcolour,42,2,162,462,main,negativefb,-99,hard,,0.8513695999999982,['c'],1,left,['3'],4,0.3940994999998111,52,,,,,,,5,19,Vrouw,Rechts,2,
,xotask,dotcolour,dotcolour,43,2,163,463,main,negativefb,-99,hard,,1.0498560999999427,['n'],1,right,['3'],4,0.2336062000003949,29,,,,,,,5,19,Vrouw,Rechts,2,
,xotask,dotcolour,dotcolour,44,2,164,464,main,negativefb,-99,average,,0.8167459999999664,['c'],1,left,['3'],4,0.31271739999965575,64,,,,,,,5,19,Vrouw,Rechts,2,
,xotask,dotcolour,dotcolour,45,2,165,465,main,negativefb,-99,easy,,1.1165969000003315,['n'],1,right,['3'],4,0.35253640000019004,8,,,,,,,5,19,Vrouw,Rechts,2,
,xotask,dotcolour,dotcolour,46,2,166,466,main,negativefb,-99,hard,,5.81620329999987,['n'],0,left,['3'],4,0.8267181000001074,50,,,,,,,5,19,Vrouw,Rechts,2,
,xotask,dotcolour,dotcolour,47,2,167,467,main,negativefb,-99,easy,,2.7174927000000935,['c'],1,left,['2'],5,0.35017149999976027,70,,,,,,,5,19,Vrouw,Rechts,2,
,xotask,dotcolour,dotcolour,48,2,168,468,main,negativefb,-99,easy,,0.6842625999997836,['n'],1,right,['1'],6,0.3654687000002923,6,,,,,,,5,19,Vrouw,Rechts,2,
,xotask,dotcolour,dotcolour,49,2,169,469,main,negativefb,-99,hard,,0.6659482000000025,['n'],1,right,['1'],6,0.15729289999990215,27,,,,,,,5,19,Vrouw,Rechts,2,
,xotask,dotcolour,dotcolour,50,2,170,470,main,negativefb,-99,hard,,0.5160065000000031,['n'],1,right,['1'],6,0.17119910000019445,25,,,,,,,5,19,Vrouw,Rechts,2,
,xotask,dotcolour,dotcolour,51,2,171,471,main,negativefb,-99,easy,,1.2338623999999072,['c'],1,left,['2'],5,0.35496050000028845,72,,,,,,,5,19,Vrouw,Rechts,2,
,xotask,dotcolour,dotcolour,52,2,172,472,main,negativefb,-99,average,,1.2826915000000554,['n'],1,right,['2'],5,0.3306086999996296,17,,,,,,,5,19,Vrouw,Rechts,2,
,xotask,dotcolour,dotcolour,53,2,173,473,main,negativefb,-99,hard,,1.3007698999999775,['n'],0,left,['2'],5,0.1874932999999146,53,,,,,,,5,19,Vrouw,Rechts,2,
,xotask,dotcolour,dotcolour,54,2,174,474,main,negativefb,-99,average,,0.6343074999999772,['n'],1,right,['2'],5,0.15545269999984157,15,,,,,,,5,19,Vrouw,Rechts,2,
,xotask,dotcolour,dotcolour,55,2,175,475,main,negativefb,-99,easy,,0.8339026999997259,['c'],1,left,['2'],5,0.24460279999993872,74,,,,,,,5,19,Vrouw,Rechts,2,
,xotask,dotcolour,dotcolour,56,2,176,476,main,negativefb,-99,average,,0.7173257999997986,['c'],1,left,['2'],5,0.40737110000009125,62,,,,,,,5,19,Vrouw,Rechts,2,
,xotask,dotcolour,dotcolour,57,2,177,477,main,negativefb,-99,average,,0.8329454000004262,['c'],1,left,['2'],5,0.3585139000001618,64,,,,,,,5,19,Vrouw,Rechts,2,
,xotask,dotcolour,dotcolour,58,2,178,478,main,negativefb,-99,average,,1.4001933999998073,['n'],1,right,['2'],5,0.16877740000018093,15,,,,,,,5,19,Vrouw,Rechts,2,
,xotask,dotcolour,dotcolour,59,2,179,479,main,negativefb,-99,easy,,1.183959799999684,['n'],1,right,['2'],5,0.20367549999991752,8,,,,,,,5,19,Vrouw,Rechts,2,
,xotask,dotcolour,dotcolour,0,3,180,480,main,negativefb,-99,average,,1.8003704000002472,['c'],0,right,['2'],5,0.4342450999997709,16,,,,,,,5,19,Vrouw,Rechts,2,
,xotask,dotcolour,dotcolour,1,3,181,481,main,negativefb,-99,average,,0.8507699000001594,['c'],1,left,['2'],5,0.3198957000004157,62,,,,,,,5,19,Vrouw,Rechts,2,
,xotask,dotcolour,dotcolour,2,3,182,482,main,negativefb,-99,average,,2.0168855000001713,['c'],1,left,['3'],4,0.4034314999998969,60,,,,,,,5,19,Vrouw,Rechts,2,
,xotask,dotcolour,dotcolour,3,3,183,483,main,negativefb,-99,average,,0.7501897000001918,['c'],1,left,['3'],4,0.35767470000018875,62,,,,,,,5,19,Vrouw,Rechts,2,
,xotask,dotcolour,dotcolour,4,3,184,484,main,negativefb,-99,average,,0.5838864000002104,['n'],1,right,['3'],4,0.24139919999970516,19,,,,,,,5,19,Vrouw,Rechts,2,
,xotask,dotcolour,dotcolour,5,3,185,485,main,negativefb,-99,hard,,0.8505438000001959,['n'],1,right,['3'],4,0.1985359000000244,27,,,,,,,5,19,Vrouw,Rechts,2,
,xotask,dotcolour,dotcolour,6,3,186,486,main,negativefb,-99,hard,,1.4660187999998016,['n'],0,left,['3'],4,0.3807074000001194,52,,,,,,,5,19,Vrouw,Rechts,2,
,xotask,dotcolour,dotcolour,7,3,187,487,main,negativefb,-99,easy,,0.7672072000000298,['n'],1,right,['3'],4,0.15119400000003225,9,,,,,,,5,19,Vrouw,Rechts,2,
,xotask,dotcolour,dotcolour,8,3,188,488,main,negativefb,-99,average,,0.5173134000001482,['n'],0,left,['3'],4,1.3507103000001734,60,,,,,,,5,19,Vrouw,Rechts,2,
,xotask,dotcolour,dotcolour,9,3,189,489,main,negativefb,-99,hard,,1.0335258000000067,['n'],0,left,['3'],4,0.2952924000001076,53,,,,,,,5,19,Vrouw,Rechts,2,
,xotask,dotcolour,dotcolour,10,3,190,490,main,negativefb,-99,easy,,0.5175274000002901,['c'],1,left,['2'],5,0.3688277000001108,70,,,,,,,5,19,Vrouw,Rechts,2,
,xotask,dotcolour,dotcolour,11,3,191,491,main,negativefb,-99,average,,0.8668793000001642,['n'],1,right,['2'],5,0.41560600000002523,17,,,,,,,5,19,Vrouw,Rechts,2,
,xotask,dotcolour,dotcolour,12,3,192,492,main,negativefb,-99,easy,,0.8018879000001107,['c'],1,left,['2'],5,0.31210760000021764,73,,,,,,,5,19,Vrouw,Rechts,2,
,xotask,dotcolour,dotcolour,13,3,193,493,main,negativefb,-99,easy,,0.6338126999999076,['n'],1,right,['2'],5,0.21866189999991548,8,,,,,,,5,19,Vrouw,Rechts,2,
,xotask,dotcolour,dotcolour,14,3,194,494,main,negativefb,-99,hard,,0.7001339999997072,['c'],1,left,['2'],5,0.33533570000008694,53,,,,,,,5,19,Vrouw,Rechts,2,
,xotask,dotcolour,dotcolour,15,3,195,495,main,negativefb,-99,hard,,0.8172755000000507,['n'],1,right,['2'],5,0.22518140000011044,25,,,,,,,5,19,Vrouw,Rechts,2,
,xotask,dotcolour,dotcolour,16,3,196,496,main,negativefb,-99,hard,,1.8182010000000446,['n'],1,right,['2'],5,0.2652035999999498,29,,,,,,,5,19,Vrouw,Rechts,2,
,xotask,dotcolour,dotcolour,17,3,197,497,main,negativefb,-99,average,,1.0334262999999737,['n'],1,right,['2'],5,0.22987689999990835,18,,,,,,,5,19,Vrouw,Rechts,2,
,xotask,dotcolour,dotcolour,18,3,198,498,main,negativefb,-99,hard,,0.8836055000001579,['c'],1,left,['1'],6,0.4659972000004018,54,,,,,,,5,19,Vrouw,Rechts,2,
,xotask,dotcolour,dotcolour,19,3,199,499,main,negativefb,-99,easy,,1.0503254000000197,['n'],1,right,['2'],5,0.17490810000026613,7,,,,,,,5,19,Vrouw,Rechts,2,
,xotask,dotcolour,dotcolour,20,3,200,500,main,negativefb,-99,easy,,0.8006677000003037,['c'],1,left,['2'],5,0.3531425000001036,72,,,,,,,5,19,Vrouw,Rechts,2,
,xotask,dotcolour,dotcolour,21,3,201,501,main,negativefb,-99,hard,,1.6158752999999706,['c'],1,left,['3'],4,0.4901909999998679,52,,,,,,,5,19,Vrouw,Rechts,2,
,xotask,dotcolour,dotcolour,22,3,202,502,main,negativefb,-99,hard,,0.8339857999999367,['c'],1,left,['3'],4,0.34266569999999774,50,,,,,,,5,19,Vrouw,Rechts,2,
,xotask,dotcolour,dotcolour,23,3,203,503,main,negativefb,-99,average,,0.8504887000003691,['n'],0,left,['2'],5,0.23148399999990943,62,,,,,,,5,19,Vrouw,Rechts,2,
,xotask,dotcolour,dotcolour,24,3,204,504,main,negativefb,-99,easy,,0.867117700000108,['c'],1,left,['3'],4,0.34142229999997653,73,,,,,,,5,19,Vrouw,Rechts,2,
,xotask,dotcolour,dotcolour,25,3,205,505,main,negativefb,-99,easy,,0.7009793999995964,['c'],1,left,['2'],5,0.37206289999994624,70,,,,,,,5,19,Vrouw,Rechts,2,
,xotask,dotcolour,dotcolour,26,3,206,506,main,negativefb,-99,hard,,1.7001479000000472,['n'],1,right,['2'],5,0.19457039999997505,28,,,,,,,5,19,Vrouw,Rechts,2,
,xotask,dotcolour,dotcolour,27,3,207,507,main,negativefb,-99,hard,,0.7177308999998786,['n'],0,left,['2'],5,0.2551054999998996,51,,,,,,,5,19,Vrouw,Rechts,2,
,xotask,dotcolour,dotcolour,28,3,208,508,main,negativefb,-99,average,,0.8666625999999269,['n'],1,right,['2'],5,0.23485290000007808,17,,,,,,,5,19,Vrouw,Rechts,2,
,xotask,dotcolour,dotcolour,29,3,209,509,main,negativefb,-99,average,,0.7340811999997641,['n'],1,right,['2'],5,0.16523740000002363,15,,,,,,,5,19,Vrouw,Rechts,2,
,xotask,dotcolour,dotcolour,30,3,210,510,main,negativefb,-99,average,,0.7327276999999413,['c'],1,left,['2'],5,0.29852189999974144,62,,,,,,,5,19,Vrouw,Rechts,2,
,xotask,dotcolour,dotcolour,31,3,211,511,main,negativefb,-99,easy,,0.733379899999818,['n'],1,right,['2'],5,0.1143635000003087,8,,,,,,,5,19,Vrouw,Rechts,2,
,xotask,dotcolour,dotcolour,32,3,212,512,main,negativefb,-99,easy,,0.8165386000000581,['n'],1,right,['2'],5,0.20652909999989788,8,,,,,,,5,19,Vrouw,Rechts,2,
,xotask,dotcolour,dotcolour,33,3,213,513,main,negativefb,-99,average,,1.11756830000013,['c'],1,left,['2'],5,0.38523369999984425,62,,,,,,,5,19,Vrouw,Rechts,2,
,xotask,dotcolour,dotcolour,34,3,214,514,main,negativefb,-99,hard,,1.98344330000009,['n'],0,left,['2'],5,0.19622780000008788,53,,,,,,,5,19,Vrouw,Rechts,2,
,xotask,dotcolour,dotcolour,35,3,215,515,main,negativefb,-99,easy,,0.7844449999997778,['c'],1,left,['2'],5,0.34986449999996694,72,,,,,,,5,19,Vrouw,Rechts,2,
,xotask,dotcolour,dotcolour,36,3,216,516,main,negativefb,-99,average,,0.9331603999999061,['c'],1,left,['2'],5,0.3074610000003304,60,,,,,,,5,19,Vrouw,Rechts,2,
,xotask,dotcolour,dotcolour,37,3,217,517,main,negativefb,-99,hard,,1.1331854000000021,['n'],1,right,['2'],5,0.13961700000027122,25,,,,,,,5,19,Vrouw,Rechts,2,
,xotask,dotcolour,dotcolour,38,3,218,518,main,negativefb,-99,hard,,1.4667936999999256,['n'],1,right,['3'],4,0.7235715000001619,29,,,,,,,5,19,Vrouw,Rechts,2,
,xotask,dotcolour,dotcolour,39,3,219,519,main,negativefb,-99,easy,,1.4176563000000897,['n'],1,right,['2'],5,0.31962009999961083,9,,,,,,,5,19,Vrouw,Rechts,2,
,xotask,dotcolour,dotcolour,40,3,220,520,main,negativefb,-99,hard,,0.68374410000024,['n'],1,right,['2'],5,0.3278512000001683,29,,,,,,,5,19,Vrouw,Rechts,2,
,xotask,dotcolour,dotcolour,41,3,221,521,main,negativefb,-99,hard,,1.2670922000002065,['n'],0,left,['2'],5,0.2733404000000519,51,,,,,,,5,19,Vrouw,Rechts,2,
,xotask,dotcolour,dotcolour,42,3,222,522,main,negativefb,-99,average,,0.9834796999998616,['c'],1,left,['3'],4,0.728270799999791,63,,,,,,,5,19,Vrouw,Rechts,2,
,xotask,dotcolour,dotcolour,43,3,223,523,main,negativefb,-99,average,,1.400827300000401,['c'],1,left,['3'],4,0.3234055000002627,63,,,,,,,5,19,Vrouw,Rechts,2,
,xotask,dotcolour,dotcolour,44,3,224,524,main,negativefb,-99,easy,,0.8336728999997831,['n'],1,right,['2'],5,0.22943369999984498,5,,,,,,,5,19,Vrouw,Rechts,2,
,xotask,dotcolour,dotcolour,45,3,225,525,main,negativefb,-99,hard,,2.4333177999997133,['n'],1,right,['2'],5,0.2057279999999082,27,,,,,,,5,19,Vrouw,Rechts,2,
,xotask,dotcolour,dotcolour,46,3,226,526,main,negativefb,-99,easy,,0.9337728000000425,['c'],1,left,['1'],6,0.2806873999998061,74,,,,,,,5,19,Vrouw,Rechts,2,
,xotask,dotcolour,dotcolour,47,3,227,527,main,negativefb,-99,easy,,0.9008727999998882,['c'],1,left,['1'],6,0.3865272000002733,72,,,,,,,5,19,Vrouw,Rechts,2,
,xotask,dotcolour,dotcolour,48,3,228,528,main,negativefb,-99,hard,,1.5684754999997494,['c'],1,left,['2'],5,0.29356200000029276,50,,,,,,,5,19,Vrouw,Rechts,2,
,xotask,dotcolour,dotcolour,49,3,229,529,main,negativefb,-99,hard,,1.3170196999999462,['n'],1,right,['2'],5,0.35854349999999613,29,,,,,,,5,19,Vrouw,Rechts,2,
,xotask,dotcolour,dotcolour,50,3,230,530,main,negativefb,-99,hard,,1.73311190000004,['n'],1,right,['3'],4,0.443967000000157,25,,,,,,,5,19,Vrouw,Rechts,2,
,xotask,dotcolour,dotcolour,51,3,231,531,main,negativefb,-99,easy,,0.8851094999999987,['n'],1,right,['3'],4,0.2795049999999719,6,,,,,,,5,19,Vrouw,Rechts,2,
,xotask,dotcolour,dotcolour,52,3,232,532,main,negativefb,-99,average,,0.7669889000003423,['n'],1,right,['2'],5,0.1745759000000362,18,,,,,,,5,19,Vrouw,Rechts,2,
,xotask,dotcolour,dotcolour,53,3,233,533,main,negativefb,-99,easy,,0.8003071999996791,['c'],1,left,['2'],5,0.3054259999998976,74,,,,,,,5,19,Vrouw,Rechts,2,
,xotask,dotcolour,dotcolour,54,3,234,534,main,negativefb,-99,average,,1.0495937000000595,['n'],1,right,['2'],5,0.2517644000004111,18,,,,,,,5,19,Vrouw,Rechts,2,
,xotask,dotcolour,dotcolour,55,3,235,535,main,negativefb,-99,easy,,0.8002627000000757,['n'],1,right,['2'],5,0.18666839999968943,7,,,,,,,5,19,Vrouw,Rechts,2,
,xotask,dotcolour,dotcolour,56,3,236,536,main,negativefb,-99,easy,,1.282835200000136,['c'],1,left,['2'],5,0.7691078000002562,71,,,,,,,5,19,Vrouw,Rechts,2,
,xotask,dotcolour,dotcolour,57,3,237,537,main,negativefb,-99,average,,0.7504493999999795,['n'],1,right,['2'],5,0.15594679999958316,16,,,,,,,5,19,Vrouw,Rechts,2,
,xotask,dotcolour,dotcolour,58,3,238,538,main,negativefb,-99,easy,,2.1847599000002447,['n'],1,right,['1'],6,0.15990430000010747,9,,,,,,,5,19,Vrouw,Rechts,2,
,xotask,dotcolour,dotcolour,59,3,239,539,main,negativefb,-99,average,,0.7176660000000084,['n'],1,right,['2'],5,0.31050420000019585,15,,,,,,,5,19,Vrouw,Rechts,2,
,xotask,dotcolour,dotcolour,0,4,240,540,main,negativefb,-99,average,,1.3173722999999882,['c'],1,left,['2'],5,1.0383559999995668,62,,,,,,,5,19,Vrouw,Rechts,2,
,xotask,dotcolour,dotcolour,1,4,241,541,main,negativefb,-99,hard,,0.9336597999999867,['c'],1,left,['2'],5,0.49721390000013344,53,,,,,,,5,19,Vrouw,Rechts,2,
,xotask,dotcolour,dotcolour,2,4,242,542,main,negativefb,-99,average,,0.8007926999998745,['c'],1,left,['2'],5,0.24658969999973124,63,,,,,,,5,19,Vrouw,Rechts,2,
,xotask,dotcolour,dotcolour,3,4,243,543,main,negativefb,-99,average,,0.9336977000002662,['n'],1,right,['2'],5,0.21583770000006552,18,,,,,,,5,19,Vrouw,Rechts,2,
,xotask,dotcolour,dotcolour,4,4,244,544,main,negativefb,-99,easy,,0.883920599999783,['c'],1,left,['2'],5,0.3325890999999501,71,,,,,,,5,19,Vrouw,Rechts,2,
,xotask,dotcolour,dotcolour,5,4,245,545,main,negativefb,-99,easy,,0.6675401000002239,['n'],1,right,['2'],5,0.13396479999983057,7,,,,,,,5,19,Vrouw,Rechts,2,
,xotask,dotcolour,dotcolour,6,4,246,546,main,negativefb,-99,hard,,1.5496496000000661,['n'],1,right,['2'],5,0.09913280000000668,25,,,,,,,5,19,Vrouw,Rechts,2,
,xotask,dotcolour,dotcolour,7,4,247,547,main,negativefb,-99,average,,0.6165721000002122,['n'],1,right,['2'],5,0.3344167000000198,16,,,,,,,5,19,Vrouw,Rechts,2,
,xotask,dotcolour,dotcolour,8,4,248,548,main,negativefb,-99,easy,,0.5005765999999312,['n'],1,right,['2'],5,0.18235420000019076,5,,,,,,,5,19,Vrouw,Rechts,2,
,xotask,dotcolour,dotcolour,9,4,249,549,main,negativefb,-99,hard,,0.44972390000020823,['n'],1,right,['2'],5,0.15770169999996142,25,,,,,,,5,19,Vrouw,Rechts,2,
,xotask,dotcolour,dotcolour,10,4,250,550,main,negativefb,-99,hard,,1.768396500000108,['n'],0,left,['3'],4,0.19375589999981457,51,,,,,,,5,19,Vrouw,Rechts,2,
,xotask,dotcolour,dotcolour,11,4,251,551,main,negativefb,-99,easy,,0.8015086000000338,['c'],1,left,['2'],5,0.2350163999999495,70,,,,,,,5,19,Vrouw,Rechts,2,
,xotask,dotcolour,dotcolour,12,4,252,552,main,negativefb,-99,average,,0.6334997000003568,['n'],1,right,['2'],5,0.16910180000013497,19,,,,,,,5,19,Vrouw,Rechts,2,
,xotask,dotcolour,dotcolour,13,4,253,553,main,negativefb,-99,hard,,0.7512790999999197,['n'],1,right,['2'],5,0.1654836000002433,28,,,,,,,5,19,Vrouw,Rechts,2,
,xotask,dotcolour,dotcolour,14,4,254,554,main,negativefb,-99,average,,1.2335933000003934,['n'],1,right,['2'],5,0.30147189999979673,17,,,,,,,5,19,Vrouw,Rechts,2,
,xotask,dotcolour,dotcolour,15,4,255,555,main,negativefb,-99,hard,,0.9497544999999263,['n'],1,right,['2'],5,0.14871610000000146,28,,,,,,,5,19,Vrouw,Rechts,2,
,xotask,dotcolour,dotcolour,16,4,256,556,main,negativefb,-99,easy,,1.166559999999663,['c'],1,left,['2'],5,0.2891818000002786,73,,,,,,,5,19,Vrouw,Rechts,2,
,xotask,dotcolour,dotcolour,17,4,257,557,main,negativefb,-99,average,,3.6166096000001744,['n'],1,right,['2'],5,0.2863373000000138,16,,,,,,,5,19,Vrouw,Rechts,2,
,xotask,dotcolour,dotcolour,18,4,258,558,main,negativefb,-99,hard,,0.8665630999998939,['n'],1,right,['2'],5,0.11309909999999945,29,,,,,,,5,19,Vrouw,Rechts,2,
,xotask,dotcolour,dotcolour,19,4,259,559,main,negativefb,-99,hard,,0.8004448000001503,['c'],1,left,['2'],5,0.3096795999999813,50,,,,,,,5,19,Vrouw,Rechts,2,
,xotask,dotcolour,dotcolour,20,4,260,560,main,negativefb,-99,average,,0.5831254999998237,['n'],1,right,['1'],6,0.5461626000001161,18,,,,,,,5,19,Vrouw,Rechts,2,
,xotask,dotcolour,dotcolour,21,4,261,561,main,negativefb,-99,hard,,1.0831550000002608,['c'],1,left,['2'],5,0.3790951999999379,50,,,,,,,5,19,Vrouw,Rechts,2,
,xotask,dotcolour,dotcolour,22,4,262,562,main,negativefb,-99,average,,0.7171236999997745,['n'],1,right,['2'],5,0.19235410000010233,19,,,,,,,5,19,Vrouw,Rechts,2,
,xotask,dotcolour,dotcolour,23,4,263,563,main,negativefb,-99,easy,,0.6838204000000587,['c'],1,left,['2'],5,0.23823689999971975,74,,,,,,,5,19,Vrouw,Rechts,2,
,xotask,dotcolour,dotcolour,24,4,264,564,main,negativefb,-99,easy,,0.9845806000002995,['c'],1,left,['2'],5,0.10247110000000248,74,,,,,,,5,19,Vrouw,Rechts,2,
,xotask,dotcolour,dotcolour,25,4,265,565,main,negativefb,-99,hard,,1.4841905999996925,['c'],1,left,['2'],5,0.5516858999999386,53,,,,,,,5,19,Vrouw,Rechts,2,
,xotask,dotcolour,dotcolour,26,4,266,566,main,negativefb,-99,average,,1.1667773999997735,['c'],1,left,['2'],5,0.20398389999991196,62,,,,,,,5,19,Vrouw,Rechts,2,
,xotask,dotcolour,dotcolour,27,4,267,567,main,negativefb,-99,easy,,0.7669893000002048,['n'],1,right,['2'],5,0.15728379999973185,7,,,,,,,5,19,Vrouw,Rechts,2,
,xotask,dotcolour,dotcolour,28,4,268,568,main,negativefb,-99,easy,,0.8670146000004024,['c'],1,left,['2'],5,0.1423918999998932,71,,,,,,,5,19,Vrouw,Rechts,2,
,xotask,dotcolour,dotcolour,29,4,269,569,main,negativefb,-99,hard,,1.516312199999902,['c'],1,left,['2'],5,0.09190829999988637,52,,,,,,,5,19,Vrouw,Rechts,2,
,xotask,dotcolour,dotcolour,30,4,270,570,main,negativefb,-99,hard,,1.3665319000001546,['c'],0,right,['2'],5,0.11463259999982256,26,,,,,,,5,19,Vrouw,Rechts,2,
,xotask,dotcolour,dotcolour,31,4,271,571,main,negativefb,-99,hard,,0.6326162000000295,['n'],1,right,['2'],5,0.07904710000002524,28,,,,,,,5,19,Vrouw,Rechts,2,
,xotask,dotcolour,dotcolour,32,4,272,572,main,negativefb,-99,hard,,1.3170555000001514,['c'],0,right,['2'],5,0.10497020000002522,28,,,,,,,5,19,Vrouw,Rechts,2,
,xotask,dotcolour,dotcolour,33,4,273,573,main,negativefb,-99,average,,3.1838353000002826,['n'],0,left,['2'],5,0.19009719999985464,60,,,,,,,5,19,Vrouw,Rechts,2,
,xotask,dotcolour,dotcolour,34,4,274,574,main,negativefb,-99,hard,,1.0496659000000363,['c'],1,left,['2'],5,0.15688390000013896,51,,,,,,,5,19,Vrouw,Rechts,2,
,xotask,dotcolour,dotcolour,35,4,275,575,main,negativefb,-99,easy,,1.2173177999998188,['n'],1,right,['2'],5,0.11165019999998549,5,,,,,,,5,19,Vrouw,Rechts,2,
,xotask,dotcolour,dotcolour,36,4,276,576,main,negativefb,-99,easy,,0.9004417000001013,['n'],1,right,['2'],5,0.1752254000002722,7,,,,,,,5,19,Vrouw,Rechts,2,
,xotask,dotcolour,dotcolour,37,4,277,577,main,negativefb,-99,easy,,0.6499905000000581,['n'],1,right,['2'],5,0.15213790000007066,5,,,,,,,5,19,Vrouw,Rechts,2,
,xotask,dotcolour,dotcolour,38,4,278,578,main,negativefb,-99,average,,0.832970199999636,['c'],1,left,['2'],5,0.04915000000028158,63,,,,,,,5,19,Vrouw,Rechts,2,
,xotask,dotcolour,dotcolour,39,4,279,579,main,negativefb,-99,average,,1.2514687999996568,['c'],1,left,['2'],5,1.7826939000001403,62,,,,,,,5,19,Vrouw,Rechts,2,
,xotask,dotcolour,dotcolour,40,4,280,580,main,negativefb,-99,average,,0.833578000000216,['n'],1,right,['2'],5,0.118519500000275,15,,,,,,,5,19,Vrouw,Rechts,2,
,xotask,dotcolour,dotcolour,41,4,281,581,main,negativefb,-99,average,,1.500405299999784,['n'],1,right,['2'],5,0.22243729999991046,17,,,,,,,5,19,Vrouw,Rechts,2,
,xotask,dotcolour,dotcolour,42,4,282,582,main,negativefb,-99,easy,,0.86691540000038,['n'],1,right,['2'],5,1.115237900000011,9,,,,,,,5,19,Vrouw,Rechts,2,
,xotask,dotcolour,dotcolour,43,4,283,583,main,negativefb,-99,average,,2.0320732000000135,['c'],1,left,['2'],5,0.11799950000022363,62,,,,,,,5,19,Vrouw,Rechts,2,
,xotask,dotcolour,dotcolour,44,4,284,584,main,negativefb,-99,easy,,0.6505213999998887,['n'],1,right,['2'],5,0.15271409999968455,6,,,,,,,5,19,Vrouw,Rechts,2,
,xotask,dotcolour,dotcolour,45,4,285,585,main,negativefb,-99,easy,,1.3000747000000956,['c'],1,left,['1'],6,0.22284350000018094,71,,,,,,,5,19,Vrouw,Rechts,2,
,xotask,dotcolour,dotcolour,46,4,286,586,main,negativefb,-99,easy,,0.7999999999997272,['c'],1,left,['1'],6,0.12698729999965508,73,,,,,,,5,19,Vrouw,Rechts,2,
,xotask,dotcolour,dotcolour,47,4,287,587,main,negativefb,-99,average,,2.383178200000202,['c'],1,left,['2'],5,0.25203860000010536,63,,,,,,,5,19,Vrouw,Rechts,2,
,xotask,dotcolour,dotcolour,48,4,288,588,main,negativefb,-99,easy,,0.6522974999998041,['n'],1,right,['1'],6,0.3122662999999193,6,,,,,,,5,19,Vrouw,Rechts,2,
,xotask,dotcolour,dotcolour,49,4,289,589,main,negativefb,-99,average,,0.7502874000001611,['c'],1,left,['2'],5,0.3914545000002363,62,,,,,,,5,19,Vrouw,Rechts,2,
,xotask,dotcolour,dotcolour,50,4,290,590,main,negativefb,-99,easy,,0.8509688999997707,['c'],1,left,['2'],5,0.33403560000033394,71,,,,,,,5,19,Vrouw,Rechts,2,
,xotask,dotcolour,dotcolour,51,4,291,591,main,negativefb,-99,hard,,0.5329861999998684,['c'],1,left,['2'],5,0.43705339999996795,53,,,,,,,5,19,Vrouw,Rechts,2,
,xotask,dotcolour,dotcolour,52,4,292,592,main,negativefb,-99,easy,,0.7342060999999376,['n'],1,right,['2'],5,0.1499578000002657,9,,,,,,,5,19,Vrouw,Rechts,2,
,xotask,dotcolour,dotcolour,53,4,293,593,main,negativefb,-99,hard,,0.817674000000352,['c'],1,left,['2'],5,0.12000880000005054,51,,,,,,,5,19,Vrouw,Rechts,2,
,xotask,dotcolour,dotcolour,54,4,294,594,main,negativefb,-99,average,,0.850258699999813,['c'],1,left,['2'],5,0.1072838000000047,61,,,,,,,5,19,Vrouw,Rechts,2,
,xotask,dotcolour,dotcolour,55,4,295,595,main,negativefb,-99,average,,2.31680039999992,['n'],1,right,['2'],5,0.21084930000006352,16,,,,,,,5,19,Vrouw,Rechts,2,
,xotask,dotcolour,dotcolour,56,4,296,596,main,negativefb,-99,hard,,2.0339170000002014,['c'],0,right,['3'],4,0.5469206000002487,27,,,,,,,5,19,Vrouw,Rechts,2,
,xotask,dotcolour,dotcolour,57,4,297,597,main,negativefb,-99,easy,,0.9668916999999055,['c'],1,left,['2'],5,0.18302099999982602,74,,,,,,,5,19,Vrouw,Rechts,2,
,xotask,dotcolour,dotcolour,58,4,298,598,main,negativefb,-99,hard,,0.9324817000001531,['n'],1,right,['2'],5,0.13911659999985204,29,,,,,,,5,19,Vrouw,Rechts,2,
,xotask,dotcolour,dotcolour,59,4,299,599,main,negativefb,-99,hard,,0.8164990000000216,['c'],1,left,['2'],5,0.06200300000000425,54,,,,,,,5,19,Vrouw,Rechts,2,
,dotcolour,dotcolour,dotcolour,0,0,0,600,training,negativefb,98,easy,62,0.8008215999998356,['c'],1,left,['1'],6,1.318044699999973,,,,,,,,5,19,Vrouw,Rechts,2,
,dotcolour,dotcolour,dotcolour,1,0,1,601,training,negativefb,67,hard,41,1.100282800000059,['n'],0,left,['2'],5,0.14213789999985238,,,,,,,,5,19,Vrouw,Rechts,2,
,dotcolour,dotcolour,dotcolour,2,0,2,602,training,negativefb,76,average,28,0.5668757999997069,['n'],1,right,['2'],5,0.1301072999999633,,,,,,,,5,19,Vrouw,Rechts,2,
,dotcolour,dotcolour,dotcolour,3,0,3,603,training,negativefb,88,average,53,0.6501219000001583,['c'],1,left,['1'],6,0.170900999999958,,,,,,,,5,19,Vrouw,Rechts,2,
,dotcolour,dotcolour,dotcolour,4,0,4,604,training,negativefb,53,hard,42,0.6826131000002533,['n'],0,left,['1'],6,0.2813757999997506,,,,,,,,5,19,Vrouw,Rechts,2,
,dotcolour,dotcolour,dotcolour,5,0,5,605,training,negativefb,40,easy,61,0.8167121999999836,['c'],1,left,['2'],5,0.10172229999989213,,,,,,,,5,19,Vrouw,Rechts,2,
,dotcolour,dotcolour,dotcolour,6,0,6,606,training,negativefb,65,easy,15,0.817151499999909,['n'],1,right,['2'],5,0.1454890999998497,,,,,,,,5,19,Vrouw,Rechts,2,
,dotcolour,dotcolour,dotcolour,7,0,7,607,training,negativefb,81,average,27,0.766930599999796,['n'],1,right,['2'],5,0.293793999999707,,,,,,,,5,19,Vrouw,Rechts,2,
,dotcolour,dotcolour,dotcolour,8,0,8,608,training,negativefb,88,easy,61,0.7675933000000441,['c'],1,left,['1'],6,0.3073101999998471,,,,,,,,5,19,Vrouw,Rechts,2,
,dotcolour,dotcolour,dotcolour,9,0,9,609,training,negativefb,27,hard,43,1.8175538999998935,['n'],0,left,['2'],5,0.15045770000006087,,,,,,,,5,19,Vrouw,Rechts,2,
,dotcolour,dotcolour,dotcolour,10,0,10,610,training,negativefb,73,average,25,0.649786800000129,['n'],1,right,['2'],5,0.15100939999956609,,,,,,,,5,19,Vrouw,Rechts,2,
,dotcolour,dotcolour,dotcolour,11,0,11,611,training,negativefb,59,easy,64,0.6833160999999564,['c'],1,left,['1'],6,0.20581579999998212,,,,,,,,5,19,Vrouw,Rechts,2,
,dotcolour,dotcolour,dotcolour,12,0,12,612,training,negativefb,59,hard,38,1.2493928000003507,['n'],1,right,['2'],5,0.6197182000000794,,,,,,,,5,19,Vrouw,Rechts,2,
,dotcolour,dotcolour,dotcolour,13,0,13,613,training,negativefb,87,hard,35,1.100506100000075,['n'],1,right,['2'],5,0.3676387000000432,,,,,,,,5,19,Vrouw,Rechts,2,
,dotcolour,dotcolour,dotcolour,14,0,14,614,training,negativefb,68,hard,43,1.5670183000001998,['c'],1,left,['3'],4,0.36245050000025003,,,,,,,,5,19,Vrouw,Rechts,2,
,dotcolour,dotcolour,dotcolour,15,0,15,615,training,negativefb,26,average,55,0.7828539000001911,['c'],1,left,['3'],4,0.18802599999980885,,,,,,,,5,19,Vrouw,Rechts,2,
,dotcolour,dotcolour,dotcolour,16,0,16,616,training,negativefb,82,hard,43,0.767570799999703,['n'],0,left,['2'],5,0.39815649999991365,,,,,,,,5,19,Vrouw,Rechts,2,
,dotcolour,dotcolour,dotcolour,17,0,17,617,training,negativefb,71,hard,39,0.8837032999999792,['n'],1,right,['2'],5,0.19532509999999093,,,,,,,,5,19,Vrouw,Rechts,2,
,dotcolour,dotcolour,dotcolour,18,0,18,618,training,negativefb,79,average,28,1.1001667000000452,['n'],1,right,['2'],5,0.2399953000003734,,,,,,,,5,19,Vrouw,Rechts,2,
,dotcolour,dotcolour,dotcolour,19,0,19,619,training,negativefb,56,average,55,1.0828354000000218,['c'],1,left,['2'],5,0.23572349999994913,,,,,,,,5,19,Vrouw,Rechts,2,
,dotcolour,dotcolour,dotcolour,20,0,20,620,training,negativefb,78,easy,15,0.7499829000003047,['n'],1,right,['1'],6,0.30892779999976483,,,,,,,,5,19,Vrouw,Rechts,2,
,dotcolour,dotcolour,dotcolour,21,0,21,621,training,negativefb,41,hard,37,1.0663635000000795,['n'],1,right,['2'],5,0.2385534000000007,,,,,,,,5,19,Vrouw,Rechts,2,
