starttime,task,fbtask,firsttask,withinblocktrial,block,withintasktrial,trial,running,feedback,fbscore,difflevel,reddots,rt,resp,cor,cresp,conf_press,cj,RTconf,n_xes,post1,post2,post3,post4,post5,stoptime,sub,age,gender,handedness,session,
1715583529,dotcolour,dotcolour,xotask,0,0,0,0,training,positivefb,89,average,51,2.0665416000000505,['c'],1,left,['0'],6,0.7344874000000345,,,,,,,,14,18,Vrouw,Rechts,2,
,dotcolour,dotcolour,xotask,1,0,1,1,training,positivefb,60,hard,36,0.8504312000000027,['c'],0,right,['0'],6,0.20760530000006838,,,,,,,,14,18,Vrouw,Rechts,2,
,dotcolour,dotcolour,xotask,2,0,2,2,training,positivefb,77,average,27,0.8502535999998599,['n'],1,right,['8'],4,0.44565239999997175,,,,,,,,14,18,Vrouw,Rechts,2,
,dotcolour,dotcolour,xotask,3,0,3,3,training,positivefb,99,average,27,0.6502949999999146,['n'],1,right,['9'],5,0.23446160000003147,,,,,,,,14,18,Vrouw,Rechts,2,
,dotcolour,dotcolour,xotask,4,0,4,4,training,positivefb,92,hard,42,0.6162891000001309,['c'],1,left,['9'],5,0.2163932000000841,,,,,,,,14,18,Vrouw,Rechts,2,
,dotcolour,dotcolour,xotask,5,0,5,5,training,positivefb,68,hard,36,0.5666463000000022,['c'],0,right,['9'],5,0.1611333000000741,,,,,,,,14,18,Vrouw,Rechts,2,
,dotcolour,dotcolour,xotask,6,0,6,6,training,positivefb,98,average,53,0.5339720999998008,['c'],1,left,['9'],5,0.24588139999991654,,,,,,,,14,18,Vrouw,Rechts,2,
,dotcolour,dotcolour,xotask,7,0,7,7,training,positivefb,96,hard,45,0.3994623999999476,['c'],1,left,['9'],5,0.18032640000001265,,,,,,,,14,18,Vrouw,Rechts,2,
,dotcolour,dotcolour,xotask,8,0,8,8,training,positivefb,97,easy,62,0.316507399999864,['c'],1,left,['9'],5,0.19271290000006047,,,,,,,,14,18,Vrouw,Rechts,2,
,dotcolour,dotcolour,xotask,9,0,9,9,training,positivefb,83,average,28,0.39977649999991627,['c'],0,right,['0'],6,0.24978650000002744,,,,,,,,14,18,Vrouw,Rechts,2,
,dotcolour,dotcolour,xotask,10,0,10,10,training,positivefb,88,average,53,0.43400359999986904,['c'],1,left,['9'],5,0.18268109999985427,,,,,,,,14,18,Vrouw,Rechts,2,
,dotcolour,dotcolour,xotask,11,0,11,11,training,positivefb,99,average,54,0.38373779999983526,['c'],1,left,['9'],5,0.19942229999992378,,,,,,,,14,18,Vrouw,Rechts,2,
,dotcolour,dotcolour,xotask,12,0,12,12,training,positivefb,94,average,25,0.38363920000006146,['c'],0,right,['3'],3,0.6484262999999828,,,,,,,,14,18,Vrouw,Rechts,2,
,dotcolour,dotcolour,xotask,13,0,13,13,training,positivefb,97,easy,17,0.732903399999941,['n'],1,right,['9'],5,0.33824110000000474,,,,,,,,14,18,Vrouw,Rechts,2,
,dotcolour,dotcolour,xotask,14,0,14,14,training,positivefb,98,hard,43,0.5334950999999819,['c'],1,left,['9'],5,0.19997929999999542,,,,,,,,14,18,Vrouw,Rechts,2,
,dotcolour,dotcolour,xotask,15,0,15,15,training,positivefb,86,hard,37,1.0166999000000487,['n'],1,right,['9'],5,0.20737420000000384,,,,,,,,14,18,Vrouw,Rechts,2,
,dotcolour,dotcolour,xotask,16,0,16,16,training,positivefb,100,average,54,0.40002340000000913,['c'],1,left,['9'],5,0.18289790000017092,,,,,,,,14,18,Vrouw,Rechts,2,
,dotcolour,dotcolour,xotask,17,0,17,17,training,positivefb,91,hard,43,0.549810399999842,['c'],1,left,['9'],5,0.2017888000000312,,,,,,,,14,18,Vrouw,Rechts,2,
,dotcolour,dotcolour,xotask,18,0,18,18,training,positivefb,97,easy,19,0.6823684000000867,['n'],1,right,['9'],5,0.15809860000013032,,,,,,,,14,18,Vrouw,Rechts,2,
,dotcolour,dotcolour,xotask,19,0,19,19,training,positivefb,94,easy,18,0.7495566999998573,['n'],1,right,['9'],5,0.19483709999985876,,,,,,,,14,18,Vrouw,Rechts,2,
,dotcolour,dotcolour,xotask,20,0,20,20,training,positivefb,94,easy,17,0.6513291000001118,['n'],1,right,['9'],5,0.1765219999999772,,,,,,,,14,18,Vrouw,Rechts,2,
,dotcolour,dotcolour,xotask,21,0,21,21,training,positivefb,93,easy,62,0.5161663999999746,['c'],1,left,['9'],5,0.14987089999999625,,,,,,,,14,18,Vrouw,Rechts,2,
,dotcolour,dotcolour,xotask,22,0,22,22,training,positivefb,99,average,53,0.41600709999988794,['c'],1,left,['9'],5,0.14343309999981102,,,,,,,,14,18,Vrouw,Rechts,2,
,dotcolour,dotcolour,xotask,23,0,23,23,training,positivefb,91,average,54,0.4004331999999522,['c'],1,left,['9'],5,0.12257180000005974,,,,,,,,14,18,Vrouw,Rechts,2,
,dotcolour,dotcolour,xotask,24,0,24,24,training,positivefb,97,easy,64,0.3826272000001154,['c'],1,left,['9'],5,0.15062110000008033,,,,,,,,14,18,Vrouw,Rechts,2,
,dotcolour,dotcolour,xotask,25,0,25,25,training,positivefb,90,hard,36,0.4342861999998604,['n'],1,right,['9'],5,0.1745083999999224,,,,,,,,14,18,Vrouw,Rechts,2,
,dotcolour,dotcolour,xotask,26,0,26,26,training,positivefb,86,hard,35,0.5663753999999699,['c'],0,right,['9'],5,0.18484590000002754,,,,,,,,14,18,Vrouw,Rechts,2,
,dotcolour,dotcolour,xotask,27,0,27,27,training,positivefb,74,easy,17,0.6008605999998053,['n'],1,right,['9'],5,0.2026456999999482,,,,,,,,14,18,Vrouw,Rechts,2,
,dotcolour,dotcolour,xotask,28,0,28,28,training,positivefb,95,hard,35,0.43295899999998255,['c'],0,right,['9'],5,0.20137279999994462,,,,,,,,14,18,Vrouw,Rechts,2,
,dotcolour,dotcolour,xotask,29,0,29,29,training,positivefb,91,hard,42,0.7344812999999704,['c'],1,left,['9'],5,0.15611680000006345,,,,,,,,14,18,Vrouw,Rechts,2,
,dotcolour,dotcolour,xotask,30,0,30,30,training,positivefb,99,hard,36,0.44856830000003356,['n'],1,right,['9'],5,0.1799413999999615,,,,,,,,14,18,Vrouw,Rechts,2,
,dotcolour,dotcolour,xotask,31,0,31,31,training,positivefb,97,easy,19,0.44977640000001884,['c'],0,right,['9'],5,0.14750389999994695,,,,,,,,14,18,Vrouw,Rechts,2,
,dotcolour,dotcolour,xotask,32,0,32,32,training,positivefb,95,hard,44,0.4333264000001691,['c'],1,left,['9'],5,0.14073849999999766,,,,,,,,14,18,Vrouw,Rechts,2,
,dotcolour,dotcolour,xotask,33,0,33,33,training,positivefb,94,hard,37,0.3497264999998606,['c'],0,right,['9'],5,0.20995939999988877,,,,,,,,14,18,Vrouw,Rechts,2,
,dotcolour,dotcolour,xotask,34,0,34,34,training,positivefb,100,average,25,0.0993141999999807,['c'],0,right,['9'],5,0.11372989999995298,,,,,,,,14,18,Vrouw,Rechts,2,
,dotcolour,dotcolour,xotask,35,0,35,35,training,positivefb,95,average,51,0.6332411000000775,['n'],0,left,['9'],5,0.19683740000004946,,,,,,,,14,18,Vrouw,Rechts,2,
,dotcolour,dotcolour,xotask,36,0,36,36,training,positivefb,86,easy,16,0.4168104000000312,['n'],1,right,['9'],5,0.2039531000000352,,,,,,,,14,18,Vrouw,Rechts,2,
,dotcolour,dotcolour,xotask,37,0,37,37,training,positivefb,96,easy,61,0.25051459999986037,['n'],0,left,['9'],5,0.21861940000007962,,,,,,,,14,18,Vrouw,Rechts,2,
,dotcolour,dotcolour,xotask,38,0,38,38,training,positivefb,99,easy,62,0.11583229999996547,['n'],0,left,['9'],5,0.09779140000000552,,,,,,,,14,18,Vrouw,Rechts,2,
,dotcolour,dotcolour,xotask,39,0,39,39,training,positivefb,89,average,53,0.40016789999981484,['n'],0,left,['9'],5,0.15016659999992044,,,,,,,,14,18,Vrouw,Rechts,2,
,dotcolour,dotcolour,xotask,40,0,40,40,training,positivefb,95,average,28,0.41671870000004674,['c'],0,right,['9'],5,0.12742950000006203,,,,,,,,14,18,Vrouw,Rechts,2,
,dotcolour,dotcolour,xotask,41,0,41,41,training,positivefb,91,average,25,0.4497995000001538,['c'],0,right,['9'],5,0.11323519999996279,,,,,,,,14,18,Vrouw,Rechts,2,
,dotcolour,dotcolour,xotask,42,0,42,42,training,positivefb,99,hard,35,0.07968699999992168,['c'],0,right,['9'],5,0.06164460000013605,,,,,,,,14,18,Vrouw,Rechts,2,
,dotcolour,dotcolour,xotask,43,0,43,43,training,positivefb,99,hard,45,0.3330559999999423,['c'],1,left,['9'],5,0.21401650000007066,,,,,,,,14,18,Vrouw,Rechts,2,
,dotcolour,dotcolour,xotask,44,0,44,44,training,positivefb,93,easy,62,0.19920900000010988,['c'],1,left,['9'],5,0.34217220000005,,,,,,,,14,18,Vrouw,Rechts,2,
,dotcolour,dotcolour,xotask,45,0,45,45,training,positivefb,89,average,26,0.33340799999996307,['c'],0,right,['9'],5,0.21159629999988283,,,,,,,,14,18,Vrouw,Rechts,2,
,dotcolour,dotcolour,xotask,46,0,46,46,training,positivefb,97,hard,41,0.41608580000001893,['n'],0,left,['9'],5,0.16323880000004465,,,,,,,,14,18,Vrouw,Rechts,2,
,dotcolour,dotcolour,xotask,47,0,47,47,training,positivefb,98,hard,37,0.3175817999999708,['c'],0,right,['9'],5,0.15212150000002111,,,,,,,,14,18,Vrouw,Rechts,2,
,dotcolour,dotcolour,xotask,48,0,48,48,training,positivefb,98,easy,62,0.300093600000082,['c'],1,left,['9'],5,0.23034020000000055,,,,,,,,14,18,Vrouw,Rechts,2,
,dotcolour,dotcolour,xotask,49,0,49,49,training,positivefb,96,hard,41,0.3335566000000654,['c'],1,left,['9'],5,0.17659580000008646,,,,,,,,14,18,Vrouw,Rechts,2,
,dotcolour,dotcolour,xotask,50,0,50,50,training,positivefb,97,easy,15,0.3832216000000699,['n'],1,right,['9'],5,0.1546799000000192,,,,,,,,14,18,Vrouw,Rechts,2,
,dotcolour,dotcolour,xotask,51,0,51,51,training,positivefb,98,average,29,0.34989439999981187,['n'],1,right,['9'],5,0.15002259999982925,,,,,,,,14,18,Vrouw,Rechts,2,
,dotcolour,dotcolour,xotask,52,0,52,52,training,positivefb,96,easy,65,0.3995167999999012,['c'],1,left,['9'],5,0.18472139999994397,,,,,,,,14,18,Vrouw,Rechts,2,
,dotcolour,dotcolour,xotask,53,0,53,53,training,positivefb,95,hard,45,0.26642820000006395,['c'],1,left,['9'],5,0.19141990000002806,,,,,,,,14,18,Vrouw,Rechts,2,
,dotcolour,dotcolour,xotask,54,0,54,54,training,positivefb,92,average,26,0.8335610999999972,['n'],1,right,['9'],5,0.19045619999997143,,,,,,,,14,18,Vrouw,Rechts,2,
,dotcolour,dotcolour,xotask,55,0,55,55,training,positivefb,97,easy,61,0.6844545999999809,['c'],1,left,['9'],5,0.10775660000012977,,,,,,,,14,18,Vrouw,Rechts,2,
,dotcolour,dotcolour,xotask,56,0,56,56,training,positivefb,90,easy,19,0.30034490000002734,['c'],0,right,['9'],5,0.14795779999985825,,,,,,,,14,18,Vrouw,Rechts,2,
,dotcolour,dotcolour,xotask,57,0,57,57,training,positivefb,89,easy,19,0.3322067999999945,['c'],0,right,['9'],5,0.1768862999999783,,,,,,,,14,18,Vrouw,Rechts,2,
,dotcolour,dotcolour,xotask,58,0,58,58,training,positivefb,98,average,52,0.29987969999979214,['c'],1,left,['9'],5,0.1256338999999116,,,,,,,,14,18,Vrouw,Rechts,2,
,dotcolour,dotcolour,xotask,59,0,59,59,training,positivefb,99,easy,63,0.3327825000001212,['c'],1,left,['9'],5,0.18859040000006644,,,,,,,,14,18,Vrouw,Rechts,2,
,dotcolour,dotcolour,xotask,0,1,60,60,training,positivefb,92,hard,38,0.6673028000000158,['n'],1,right,['9'],5,0.11934440000004543,,,,,,,,14,18,Vrouw,Rechts,2,
,dotcolour,dotcolour,xotask,1,1,61,61,training,positivefb,98,easy,18,0.3319374999998672,['n'],1,right,['9'],5,0.18144010000014532,,,,,,,,14,18,Vrouw,Rechts,2,
,dotcolour,dotcolour,xotask,2,1,62,62,training,positivefb,96,average,27,0.5002088999999614,['n'],1,right,['9'],5,0.16291320000004816,,,,,,,,14,18,Vrouw,Rechts,2,
,dotcolour,dotcolour,xotask,3,1,63,63,training,positivefb,100,easy,64,0.31628999999998086,['c'],1,left,['9'],5,0.15987519999998767,,,,,,,,14,18,Vrouw,Rechts,2,
,dotcolour,dotcolour,xotask,4,1,64,64,training,positivefb,90,average,25,0.43400550000001203,['c'],0,right,['9'],5,0.16096040000002176,,,,,,,,14,18,Vrouw,Rechts,2,
,dotcolour,dotcolour,xotask,5,1,65,65,training,positivefb,96,average,52,0.35030570000003536,['c'],1,left,['9'],5,0.14032059999999547,,,,,,,,14,18,Vrouw,Rechts,2,
,dotcolour,dotcolour,xotask,6,1,66,66,training,positivefb,96,average,51,0.3157332000000679,['c'],1,left,['9'],5,0.22714919999998529,,,,,,,,14,18,Vrouw,Rechts,2,
,dotcolour,dotcolour,xotask,7,1,67,67,training,positivefb,98,average,51,0.31728180000004613,['c'],1,left,['9'],5,0.16584209999996347,,,,,,,,14,18,Vrouw,Rechts,2,
,dotcolour,dotcolour,xotask,8,1,68,68,training,positivefb,100,hard,43,0.07301830000005793,['c'],1,left,['9'],5,0.0874688999999762,,,,,,,,14,18,Vrouw,Rechts,2,
,dotcolour,dotcolour,xotask,9,1,69,69,training,positivefb,94,easy,16,0.28311429999985194,['c'],0,right,['9'],5,0.16832810000005338,,,,,,,,14,18,Vrouw,Rechts,2,
,dotcolour,dotcolour,xotask,10,1,70,70,training,positivefb,99,average,51,0.30001070000002983,['n'],0,left,['9'],5,0.10954089999995631,,,,,,,,14,18,Vrouw,Rechts,2,
,dotcolour,dotcolour,xotask,11,1,71,71,training,positivefb,98,hard,35,0.24912479999989046,['c'],0,right,['9'],5,0.07149159999994481,,,,,,,,14,18,Vrouw,Rechts,2,
,dotcolour,dotcolour,xotask,12,1,72,72,training,positivefb,93,easy,17,0.3000256000000263,['c'],0,right,['9'],5,0.1930168000001231,,,,,,,,14,18,Vrouw,Rechts,2,
,dotcolour,dotcolour,xotask,13,1,73,73,training,positivefb,97,average,55,0.2494690000000901,['n'],0,left,['9'],5,0.16005119999999806,,,,,,,,14,18,Vrouw,Rechts,2,
,dotcolour,dotcolour,xotask,14,1,74,74,training,positivefb,99,easy,16,0.17147330000011607,['c'],0,right,['9'],5,0.05046389999984058,,,,,,,,14,18,Vrouw,Rechts,2,
,dotcolour,dotcolour,xotask,15,1,75,75,training,positivefb,97,easy,15,0.41723849999993945,['n'],1,right,['9'],5,0.12741979999987052,,,,,,,,14,18,Vrouw,Rechts,2,
,dotcolour,dotcolour,xotask,16,1,76,76,training,positivefb,92,easy,64,1.1497173000000203,['c'],1,left,['9'],5,0.06882969999992383,,,,,,,,14,18,Vrouw,Rechts,2,
,dotcolour,dotcolour,xotask,17,1,77,77,training,positivefb,97,average,25,0.300346700000091,['n'],1,right,['9'],5,0.1020290000001296,,,,,,,,14,18,Vrouw,Rechts,2,
,dotcolour,dotcolour,xotask,18,1,78,78,training,positivefb,88,average,55,0.2831808999999339,['n'],0,left,['9'],5,0.18287929999996777,,,,,,,,14,18,Vrouw,Rechts,2,
,dotcolour,dotcolour,xotask,19,1,79,79,training,positivefb,97,average,54,0.2831765999999334,['c'],1,left,['9'],5,0.10019899999997506,,,,,,,,14,18,Vrouw,Rechts,2,
,dotcolour,dotcolour,xotask,20,1,80,80,training,positivefb,99,hard,45,0.2659745999999359,['c'],1,left,['9'],5,0.10158929999988686,,,,,,,,14,18,Vrouw,Rechts,2,
,dotcolour,dotcolour,xotask,21,1,81,81,training,positivefb,96,hard,43,0.30001289999995606,['c'],1,left,['9'],5,0.17388049999999566,,,,,,,,14,18,Vrouw,Rechts,2,
,dotcolour,dotcolour,xotask,22,1,82,82,training,positivefb,96,hard,38,0.3830703999999514,['c'],0,right,['9'],5,0.18388729999992393,,,,,,,,14,18,Vrouw,Rechts,2,
,dotcolour,dotcolour,xotask,23,1,83,83,training,positivefb,98,easy,61,0.2821931000000859,['c'],1,left,['9'],5,0.06114670000010847,,,,,,,,14,18,Vrouw,Rechts,2,
,dotcolour,dotcolour,xotask,24,1,84,84,training,positivefb,97,hard,43,0.21633410000004005,['c'],1,left,['9'],5,0.06645960000014384,,,,,,,,14,18,Vrouw,Rechts,2,
,dotcolour,dotcolour,xotask,25,1,85,85,training,positivefb,98,easy,18,0.3330568999999741,['n'],1,right,['9'],5,0.15463419999991856,,,,,,,,14,18,Vrouw,Rechts,2,
,dotcolour,dotcolour,xotask,26,1,86,86,training,positivefb,97,hard,36,0.23322110000003704,['c'],0,right,['9'],5,0.11568499999998494,,,,,,,,14,18,Vrouw,Rechts,2,
,dotcolour,dotcolour,xotask,27,1,87,87,training,positivefb,100,easy,17,0.14456760000007307,['n'],1,right,['9'],5,0.08664359999988847,,,,,,,,14,18,Vrouw,Rechts,2,
,dotcolour,dotcolour,xotask,28,1,88,88,training,positivefb,100,easy,61,0.28228119999994306,['c'],1,left,['9'],5,0.32797470000014073,,,,,,,,14,18,Vrouw,Rechts,2,
,dotcolour,dotcolour,xotask,29,1,89,89,training,positivefb,93,hard,43,0.3668402999999216,['c'],1,left,['9'],5,0.0759243999998489,,,,,,,,14,18,Vrouw,Rechts,2,
,dotcolour,dotcolour,xotask,30,1,90,90,training,positivefb,100,easy,62,0.1322786000000633,['n'],0,left,['9'],5,0.0347838000000138,,,,,,,,14,18,Vrouw,Rechts,2,
,dotcolour,dotcolour,xotask,31,1,91,91,training,positivefb,99,average,27,0.23311200000011922,['n'],1,right,['9'],5,0.09549839999999676,,,,,,,,14,18,Vrouw,Rechts,2,
,dotcolour,dotcolour,xotask,32,1,92,92,training,positivefb,97,average,27,1.016135200000008,['n'],1,right,['9'],5,0.1159975000000486,,,,,,,,14,18,Vrouw,Rechts,2,
,dotcolour,dotcolour,xotask,33,1,93,93,training,positivefb,98,hard,36,0.2664930999999342,['n'],1,right,['9'],5,0.12436739999998281,,,,,,,,14,18,Vrouw,Rechts,2,
,dotcolour,dotcolour,xotask,34,1,94,94,training,positivefb,98,average,29,0.26682419999997364,['c'],0,right,['9'],5,0.21271860000001652,,,,,,,,14,18,Vrouw,Rechts,2,
,dotcolour,dotcolour,xotask,35,1,95,95,training,positivefb,98,easy,63,0.31728499999985615,['c'],1,left,['9'],5,0.0809034999999767,,,,,,,,14,18,Vrouw,Rechts,2,
,dotcolour,dotcolour,xotask,36,1,96,96,training,positivefb,97,easy,16,0.24919249999993554,['c'],0,right,['9'],5,0.11548549999997704,,,,,,,,14,18,Vrouw,Rechts,2,
,dotcolour,dotcolour,xotask,37,1,97,97,training,positivefb,97,hard,36,0.3329489999998714,['n'],1,right,['9'],5,0.10603560000004109,,,,,,,,14,18,Vrouw,Rechts,2,
,dotcolour,dotcolour,xotask,38,1,98,98,training,positivefb,96,easy,18,0.30050869999990937,['c'],0,right,['9'],5,0.16204799999991337,,,,,,,,14,18,Vrouw,Rechts,2,
,dotcolour,dotcolour,xotask,39,1,99,99,training,positivefb,88,easy,61,0.8329499000001306,['n'],0,left,['9'],5,0.13074230000006537,,,,,,,,14,18,Vrouw,Rechts,2,
,dotcolour,dotcolour,xotask,40,1,100,100,training,positivefb,99,average,52,0.35038269999995464,['c'],1,left,['9'],5,0.08779199999980847,,,,,,,,14,18,Vrouw,Rechts,2,
,dotcolour,dotcolour,xotask,41,1,101,101,training,positivefb,83,average,26,0.41736199999991186,['c'],0,right,['9'],5,0.1161094999999932,,,,,,,,14,18,Vrouw,Rechts,2,
,dotcolour,dotcolour,xotask,42,1,102,102,training,positivefb,98,average,52,0.24875279999992017,['n'],0,left,['9'],5,0.1975104000000556,,,,,,,,14,18,Vrouw,Rechts,2,
,dotcolour,dotcolour,xotask,43,1,103,103,training,positivefb,88,hard,43,0.7667215999999826,['n'],0,left,['9'],5,0.10402129999988574,,,,,,,,14,18,Vrouw,Rechts,2,
,dotcolour,dotcolour,xotask,44,1,104,104,training,positivefb,99,hard,45,0.31624809999993886,['c'],1,left,['9'],5,0.18276300000002266,,,,,,,,14,18,Vrouw,Rechts,2,
,dotcolour,dotcolour,xotask,45,1,105,105,training,positivefb,93,easy,63,0.3667826000000787,['c'],1,left,['9'],5,0.09744149999983165,,,,,,,,14,18,Vrouw,Rechts,2,
,dotcolour,dotcolour,xotask,46,1,106,106,training,positivefb,96,average,28,0.31752449999999044,['n'],1,right,['9'],5,0.11353030000009312,,,,,,,,14,18,Vrouw,Rechts,2,
,dotcolour,dotcolour,xotask,47,1,107,107,training,positivefb,98,hard,43,0.4330203000001802,['c'],1,left,['9'],5,0.11581999999998516,,,,,,,,14,18,Vrouw,Rechts,2,
,dotcolour,dotcolour,xotask,48,1,108,108,training,positivefb,98,average,55,0.3504685000000336,['c'],1,left,['9'],5,0.11366159999988668,,,,,,,,14,18,Vrouw,Rechts,2,
,dotcolour,dotcolour,xotask,49,1,109,109,training,positivefb,100,easy,64,0.11039949999985765,['n'],0,left,['9'],5,0.005392000000028929,,,,,,,,14,18,Vrouw,Rechts,2,
,dotcolour,dotcolour,xotask,50,1,110,110,training,positivefb,96,average,25,0.28331490000005033,['c'],0,right,['9'],5,0.12196949999997742,,,,,,,,14,18,Vrouw,Rechts,2,
,dotcolour,dotcolour,xotask,51,1,111,111,training,positivefb,95,hard,43,0.7329039999999623,['n'],0,left,['9'],5,0.12848759999997128,,,,,,,,14,18,Vrouw,Rechts,2,
,dotcolour,dotcolour,xotask,52,1,112,112,training,positivefb,92,easy,17,0.7330175999998119,['c'],0,right,['9'],5,0.11819980000018404,,,,,,,,14,18,Vrouw,Rechts,2,
,dotcolour,dotcolour,xotask,53,1,113,113,training,positivefb,100,hard,38,0.17144329999996444,['n'],1,right,['9'],5,0.009471399999938512,,,,,,,,14,18,Vrouw,Rechts,2,
,dotcolour,dotcolour,xotask,54,1,114,114,training,positivefb,99,hard,42,0.3833472999999685,['c'],1,left,['9'],5,0.17835700000000543,,,,,,,,14,18,Vrouw,Rechts,2,
,dotcolour,dotcolour,xotask,55,1,115,115,training,positivefb,96,easy,65,1.3166687000000366,['c'],1,left,['9'],5,0.27938719999997375,,,,,,,,14,18,Vrouw,Rechts,2,
,dotcolour,dotcolour,xotask,56,1,116,116,training,positivefb,94,hard,35,0.2837824000000637,['c'],0,right,['9'],5,0.17698199999995268,,,,,,,,14,18,Vrouw,Rechts,2,
,dotcolour,dotcolour,xotask,57,1,117,117,training,positivefb,87,hard,36,0.2156827000001158,['c'],0,right,['9'],5,0.18607829999996284,,,,,,,,14,18,Vrouw,Rechts,2,
,dotcolour,dotcolour,xotask,58,1,118,118,training,positivefb,93,average,26,0.5160794999999325,['n'],1,right,['9'],5,0.13444000000004053,,,,,,,,14,18,Vrouw,Rechts,2,
,dotcolour,dotcolour,xotask,59,1,119,119,training,positivefb,98,hard,35,0.34971459999997023,['c'],0,right,['9'],5,0.23362680000013825,,,,,,,,14,18,Vrouw,Rechts,2,
,xotask,dotcolour,xotask,0,2,120,120,main,positivefb,-99,easy,,2.3502670999998827,['c'],0,right,['9'],5,0.2315545999999813,8,,,,,,,14,18,Vrouw,Rechts,2,
,xotask,dotcolour,xotask,1,2,121,121,main,positivefb,-99,easy,,0.9332280999999512,['c'],0,right,['9'],5,0.15434629999981553,5,,,,,,,14,18,Vrouw,Rechts,2,
,xotask,dotcolour,xotask,2,2,122,122,main,positivefb,-99,easy,,2.2004369000001134,['n'],0,left,['9'],5,0.18888700000002245,71,,,,,,,14,18,Vrouw,Rechts,2,
,xotask,dotcolour,xotask,3,2,123,123,main,positivefb,-99,average,,1.76741990000005,['n'],1,right,['9'],5,0.14401279999992767,16,,,,,,,14,18,Vrouw,Rechts,2,
,xotask,dotcolour,xotask,4,2,124,124,main,positivefb,-99,average,,0.6499092000001383,['n'],1,right,['9'],5,0.12939729999993688,15,,,,,,,14,18,Vrouw,Rechts,2,
,xotask,dotcolour,xotask,5,2,125,125,main,positivefb,-99,average,,0.6340324000000237,['c'],1,left,['9'],5,0.14016590000005635,63,,,,,,,14,18,Vrouw,Rechts,2,
,xotask,dotcolour,xotask,6,2,126,126,main,positivefb,-99,hard,,0.8010653000001184,['c'],0,right,['9'],5,0.09446679999996377,27,,,,,,,14,18,Vrouw,Rechts,2,
,xotask,dotcolour,xotask,7,2,127,127,main,positivefb,-99,average,,0.534121099999993,['n'],0,left,['9'],5,0.206577500000094,61,,,,,,,14,18,Vrouw,Rechts,2,
,xotask,dotcolour,xotask,8,2,128,128,main,positivefb,-99,easy,,0.5671033000000989,['c'],1,left,['9'],5,0.13649610000015855,74,,,,,,,14,18,Vrouw,Rechts,2,
,xotask,dotcolour,xotask,9,2,129,129,main,positivefb,-99,average,,0.601166400000011,['c'],1,left,['9'],5,0.18856049999999414,64,,,,,,,14,18,Vrouw,Rechts,2,
,xotask,dotcolour,xotask,10,2,130,130,main,positivefb,-99,easy,,0.5996964999999363,['n'],1,right,['9'],5,0.1495193000000654,8,,,,,,,14,18,Vrouw,Rechts,2,
,xotask,dotcolour,xotask,11,2,131,131,main,positivefb,-99,easy,,0.7001043000000209,['c'],1,left,['9'],5,0.15647280000007413,73,,,,,,,14,18,Vrouw,Rechts,2,
,xotask,dotcolour,xotask,12,2,132,132,main,positivefb,-99,easy,,0.7004723999998532,['c'],1,left,['9'],5,0.1714518000001135,70,,,,,,,14,18,Vrouw,Rechts,2,
,xotask,dotcolour,xotask,13,2,133,133,main,positivefb,-99,hard,,0.5999696999999742,['c'],0,right,['9'],5,0.15770399999996698,29,,,,,,,14,18,Vrouw,Rechts,2,
,xotask,dotcolour,xotask,14,2,134,134,main,positivefb,-99,hard,,0.4011981000001015,['c'],0,right,['9'],5,0.1121215000000575,29,,,,,,,14,18,Vrouw,Rechts,2,
,xotask,dotcolour,xotask,15,2,135,135,main,positivefb,-99,hard,,0.4991740000000391,['n'],1,right,['9'],5,0.11261259999992035,25,,,,,,,14,18,Vrouw,Rechts,2,
,xotask,dotcolour,xotask,16,2,136,136,main,positivefb,-99,average,,0.8160737000000609,['n'],1,right,['9'],5,0.10057690000007824,16,,,,,,,14,18,Vrouw,Rechts,2,
,xotask,dotcolour,xotask,17,2,137,137,main,positivefb,-99,easy,,0.7343647999998666,['n'],1,right,['9'],5,0.0845836999999392,8,,,,,,,14,18,Vrouw,Rechts,2,
,xotask,dotcolour,xotask,18,2,138,138,main,positivefb,-99,average,,0.6511145000001761,['n'],1,right,['9'],5,0.1188288000000739,17,,,,,,,14,18,Vrouw,Rechts,2,
,xotask,dotcolour,xotask,19,2,139,139,main,positivefb,-99,average,,0.6830129999998462,['c'],1,left,['9'],5,0.12041350000004059,62,,,,,,,14,18,Vrouw,Rechts,2,
,xotask,dotcolour,xotask,20,2,140,140,main,positivefb,-99,average,,0.534357,['n'],1,right,['9'],5,0.11087130000009893,19,,,,,,,14,18,Vrouw,Rechts,2,
,xotask,dotcolour,xotask,21,2,141,141,main,positivefb,-99,easy,,0.4337904999999864,['c'],0,right,['9'],5,0.1304606999999578,9,,,,,,,14,18,Vrouw,Rechts,2,
,xotask,dotcolour,xotask,22,2,142,142,main,positivefb,-99,average,,0.5170798999999988,['n'],1,right,['9'],5,0.10556610000003275,17,,,,,,,14,18,Vrouw,Rechts,2,
,xotask,dotcolour,xotask,23,2,143,143,main,positivefb,-99,average,,0.43362679999995635,['n'],0,left,['9'],5,0.1172566000000188,64,,,,,,,14,18,Vrouw,Rechts,2,
,xotask,dotcolour,xotask,24,2,144,144,main,positivefb,-99,hard,,0.3339238999999452,['n'],1,right,['9'],5,0.1078855000000658,28,,,,,,,14,18,Vrouw,Rechts,2,
,xotask,dotcolour,xotask,25,2,145,145,main,positivefb,-99,easy,,0.44989160000000084,['n'],1,right,['9'],5,0.1350528000000395,5,,,,,,,14,18,Vrouw,Rechts,2,
,xotask,dotcolour,xotask,26,2,146,146,main,positivefb,-99,hard,,0.4333708999999999,['n'],1,right,['9'],5,0.1528992000000926,28,,,,,,,14,18,Vrouw,Rechts,2,
,xotask,dotcolour,xotask,27,2,147,147,main,positivefb,-99,easy,,0.36712600000009843,['n'],1,right,['9'],5,0.17300230000000738,9,,,,,,,14,18,Vrouw,Rechts,2,
,xotask,dotcolour,xotask,28,2,148,148,main,positivefb,-99,average,,0.33383249999997133,['n'],1,right,['9'],5,0.14518999999995685,15,,,,,,,14,18,Vrouw,Rechts,2,
,xotask,dotcolour,xotask,29,2,149,149,main,positivefb,-99,hard,,0.582708299999922,['n'],1,right,['9'],5,0.19769429999996646,28,,,,,,,14,18,Vrouw,Rechts,2,
,xotask,dotcolour,xotask,30,2,150,150,main,positivefb,-99,average,,0.46667459999980565,['n'],0,left,['9'],5,1.524909199999911,63,,,,,,,14,18,Vrouw,Rechts,2,
,xotask,dotcolour,xotask,31,2,151,151,main,positivefb,-99,average,,2.31704179999997,['c'],1,left,['9'],5,0.20362260000001697,61,,,,,,,14,18,Vrouw,Rechts,2,
,xotask,dotcolour,xotask,32,2,152,152,main,positivefb,-99,average,,0.7344857999999022,['c'],1,left,['9'],5,0.3343651000000136,62,,,,,,,14,18,Vrouw,Rechts,2,
,xotask,dotcolour,xotask,33,2,153,153,main,positivefb,-99,average,,0.5339736999999332,['c'],0,right,['9'],5,0.11733000000003813,18,,,,,,,14,18,Vrouw,Rechts,2,
,xotask,dotcolour,xotask,34,2,154,154,main,positivefb,-99,average,,0.600988500000085,['n'],1,right,['9'],5,0.09685719999993125,15,,,,,,,14,18,Vrouw,Rechts,2,
,xotask,dotcolour,xotask,35,2,155,155,main,positivefb,-99,hard,,0.6164017999999487,['n'],1,right,['9'],5,0.054271100000050865,25,,,,,,,14,18,Vrouw,Rechts,2,
,xotask,dotcolour,xotask,36,2,156,156,main,positivefb,-99,hard,,0.9500167000001056,['c'],1,left,['9'],5,0.10271779999993669,50,,,,,,,14,18,Vrouw,Rechts,2,
,xotask,dotcolour,xotask,37,2,157,157,main,positivefb,-99,hard,,1.3500951000000896,['n'],0,left,['9'],5,0.7169851999999537,51,,,,,,,14,18,Vrouw,Rechts,2,
,xotask,dotcolour,xotask,38,2,158,158,main,positivefb,-99,easy,,0.866791400000011,['c'],1,left,['9'],5,0.1745867999998154,72,,,,,,,14,18,Vrouw,Rechts,2,
,xotask,dotcolour,xotask,39,2,159,159,main,positivefb,-99,average,,0.6004190999999537,['n'],1,right,['9'],5,0.0886960000000272,17,,,,,,,14,18,Vrouw,Rechts,2,
,xotask,dotcolour,xotask,40,2,160,160,main,positivefb,-99,easy,,0.7511265999999068,['c'],1,left,['9'],5,0.1043945999999778,72,,,,,,,14,18,Vrouw,Rechts,2,
,xotask,dotcolour,xotask,41,2,161,161,main,positivefb,-99,hard,,1.1505612999999357,['c'],1,left,['9'],5,0.14192099999991115,50,,,,,,,14,18,Vrouw,Rechts,2,
,xotask,dotcolour,xotask,42,2,162,162,main,positivefb,-99,easy,,0.6012909000000946,['c'],1,left,['9'],5,0.13021680000019842,72,,,,,,,14,18,Vrouw,Rechts,2,
,xotask,dotcolour,xotask,43,2,163,163,main,positivefb,-99,hard,,0.7347423999999592,['c'],1,left,['9'],5,0.16899390000003223,50,,,,,,,14,18,Vrouw,Rechts,2,
,xotask,dotcolour,xotask,44,2,164,164,main,positivefb,-99,hard,,0.3671600000000126,['c'],1,left,['9'],5,0.15618820000008782,51,,,,,,,14,18,Vrouw,Rechts,2,
,xotask,dotcolour,xotask,45,2,165,165,main,positivefb,-99,easy,,0.4829308000000765,['n'],1,right,['9'],5,0.10782990000006976,9,,,,,,,14,18,Vrouw,Rechts,2,
,xotask,dotcolour,xotask,46,2,166,166,main,positivefb,-99,easy,,4.383707799999911,['c'],1,left,['9'],5,0.10521289999996952,70,,,,,,,14,18,Vrouw,Rechts,2,
,xotask,dotcolour,xotask,47,2,167,167,main,positivefb,-99,easy,,1.8177625999999236,['n'],1,right,['9'],5,0.04522339999994074,9,,,,,,,14,18,Vrouw,Rechts,2,
,xotask,dotcolour,xotask,48,2,168,168,main,positivefb,-99,hard,,0.9840210999998362,['n'],0,left,['9'],5,0.20549019999998563,54,,,,,,,14,18,Vrouw,Rechts,2,
,xotask,dotcolour,xotask,49,2,169,169,main,positivefb,-99,average,,0.615818900000022,['c'],1,left,['9'],5,0.10956229999987954,62,,,,,,,14,18,Vrouw,Rechts,2,
,xotask,dotcolour,xotask,50,2,170,170,main,positivefb,-99,hard,,0.5669044000001122,['n'],1,right,['9'],5,0.10690380000005462,26,,,,,,,14,18,Vrouw,Rechts,2,
,xotask,dotcolour,xotask,51,2,171,171,main,positivefb,-99,easy,,0.5331042999998772,['c'],1,left,['9'],5,0.18665310000005775,70,,,,,,,14,18,Vrouw,Rechts,2,
,xotask,dotcolour,xotask,52,2,172,172,main,positivefb,-99,hard,,0.6834732999998323,['c'],1,left,['9'],5,0.07235519999994722,52,,,,,,,14,18,Vrouw,Rechts,2,
,xotask,dotcolour,xotask,53,2,173,173,main,positivefb,-99,easy,,0.6167324999998982,['n'],1,right,['9'],5,0.09420870000008108,8,,,,,,,14,18,Vrouw,Rechts,2,
,xotask,dotcolour,xotask,54,2,174,174,main,positivefb,-99,hard,,0.7007452999998804,['n'],0,left,['9'],5,0.07052379999981895,50,,,,,,,14,18,Vrouw,Rechts,2,
,xotask,dotcolour,xotask,55,2,175,175,main,positivefb,-99,hard,,0.7334316000001309,['n'],0,left,['9'],5,0.1601843999999346,54,,,,,,,14,18,Vrouw,Rechts,2,
,xotask,dotcolour,xotask,56,2,176,176,main,positivefb,-99,hard,,0.7012833999999657,['c'],1,left,['9'],5,0.10228800000004412,50,,,,,,,14,18,Vrouw,Rechts,2,
,xotask,dotcolour,xotask,57,2,177,177,main,positivefb,-99,hard,,0.6496806000000106,['c'],0,right,['9'],5,0.049626399999851856,28,,,,,,,14,18,Vrouw,Rechts,2,
,xotask,dotcolour,xotask,58,2,178,178,main,positivefb,-99,easy,,0.7839665999999852,['c'],1,left,['9'],5,0.12899590000006356,73,,,,,,,14,18,Vrouw,Rechts,2,
,xotask,dotcolour,xotask,59,2,179,179,main,positivefb,-99,average,,0.4332770000000892,['c'],1,left,['9'],5,0.1557365999999547,61,,,,,,,14,18,Vrouw,Rechts,2,
,xotask,dotcolour,xotask,0,3,180,180,main,positivefb,-99,average,,1.2004012999998395,['n'],0,left,['9'],5,0.05597330000000511,62,,,,,,,14,18,Vrouw,Rechts,2,
,xotask,dotcolour,xotask,1,3,181,181,main,positivefb,-99,average,,0.567739999999958,['c'],1,left,['9'],5,0.07969789999992827,62,,,,,,,14,18,Vrouw,Rechts,2,
,xotask,dotcolour,xotask,2,3,182,182,main,positivefb,-99,easy,,0.6515036000000691,['n'],1,right,['9'],5,0.10741939999979877,7,,,,,,,14,18,Vrouw,Rechts,2,
,xotask,dotcolour,xotask,3,3,183,183,main,positivefb,-99,hard,,0.41603379999992285,['c'],1,left,['9'],5,0.12023460000000341,51,,,,,,,14,18,Vrouw,Rechts,2,
,xotask,dotcolour,xotask,4,3,184,184,main,positivefb,-99,easy,,0.5337766000000101,['n'],1,right,['9'],5,0.118255599999884,8,,,,,,,14,18,Vrouw,Rechts,2,
,xotask,dotcolour,xotask,5,3,185,185,main,positivefb,-99,easy,,0.7337688000000071,['c'],1,left,['9'],5,0.06977109999979803,72,,,,,,,14,18,Vrouw,Rechts,2,
,xotask,dotcolour,xotask,6,3,186,186,main,positivefb,-99,average,,0.6674319000001105,['c'],1,left,['9'],5,0.04883940000013354,62,,,,,,,14,18,Vrouw,Rechts,2,
,xotask,dotcolour,xotask,7,3,187,187,main,positivefb,-99,easy,,0.600134799999978,['c'],1,left,['9'],5,0.14416830000004666,71,,,,,,,14,18,Vrouw,Rechts,2,
,xotask,dotcolour,xotask,8,3,188,188,main,positivefb,-99,easy,,0.6513417999999547,['n'],1,right,['9'],5,0.07355619999998453,6,,,,,,,14,18,Vrouw,Rechts,2,
,xotask,dotcolour,xotask,9,3,189,189,main,positivefb,-99,hard,,0.6336338999999498,['c'],1,left,['9'],5,0.1904610000001412,54,,,,,,,14,18,Vrouw,Rechts,2,
,xotask,dotcolour,xotask,10,3,190,190,main,positivefb,-99,hard,,0.634444700000131,['n'],1,right,['9'],5,0.1341640999999072,27,,,,,,,14,18,Vrouw,Rechts,2,
,xotask,dotcolour,xotask,11,3,191,191,main,positivefb,-99,hard,,0.55046040000002,['c'],0,right,['9'],5,0.4913685000001351,28,,,,,,,14,18,Vrouw,Rechts,2,
,xotask,dotcolour,xotask,12,3,192,192,main,positivefb,-99,easy,,0.6162686000000122,['n'],1,right,['9'],5,0.16037019999998847,7,,,,,,,14,18,Vrouw,Rechts,2,
,xotask,dotcolour,xotask,13,3,193,193,main,positivefb,-99,average,,0.5668977999998788,['n'],1,right,['9'],5,0.15590520000000652,18,,,,,,,14,18,Vrouw,Rechts,2,
,xotask,dotcolour,xotask,14,3,194,194,main,positivefb,-99,hard,,0.6003713999998581,['c'],1,left,['9'],5,0.09501400000021931,54,,,,,,,14,18,Vrouw,Rechts,2,
,xotask,dotcolour,xotask,15,3,195,195,main,positivefb,-99,average,,0.667317500000081,['n'],1,right,['9'],5,0.033186800000066796,18,,,,,,,14,18,Vrouw,Rechts,2,
,xotask,dotcolour,xotask,16,3,196,196,main,positivefb,-99,hard,,0.8009031999999934,['n'],0,left,['9'],5,0.12856910000004973,53,,,,,,,14,18,Vrouw,Rechts,2,
,xotask,dotcolour,xotask,17,3,197,197,main,positivefb,-99,hard,,0.599903999999924,['c'],1,left,['9'],5,0.20504699999992226,52,,,,,,,14,18,Vrouw,Rechts,2,
,xotask,dotcolour,xotask,18,3,198,198,main,positivefb,-99,easy,,0.6507728999999927,['c'],1,left,['9'],5,0.14769059999980527,71,,,,,,,14,18,Vrouw,Rechts,2,
,xotask,dotcolour,xotask,19,3,199,199,main,positivefb,-99,hard,,0.6003220000000056,['c'],0,right,['9'],5,0.11130899999989197,26,,,,,,,14,18,Vrouw,Rechts,2,
,xotask,dotcolour,xotask,20,3,200,200,main,positivefb,-99,average,,0.700731899999937,['n'],0,left,['9'],5,0.09571239999991121,60,,,,,,,14,18,Vrouw,Rechts,2,
,xotask,dotcolour,xotask,21,3,201,201,main,positivefb,-99,hard,,0.8012241000001268,['n'],1,right,['9'],5,0.07744990000014695,29,,,,,,,14,18,Vrouw,Rechts,2,
,xotask,dotcolour,xotask,22,3,202,202,main,positivefb,-99,average,,0.616674600000124,['c'],1,left,['9'],5,0.1058200999998462,60,,,,,,,14,18,Vrouw,Rechts,2,
,xotask,dotcolour,xotask,23,3,203,203,main,positivefb,-99,average,,0.8341933000001518,['c'],0,right,['9'],5,0.05386109999994915,15,,,,,,,14,18,Vrouw,Rechts,2,
,xotask,dotcolour,xotask,24,3,204,204,main,positivefb,-99,average,,0.8831789000000754,['c'],1,left,['9'],5,0.15343250000000808,60,,,,,,,14,18,Vrouw,Rechts,2,
,xotask,dotcolour,xotask,25,3,205,205,main,positivefb,-99,easy,,0.5664948999999524,['n'],1,right,['9'],5,0.1411964999999782,8,,,,,,,14,18,Vrouw,Rechts,2,
,xotask,dotcolour,xotask,26,3,206,206,main,positivefb,-99,average,,0.48478829999999107,['c'],1,left,['9'],5,0.14983030000007602,62,,,,,,,14,18,Vrouw,Rechts,2,
,xotask,dotcolour,xotask,27,3,207,207,main,positivefb,-99,hard,,0.7507516999999098,['n'],0,left,['9'],5,0.8738405000001421,50,,,,,,,14,18,Vrouw,Rechts,2,
,xotask,dotcolour,xotask,28,3,208,208,main,positivefb,-99,easy,,0.701126400000021,['c'],1,left,['9'],5,0.20401619999984177,73,,,,,,,14,18,Vrouw,Rechts,2,
,xotask,dotcolour,xotask,29,3,209,209,main,positivefb,-99,average,,0.600120600000082,['c'],1,left,['9'],5,0.1810385999999653,62,,,,,,,14,18,Vrouw,Rechts,2,
,xotask,dotcolour,xotask,30,3,210,210,main,positivefb,-99,hard,,1.0674822999999378,['n'],1,right,['9'],5,0.15600399999993897,27,,,,,,,14,18,Vrouw,Rechts,2,
,xotask,dotcolour,xotask,31,3,211,211,main,positivefb,-99,average,,0.4173625999999331,['c'],0,right,['9'],5,1.125998700000082,18,,,,,,,14,18,Vrouw,Rechts,2,
,xotask,dotcolour,xotask,32,3,212,212,main,positivefb,-99,hard,,0.6175207000001137,['n'],1,right,['9'],5,0.01661580000018148,25,,,,,,,14,18,Vrouw,Rechts,2,
,xotask,dotcolour,xotask,33,3,213,213,main,positivefb,-99,easy,,0.5664477000000261,['c'],1,left,['9'],5,0.08290639999995619,74,,,,,,,14,18,Vrouw,Rechts,2,
,xotask,dotcolour,xotask,34,3,214,214,main,positivefb,-99,easy,,0.9337789999999586,['n'],1,right,['9'],5,0.6909940000000461,6,,,,,,,14,18,Vrouw,Rechts,2,
,xotask,dotcolour,xotask,35,3,215,215,main,positivefb,-99,hard,,0.7507121000001007,['n'],1,right,['9'],5,0.13034289999995963,26,,,,,,,14,18,Vrouw,Rechts,2,
,xotask,dotcolour,xotask,36,3,216,216,main,positivefb,-99,hard,,0.6673643000001448,['n'],0,left,['9'],5,0.5550321000000622,52,,,,,,,14,18,Vrouw,Rechts,2,
,xotask,dotcolour,xotask,37,3,217,217,main,positivefb,-99,average,,0.566714999999931,['c'],1,left,['9'],5,0.22398900000007416,62,,,,,,,14,18,Vrouw,Rechts,2,
,xotask,dotcolour,xotask,38,3,218,218,main,positivefb,-99,easy,,0.6006497999999283,['c'],1,left,['9'],5,0.12014859999999317,72,,,,,,,14,18,Vrouw,Rechts,2,
,xotask,dotcolour,xotask,39,3,219,219,main,positivefb,-99,easy,,0.58357779999983,['c'],1,left,['9'],5,0.18898239999998623,72,,,,,,,14,18,Vrouw,Rechts,2,
,xotask,dotcolour,xotask,40,3,220,220,main,positivefb,-99,hard,,1.2674398999999994,['n'],1,right,['9'],5,0.14752569999996012,25,,,,,,,14,18,Vrouw,Rechts,2,
,xotask,dotcolour,xotask,41,3,221,221,main,positivefb,-99,hard,,0.8676769999999578,['n'],0,left,['9'],5,0.1482879000000139,54,,,,,,,14,18,Vrouw,Rechts,2,
,xotask,dotcolour,xotask,42,3,222,222,main,positivefb,-99,easy,,0.9661687000000256,['n'],0,left,['9'],5,0.12908800000013798,74,,,,,,,14,18,Vrouw,Rechts,2,
,xotask,dotcolour,xotask,43,3,223,223,main,positivefb,-99,average,,0.5996701999999914,['n'],1,right,['9'],5,0.06116919999999482,15,,,,,,,14,18,Vrouw,Rechts,2,
,xotask,dotcolour,xotask,44,3,224,224,main,positivefb,-99,hard,,0.8669608000000153,['n'],1,right,['9'],5,0.0009267000000363623,29,,,,,,,14,18,Vrouw,Rechts,2,
,xotask,dotcolour,xotask,45,3,225,225,main,positivefb,-99,hard,,0.5838198999999804,['c'],1,left,['9'],5,0.06655879999993886,52,,,,,,,14,18,Vrouw,Rechts,2,
,xotask,dotcolour,xotask,46,3,226,226,main,positivefb,-99,easy,,0.517123999999967,['c'],1,left,['9'],5,0.09141189999991184,70,,,,,,,14,18,Vrouw,Rechts,2,
,xotask,dotcolour,xotask,47,3,227,227,main,positivefb,-99,average,,0.5667689999997947,['c'],0,right,['9'],5,0.15481670000008307,18,,,,,,,14,18,Vrouw,Rechts,2,
,xotask,dotcolour,xotask,48,3,228,228,main,positivefb,-99,hard,,0.7016072999999778,['n'],1,right,['9'],5,0.05691509999996924,27,,,,,,,14,18,Vrouw,Rechts,2,
,xotask,dotcolour,xotask,49,3,229,229,main,positivefb,-99,easy,,0.5503442999997787,['c'],1,left,['9'],5,0.2015392000000702,74,,,,,,,14,18,Vrouw,Rechts,2,
,xotask,dotcolour,xotask,50,3,230,230,main,positivefb,-99,average,,0.6325608999998167,['n'],1,right,['9'],5,0.17671299999983603,18,,,,,,,14,18,Vrouw,Rechts,2,
,xotask,dotcolour,xotask,51,3,231,231,main,positivefb,-99,average,,0.867276800000127,['c'],1,left,['9'],5,0.10401269999988472,62,,,,,,,14,18,Vrouw,Rechts,2,
,xotask,dotcolour,xotask,52,3,232,232,main,positivefb,-99,easy,,0.5837395999999444,['n'],1,right,['9'],5,0.16601330000003145,9,,,,,,,14,18,Vrouw,Rechts,2,
,xotask,dotcolour,xotask,53,3,233,233,main,positivefb,-99,average,,0.6173421000000872,['n'],1,right,['9'],5,0.20744170000011763,17,,,,,,,14,18,Vrouw,Rechts,2,
,xotask,dotcolour,xotask,54,3,234,234,main,positivefb,-99,average,,0.5500558000001092,['n'],1,right,['9'],5,0.15412720000017543,18,,,,,,,14,18,Vrouw,Rechts,2,
,xotask,dotcolour,xotask,55,3,235,235,main,positivefb,-99,average,,0.5662560000000667,['n'],1,right,['9'],5,0.22234439999988354,17,,,,,,,14,18,Vrouw,Rechts,2,
,xotask,dotcolour,xotask,56,3,236,236,main,positivefb,-99,hard,,0.7005684999999175,['n'],0,left,['9'],5,0.23405780000007326,54,,,,,,,14,18,Vrouw,Rechts,2,
,xotask,dotcolour,xotask,57,3,237,237,main,positivefb,-99,easy,,0.7337733000001663,['n'],1,right,['9'],5,0.15574100000003455,5,,,,,,,14,18,Vrouw,Rechts,2,
,xotask,dotcolour,xotask,58,3,238,238,main,positivefb,-99,easy,,1.0007329000000027,['n'],1,right,['9'],5,0.15902490000007674,8,,,,,,,14,18,Vrouw,Rechts,2,
,xotask,dotcolour,xotask,59,3,239,239,main,positivefb,-99,easy,,0.5506066000000374,['n'],1,right,['9'],5,0.035298500000180866,9,,,,,,,14,18,Vrouw,Rechts,2,
,xotask,dotcolour,xotask,0,4,240,240,main,positivefb,-99,hard,,0.8838336999999683,['c'],1,left,['9'],5,0.2053441999998995,54,,,,,,,14,18,Vrouw,Rechts,2,
,xotask,dotcolour,xotask,1,4,241,241,main,positivefb,-99,hard,,0.9334094999999252,['n'],0,left,['9'],5,0.4496573999999782,53,,,,,,,14,18,Vrouw,Rechts,2,
,xotask,dotcolour,xotask,2,4,242,242,main,positivefb,-99,average,,0.6168572999999924,['n'],1,right,['9'],5,0.1115197999999964,19,,,,,,,14,18,Vrouw,Rechts,2,
,xotask,dotcolour,xotask,3,4,243,243,main,positivefb,-99,average,,0.5341944000001604,['c'],1,left,['9'],5,0.15117810000015197,62,,,,,,,14,18,Vrouw,Rechts,2,
,xotask,dotcolour,xotask,4,4,244,244,main,positivefb,-99,hard,,0.7671826000000692,['n'],1,right,['9'],5,0.1225365000000238,28,,,,,,,14,18,Vrouw,Rechts,2,
,xotask,dotcolour,xotask,5,4,245,245,main,positivefb,-99,hard,,0.8165428000002066,['n'],1,right,['9'],5,0.10140529999989667,27,,,,,,,14,18,Vrouw,Rechts,2,
,xotask,dotcolour,xotask,6,4,246,246,main,positivefb,-99,easy,,0.6826854000000822,['c'],1,left,['9'],5,0.1276341999998749,71,,,,,,,14,18,Vrouw,Rechts,2,
,xotask,dotcolour,xotask,7,4,247,247,main,positivefb,-99,easy,,0.6507257000000664,['c'],1,left,['9'],5,0.057342699999935576,74,,,,,,,14,18,Vrouw,Rechts,2,
,xotask,dotcolour,xotask,8,4,248,248,main,positivefb,-99,easy,,0.717524800000092,['c'],1,left,['9'],5,0.1557852000000821,70,,,,,,,14,18,Vrouw,Rechts,2,
,xotask,dotcolour,xotask,9,4,249,249,main,positivefb,-99,easy,,0.7999927000000753,['n'],1,right,['9'],5,0.6547410999999101,6,,,,,,,14,18,Vrouw,Rechts,2,
,xotask,dotcolour,xotask,10,4,250,250,main,positivefb,-99,average,,0.48492460000011306,['n'],1,right,['9'],5,0.13751030000003084,16,,,,,,,14,18,Vrouw,Rechts,2,
,xotask,dotcolour,xotask,11,4,251,251,main,positivefb,-99,easy,,0.517103200000065,['n'],1,right,['9'],5,0.1609578000000056,9,,,,,,,14,18,Vrouw,Rechts,2,
,xotask,dotcolour,xotask,12,4,252,252,main,positivefb,-99,average,,0.532487399999809,['n'],1,right,['9'],5,0.11788359999991371,19,,,,,,,14,18,Vrouw,Rechts,2,
,xotask,dotcolour,xotask,13,4,253,253,main,positivefb,-99,average,,0.5670168999999987,['c'],1,left,['9'],5,0.10644559999991543,63,,,,,,,14,18,Vrouw,Rechts,2,
,xotask,dotcolour,xotask,14,4,254,254,main,positivefb,-99,easy,,0.7010685000000194,['n'],1,right,['9'],5,0.13950870000007853,8,,,,,,,14,18,Vrouw,Rechts,2,
,xotask,dotcolour,xotask,15,4,255,255,main,positivefb,-99,easy,,0.567737999999963,['c'],1,left,['9'],5,0.12089480000008734,71,,,,,,,14,18,Vrouw,Rechts,2,
,xotask,dotcolour,xotask,16,4,256,256,main,positivefb,-99,average,,0.7499797999998918,['n'],1,right,['9'],5,0.11866460000010193,16,,,,,,,14,18,Vrouw,Rechts,2,
,xotask,dotcolour,xotask,17,4,257,257,main,positivefb,-99,average,,0.5840867999997954,['c'],1,left,['9'],5,0.10782220000010057,64,,,,,,,14,18,Vrouw,Rechts,2,
,xotask,dotcolour,xotask,18,4,258,258,main,positivefb,-99,easy,,0.44995399999993424,['c'],1,left,['9'],5,0.1819831999998769,73,,,,,,,14,18,Vrouw,Rechts,2,
,xotask,dotcolour,xotask,19,4,259,259,main,positivefb,-99,easy,,0.8168488999999681,['n'],1,right,['9'],5,0.1188528000000133,8,,,,,,,14,18,Vrouw,Rechts,2,
,xotask,dotcolour,xotask,20,4,260,260,main,positivefb,-99,average,,1.9001776000000064,['c'],1,left,['9'],5,0.1746906000000763,63,,,,,,,14,18,Vrouw,Rechts,2,
,xotask,dotcolour,xotask,21,4,261,261,main,positivefb,-99,average,,0.6338766999999734,['c'],1,left,['9'],5,0.19152090000011412,62,,,,,,,14,18,Vrouw,Rechts,2,
,xotask,dotcolour,xotask,22,4,262,262,main,positivefb,-99,average,,0.566970400000173,['n'],1,right,['9'],5,0.10660199999983888,16,,,,,,,14,18,Vrouw,Rechts,2,
,xotask,dotcolour,xotask,23,4,263,263,main,positivefb,-99,hard,,0.7671022000001813,['n'],1,right,['9'],5,0.1281572000000324,25,,,,,,,14,18,Vrouw,Rechts,2,
,xotask,dotcolour,xotask,24,4,264,264,main,positivefb,-99,hard,,0.7844520000001012,['c'],0,right,['9'],5,0.15683350000017526,29,,,,,,,14,18,Vrouw,Rechts,2,
,xotask,dotcolour,xotask,25,4,265,265,main,positivefb,-99,easy,,0.6506782000001294,['n'],1,right,['9'],5,0.15010559999996076,8,,,,,,,14,18,Vrouw,Rechts,2,
,xotask,dotcolour,xotask,26,4,266,266,main,positivefb,-99,easy,,1.4834947999997894,['c'],1,left,['9'],5,0.15732120000006944,73,,,,,,,14,18,Vrouw,Rechts,2,
,xotask,dotcolour,xotask,27,4,267,267,main,positivefb,-99,hard,,0.6663536999999451,['c'],1,left,['9'],5,0.20542569999997795,53,,,,,,,14,18,Vrouw,Rechts,2,
,xotask,dotcolour,xotask,28,4,268,268,main,positivefb,-99,average,,0.7329698999999437,['n'],1,right,['9'],5,0.0808835000000272,16,,,,,,,14,18,Vrouw,Rechts,2,
,xotask,dotcolour,xotask,29,4,269,269,main,positivefb,-99,hard,,0.9673270999999204,['c'],0,right,['9'],5,0.12824690000002192,26,,,,,,,14,18,Vrouw,Rechts,2,
,xotask,dotcolour,xotask,30,4,270,270,main,positivefb,-99,average,,1.1834080999999514,['c'],0,right,['9'],5,0.19680640000001404,18,,,,,,,14,18,Vrouw,Rechts,2,
,xotask,dotcolour,xotask,31,4,271,271,main,positivefb,-99,average,,0.6171137999999701,['c'],1,left,['9'],5,0.061939499999880354,64,,,,,,,14,18,Vrouw,Rechts,2,
,xotask,dotcolour,xotask,32,4,272,272,main,positivefb,-99,easy,,0.5181559999998626,['n'],1,right,['9'],5,0.09451599999988503,6,,,,,,,14,18,Vrouw,Rechts,2,
,xotask,dotcolour,xotask,33,4,273,273,main,positivefb,-99,hard,,0.8322184000001016,['n'],1,right,['9'],5,0.11545230000001538,26,,,,,,,14,18,Vrouw,Rechts,2,
,xotask,dotcolour,xotask,34,4,274,274,main,positivefb,-99,easy,,1.1499493999999686,['n'],1,right,['9'],5,0.13041309999994155,7,,,,,,,14,18,Vrouw,Rechts,2,
,xotask,dotcolour,xotask,35,4,275,275,main,positivefb,-99,hard,,0.7677253000001656,['c'],1,left,['9'],5,0.17561010000008537,51,,,,,,,14,18,Vrouw,Rechts,2,
,xotask,dotcolour,xotask,36,4,276,276,main,positivefb,-99,average,,0.9836722000000009,['n'],1,right,['9'],5,0.10646190000011302,18,,,,,,,14,18,Vrouw,Rechts,2,
,xotask,dotcolour,xotask,37,4,277,277,main,positivefb,-99,average,,0.5665834999999788,['c'],1,left,['9'],5,0.06479739999986123,62,,,,,,,14,18,Vrouw,Rechts,2,
,xotask,dotcolour,xotask,38,4,278,278,main,positivefb,-99,hard,,0.7668114000000514,['c'],1,left,['9'],5,0.12864860000013323,53,,,,,,,14,18,Vrouw,Rechts,2,
,xotask,dotcolour,xotask,39,4,279,279,main,positivefb,-99,easy,,0.6341750999999931,['n'],1,right,['9'],5,0.12281169999982922,8,,,,,,,14,18,Vrouw,Rechts,2,
,xotask,dotcolour,xotask,40,4,280,280,main,positivefb,-99,easy,,0.5999406000000818,['c'],1,left,['9'],5,0.08707370000001902,73,,,,,,,14,18,Vrouw,Rechts,2,
,xotask,dotcolour,xotask,41,4,281,281,main,positivefb,-99,hard,,0.6334618000000773,['n'],1,right,['9'],5,0.10729440000000068,25,,,,,,,14,18,Vrouw,Rechts,2,
,xotask,dotcolour,xotask,42,4,282,282,main,positivefb,-99,hard,,0.8171879999999874,['c'],1,left,['9'],5,0.11981629999991128,52,,,,,,,14,18,Vrouw,Rechts,2,
,xotask,dotcolour,xotask,43,4,283,283,main,positivefb,-99,easy,,0.8329558999998881,['n'],1,right,['9'],5,0.1128472000000329,8,,,,,,,14,18,Vrouw,Rechts,2,
,xotask,dotcolour,xotask,44,4,284,284,main,positivefb,-99,easy,,0.6337092000001121,['c'],1,left,['9'],5,0.4216243000000759,73,,,,,,,14,18,Vrouw,Rechts,2,
,xotask,dotcolour,xotask,45,4,285,285,main,positivefb,-99,average,,0.8170673000001898,['c'],1,left,['9'],5,0.07652649999999994,63,,,,,,,14,18,Vrouw,Rechts,2,
,xotask,dotcolour,xotask,46,4,286,286,main,positivefb,-99,hard,,0.7671876000001703,['n'],1,right,['9'],5,0.07617440000012721,27,,,,,,,14,18,Vrouw,Rechts,2,
,xotask,dotcolour,xotask,47,4,287,287,main,positivefb,-99,hard,,0.9511630999998033,['c'],1,left,['9'],5,0.14042010000002847,53,,,,,,,14,18,Vrouw,Rechts,2,
,xotask,dotcolour,xotask,48,4,288,288,main,positivefb,-99,average,,1.250647699999945,['c'],1,left,['9'],5,0.14135699999997087,62,,,,,,,14,18,Vrouw,Rechts,2,
,xotask,dotcolour,xotask,49,4,289,289,main,positivefb,-99,easy,,0.5342654000000948,['n'],1,right,['9'],5,0.1149980999998661,6,,,,,,,14,18,Vrouw,Rechts,2,
,xotask,dotcolour,xotask,50,4,290,290,main,positivefb,-99,average,,0.6167250999999396,['c'],0,right,['9'],5,0.12762689999999566,17,,,,,,,14,18,Vrouw,Rechts,2,
,xotask,dotcolour,xotask,51,4,291,291,main,positivefb,-99,hard,,0.6339037000000189,['n'],0,left,['9'],5,0.09808040000007168,51,,,,,,,14,18,Vrouw,Rechts,2,
,xotask,dotcolour,xotask,52,4,292,292,main,positivefb,-99,average,,0.6152245000000676,['c'],1,left,['9'],5,0.09507349999989856,61,,,,,,,14,18,Vrouw,Rechts,2,
,xotask,dotcolour,xotask,53,4,293,293,main,positivefb,-99,hard,,1.033792799999901,['n'],1,right,['9'],5,0.14677510000001348,28,,,,,,,14,18,Vrouw,Rechts,2,
,xotask,dotcolour,xotask,54,4,294,294,main,positivefb,-99,easy,,0.7342135999999755,['c'],1,left,['9'],5,0.1604930000000877,71,,,,,,,14,18,Vrouw,Rechts,2,
,xotask,dotcolour,xotask,55,4,295,295,main,positivefb,-99,hard,,0.6667878000000655,['n'],1,right,['9'],5,0.10522919999993974,29,,,,,,,14,18,Vrouw,Rechts,2,
,xotask,dotcolour,xotask,56,4,296,296,main,positivefb,-99,average,,0.583145100000138,['n'],1,right,['9'],5,0.1655140999998821,16,,,,,,,14,18,Vrouw,Rechts,2,
,xotask,dotcolour,xotask,57,4,297,297,main,positivefb,-99,hard,,0.4510645000000295,['n'],0,left,['9'],5,0.1820737000000463,51,,,,,,,14,18,Vrouw,Rechts,2,
,xotask,dotcolour,xotask,58,4,298,298,main,positivefb,-99,hard,,0.5172545999998874,['c'],1,left,['9'],5,0.0749103999999079,50,,,,,,,14,18,Vrouw,Rechts,2,
,xotask,dotcolour,xotask,59,4,299,299,main,positivefb,-99,easy,,0.6346113000001878,['c'],1,left,['9'],5,0.19181170000001657,70,,,,,,,14,18,Vrouw,Rechts,2,
,dotcolour,dotcolour,xotask,0,0,0,300,training,positivefb,97,easy,16,0.883583999999928,['n'],1,right,['0'],6,0.16632469999990462,,,,,,,,14,18,Vrouw,Rechts,2,
,dotcolour,dotcolour,xotask,1,0,1,301,training,positivefb,96,easy,19,0.5168759000000591,['n'],1,right,['9'],5,0.13091349999990598,,,,,,,,14,18,Vrouw,Rechts,2,
,dotcolour,dotcolour,xotask,2,0,2,302,training,positivefb,96,hard,45,0.5659418000000187,['c'],1,left,['9'],5,0.17576759999997194,,,,,,,,14,18,Vrouw,Rechts,2,
,dotcolour,dotcolour,xotask,3,0,3,303,training,positivefb,96,average,29,0.6825400999998692,['n'],1,right,['9'],5,0.14247720000003028,,,,,,,,14,18,Vrouw,Rechts,2,
,dotcolour,dotcolour,xotask,4,0,4,304,training,positivefb,94,average,53,0.5496507000000292,['c'],1,left,['9'],5,0.13087510000013935,,,,,,,,14,18,Vrouw,Rechts,2,
,dotcolour,dotcolour,xotask,5,0,5,305,training,positivefb,98,hard,44,0.4161460000000261,['c'],1,left,['9'],5,0.1335317999999006,,,,,,,,14,18,Vrouw,Rechts,2,
,dotcolour,dotcolour,xotask,6,0,6,306,training,positivefb,98,average,52,0.5842222000001129,['n'],0,left,['9'],5,0.11283550000007381,,,,,,,,14,18,Vrouw,Rechts,2,
,dotcolour,dotcolour,xotask,7,0,7,307,training,positivefb,95,easy,18,0.4842338999999356,['c'],0,right,['9'],5,0.15396289999989676,,,,,,,,14,18,Vrouw,Rechts,2,
,dotcolour,dotcolour,xotask,8,0,8,308,training,positivefb,98,average,52,0.5838208000000122,['c'],1,left,['9'],5,0.18895150000003014,,,,,,,,14,18,Vrouw,Rechts,2,
,dotcolour,dotcolour,xotask,9,0,9,309,training,positivefb,97,average,28,0.36625200000003133,['n'],1,right,['9'],5,0.1349388999999519,,,,,,,,14,18,Vrouw,Rechts,2,
,dotcolour,dotcolour,xotask,10,0,10,310,training,positivefb,99,hard,35,0.34877400000004855,['n'],1,right,['9'],5,0.1318459999999959,,,,,,,,14,18,Vrouw,Rechts,2,
,dotcolour,dotcolour,xotask,11,0,11,311,training,positivefb,82,hard,43,0.3654610999999477,['n'],0,left,['9'],5,0.1367732999999589,,,,,,,,14,18,Vrouw,Rechts,2,
,dotcolour,dotcolour,xotask,12,0,12,312,training,positivefb,73,easy,19,0.38319410000008247,['c'],0,right,['9'],5,0.13132729999983894,,,,,,,,14,18,Vrouw,Rechts,2,
,dotcolour,dotcolour,xotask,13,0,13,313,training,positivefb,98,easy,19,0.3493095000001176,['n'],1,right,['9'],5,0.16095580000001064,,,,,,,,14,18,Vrouw,Rechts,2,
,dotcolour,dotcolour,xotask,14,0,14,314,training,positivefb,99,average,53,0.3338502999999946,['n'],0,left,['9'],5,0.12604279999982282,,,,,,,,14,18,Vrouw,Rechts,2,
,dotcolour,dotcolour,xotask,15,0,15,315,training,positivefb,84,hard,39,0.8329604999998992,['n'],1,right,['9'],5,0.1031434999999874,,,,,,,,14,18,Vrouw,Rechts,2,
,dotcolour,dotcolour,xotask,16,0,16,316,training,positivefb,97,average,55,0.4321586999999454,['c'],1,left,['9'],5,0.058441900000161695,,,,,,,,14,18,Vrouw,Rechts,2,
,dotcolour,dotcolour,xotask,17,0,17,317,training,positivefb,97,average,29,0.6498430000001463,['n'],1,right,['9'],5,0.030791900000167516,,,,,,,,14,18,Vrouw,Rechts,2,
,dotcolour,dotcolour,xotask,18,0,18,318,training,positivefb,94,hard,37,0.4179439999998067,['n'],1,right,['9'],5,0.42162869999992836,,,,,,,,14,18,Vrouw,Rechts,2,
,dotcolour,dotcolour,xotask,19,0,19,319,training,positivefb,99,easy,63,0.3335205999999289,['c'],1,left,['9'],5,0.11155389999998988,,,,,,,,14,18,Vrouw,Rechts,2,
,dotcolour,dotcolour,xotask,20,0,20,320,training,positivefb,94,hard,43,0.38214970000012727,['c'],1,left,['9'],5,0.11660660000006828,,,,,,,,14,18,Vrouw,Rechts,2,
,dotcolour,dotcolour,xotask,21,0,21,321,training,positivefb,98,easy,63,0.6661288000000241,['c'],1,left,['9'],5,0.14026259999991453,,,,,,,,14,18,Vrouw,Rechts,2,
,dotcolour,dotcolour,xotask,22,0,22,322,training,positivefb,96,easy,63,0.36687050000000454,['c'],1,left,['9'],5,0.08077189999994516,,,,,,,,14,18,Vrouw,Rechts,2,
,dotcolour,dotcolour,xotask,23,0,23,323,training,positivefb,97,average,52,0.4507406999998693,['c'],1,left,['9'],5,0.09231679999993503,,,,,,,,14,18,Vrouw,Rechts,2,
,dotcolour,dotcolour,xotask,24,0,24,324,training,positivefb,97,average,28,0.41703149999989364,['c'],0,right,['9'],5,0.08761030000005121,,,,,,,,14,18,Vrouw,Rechts,2,
,dotcolour,dotcolour,xotask,25,0,25,325,training,positivefb,78,easy,65,0.6504185999999663,['n'],0,left,['9'],5,0.3143741000001228,,,,,,,,14,18,Vrouw,Rechts,2,
,dotcolour,dotcolour,xotask,26,0,26,326,training,positivefb,93,average,29,0.7336149999998725,['n'],1,right,['9'],5,0.0017099000001508102,,,,,,,,14,18,Vrouw,Rechts,2,
,dotcolour,dotcolour,xotask,27,0,27,327,training,positivefb,95,hard,45,0.48396670000011,['c'],1,left,['9'],5,0.08665739999992184,,,,,,,,14,18,Vrouw,Rechts,2,
,dotcolour,dotcolour,xotask,28,0,28,328,training,positivefb,92,easy,19,0.6995276000000104,['n'],1,right,['9'],5,0.15127189999998336,,,,,,,,14,18,Vrouw,Rechts,2,
,dotcolour,dotcolour,xotask,29,0,29,329,training,positivefb,98,average,29,0.7335396999999375,['n'],1,right,['9'],5,0.1396617000000333,,,,,,,,14,18,Vrouw,Rechts,2,
,dotcolour,dotcolour,xotask,30,0,30,330,training,positivefb,92,easy,62,0.43371000000001914,['c'],1,left,['9'],5,0.14904569999998785,,,,,,,,14,18,Vrouw,Rechts,2,
,dotcolour,dotcolour,xotask,31,0,31,331,training,positivefb,91,hard,45,0.6181216999998469,['c'],1,left,['9'],5,0.1820380000001478,,,,,,,,14,18,Vrouw,Rechts,2,
,dotcolour,dotcolour,xotask,32,0,32,332,training,positivefb,97,hard,38,0.449939699999959,['c'],0,right,['9'],5,0.189662700000099,,,,,,,,14,18,Vrouw,Rechts,2,
,dotcolour,dotcolour,xotask,33,0,33,333,training,positivefb,96,hard,44,0.43383650000009766,['c'],1,left,['9'],5,0.03632569999990665,,,,,,,,14,18,Vrouw,Rechts,2,
,dotcolour,dotcolour,xotask,34,0,34,334,training,positivefb,97,hard,38,0.3672074999999495,['c'],0,right,['9'],5,0.08478669999999511,,,,,,,,14,18,Vrouw,Rechts,2,
,dotcolour,dotcolour,xotask,35,0,35,335,training,positivefb,96,average,27,0.44951019999984965,['c'],0,right,['9'],5,0.12704770000004828,,,,,,,,14,18,Vrouw,Rechts,2,
,dotcolour,dotcolour,xotask,36,0,36,336,training,positivefb,97,average,55,0.38382129999990866,['c'],1,left,['9'],5,0.1397965999999542,,,,,,,,14,18,Vrouw,Rechts,2,
,dotcolour,dotcolour,xotask,37,0,37,337,training,positivefb,99,hard,35,0.3837727999998606,['c'],0,right,['9'],5,0.21479569999996784,,,,,,,,14,18,Vrouw,Rechts,2,
,dotcolour,dotcolour,xotask,38,0,38,338,training,positivefb,93,easy,65,0.4010823999999502,['c'],1,left,['9'],5,0.10298709999983657,,,,,,,,14,18,Vrouw,Rechts,2,
,dotcolour,dotcolour,xotask,39,0,39,339,training,positivefb,29,easy,15,0.3669204999998783,['c'],0,right,['9'],5,0.716440700000021,,,,,,,,14,18,Vrouw,Rechts,2,
,dotcolour,dotcolour,xotask,40,0,40,340,training,positivefb,96,hard,36,0.5674397000000226,['n'],1,right,['9'],5,0.15279150000014852,,,,,,,,14,18,Vrouw,Rechts,2,
,dotcolour,dotcolour,xotask,41,0,41,341,training,positivefb,90,easy,17,0.4157869999999093,['c'],0,right,['9'],5,0.7306541999998899,,,,,,,,14,18,Vrouw,Rechts,2,
,dotcolour,dotcolour,xotask,42,0,42,342,training,positivefb,96,easy,61,0.9339961999999105,['c'],1,left,['9'],5,0.11286020000011376,,,,,,,,14,18,Vrouw,Rechts,2,
,dotcolour,dotcolour,xotask,43,0,43,343,training,positivefb,88,hard,43,0.48304529999995793,['c'],1,left,['9'],5,0.11381540000002133,,,,,,,,14,18,Vrouw,Rechts,2,
,dotcolour,dotcolour,xotask,44,0,44,344,training,positivefb,96,easy,63,0.46689549999996416,['c'],1,left,['9'],5,0.12253860000009809,,,,,,,,14,18,Vrouw,Rechts,2,
,dotcolour,dotcolour,xotask,45,0,45,345,training,positivefb,97,average,28,0.5996414999999615,['n'],1,right,['9'],5,0.11044029999993654,,,,,,,,14,18,Vrouw,Rechts,2,
,dotcolour,dotcolour,xotask,46,0,46,346,training,positivefb,98,average,55,0.5668193999999858,['c'],1,left,['9'],5,0.11616419999995742,,,,,,,,14,18,Vrouw,Rechts,2,
,dotcolour,dotcolour,xotask,47,0,47,347,training,positivefb,98,easy,16,0.6491447999999309,['n'],1,right,['9'],5,0.11667299999999159,,,,,,,,14,18,Vrouw,Rechts,2,
,dotcolour,dotcolour,xotask,48,0,48,348,training,positivefb,97,hard,35,0.5335357999999815,['c'],0,right,['9'],5,0.16359920000013517,,,,,,,,14,18,Vrouw,Rechts,2,
,dotcolour,dotcolour,xotask,49,0,49,349,training,positivefb,98,average,29,0.6504849000000377,['n'],1,right,['9'],5,0.060215599999992264,,,,,,,,14,18,Vrouw,Rechts,2,
,dotcolour,dotcolour,xotask,50,0,50,350,training,positivefb,97,easy,61,0.5161201999999321,['c'],1,left,['9'],5,0.10886219999997593,,,,,,,,14,18,Vrouw,Rechts,2,
,dotcolour,dotcolour,xotask,51,0,51,351,training,positivefb,95,hard,39,0.7339434999998957,['c'],0,right,['9'],5,0.08298700000000281,,,,,,,,14,18,Vrouw,Rechts,2,
,dotcolour,dotcolour,xotask,52,0,52,352,training,positivefb,91,easy,61,0.616199800000004,['c'],1,left,['9'],5,0.12737379999998666,,,,,,,,14,18,Vrouw,Rechts,2,
,dotcolour,dotcolour,xotask,53,0,53,353,training,positivefb,87,easy,15,0.8328895999998167,['n'],1,right,['9'],5,0.1617957999999362,,,,,,,,14,18,Vrouw,Rechts,2,
,dotcolour,dotcolour,xotask,54,0,54,354,training,positivefb,68,average,51,0.4665064999999231,['n'],0,left,['9'],5,0.24872849999997015,,,,,,,,14,18,Vrouw,Rechts,2,
,dotcolour,dotcolour,xotask,55,0,55,355,training,positivefb,76,hard,41,0.6334856000000855,['c'],1,left,['9'],5,0.12606660000005832,,,,,,,,14,18,Vrouw,Rechts,2,
,dotcolour,dotcolour,xotask,56,0,56,356,training,positivefb,94,hard,36,0.8162909999998647,['n'],1,right,['9'],5,0.10383290000004308,,,,,,,,14,18,Vrouw,Rechts,2,
,dotcolour,dotcolour,xotask,57,0,57,357,training,positivefb,95,hard,44,0.5000645000000077,['c'],1,left,['9'],5,0.09618500000010499,,,,,,,,14,18,Vrouw,Rechts,2,
,dotcolour,dotcolour,xotask,58,0,58,358,training,positivefb,97,average,51,0.5501577999998517,['c'],1,left,['9'],5,0.1114086000000043,,,,,,,,14,18,Vrouw,Rechts,2,
,dotcolour,dotcolour,xotask,59,0,59,359,training,positivefb,97,average,25,0.9166565999998966,['n'],1,right,['9'],5,0.6223663999999189,,,,,,,,14,18,Vrouw,Rechts,2,
,dotcolour,dotcolour,xotask,0,1,60,360,training,positivefb,91,average,52,0.5669622999998865,['c'],1,left,['9'],5,0.12978739999994104,,,,,,,,14,18,Vrouw,Rechts,2,
,dotcolour,dotcolour,xotask,1,1,61,361,training,positivefb,88,easy,19,0.6838803999999072,['n'],1,right,['9'],5,0.12159380000002784,,,,,,,,14,18,Vrouw,Rechts,2,
,dotcolour,dotcolour,xotask,2,1,62,362,training,positivefb,98,hard,45,0.5832302999999683,['c'],1,left,['0'],6,0.2539879999999357,,,,,,,,14,18,Vrouw,Rechts,2,
,dotcolour,dotcolour,xotask,3,1,63,363,training,positivefb,99,hard,44,0.533447600000045,['c'],1,left,['0'],6,0.1430192000000261,,,,,,,,14,18,Vrouw,Rechts,2,
,dotcolour,dotcolour,xotask,4,1,64,364,training,positivefb,24,easy,19,0.39995360000011715,['c'],0,right,['2'],2,0.9936391999999614,,,,,,,,14,18,Vrouw,Rechts,2,
,dotcolour,dotcolour,xotask,5,1,65,365,training,positivefb,93,hard,36,0.6003117000000202,['c'],0,right,['9'],5,0.10564679999993132,,,,,,,,14,18,Vrouw,Rechts,2,
,dotcolour,dotcolour,xotask,6,1,66,366,training,positivefb,98,hard,36,0.48408489999997073,['c'],0,right,['9'],5,0.10711109999988366,,,,,,,,14,18,Vrouw,Rechts,2,
,dotcolour,dotcolour,xotask,7,1,67,367,training,positivefb,69,easy,62,0.7005772999998499,['c'],1,left,['9'],5,0.14719819999982064,,,,,,,,14,18,Vrouw,Rechts,2,
,dotcolour,dotcolour,xotask,8,1,68,368,training,positivefb,96,average,28,0.7500643999999284,['n'],1,right,['0'],6,0.1752476999999999,,,,,,,,14,18,Vrouw,Rechts,2,
,dotcolour,dotcolour,xotask,9,1,69,369,training,positivefb,99,average,54,0.3502789000001485,['c'],1,left,['9'],5,0.1710696000000098,,,,,,,,14,18,Vrouw,Rechts,2,
,dotcolour,dotcolour,xotask,10,1,70,370,training,positivefb,87,average,25,0.7342559999999594,['n'],1,right,['9'],5,0.13461469999992914,,,,,,,,14,18,Vrouw,Rechts,2,
,dotcolour,dotcolour,xotask,11,1,71,371,training,positivefb,91,average,53,0.5512238999999681,['c'],1,left,['0'],6,0.17184760000009192,,,,,,,,14,18,Vrouw,Rechts,2,
,dotcolour,dotcolour,xotask,12,1,72,372,training,positivefb,91,average,55,0.5009053999999651,['c'],1,left,['9'],5,0.16056410000010146,,,,,,,,14,18,Vrouw,Rechts,2,
,dotcolour,dotcolour,xotask,13,1,73,373,training,positivefb,91,hard,45,0.35022490000005746,['c'],1,left,['9'],5,0.21378690000005918,,,,,,,,14,18,Vrouw,Rechts,2,
,dotcolour,dotcolour,xotask,14,1,74,374,training,positivefb,95,hard,38,0.5335806000000503,['n'],1,right,['9'],5,0.09611820000009175,,,,,,,,14,18,Vrouw,Rechts,2,
,dotcolour,dotcolour,xotask,15,1,75,375,training,positivefb,92,average,51,0.6160891000001811,['c'],1,left,['9'],5,0.11582789999988563,,,,,,,,14,18,Vrouw,Rechts,2,
,dotcolour,dotcolour,xotask,16,1,76,376,training,positivefb,96,easy,62,0.45128509999995003,['c'],1,left,['0'],6,0.07758519999993041,,,,,,,,14,18,Vrouw,Rechts,2,
,dotcolour,dotcolour,xotask,17,1,77,377,training,positivefb,96,easy,65,0.3845767000000251,['c'],1,left,['0'],6,0.32389450000005127,,,,,,,,14,18,Vrouw,Rechts,2,
,dotcolour,dotcolour,xotask,18,1,78,378,training,positivefb,98,easy,62,0.4666360999999597,['c'],1,left,['0'],6,0.14858800000001793,,,,,,,,14,18,Vrouw,Rechts,2,
,dotcolour,dotcolour,xotask,19,1,79,379,training,positivefb,94,average,55,0.5835027000000537,['c'],1,left,['0'],6,0.10318359999996574,,,,,,,,14,18,Vrouw,Rechts,2,
,dotcolour,dotcolour,xotask,20,1,80,380,training,positivefb,92,hard,43,0.7333813999998711,['n'],0,left,['9'],5,0.07092379999994591,,,,,,,,14,18,Vrouw,Rechts,2,
,dotcolour,dotcolour,xotask,21,1,81,381,training,positivefb,88,hard,39,0.9325670999999147,['n'],1,right,['9'],5,0.5747985999998946,,,,,,,,14,18,Vrouw,Rechts,2,
,dotcolour,dotcolour,xotask,22,1,82,382,training,positivefb,95,hard,35,0.5513985999998567,['c'],0,right,['0'],6,0.08962410000003729,,,,,,,,14,18,Vrouw,Rechts,2,
,dotcolour,dotcolour,xotask,23,1,83,383,training,positivefb,98,hard,45,0.5006716999998844,['c'],1,left,['0'],6,0.14709930000003624,,,,,,,,14,18,Vrouw,Rechts,2,
,dotcolour,dotcolour,xotask,24,1,84,384,training,positivefb,96,average,54,0.4160983999997825,['c'],1,left,['9'],5,0.18116469999995388,,,,,,,,14,18,Vrouw,Rechts,2,
,dotcolour,dotcolour,xotask,25,1,85,385,training,positivefb,93,easy,15,0.36627100000009705,['c'],0,right,['0'],6,0.42398019999995995,,,,,,,,14,18,Vrouw,Rechts,2,
,dotcolour,dotcolour,xotask,26,1,86,386,training,positivefb,97,hard,45,0.46722879999992983,['c'],1,left,['0'],6,0.1402212000000418,,,,,,,,14,18,Vrouw,Rechts,2,
,dotcolour,dotcolour,xotask,27,1,87,387,training,positivefb,99,hard,42,0.31702099999984057,['c'],1,left,['9'],5,0.09798790000013469,,,,,,,,14,18,Vrouw,Rechts,2,
,dotcolour,dotcolour,xotask,28,1,88,388,training,positivefb,95,hard,39,0.38341349999996055,['c'],0,right,['9'],5,0.07932430000005297,,,,,,,,14,18,Vrouw,Rechts,2,
,dotcolour,dotcolour,xotask,29,1,89,389,training,positivefb,95,hard,39,0.31664920000002894,['c'],0,right,['0'],6,0.15933399999994435,,,,,,,,14,18,Vrouw,Rechts,2,
,dotcolour,dotcolour,xotask,30,1,90,390,training,positivefb,92,easy,61,0.6663504999999077,['c'],1,left,['0'],6,0.04736759999991591,,,,,,,,14,18,Vrouw,Rechts,2,
,dotcolour,dotcolour,xotask,31,1,91,391,training,positivefb,75,hard,36,4.083049699999947,['c'],0,right,['9'],5,0.21887489999994614,,,,,,,,14,18,Vrouw,Rechts,2,
,dotcolour,dotcolour,xotask,32,1,92,392,training,positivefb,98,easy,18,0.3506684999999834,['c'],0,right,['0'],6,0.12421110000013869,,,,,,,,14,18,Vrouw,Rechts,2,
,dotcolour,dotcolour,xotask,33,1,93,393,training,positivefb,97,hard,42,0.5004275999999663,['c'],1,left,['0'],6,0.13966179999988526,,,,,,,,14,18,Vrouw,Rechts,2,
,dotcolour,dotcolour,xotask,34,1,94,394,training,positivefb,70,easy,15,0.36559379999994235,['c'],0,right,['0'],6,0.2393347999998241,,,,,,,,14,18,Vrouw,Rechts,2,
,dotcolour,dotcolour,xotask,35,1,95,395,training,positivefb,97,hard,36,0.49935579999987567,['n'],1,right,['9'],5,0.059031500000173764,,,,,,,,14,18,Vrouw,Rechts,2,
,dotcolour,dotcolour,xotask,36,1,96,396,training,positivefb,96,easy,18,0.5173414000000776,['n'],1,right,['9'],5,0.06770769999980075,,,,,,,,14,18,Vrouw,Rechts,2,
,dotcolour,dotcolour,xotask,37,1,97,397,training,positivefb,84,average,29,0.5986524999998437,['n'],1,right,['9'],5,0.11306260000014845,,,,,,,,14,18,Vrouw,Rechts,2,
,dotcolour,dotcolour,xotask,38,1,98,398,training,positivefb,87,easy,65,0.5992636999999377,['c'],1,left,['0'],6,0.13291240000012294,,,,,,,,14,18,Vrouw,Rechts,2,
,dotcolour,dotcolour,xotask,39,1,99,399,training,positivefb,90,easy,61,0.5003730999999334,['c'],1,left,['9'],5,0.14814090000004398,,,,,,,,14,18,Vrouw,Rechts,2,
,dotcolour,dotcolour,xotask,40,1,100,400,training,positivefb,99,hard,45,0.3492854000000989,['c'],1,left,['0'],6,0.20936609999989741,,,,,,,,14,18,Vrouw,Rechts,2,
,dotcolour,dotcolour,xotask,41,1,101,401,training,positivefb,96,hard,45,0.399060499999905,['c'],1,left,['0'],6,0.10528009999984533,,,,,,,,14,18,Vrouw,Rechts,2,
,dotcolour,dotcolour,xotask,42,1,102,402,training,positivefb,91,average,29,0.31637940000018716,['c'],0,right,['9'],5,0.15195919999996477,,,,,,,,14,18,Vrouw,Rechts,2,
,dotcolour,dotcolour,xotask,43,1,103,403,training,positivefb,90,average,28,0.3832225999999537,['c'],0,right,['9'],5,0.1140541000002031,,,,,,,,14,18,Vrouw,Rechts,2,
,dotcolour,dotcolour,xotask,44,1,104,404,training,positivefb,94,easy,15,0.632217399999945,['n'],1,right,['9'],5,0.10201890000007552,,,,,,,,14,18,Vrouw,Rechts,2,
,dotcolour,dotcolour,xotask,45,1,105,405,training,positivefb,98,easy,62,0.3494521000000077,['c'],1,left,['9'],5,0.23551829999996698,,,,,,,,14,18,Vrouw,Rechts,2,
,dotcolour,dotcolour,xotask,46,1,106,406,training,positivefb,93,average,52,0.6492831999998998,['n'],0,left,['9'],5,0.04863319999981286,,,,,,,,14,18,Vrouw,Rechts,2,
,dotcolour,dotcolour,xotask,47,1,107,407,training,positivefb,96,average,26,0.3499742999999853,['c'],0,right,['9'],5,0.12916889999996783,,,,,,,,14,18,Vrouw,Rechts,2,
,dotcolour,dotcolour,xotask,48,1,108,408,training,positivefb,94,average,26,0.5837709999998424,['c'],0,right,['9'],5,0.12534800000003088,,,,,,,,14,18,Vrouw,Rechts,2,
,dotcolour,dotcolour,xotask,49,1,109,409,training,positivefb,95,easy,17,0.3676202999999987,['c'],0,right,['9'],5,0.10511700000006385,,,,,,,,14,18,Vrouw,Rechts,2,
,dotcolour,dotcolour,xotask,50,1,110,410,training,positivefb,100,average,53,0.06337809999990895,['n'],0,left,['9'],5,0.030116099999986545,,,,,,,,14,18,Vrouw,Rechts,2,
,dotcolour,dotcolour,xotask,51,1,111,411,training,positivefb,96,average,27,0.35016010000003917,['c'],0,right,['9'],5,0.1596531000000141,,,,,,,,14,18,Vrouw,Rechts,2,
,dotcolour,dotcolour,xotask,52,1,112,412,training,positivefb,80,easy,64,0.36609969999994973,['n'],0,left,['9'],5,0.14676250000002256,,,,,,,,14,18,Vrouw,Rechts,2,
,dotcolour,dotcolour,xotask,53,1,113,413,training,positivefb,86,easy,19,0.3170087999999396,['c'],0,right,['0'],6,0.10468949999994948,,,,,,,,14,18,Vrouw,Rechts,2,
,dotcolour,dotcolour,xotask,54,1,114,414,training,positivefb,88,average,25,0.3827231000000211,['c'],0,right,['9'],5,0.16425309999999627,,,,,,,,14,18,Vrouw,Rechts,2,
,dotcolour,dotcolour,xotask,55,1,115,415,training,positivefb,91,easy,15,0.2487481000000571,['c'],0,right,['0'],6,0.18105100000002494,,,,,,,,14,18,Vrouw,Rechts,2,
,dotcolour,dotcolour,xotask,56,1,116,416,training,positivefb,98,hard,36,0.6170698000000812,['n'],1,right,['9'],5,0.11677499999996144,,,,,,,,14,18,Vrouw,Rechts,2,
,dotcolour,dotcolour,xotask,57,1,117,417,training,positivefb,98,average,53,0.3325307000000066,['c'],1,left,['9'],5,0.11537629999997989,,,,,,,,14,18,Vrouw,Rechts,2,
,dotcolour,dotcolour,xotask,58,1,118,418,training,positivefb,88,average,25,0.4175764999999956,['c'],0,right,['9'],5,0.10975329999996575,,,,,,,,14,18,Vrouw,Rechts,2,
,dotcolour,dotcolour,xotask,59,1,119,419,training,positivefb,100,easy,61,0.06910939999988841,['c'],1,left,['0'],6,0.04267379999987497,,,,,,,,14,18,Vrouw,Rechts,2,
,dotcolour,dotcolour,xotask,0,2,120,420,main,positivefb,-99,average,51,0.9020324000000528,['c'],1,left,['0'],6,0.1764855000001262,,,,,,,,14,18,Vrouw,Rechts,2,
,dotcolour,dotcolour,xotask,1,2,121,421,main,positivefb,-99,hard,42,0.5514541000000008,['c'],1,left,['9'],5,0.11542959999997038,,,,,,,,14,18,Vrouw,Rechts,2,
,dotcolour,dotcolour,xotask,2,2,122,422,main,positivefb,-99,easy,19,0.5174845000001369,['c'],0,right,['9'],5,0.14745040000002518,,,,,,,,14,18,Vrouw,Rechts,2,
,dotcolour,dotcolour,xotask,3,2,123,423,main,positivefb,-99,hard,43,0.7501013999999486,['c'],1,left,['9'],5,0.505189400000063,,,,,,,,14,18,Vrouw,Rechts,2,
,dotcolour,dotcolour,xotask,4,2,124,424,main,positivefb,-99,easy,19,0.4679908999999043,['n'],1,right,['9'],5,2.1624692000000323,,,,,,,,14,18,Vrouw,Rechts,2,
,dotcolour,dotcolour,xotask,5,2,125,425,main,positivefb,-99,hard,44,0.6178615999999693,['c'],1,left,['9'],5,0.0851193000000876,,,,,,,,14,18,Vrouw,Rechts,2,
,dotcolour,dotcolour,xotask,6,2,126,426,main,positivefb,-99,easy,65,0.5176638000000366,['c'],1,left,['9'],5,0.07025629999998273,,,,,,,,14,18,Vrouw,Rechts,2,
,dotcolour,dotcolour,xotask,7,2,127,427,main,positivefb,-99,average,28,0.7510379000000285,['n'],1,right,['9'],5,0.11728699999980563,,,,,,,,14,18,Vrouw,Rechts,2,
,dotcolour,dotcolour,xotask,8,2,128,428,main,positivefb,-99,average,28,0.40048619999993207,['c'],0,right,['9'],5,0.10581389999993007,,,,,,,,14,18,Vrouw,Rechts,2,
,dotcolour,dotcolour,xotask,9,2,129,429,main,positivefb,-99,hard,36,0.5162571000000753,['c'],0,right,['9'],5,0.1620468000000983,,,,,,,,14,18,Vrouw,Rechts,2,
,dotcolour,dotcolour,xotask,10,2,130,430,main,positivefb,-99,easy,16,0.7176397999999153,['n'],1,right,['9'],5,0.11219280000000253,,,,,,,,14,18,Vrouw,Rechts,2,
,dotcolour,dotcolour,xotask,11,2,131,431,main,positivefb,-99,easy,65,0.45004289999997127,['c'],1,left,['9'],5,0.09807930000010856,,,,,,,,14,18,Vrouw,Rechts,2,
,dotcolour,dotcolour,xotask,12,2,132,432,main,positivefb,-99,hard,45,0.7513113999998495,['n'],0,left,['9'],5,0.07336740000005193,,,,,,,,14,18,Vrouw,Rechts,2,
,dotcolour,dotcolour,xotask,13,2,133,433,main,positivefb,-99,average,53,0.3665353999999752,['c'],1,left,['9'],5,0.10393120000003364,,,,,,,,14,18,Vrouw,Rechts,2,
,dotcolour,dotcolour,xotask,14,2,134,434,main,positivefb,-99,average,54,0.4501052999999047,['c'],1,left,['9'],5,0.10721390000003339,,,,,,,,14,18,Vrouw,Rechts,2,
,dotcolour,dotcolour,xotask,15,2,135,435,main,positivefb,-99,easy,16,0.6339673999998467,['n'],1,right,['9'],5,0.06317679999983739,,,,,,,,14,18,Vrouw,Rechts,2,
,dotcolour,dotcolour,xotask,16,2,136,436,main,positivefb,-99,average,54,0.40082809999989877,['c'],1,left,['9'],5,0.12499720000005254,,,,,,,,14,18,Vrouw,Rechts,2,
,dotcolour,dotcolour,xotask,17,2,137,437,main,positivefb,-99,easy,64,0.3997483000000557,['c'],1,left,['9'],5,0.0974373999999898,,,,,,,,14,18,Vrouw,Rechts,2,
,dotcolour,dotcolour,xotask,18,2,138,438,main,positivefb,-99,average,54,0.4010146000000532,['c'],1,left,['9'],5,0.11856209999996281,,,,,,,,14,18,Vrouw,Rechts,2,
,dotcolour,dotcolour,xotask,19,2,139,439,main,positivefb,-99,easy,19,0.6341587000001709,['n'],1,right,['9'],5,0.10504900000000816,,,,,,,,14,18,Vrouw,Rechts,2,
,dotcolour,dotcolour,xotask,20,2,140,440,main,positivefb,-99,easy,18,0.5842803000000458,['n'],1,right,['9'],5,0.12724840000009863,,,,,,,,14,18,Vrouw,Rechts,2,
,dotcolour,dotcolour,xotask,21,2,141,441,main,positivefb,-99,average,25,0.7676530999999613,['c'],0,right,['9'],5,0.10736780000002,,,,,,,,14,18,Vrouw,Rechts,2,
,dotcolour,dotcolour,xotask,22,2,142,442,main,positivefb,-99,hard,43,0.4506633000000875,['c'],1,left,['9'],5,0.08621449999986908,,,,,,,,14,18,Vrouw,Rechts,2,
,dotcolour,dotcolour,xotask,23,2,143,443,main,positivefb,-99,easy,65,0.5841531000000941,['c'],1,left,['9'],5,0.11643430000003718,,,,,,,,14,18,Vrouw,Rechts,2,
,dotcolour,dotcolour,xotask,24,2,144,444,main,positivefb,-99,easy,63,0.483512699999892,['c'],1,left,['9'],5,0.17310730000008334,,,,,,,,14,18,Vrouw,Rechts,2,
,dotcolour,dotcolour,xotask,25,2,145,445,main,positivefb,-99,easy,65,0.34970220000013796,['c'],1,left,['9'],5,0.15324109999983193,,,,,,,,14,18,Vrouw,Rechts,2,
,dotcolour,dotcolour,xotask,26,2,146,446,main,positivefb,-99,average,28,0.33458870000004026,['c'],0,right,['9'],5,0.7184156999999232,,,,,,,,14,18,Vrouw,Rechts,2,
,dotcolour,dotcolour,xotask,27,2,147,447,main,positivefb,-99,average,25,0.6170612000000801,['n'],1,right,['9'],5,0.17072010000015325,,,,,,,,14,18,Vrouw,Rechts,2,
,dotcolour,dotcolour,xotask,28,2,148,448,main,positivefb,-99,hard,38,0.7671427999998741,['c'],0,right,['9'],5,0.1099427999999989,,,,,,,,14,18,Vrouw,Rechts,2,
,dotcolour,dotcolour,xotask,29,2,149,449,main,positivefb,-99,hard,43,0.7513143999999556,['c'],1,left,['9'],5,0.11722110000005159,,,,,,,,14,18,Vrouw,Rechts,2,
,dotcolour,dotcolour,xotask,30,2,150,450,main,positivefb,-99,hard,37,0.5174931999999899,['c'],0,right,['9'],5,0.10778350000009596,,,,,,,,14,18,Vrouw,Rechts,2,
,dotcolour,dotcolour,xotask,31,2,151,451,main,positivefb,-99,hard,39,0.4345392999998694,['c'],0,right,['9'],5,0.15858700000012504,,,,,,,,14,18,Vrouw,Rechts,2,
,dotcolour,dotcolour,xotask,32,2,152,452,main,positivefb,-99,average,51,0.4837686999999278,['c'],1,left,['9'],5,0.1183889999999792,,,,,,,,14,18,Vrouw,Rechts,2,
,dotcolour,dotcolour,xotask,33,2,153,453,main,positivefb,-99,easy,62,0.43370009999989634,['c'],1,left,['9'],5,0.08108990000005178,,,,,,,,14,18,Vrouw,Rechts,2,
,dotcolour,dotcolour,xotask,34,2,154,454,main,positivefb,-99,hard,45,0.3841337999999723,['c'],1,left,['9'],5,0.09619360000010602,,,,,,,,14,18,Vrouw,Rechts,2,
,dotcolour,dotcolour,xotask,35,2,155,455,main,positivefb,-99,average,26,0.8344528000000082,['n'],1,right,['9'],5,0.18032130000005964,,,,,,,,14,18,Vrouw,Rechts,2,
,dotcolour,dotcolour,xotask,36,2,156,456,main,positivefb,-99,average,27,0.4841136000000006,['c'],0,right,['9'],5,0.12194410000006428,,,,,,,,14,18,Vrouw,Rechts,2,
,dotcolour,dotcolour,xotask,37,2,157,457,main,positivefb,-99,easy,64,0.500135900000032,['c'],1,left,['9'],5,0.12228589999995165,,,,,,,,14,18,Vrouw,Rechts,2,
,dotcolour,dotcolour,xotask,38,2,158,458,main,positivefb,-99,hard,38,0.684321700000055,['c'],0,right,['9'],5,0.15474549999999,,,,,,,,14,18,Vrouw,Rechts,2,
,dotcolour,dotcolour,xotask,39,2,159,459,main,positivefb,-99,average,51,0.600326700000096,['c'],1,left,['9'],5,0.054471299999931944,,,,,,,,14,18,Vrouw,Rechts,2,
,dotcolour,dotcolour,xotask,40,2,160,460,main,positivefb,-99,easy,17,0.6504617000000508,['n'],1,right,['9'],5,0.13875129999996716,,,,,,,,14,18,Vrouw,Rechts,2,
,dotcolour,dotcolour,xotask,41,2,161,461,main,positivefb,-99,hard,44,0.48275379999995494,['c'],1,left,['9'],5,0.138174600000184,,,,,,,,14,18,Vrouw,Rechts,2,
,dotcolour,dotcolour,xotask,42,2,162,462,main,positivefb,-99,average,55,0.6015516000002208,['c'],1,left,['9'],5,0.11810029999992366,,,,,,,,14,18,Vrouw,Rechts,2,
,dotcolour,dotcolour,xotask,43,2,163,463,main,positivefb,-99,hard,45,0.7507759000000078,['c'],1,left,['9'],5,0.11587749999989683,,,,,,,,14,18,Vrouw,Rechts,2,
,dotcolour,dotcolour,xotask,44,2,164,464,main,positivefb,-99,easy,17,0.9158175999998548,['n'],1,right,['9'],5,0.16420349999998507,,,,,,,,14,18,Vrouw,Rechts,2,
,dotcolour,dotcolour,xotask,45,2,165,465,main,positivefb,-99,hard,35,0.8338430000001154,['c'],0,right,['9'],5,0.12539880000008452,,,,,,,,14,18,Vrouw,Rechts,2,
,dotcolour,dotcolour,xotask,46,2,166,466,main,positivefb,-99,easy,18,0.5344625000000178,['n'],1,right,['9'],5,0.1957004999999299,,,,,,,,14,18,Vrouw,Rechts,2,
,dotcolour,dotcolour,xotask,47,2,167,467,main,positivefb,-99,easy,17,0.617520999999897,['n'],1,right,['9'],5,0.17224390000001222,,,,,,,,14,18,Vrouw,Rechts,2,
,dotcolour,dotcolour,xotask,48,2,168,468,main,positivefb,-99,average,26,0.6660107000000153,['n'],1,right,['9'],5,0.19615979999980482,,,,,,,,14,18,Vrouw,Rechts,2,
,dotcolour,dotcolour,xotask,49,2,169,469,main,positivefb,-99,average,54,0.4016235000001416,['c'],1,left,['9'],5,0.148767399999997,,,,,,,,14,18,Vrouw,Rechts,2,
,dotcolour,dotcolour,xotask,50,2,170,470,main,positivefb,-99,average,27,0.7005543999998736,['n'],1,right,['9'],5,0.13998289999994995,,,,,,,,14,18,Vrouw,Rechts,2,
,dotcolour,dotcolour,xotask,51,2,171,471,main,positivefb,-99,average,55,0.3508802999999716,['c'],1,left,['9'],5,0.11365569999998115,,,,,,,,14,18,Vrouw,Rechts,2,
,dotcolour,dotcolour,xotask,52,2,172,472,main,positivefb,-99,easy,61,0.5005788000000848,['c'],1,left,['9'],5,0.13007709999988037,,,,,,,,14,18,Vrouw,Rechts,2,
,dotcolour,dotcolour,xotask,53,2,173,473,main,positivefb,-99,hard,42,0.451049600000033,['c'],1,left,['9'],5,0.15625599999998485,,,,,,,,14,18,Vrouw,Rechts,2,
,dotcolour,dotcolour,xotask,54,2,174,474,main,positivefb,-99,hard,36,0.7340339999998378,['n'],1,right,['9'],5,0.10577040000021043,,,,,,,,14,18,Vrouw,Rechts,2,
,dotcolour,dotcolour,xotask,55,2,175,475,main,positivefb,-99,hard,36,0.3681122000000414,['c'],0,right,['9'],5,0.15139909999993506,,,,,,,,14,18,Vrouw,Rechts,2,
,dotcolour,dotcolour,xotask,56,2,176,476,main,positivefb,-99,hard,39,0.3674439999999777,['n'],1,right,['9'],5,0.16303949999996803,,,,,,,,14,18,Vrouw,Rechts,2,
,dotcolour,dotcolour,xotask,57,2,177,477,main,positivefb,-99,hard,38,0.30128540000009707,['c'],0,right,['9'],5,0.09845790000008492,,,,,,,,14,18,Vrouw,Rechts,2,
,dotcolour,dotcolour,xotask,58,2,178,478,main,positivefb,-99,average,29,0.5017144000000826,['c'],0,right,['9'],5,0.05095619999997325,,,,,,,,14,18,Vrouw,Rechts,2,
,dotcolour,dotcolour,xotask,59,2,179,479,main,positivefb,-99,easy,62,0.5341809999999896,['c'],1,left,['9'],5,0.06850620000000163,,,,,,,,14,18,Vrouw,Rechts,2,
,dotcolour,dotcolour,xotask,0,3,180,480,main,positivefb,-99,easy,18,0.6495717000000241,['c'],0,right,['9'],5,0.1168772999999419,,,,,,,,14,18,Vrouw,Rechts,2,
,dotcolour,dotcolour,xotask,1,3,181,481,main,positivefb,-99,average,27,0.45039380000002893,['c'],0,right,['9'],5,0.09551519999990887,,,,,,,,14,18,Vrouw,Rechts,2,
,dotcolour,dotcolour,xotask,2,3,182,482,main,positivefb,-99,average,54,0.3159704000001966,['c'],1,left,['9'],5,0.1202707999998438,,,,,,,,14,18,Vrouw,Rechts,2,
,dotcolour,dotcolour,xotask,3,3,183,483,main,positivefb,-99,average,55,0.23330359999999928,['c'],1,left,['9'],5,0.0747126000001117,,,,,,,,14,18,Vrouw,Rechts,2,
,dotcolour,dotcolour,xotask,4,3,184,484,main,positivefb,-99,average,25,0.26668819999986226,['c'],0,right,['9'],5,0.03751020000004246,,,,,,,,14,18,Vrouw,Rechts,2,
,dotcolour,dotcolour,xotask,5,3,185,485,main,positivefb,-99,average,29,0.25049669999998514,['c'],0,right,['9'],5,0.10753850000014609,,,,,,,,14,18,Vrouw,Rechts,2,
,dotcolour,dotcolour,xotask,6,3,186,486,main,positivefb,-99,easy,62,0.13108570000008513,['c'],1,left,['9'],5,0.024265399999876536,,,,,,,,14,18,Vrouw,Rechts,2,
,dotcolour,dotcolour,xotask,7,3,187,487,main,positivefb,-99,easy,61,0.13053950000016812,['c'],1,left,['9'],5,0.04067620000000716,,,,,,,,14,18,Vrouw,Rechts,2,
,dotcolour,dotcolour,xotask,8,3,188,488,main,positivefb,-99,easy,15,0.017748299999993833,['c'],0,right,['9'],5,1.551959800000077,,,,,,,,14,18,Vrouw,Rechts,2,
,dotcolour,dotcolour,xotask,9,3,189,489,main,positivefb,-99,average,28,0.6670838999998523,['n'],1,right,['9'],5,0.11151319999999032,,,,,,,,14,18,Vrouw,Rechts,2,
,dotcolour,dotcolour,xotask,10,3,190,490,main,positivefb,-99,hard,39,0.350251900000103,['n'],1,right,['9'],5,0.10945289999995111,,,,,,,,14,18,Vrouw,Rechts,2,
,dotcolour,dotcolour,xotask,11,3,191,491,main,positivefb,-99,easy,16,2.0670438000001923,['n'],1,right,['9'],5,0.11949079999999412,,,,,,,,14,18,Vrouw,Rechts,2,
,dotcolour,dotcolour,xotask,12,3,192,492,main,positivefb,-99,hard,44,0.766713799999934,['c'],1,left,['9'],5,0.14216650000003028,,,,,,,,14,18,Vrouw,Rechts,2,
,dotcolour,dotcolour,xotask,13,3,193,493,main,positivefb,-99,average,53,0.3176143000000593,['c'],1,left,['9'],5,0.1478457000000617,,,,,,,,14,18,Vrouw,Rechts,2,
,dotcolour,dotcolour,xotask,14,3,194,494,main,positivefb,-99,easy,16,0.5331447999999455,['n'],1,right,['9'],5,0.12999920000015663,,,,,,,,14,18,Vrouw,Rechts,2,
,dotcolour,dotcolour,xotask,15,3,195,495,main,positivefb,-99,average,53,0.601393299999927,['c'],1,left,['9'],5,0.1340596000000005,,,,,,,,14,18,Vrouw,Rechts,2,
,dotcolour,dotcolour,xotask,16,3,196,496,main,positivefb,-99,easy,61,0.5333650999998554,['c'],1,left,['9'],5,0.09269220000010137,,,,,,,,14,18,Vrouw,Rechts,2,
,dotcolour,dotcolour,xotask,17,3,197,497,main,positivefb,-99,average,52,0.4838604999999916,['c'],1,left,['9'],5,0.06991179999999986,,,,,,,,14,18,Vrouw,Rechts,2,
,dotcolour,dotcolour,xotask,18,3,198,498,main,positivefb,-99,easy,62,0.5668855999999778,['c'],1,left,['9'],5,0.10984849999999824,,,,,,,,14,18,Vrouw,Rechts,2,
,dotcolour,dotcolour,xotask,19,3,199,499,main,positivefb,-99,hard,42,0.46684430000004795,['c'],1,left,['9'],5,0.07945309999990968,,,,,,,,14,18,Vrouw,Rechts,2,
,dotcolour,dotcolour,xotask,20,3,200,500,main,positivefb,-99,easy,65,0.3170118000000457,['n'],0,left,['9'],5,0.6812952999998743,,,,,,,,14,18,Vrouw,Rechts,2,
,dotcolour,dotcolour,xotask,21,3,201,501,main,positivefb,-99,easy,17,0.36678759999995236,['c'],0,right,['9'],5,0.8644171000000824,,,,,,,,14,18,Vrouw,Rechts,2,
,dotcolour,dotcolour,xotask,22,3,202,502,main,positivefb,-99,hard,36,0.36722089999989294,['c'],0,right,['9'],5,0.13620960000002924,,,,,,,,14,18,Vrouw,Rechts,2,
,dotcolour,dotcolour,xotask,23,3,203,503,main,positivefb,-99,average,27,0.6668128999999681,['n'],1,right,['9'],5,0.16065119999984745,,,,,,,,14,18,Vrouw,Rechts,2,
,dotcolour,dotcolour,xotask,24,3,204,504,main,positivefb,-99,hard,45,0.5347300999999334,['c'],1,left,['9'],5,0.17362709999997605,,,,,,,,14,18,Vrouw,Rechts,2,
,dotcolour,dotcolour,xotask,25,3,205,505,main,positivefb,-99,hard,39,0.4180587999999261,['c'],0,right,['9'],5,0.05572700000016084,,,,,,,,14,18,Vrouw,Rechts,2,
,dotcolour,dotcolour,xotask,26,3,206,506,main,positivefb,-99,easy,17,0.6506918000000042,['n'],1,right,['9'],5,0.10049210000011044,,,,,,,,14,18,Vrouw,Rechts,2,
,dotcolour,dotcolour,xotask,27,3,207,507,main,positivefb,-99,hard,43,0.5674888000000919,['c'],1,left,['9'],5,0.13085990000013226,,,,,,,,14,18,Vrouw,Rechts,2,
,dotcolour,dotcolour,xotask,28,3,208,508,main,positivefb,-99,average,51,0.4677249000001211,['c'],1,left,['9'],5,0.07539980000001378,,,,,,,,14,18,Vrouw,Rechts,2,
,dotcolour,dotcolour,xotask,29,3,209,509,main,positivefb,-99,hard,41,0.5010703999998896,['c'],1,left,['9'],5,0.10250309999992169,,,,,,,,14,18,Vrouw,Rechts,2,
,dotcolour,dotcolour,xotask,30,3,210,510,main,positivefb,-99,hard,35,0.5331117000000631,['c'],0,right,['9'],5,0.2060218999999961,,,,,,,,14,18,Vrouw,Rechts,2,
,dotcolour,dotcolour,xotask,31,3,211,511,main,positivefb,-99,easy,65,0.4175921000000926,['c'],1,left,['9'],5,0.10978530000011233,,,,,,,,14,18,Vrouw,Rechts,2,
,dotcolour,dotcolour,xotask,32,3,212,512,main,positivefb,-99,hard,38,0.48427409999999327,['c'],0,right,['9'],5,0.12683149999998022,,,,,,,,14,18,Vrouw,Rechts,2,
,dotcolour,dotcolour,xotask,33,3,213,513,main,positivefb,-99,hard,42,0.8169952000000649,['c'],1,left,['9'],5,0.13037559999997939,,,,,,,,14,18,Vrouw,Rechts,2,
,dotcolour,dotcolour,xotask,34,3,214,514,main,positivefb,-99,average,26,0.7015037999999549,['n'],1,right,['9'],5,0.17800269999997909,,,,,,,,14,18,Vrouw,Rechts,2,
,dotcolour,dotcolour,xotask,35,3,215,515,main,positivefb,-99,hard,43,0.5339132999999947,['c'],1,left,['9'],5,0.07854079999992791,,,,,,,,14,18,Vrouw,Rechts,2,
,dotcolour,dotcolour,xotask,36,3,216,516,main,positivefb,-99,average,27,0.33492709999995895,['c'],0,right,['9'],5,0.13571219999994355,,,,,,,,14,18,Vrouw,Rechts,2,
,dotcolour,dotcolour,xotask,37,3,217,517,main,positivefb,-99,easy,15,0.3505048999998053,['n'],1,right,['9'],5,0.10929370000008021,,,,,,,,14,18,Vrouw,Rechts,2,
,dotcolour,dotcolour,xotask,38,3,218,518,main,positivefb,-99,hard,44,0.2668945000000349,['n'],0,left,['9'],5,0.18272520000004988,,,,,,,,14,18,Vrouw,Rechts,2,
,dotcolour,dotcolour,xotask,39,3,219,519,main,positivefb,-99,average,28,0.24972319999983483,['c'],0,right,['9'],5,0.09385389999988547,,,,,,,,14,18,Vrouw,Rechts,2,
,dotcolour,dotcolour,xotask,40,3,220,520,main,positivefb,-99,hard,35,0.2501753000001372,['c'],0,right,['9'],5,0.04945339999994758,,,,,,,,14,18,Vrouw,Rechts,2,
,dotcolour,dotcolour,xotask,41,3,221,521,main,positivefb,-99,easy,15,0.36699869999984003,['c'],0,right,['9'],5,1.3937501000000339,,,,,,,,14,18,Vrouw,Rechts,2,
,dotcolour,dotcolour,xotask,42,3,222,522,main,positivefb,-99,hard,45,1.600188800000069,['c'],1,left,['9'],5,0.10789899999986119,,,,,,,,14,18,Vrouw,Rechts,2,
,dotcolour,dotcolour,xotask,43,3,223,523,main,positivefb,-99,easy,65,1.0506318000000192,['c'],1,left,['9'],5,0.07834669999988364,,,,,,,,14,18,Vrouw,Rechts,2,
,dotcolour,dotcolour,xotask,44,3,224,524,main,positivefb,-99,hard,36,1.3509102999998959,['c'],0,right,['9'],5,1.0697556999998596,,,,,,,,14,18,Vrouw,Rechts,2,
,dotcolour,dotcolour,xotask,45,3,225,525,main,positivefb,-99,average,52,0.8671986000001652,['n'],0,left,['9'],5,0.1611000000000331,,,,,,,,14,18,Vrouw,Rechts,2,
,dotcolour,dotcolour,xotask,46,3,226,526,main,positivefb,-99,easy,16,0.6340265999999701,['n'],1,right,['9'],5,0.14640329999997448,,,,,,,,14,18,Vrouw,Rechts,2,
,dotcolour,dotcolour,xotask,47,3,227,527,main,positivefb,-99,easy,63,0.4174628999999186,['c'],1,left,['9'],5,0.09308240000018486,,,,,,,,14,18,Vrouw,Rechts,2,
,dotcolour,dotcolour,xotask,48,3,228,528,main,positivefb,-99,average,55,0.5004761999998664,['c'],1,left,['9'],5,0.03867800000011812,,,,,,,,14,18,Vrouw,Rechts,2,
,dotcolour,dotcolour,xotask,49,3,229,529,main,positivefb,-99,average,51,0.43307960000015555,['c'],1,left,['9'],5,0.06826610000007349,,,,,,,,14,18,Vrouw,Rechts,2,
,dotcolour,dotcolour,xotask,50,3,230,530,main,positivefb,-99,average,28,0.4342074999999568,['c'],0,right,['9'],5,0.18574609999996028,,,,,,,,14,18,Vrouw,Rechts,2,
,dotcolour,dotcolour,xotask,51,3,231,531,main,positivefb,-99,hard,36,0.48319549999996525,['c'],0,right,['9'],5,0.047375499999816384,,,,,,,,14,18,Vrouw,Rechts,2,
,dotcolour,dotcolour,xotask,52,3,232,532,main,positivefb,-99,easy,62,0.5672165999999379,['c'],1,left,['9'],5,0.12047129999996287,,,,,,,,14,18,Vrouw,Rechts,2,
,dotcolour,dotcolour,xotask,53,3,233,533,main,positivefb,-99,average,27,0.7507024999999885,['n'],1,right,['9'],5,0.07016509999994014,,,,,,,,14,18,Vrouw,Rechts,2,
,dotcolour,dotcolour,xotask,54,3,234,534,main,positivefb,-99,easy,17,0.6674663999999666,['n'],1,right,['9'],5,0.10514370000009876,,,,,,,,14,18,Vrouw,Rechts,2,
,dotcolour,dotcolour,xotask,55,3,235,535,main,positivefb,-99,easy,62,0.5006487999999081,['c'],1,left,['9'],5,0.1310469000000012,,,,,,,,14,18,Vrouw,Rechts,2,
,dotcolour,dotcolour,xotask,56,3,236,536,main,positivefb,-99,average,51,0.6847113999999692,['c'],1,left,['9'],5,0.10705940000002556,,,,,,,,14,18,Vrouw,Rechts,2,
,dotcolour,dotcolour,xotask,57,3,237,537,main,positivefb,-99,hard,43,0.6831900999998197,['n'],0,left,['9'],5,0.14040469999986271,,,,,,,,14,18,Vrouw,Rechts,2,
,dotcolour,dotcolour,xotask,58,3,238,538,main,positivefb,-99,hard,37,0.8505846000000474,['c'],0,right,['9'],5,1.0384535999999116,,,,,,,,14,18,Vrouw,Rechts,2,
,dotcolour,dotcolour,xotask,59,3,239,539,main,positivefb,-99,hard,35,0.4834674000001087,['c'],0,right,['9'],5,0.07426150000014786,,,,,,,,14,18,Vrouw,Rechts,2,
,dotcolour,dotcolour,xotask,0,4,240,540,main,positivefb,-99,easy,16,0.7001298000000133,['n'],1,right,['9'],5,0.17492049999987103,,,,,,,,14,18,Vrouw,Rechts,2,
,dotcolour,dotcolour,xotask,1,4,241,541,main,positivefb,-99,hard,35,0.48427319999996143,['n'],1,right,['9'],5,0.133587499999976,,,,,,,,14,18,Vrouw,Rechts,2,
,dotcolour,dotcolour,xotask,2,4,242,542,main,positivefb,-99,hard,35,0.5165997999999945,['n'],1,right,['9'],5,0.17239619999986644,,,,,,,,14,18,Vrouw,Rechts,2,
,dotcolour,dotcolour,xotask,3,4,243,543,main,positivefb,-99,easy,19,0.3675213999999869,['n'],1,right,['9'],5,0.15168979999998555,,,,,,,,14,18,Vrouw,Rechts,2,
,dotcolour,dotcolour,xotask,4,4,244,544,main,positivefb,-99,hard,42,0.4181074999999055,['n'],0,left,['9'],5,0.1608668999999736,,,,,,,,14,18,Vrouw,Rechts,2,
,dotcolour,dotcolour,xotask,5,4,245,545,main,positivefb,-99,hard,38,0.48376790000020264,['n'],1,right,['9'],5,0.11262499999997999,,,,,,,,14,18,Vrouw,Rechts,2,
,dotcolour,dotcolour,xotask,6,4,246,546,main,positivefb,-99,average,53,0.5012351999998828,['c'],1,left,['9'],5,0.06507259999989401,,,,,,,,14,18,Vrouw,Rechts,2,
,dotcolour,dotcolour,xotask,7,4,247,547,main,positivefb,-99,easy,65,0.5671872999998868,['c'],1,left,['9'],5,0.10472749999985353,,,,,,,,14,18,Vrouw,Rechts,2,
,dotcolour,dotcolour,xotask,8,4,248,548,main,positivefb,-99,average,55,0.384374600000001,['c'],1,left,['9'],5,0.10252549999995608,,,,,,,,14,18,Vrouw,Rechts,2,
,dotcolour,dotcolour,xotask,9,4,249,549,main,positivefb,-99,hard,37,0.3495004000001245,['c'],0,right,['9'],5,0.15730889999986175,,,,,,,,14,18,Vrouw,Rechts,2,
,dotcolour,dotcolour,xotask,10,4,250,550,main,positivefb,-99,average,29,0.35044109999989814,['n'],1,right,['9'],5,0.0984561999998732,,,,,,,,14,18,Vrouw,Rechts,2,
,dotcolour,dotcolour,xotask,11,4,251,551,main,positivefb,-99,easy,61,0.3167717999999695,['c'],1,left,['9'],5,0.12991169999986596,,,,,,,,14,18,Vrouw,Rechts,2,
,dotcolour,dotcolour,xotask,12,4,252,552,main,positivefb,-99,average,52,0.38443099999994956,['c'],1,left,['9'],5,0.11916449999989709,,,,,,,,14,18,Vrouw,Rechts,2,
,dotcolour,dotcolour,xotask,13,4,253,553,main,positivefb,-99,average,51,0.3340476999999282,['c'],1,left,['9'],5,0.1013161000000764,,,,,,,,14,18,Vrouw,Rechts,2,
,dotcolour,dotcolour,xotask,14,4,254,554,main,positivefb,-99,easy,65,0.350024699999949,['c'],1,left,['9'],5,0.09281739999983074,,,,,,,,14,18,Vrouw,Rechts,2,
,dotcolour,dotcolour,xotask,15,4,255,555,main,positivefb,-99,average,26,0.7010064999999486,['n'],1,right,['9'],5,0.18233889999964958,,,,,,,,14,18,Vrouw,Rechts,2,
,dotcolour,dotcolour,xotask,16,4,256,556,main,positivefb,-99,average,26,0.8836946000001262,['c'],0,right,['9'],5,0.051980599999751576,,,,,,,,14,18,Vrouw,Rechts,2,
,dotcolour,dotcolour,xotask,17,4,257,557,main,positivefb,-99,easy,62,0.51645950000011,['c'],1,left,['9'],5,0.07043070000008811,,,,,,,,14,18,Vrouw,Rechts,2,
,dotcolour,dotcolour,xotask,18,4,258,558,main,positivefb,-99,average,53,0.8003073999998378,['c'],1,left,['9'],5,0.04456630000004225,,,,,,,,14,18,Vrouw,Rechts,2,
,dotcolour,dotcolour,xotask,19,4,259,559,main,positivefb,-99,average,26,0.5166905999999472,['n'],1,right,['9'],5,0.14954690000013215,,,,,,,,14,18,Vrouw,Rechts,2,
,dotcolour,dotcolour,xotask,20,4,260,560,main,positivefb,-99,easy,64,0.7504902999999103,['c'],1,left,['9'],5,0.05179129999987708,,,,,,,,14,18,Vrouw,Rechts,2,
,dotcolour,dotcolour,xotask,21,4,261,561,main,positivefb,-99,hard,44,0.6344352000000981,['c'],1,left,['9'],5,0.13745139999991807,,,,,,,,14,18,Vrouw,Rechts,2,
,dotcolour,dotcolour,xotask,22,4,262,562,main,positivefb,-99,average,51,0.48274080000010144,['c'],1,left,['9'],5,0.13688839999986158,,,,,,,,14,18,Vrouw,Rechts,2,
,dotcolour,dotcolour,xotask,23,4,263,563,main,positivefb,-99,hard,44,0.41709259999970527,['c'],1,left,['9'],5,0.07598569999981919,,,,,,,,14,18,Vrouw,Rechts,2,
,dotcolour,dotcolour,xotask,24,4,264,564,main,positivefb,-99,average,28,0.5340546000002178,['c'],0,right,['9'],5,0.02057809999996607,,,,,,,,14,18,Vrouw,Rechts,2,
,dotcolour,dotcolour,xotask,25,4,265,565,main,positivefb,-99,easy,18,0.8007349999998041,['n'],1,right,['9'],5,0.13243700000020908,,,,,,,,14,18,Vrouw,Rechts,2,
,dotcolour,dotcolour,xotask,26,4,266,566,main,positivefb,-99,hard,38,0.4337765999998737,['n'],1,right,['9'],5,0.12679019999995944,,,,,,,,14,18,Vrouw,Rechts,2,
,dotcolour,dotcolour,xotask,27,4,267,567,main,positivefb,-99,average,51,0.3838034999998854,['c'],1,left,['9'],5,0.12236459999985527,,,,,,,,14,18,Vrouw,Rechts,2,
,dotcolour,dotcolour,xotask,28,4,268,568,main,positivefb,-99,easy,17,0.6499857999997403,['n'],1,right,['9'],5,0.15725780000002487,,,,,,,,14,18,Vrouw,Rechts,2,
,dotcolour,dotcolour,xotask,29,4,269,569,main,positivefb,-99,hard,35,0.9342719999999645,['n'],1,right,['9'],5,0.13093909999997777,,,,,,,,14,18,Vrouw,Rechts,2,
,dotcolour,dotcolour,xotask,30,4,270,570,main,positivefb,-99,hard,42,0.6826403000000028,['c'],1,left,['9'],5,0.13977520000025834,,,,,,,,14,18,Vrouw,Rechts,2,
,dotcolour,dotcolour,xotask,31,4,271,571,main,positivefb,-99,average,28,0.5509443999999348,['n'],1,right,['9'],5,0.9601136000001134,,,,,,,,14,18,Vrouw,Rechts,2,
,dotcolour,dotcolour,xotask,32,4,272,572,main,positivefb,-99,average,55,0.7340057999999772,['c'],1,left,['9'],5,0.038122699999803444,,,,,,,,14,18,Vrouw,Rechts,2,
,dotcolour,dotcolour,xotask,33,4,273,573,main,positivefb,-99,hard,42,0.6494787999999971,['n'],0,left,['9'],5,0.12370190000001458,,,,,,,,14,18,Vrouw,Rechts,2,
,dotcolour,dotcolour,xotask,34,4,274,574,main,positivefb,-99,hard,45,0.8340505000001031,['c'],1,left,['9'],5,0.4461524999996982,,,,,,,,14,18,Vrouw,Rechts,2,
,dotcolour,dotcolour,xotask,35,4,275,575,main,positivefb,-99,easy,61,0.6161040999995748,['c'],1,left,['9'],5,0.10804570000027525,,,,,,,,14,18,Vrouw,Rechts,2,
,dotcolour,dotcolour,xotask,36,4,276,576,main,positivefb,-99,easy,19,0.6844535000000178,['n'],1,right,['9'],5,0.07017610000002605,,,,,,,,14,18,Vrouw,Rechts,2,
,dotcolour,dotcolour,xotask,37,4,277,577,main,positivefb,-99,easy,19,0.7182890999997653,['n'],1,right,['9'],5,0.09613690000014685,,,,,,,,14,18,Vrouw,Rechts,2,
,dotcolour,dotcolour,xotask,38,4,278,578,main,positivefb,-99,easy,16,0.6335105999996813,['n'],1,right,['9'],5,0.139220000000023,,,,,,,,14,18,Vrouw,Rechts,2,
,dotcolour,dotcolour,xotask,39,4,279,579,main,positivefb,-99,hard,43,0.6002223999998932,['c'],1,left,['9'],5,0.09540690000039831,,,,,,,,14,18,Vrouw,Rechts,2,
,dotcolour,dotcolour,xotask,40,4,280,580,main,positivefb,-99,hard,35,0.5509072999998352,['c'],0,right,['9'],5,0.06973930000003747,,,,,,,,14,18,Vrouw,Rechts,2,
,dotcolour,dotcolour,xotask,41,4,281,581,main,positivefb,-99,average,53,0.6837500999999975,['c'],1,left,['9'],5,0.1359255000002122,,,,,,,,14,18,Vrouw,Rechts,2,
,dotcolour,dotcolour,xotask,42,4,282,582,main,positivefb,-99,hard,41,5.067090200000166,['c'],1,left,['9'],5,0.10569699999996374,,,,,,,,14,18,Vrouw,Rechts,2,
,dotcolour,dotcolour,xotask,43,4,283,583,main,positivefb,-99,hard,35,0.4172263999998904,['c'],0,right,['9'],5,0.35830899999973553,,,,,,,,14,18,Vrouw,Rechts,2,
,dotcolour,dotcolour,xotask,44,4,284,584,main,positivefb,-99,average,25,0.7184153999996852,['c'],0,right,['9'],5,0.07565109999995911,,,,,,,,14,18,Vrouw,Rechts,2,
,dotcolour,dotcolour,xotask,45,4,285,585,main,positivefb,-99,hard,41,0.46725070000002233,['c'],1,left,['9'],5,0.1830739000001813,,,,,,,,14,18,Vrouw,Rechts,2,
,dotcolour,dotcolour,xotask,46,4,286,586,main,positivefb,-99,easy,61,0.3338530000000901,['c'],1,left,['9'],5,0.1709446999998363,,,,,,,,14,18,Vrouw,Rechts,2,
,dotcolour,dotcolour,xotask,47,4,287,587,main,positivefb,-99,easy,18,1.1494735999999648,['n'],1,right,['9'],5,0.16659100000015314,,,,,,,,14,18,Vrouw,Rechts,2,
,dotcolour,dotcolour,xotask,48,4,288,588,main,positivefb,-99,easy,64,1.334568599999784,['c'],1,left,['9'],5,0.21952039999996487,,,,,,,,14,18,Vrouw,Rechts,2,
,dotcolour,dotcolour,xotask,49,4,289,589,main,positivefb,-99,hard,44,0.7169575000002624,['c'],1,left,['9'],5,0.09525860000030661,,,,,,,,14,18,Vrouw,Rechts,2,
,dotcolour,dotcolour,xotask,50,4,290,590,main,positivefb,-99,hard,38,0.433871199999885,['c'],0,right,['9'],5,0.08323310000014317,,,,,,,,14,18,Vrouw,Rechts,2,
,dotcolour,dotcolour,xotask,51,4,291,591,main,positivefb,-99,average,27,0.3008027000000766,['c'],0,right,['9'],5,0.0924804999999651,,,,,,,,14,18,Vrouw,Rechts,2,
,dotcolour,dotcolour,xotask,52,4,292,592,main,positivefb,-99,easy,63,0.3009390000001986,['c'],1,left,['9'],5,0.1420376999999462,,,,,,,,14,18,Vrouw,Rechts,2,
,dotcolour,dotcolour,xotask,53,4,293,593,main,positivefb,-99,average,54,0.534136799999942,['c'],1,left,['9'],5,0.15629530000023806,,,,,,,,14,18,Vrouw,Rechts,2,
,dotcolour,dotcolour,xotask,54,4,294,594,main,positivefb,-99,hard,39,0.15298099999972692,['c'],0,right,['9'],5,0.28706030000012106,,,,,,,,14,18,Vrouw,Rechts,2,
,dotcolour,dotcolour,xotask,55,4,295,595,main,positivefb,-99,average,28,3.267403600000307,['c'],0,right,['9'],5,0.16149089999998978,,,,,,,,14,18,Vrouw,Rechts,2,
,dotcolour,dotcolour,xotask,56,4,296,596,main,positivefb,-99,easy,64,0.8507715000000644,['c'],1,left,['9'],5,0.13034590000006574,,,,,,,,14,18,Vrouw,Rechts,2,
,dotcolour,dotcolour,xotask,57,4,297,597,main,positivefb,-99,average,28,0.8336623999998665,['c'],0,right,['9'],5,0.13313500000003842,,,,,,,,14,18,Vrouw,Rechts,2,
,dotcolour,dotcolour,xotask,58,4,298,598,main,positivefb,-99,easy,18,0.5003566000000319,['n'],1,right,['9'],5,0.15594469999996363,,,,,,,,14,18,Vrouw,Rechts,2,
,dotcolour,dotcolour,xotask,59,4,299,599,main,positivefb,-99,easy,17,1.134440700000141,['n'],1,right,['9'],5,0.2659049000003506,,,,,,,,14,18,Vrouw,Rechts,2,
,dotcolour,dotcolour,xotask,0,0,0,600,training,positivefb,77,average,28,1.5338222999998834,['c'],0,right,['9'],5,0.18419959999982893,,,,,,,,14,18,Vrouw,Rechts,2,
,dotcolour,dotcolour,xotask,1,0,1,601,training,positivefb,89,average,51,0.3332762999998522,['c'],1,left,['9'],5,0.15487819999998464,,,,,,,,14,18,Vrouw,Rechts,2,
,dotcolour,dotcolour,xotask,2,0,2,602,training,positivefb,96,hard,36,0.5674201000001631,['c'],0,right,['9'],5,0.08743860000004133,,,,,,,,14,18,Vrouw,Rechts,2,
,dotcolour,dotcolour,xotask,3,0,3,603,training,positivefb,94,average,26,0.31537200000002485,['c'],0,right,['9'],5,0.11923299999989467,,,,,,,,14,18,Vrouw,Rechts,2,
,dotcolour,dotcolour,xotask,4,0,4,604,training,positivefb,96,hard,44,0.5001643999999033,['c'],1,left,['9'],5,0.15804909999997108,,,,,,,,14,18,Vrouw,Rechts,2,
,dotcolour,dotcolour,xotask,5,0,5,605,training,positivefb,75,easy,18,8.649772799999937,['c'],0,right,['0'],6,0.294485199999599,,,,,,,,14,18,Vrouw,Rechts,2,
,dotcolour,dotcolour,xotask,6,0,6,606,training,positivefb,93,average,28,0.6505332000001545,['n'],1,right,['0'],6,0.08077270000012504,,,,,,,,14,18,Vrouw,Rechts,2,
,dotcolour,dotcolour,xotask,7,0,7,607,training,positivefb,91,hard,39,0.6337410000001,['n'],1,right,['0'],6,0.5256482999998298,,,,,,,,14,18,Vrouw,Rechts,2,
,dotcolour,dotcolour,xotask,8,0,8,608,training,positivefb,96,easy,18,0.6505068999999821,['n'],1,right,['0'],6,0.0870761000001039,,,,,,,,14,18,Vrouw,Rechts,2,
,dotcolour,dotcolour,xotask,9,0,9,609,training,positivefb,97,hard,36,0.6329476000000795,['n'],1,right,['0'],6,0.13809149999997317,,,,,,,,14,18,Vrouw,Rechts,2,
,dotcolour,dotcolour,xotask,10,0,10,610,training,positivefb,96,easy,61,0.44977909999988697,['c'],1,left,['0'],6,0.1549787999997534,,,,,,,,14,18,Vrouw,Rechts,2,
,dotcolour,dotcolour,xotask,11,0,11,611,training,positivefb,33,hard,36,0.7995664999998553,['c'],0,right,['0'],6,0.23682349999990038,,,,,,,,14,18,Vrouw,Rechts,2,
,dotcolour,dotcolour,xotask,12,0,12,612,training,positivefb,93,average,25,0.4827618999997867,['n'],1,right,['0'],6,0.08889240000007703,,,,,,,,14,18,Vrouw,Rechts,2,
,dotcolour,dotcolour,xotask,13,0,13,613,training,positivefb,93,hard,35,0.5169746999999916,['n'],1,right,['0'],6,0.11230060000025333,,,,,,,,14,18,Vrouw,Rechts,2,
,dotcolour,dotcolour,xotask,14,0,14,614,training,positivefb,93,average,53,0.6166002999998454,['c'],1,left,['0'],6,0.14743399999997564,,,,,,,,14,18,Vrouw,Rechts,2,
,dotcolour,dotcolour,xotask,15,0,15,615,training,positivefb,92,hard,38,0.7334015999999792,['c'],0,right,['0'],6,0.08162750000019514,,,,,,,,14,18,Vrouw,Rechts,2,
,dotcolour,dotcolour,xotask,16,0,16,616,training,positivefb,98,hard,37,0.3492369000000508,['c'],0,right,['0'],6,0.17591029999994134,,,,,,,,14,18,Vrouw,Rechts,2,
,dotcolour,dotcolour,xotask,17,0,17,617,training,positivefb,96,hard,39,0.36663910000015676,['c'],0,right,['0'],6,0.06768689999989874,,,,,,,,14,18,Vrouw,Rechts,2,
,dotcolour,dotcolour,xotask,18,0,18,618,training,positivefb,97,easy,18,0.5674937999997383,['n'],1,right,['0'],6,0.025465499999882013,,,,,,,,14,18,Vrouw,Rechts,2,
,dotcolour,dotcolour,xotask,19,0,19,619,training,positivefb,97,easy,61,0.4339385999996921,['c'],1,left,['0'],6,0.09607480000022406,,,,,,,,14,18,Vrouw,Rechts,2,
,dotcolour,dotcolour,xotask,20,0,20,620,training,positivefb,90,hard,43,0.5993163999996796,['c'],1,left,['0'],6,0.06095640000012281,,,,,,,,14,18,Vrouw,Rechts,2,
,dotcolour,dotcolour,xotask,21,0,21,621,training,positivefb,96,easy,18,0.699768099999801,['n'],1,right,['0'],6,0.03819049999992785,,,,,,,,14,18,Vrouw,Rechts,2,
,dotcolour,dotcolour,xotask,22,0,22,622,training,positivefb,17,easy,16,0.4996436999999787,['c'],0,right,['0'],6,0.6499087000001964,,,,,,,,14,18,Vrouw,Rechts,2,
,dotcolour,dotcolour,xotask,23,0,23,623,training,positivefb,97,easy,64,0.5672880999995868,['c'],1,left,['0'],6,0.08046730000023672,,,,,,,,14,18,Vrouw,Rechts,2,
,dotcolour,dotcolour,xotask,24,0,24,624,training,positivefb,95,average,55,0.5667959000002156,['c'],1,left,['0'],6,0.0875663000001623,,,,,,,,14,18,Vrouw,Rechts,2,
,dotcolour,dotcolour,xotask,25,0,25,625,training,positivefb,97,hard,43,0.5157441999999719,['c'],1,left,['0'],6,0.06376499999987573,,,,,,,,14,18,Vrouw,Rechts,2,
,dotcolour,dotcolour,xotask,26,0,26,626,training,positivefb,98,easy,17,0.5501749999998538,['n'],1,right,['0'],6,0.0554056999999375,,,,,,,,14,18,Vrouw,Rechts,2,
