starttime,task,fbtask,firsttask,withinblocktrial,block,withintasktrial,trial,running,feedback,fbscore,difflevel,reddots,rt,resp,cor,cresp,conf_press,cj,RTconf,n_xes,stoptime,sub,age,gender,handedness,session,
1714984306,dotcolour,dotcolour,xotask,0,0,0,0,training,positivefb,6,average,26,3.1183075999997527,['c'],0,right,['2'],5,3.9749180999997407,,,20,19,Vrouw,Rechts,1,
,dotcolour,dotcolour,xotask,1,0,1,1,training,positivefb,0,average,54,3.716524799999206,['n'],0,left,['8'],3,10.426345999999285,,,20,19,Vrouw,Rechts,1,
,dotcolour,dotcolour,xotask,2,0,2,2,training,positivefb,100,easy,63,4.017655500000728,['c'],1,left,['3'],4,5.814851699999963,,,20,19,Vrouw,Rechts,1,
,dotcolour,dotcolour,xotask,3,0,3,3,training,positivefb,100,easy,16,3.9341280999997252,['n'],1,right,['3'],4,5.862491699999737,,,20,19,Vrouw,Rechts,1,
,dotcolour,dotcolour,xotask,4,0,4,4,training,positivefb,99,average,28,3.366116499999407,['n'],1,right,['8'],3,4.276655800000299,,,20,19,Vrouw,Rechts,1,
,dotcolour,dotcolour,xotask,5,0,5,5,training,positivefb,31,hard,36,3.5340185000004567,['c'],0,right,['2'],5,7.035203200000069,,,20,19,Vrouw,Rechts,1,
,dotcolour,dotcolour,xotask,6,0,6,6,training,positivefb,9,easy,62,3.0672099000003072,['n'],0,left,['9'],2,3.621245500000441,,,20,19,Vrouw,Rechts,1,
,dotcolour,dotcolour,xotask,7,0,7,7,training,positivefb,4,easy,65,6.08432300000004,['n'],0,left,['8'],3,5.18555060000017,,,20,19,Vrouw,Rechts,1,
,dotcolour,dotcolour,xotask,8,0,8,8,training,positivefb,10,average,29,4.966931300000397,['c'],0,right,['3'],4,4.698146699999597,,,20,19,Vrouw,Rechts,1,
,dotcolour,dotcolour,xotask,9,0,9,9,training,positivefb,33,hard,37,2.433055499999682,['c'],0,right,['2'],5,2.443369999999959,,,20,19,Vrouw,Rechts,1,
,dotcolour,dotcolour,xotask,10,0,10,10,training,positivefb,92,hard,37,3.2503344999995534,['n'],1,right,['3'],4,3.3916237000003093,,,20,19,Vrouw,Rechts,1,
,dotcolour,dotcolour,xotask,11,0,11,11,training,positivefb,97,average,25,2.6843876000002638,['n'],1,right,['3'],4,4.73191499999939,,,20,19,Vrouw,Rechts,1,
,dotcolour,dotcolour,xotask,12,0,12,12,training,positivefb,94,easy,65,2.567067899999529,['c'],1,left,['1'],6,0.9591101999994862,,,20,19,Vrouw,Rechts,1,
,dotcolour,dotcolour,xotask,13,0,13,13,training,positivefb,77,hard,42,2.167192800000521,['c'],1,left,['1'],6,0.46618779999971593,,,20,19,Vrouw,Rechts,1,
,dotcolour,dotcolour,xotask,14,0,14,14,training,positivefb,97,easy,63,1.2501701000001049,['c'],1,left,['1'],6,0.2611779999997452,,,20,19,Vrouw,Rechts,1,
,dotcolour,dotcolour,xotask,15,0,15,15,training,positivefb,91,hard,42,3.866959900000438,['n'],0,left,['8'],3,2.977178400000412,,,20,19,Vrouw,Rechts,1,
,dotcolour,dotcolour,xotask,16,0,16,16,training,positivefb,74,hard,43,2.3669040000004316,['c'],1,left,['1'],6,0.4986916999996538,,,20,19,Vrouw,Rechts,1,
,dotcolour,dotcolour,xotask,17,0,17,17,training,positivefb,85,hard,41,2.234286500000053,['c'],1,left,['1'],6,0.1818039999998291,,,20,19,Vrouw,Rechts,1,
,dotcolour,dotcolour,xotask,18,0,18,18,training,positivefb,91,average,53,1.1331373000002714,['c'],1,left,['1'],6,0.16919719999987137,,,20,19,Vrouw,Rechts,1,
,dotcolour,dotcolour,xotask,19,0,19,19,training,positivefb,95,easy,17,1.6169042999999874,['n'],1,right,['1'],6,0.21718800000053307,,,20,19,Vrouw,Rechts,1,
,dotcolour,dotcolour,xotask,20,0,20,20,training,positivefb,97,average,53,1.3664748000001055,['c'],1,left,['1'],6,0.21056820000012522,,,20,19,Vrouw,Rechts,1,
,dotcolour,dotcolour,xotask,21,0,21,21,training,positivefb,97,easy,17,1.016794000000118,['n'],1,right,['1'],6,0.2100665999996636,,,20,19,Vrouw,Rechts,1,
,dotcolour,dotcolour,xotask,22,0,22,22,training,positivefb,88,average,25,0.9165469999998095,['n'],1,right,['1'],6,0.26929829999971844,,,20,19,Vrouw,Rechts,1,
,dotcolour,dotcolour,xotask,23,0,23,23,training,positivefb,79,hard,44,1.3669543000005433,['n'],0,left,['1'],6,0.2513883000001442,,,20,19,Vrouw,Rechts,1,
,dotcolour,dotcolour,xotask,24,0,24,24,training,positivefb,63,average,54,1.5168807000000015,['c'],1,left,['1'],6,0.17320269999981974,,,20,19,Vrouw,Rechts,1,
,dotcolour,dotcolour,xotask,25,0,25,25,training,positivefb,97,average,52,1.0336289999995643,['c'],1,left,['1'],6,0.1813094999997702,,,20,19,Vrouw,Rechts,1,
,dotcolour,dotcolour,xotask,26,0,26,26,training,positivefb,76,average,52,0.9829608999998527,['c'],1,left,['1'],6,0.19787319999977626,,,20,19,Vrouw,Rechts,1,
,dotcolour,dotcolour,xotask,27,0,27,27,training,positivefb,85,average,27,1.2506568999997398,['n'],1,right,['1'],6,0.18062110000028042,,,20,19,Vrouw,Rechts,1,
,dotcolour,dotcolour,xotask,28,0,28,28,training,positivefb,86,hard,41,1.6337045000000217,['n'],0,left,['1'],6,0.16405639999993582,,,20,19,Vrouw,Rechts,1,
,dotcolour,dotcolour,xotask,29,0,29,29,training,positivefb,91,hard,45,1.4171823000006043,['c'],1,left,['1'],6,0.14919280000049184,,,20,19,Vrouw,Rechts,1,
,dotcolour,dotcolour,xotask,30,0,30,30,training,positivefb,80,easy,61,0.9335562999995091,['c'],1,left,['1'],6,0.20211290000042936,,,20,19,Vrouw,Rechts,1,
,dotcolour,dotcolour,xotask,31,0,31,31,training,positivefb,85,easy,16,0.8832699999993565,['n'],1,right,['1'],6,0.23896739999963756,,,20,19,Vrouw,Rechts,1,
,dotcolour,dotcolour,xotask,32,0,32,32,training,positivefb,93,average,25,1.4015896999999313,['n'],1,right,['1'],6,0.14964340000005905,,,20,19,Vrouw,Rechts,1,
,dotcolour,dotcolour,xotask,33,0,33,33,training,positivefb,79,easy,62,0.900477399999545,['c'],1,left,['1'],6,0.1715279999998529,,,20,19,Vrouw,Rechts,1,
,dotcolour,dotcolour,xotask,34,0,34,34,training,positivefb,67,easy,15,0.9006436999998186,['n'],1,right,['1'],6,0.2729435999999623,,,20,19,Vrouw,Rechts,1,
,dotcolour,dotcolour,xotask,35,0,35,35,training,positivefb,82,hard,39,1.6991048999998384,['n'],1,right,['1'],6,1.5376874000003227,,,20,19,Vrouw,Rechts,1,
,dotcolour,dotcolour,xotask,36,0,36,36,training,positivefb,93,hard,35,0.7340640000002168,['n'],1,right,['1'],6,0.15084209999986342,,,20,19,Vrouw,Rechts,1,
,dotcolour,dotcolour,xotask,37,0,37,37,training,positivefb,93,easy,18,0.5005878000001758,['n'],1,right,['1'],6,0.15654890000041632,,,20,19,Vrouw,Rechts,1,
,dotcolour,dotcolour,xotask,38,0,38,38,training,positivefb,99,easy,18,0.433204900000419,['n'],1,right,['1'],6,0.1418178000003536,,,20,19,Vrouw,Rechts,1,
,dotcolour,dotcolour,xotask,39,0,39,39,training,positivefb,79,hard,43,1.083046199999444,['c'],1,left,['1'],6,0.1243506000000707,,,20,19,Vrouw,Rechts,1,
,dotcolour,dotcolour,xotask,40,0,40,40,training,positivefb,64,average,53,1.9841236000002027,['c'],1,left,['1'],6,0.14499419999992824,,,20,19,Vrouw,Rechts,1,
,dotcolour,dotcolour,xotask,41,0,41,41,training,positivefb,91,average,53,1.0509687000003396,['c'],1,left,['1'],6,0.08188629999949626,,,20,19,Vrouw,Rechts,1,
,dotcolour,dotcolour,xotask,42,0,42,42,training,positivefb,94,average,52,0.9660800999999992,['c'],1,left,['1'],6,0.12738199999967037,,,20,19,Vrouw,Rechts,1,
,dotcolour,dotcolour,xotask,43,0,43,43,training,positivefb,91,hard,37,1.1000849000001836,['n'],1,right,['1'],6,0.11086920000070677,,,20,19,Vrouw,Rechts,1,
,dotcolour,dotcolour,xotask,44,0,44,44,training,positivefb,73,hard,35,0.7005565999997998,['n'],1,right,['1'],6,0.150778100000025,,,20,19,Vrouw,Rechts,1,
,dotcolour,dotcolour,xotask,45,0,45,45,training,positivefb,90,average,51,0.9676979999994728,['c'],1,left,['1'],6,0.09845080000013695,,,20,19,Vrouw,Rechts,1,
,dotcolour,dotcolour,xotask,46,0,46,46,training,positivefb,88,hard,41,1.2501950000005309,['n'],0,left,['1'],6,0.10082130000046163,,,20,19,Vrouw,Rechts,1,
,dotcolour,dotcolour,xotask,47,0,47,47,training,positivefb,96,easy,15,0.5322880000003352,['n'],1,right,['1'],6,0.16296189999957278,,,20,19,Vrouw,Rechts,1,
,dotcolour,dotcolour,xotask,48,0,48,48,training,positivefb,98,easy,16,0.4836505000002944,['n'],1,right,['1'],6,0.16220530000009603,,,20,19,Vrouw,Rechts,1,
,dotcolour,dotcolour,xotask,49,0,49,49,training,positivefb,95,easy,61,1.016182200000003,['c'],1,left,['1'],6,0.10721379999995406,,,20,19,Vrouw,Rechts,1,
,dotcolour,dotcolour,xotask,50,0,50,50,training,positivefb,92,easy,18,0.5177788000000874,['n'],1,right,['1'],6,0.12984140000025945,,,20,19,Vrouw,Rechts,1,
,dotcolour,dotcolour,xotask,51,0,51,51,training,positivefb,89,easy,65,0.8674833999994007,['c'],1,left,['1'],6,0.09097779999956401,,,20,19,Vrouw,Rechts,1,
,dotcolour,dotcolour,xotask,52,0,52,52,training,positivefb,78,easy,62,0.9842445000003863,['c'],1,left,['1'],6,0.20884419999947568,,,20,19,Vrouw,Rechts,1,
,dotcolour,dotcolour,xotask,53,0,53,53,training,positivefb,97,average,29,0.6510284999994838,['n'],1,right,['1'],6,0.1501458000002458,,,20,19,Vrouw,Rechts,1,
,dotcolour,dotcolour,xotask,54,0,54,54,training,positivefb,80,hard,43,0.48347889999968174,['n'],0,left,['1'],6,0.21379260000048816,,,20,19,Vrouw,Rechts,1,
,dotcolour,dotcolour,xotask,55,0,55,55,training,positivefb,95,average,29,0.6331850000005943,['n'],1,right,['1'],6,0.1401400000004287,,,20,19,Vrouw,Rechts,1,
,dotcolour,dotcolour,xotask,56,0,56,56,training,positivefb,91,hard,37,0.4667812000006961,['n'],1,right,['1'],6,0.2681966000000102,,,20,19,Vrouw,Rechts,1,
,dotcolour,dotcolour,xotask,57,0,57,57,training,positivefb,89,hard,38,0.9507489000006899,['n'],1,right,['1'],6,0.13167129999965255,,,20,19,Vrouw,Rechts,1,
,dotcolour,dotcolour,xotask,58,0,58,58,training,positivefb,94,hard,38,1.2007738000002064,['n'],1,right,['1'],6,0.1898337000002357,,,20,19,Vrouw,Rechts,1,
,dotcolour,dotcolour,xotask,59,0,59,59,training,positivefb,85,average,28,1.0662333999998737,['c'],0,right,['1'],6,0.131805500000155,,,20,19,Vrouw,Rechts,1,
,dotcolour,dotcolour,xotask,0,1,60,60,training,positivefb,92,hard,39,1.4351157000000967,['c'],0,right,['1'],6,0.14710110000032728,,,20,19,Vrouw,Rechts,1,
,dotcolour,dotcolour,xotask,1,1,61,61,training,positivefb,98,average,55,0.8662186999999903,['c'],1,left,['1'],6,0.2112859999997454,,,20,19,Vrouw,Rechts,1,
,dotcolour,dotcolour,xotask,2,1,62,62,training,positivefb,72,hard,39,1.317668099999537,['n'],1,right,['1'],6,0.17423020000023826,,,20,19,Vrouw,Rechts,1,
,dotcolour,dotcolour,xotask,3,1,63,63,training,positivefb,86,easy,65,1.2182387000002564,['c'],1,left,['1'],6,0.12691809999978432,,,20,19,Vrouw,Rechts,1,
,dotcolour,dotcolour,xotask,4,1,64,64,training,positivefb,90,average,25,0.9676364999995712,['n'],1,right,['1'],6,0.13987729999917065,,,20,19,Vrouw,Rechts,1,
,dotcolour,dotcolour,xotask,5,1,65,65,training,positivefb,92,easy,15,0.5840656999998828,['n'],1,right,['1'],6,0.12684269999954267,,,20,19,Vrouw,Rechts,1,
,dotcolour,dotcolour,xotask,6,1,66,66,training,positivefb,98,easy,18,0.5655266000003394,['n'],1,right,['1'],6,0.10758050000004005,,,20,19,Vrouw,Rechts,1,
,dotcolour,dotcolour,xotask,7,1,67,67,training,positivefb,89,average,52,0.9001228999995874,['c'],1,left,['1'],6,0.06784479999987525,,,20,19,Vrouw,Rechts,1,
,dotcolour,dotcolour,xotask,8,1,68,68,training,positivefb,90,average,54,0.8674885000000359,['c'],1,left,['1'],6,0.08581709999998566,,,20,19,Vrouw,Rechts,1,
,dotcolour,dotcolour,xotask,9,1,69,69,training,positivefb,93,average,55,0.8672835999996096,['c'],1,left,['1'],6,0.08823649999976624,,,20,19,Vrouw,Rechts,1,
,dotcolour,dotcolour,xotask,10,1,70,70,training,positivefb,96,average,29,0.5679428000003099,['n'],1,right,['1'],6,0.06259779999982129,,,20,19,Vrouw,Rechts,1,
,dotcolour,dotcolour,xotask,11,1,71,71,training,positivefb,89,hard,44,0.8673156000004383,['c'],1,left,['1'],6,0.04957540000032168,,,20,19,Vrouw,Rechts,1,
,dotcolour,dotcolour,xotask,12,1,72,72,training,positivefb,61,hard,42,2.466847200000302,['n'],0,left,['8'],3,2.373053099999197,,,20,19,Vrouw,Rechts,1,
,dotcolour,dotcolour,xotask,13,1,73,73,training,positivefb,89,average,29,0.7995499999997264,['n'],1,right,['1'],6,0.13369520000014745,,,20,19,Vrouw,Rechts,1,
,dotcolour,dotcolour,xotask,14,1,74,74,training,positivefb,91,average,54,0.9665998999998919,['c'],1,left,['1'],6,0.12197649999961868,,,20,19,Vrouw,Rechts,1,
,dotcolour,dotcolour,xotask,15,1,75,75,training,positivefb,88,hard,38,1.2662117999998372,['n'],1,right,['1'],6,0.1300891999999294,,,20,19,Vrouw,Rechts,1,
,dotcolour,dotcolour,xotask,16,1,76,76,training,positivefb,83,hard,39,1.6502519999994547,['c'],0,right,['1'],6,0.0603462999997646,,,20,19,Vrouw,Rechts,1,
,dotcolour,dotcolour,xotask,17,1,77,77,training,positivefb,76,hard,44,1.1496219000000565,['c'],1,left,['1'],6,0.14043909999963944,,,20,19,Vrouw,Rechts,1,
,dotcolour,dotcolour,xotask,18,1,78,78,training,positivefb,67,average,54,1.1658499000004667,['c'],1,left,['1'],6,0.11203320000004169,,,20,19,Vrouw,Rechts,1,
,dotcolour,dotcolour,xotask,19,1,79,79,training,positivefb,70,hard,39,1.5323317000002135,['c'],0,right,['1'],6,0.16663820000030682,,,20,19,Vrouw,Rechts,1,
,dotcolour,dotcolour,xotask,20,1,80,80,training,positivefb,97,easy,63,1.1001619999997274,['c'],1,left,['1'],6,0.20352840000032302,,,20,19,Vrouw,Rechts,1,
,dotcolour,dotcolour,xotask,21,1,81,81,training,positivefb,73,hard,38,1.2002938000005088,['c'],0,right,['1'],6,0.20355519999975513,,,20,19,Vrouw,Rechts,1,
,dotcolour,dotcolour,xotask,22,1,82,82,training,positivefb,89,easy,16,1.3828337000004467,['n'],1,right,['1'],6,0.16451190000043425,,,20,19,Vrouw,Rechts,1,
,dotcolour,dotcolour,xotask,23,1,83,83,training,positivefb,92,average,51,1.1496841999996832,['c'],1,left,['1'],6,0.12750289999985398,,,20,19,Vrouw,Rechts,1,
,dotcolour,dotcolour,xotask,24,1,84,84,training,positivefb,95,average,26,0.6844382999997833,['n'],1,right,['1'],6,0.11227469999994355,,,20,19,Vrouw,Rechts,1,
,dotcolour,dotcolour,xotask,25,1,85,85,training,positivefb,77,easy,61,0.9830528000002232,['c'],1,left,['1'],6,0.1724592999999004,,,20,19,Vrouw,Rechts,1,
,dotcolour,dotcolour,xotask,26,1,86,86,training,positivefb,89,hard,43,1.000125699999444,['c'],1,left,['1'],6,0.1497962000003099,,,20,19,Vrouw,Rechts,1,
,dotcolour,dotcolour,xotask,27,1,87,87,training,positivefb,84,easy,61,0.8509165999994366,['c'],1,left,['1'],6,0.19849799999974493,,,20,19,Vrouw,Rechts,1,
,dotcolour,dotcolour,xotask,28,1,88,88,training,positivefb,93,easy,64,0.8339145999998436,['c'],1,left,['1'],6,0.14093769999999495,,,20,19,Vrouw,Rechts,1,
,dotcolour,dotcolour,xotask,29,1,89,89,training,positivefb,85,hard,42,0.949720100000377,['c'],1,left,['1'],6,0.10540629999923112,,,20,19,Vrouw,Rechts,1,
,dotcolour,dotcolour,xotask,30,1,90,90,training,positivefb,83,hard,35,2.0670907000003353,['n'],1,right,['3'],4,2.6596600999992006,,,20,19,Vrouw,Rechts,1,
,dotcolour,dotcolour,xotask,31,1,91,91,training,positivefb,95,average,54,1.2333772000001773,['c'],1,left,['1'],6,0.3026657000000341,,,20,19,Vrouw,Rechts,1,
,dotcolour,dotcolour,xotask,32,1,92,92,training,positivefb,94,easy,17,1.1167939999995724,['n'],1,right,['1'],6,0.24570020000010118,,,20,19,Vrouw,Rechts,1,
,dotcolour,dotcolour,xotask,33,1,93,93,training,positivefb,91,average,29,0.8667390000000523,['n'],1,right,['1'],6,0.12288700000044628,,,20,19,Vrouw,Rechts,1,
,dotcolour,dotcolour,xotask,34,1,94,94,training,positivefb,88,hard,35,2.2667789999995875,['n'],1,right,['2'],5,1.4028067999997802,,,20,19,Vrouw,Rechts,1,
,dotcolour,dotcolour,xotask,35,1,95,95,training,positivefb,85,easy,63,2.1663668999999572,['c'],1,left,['1'],6,0.11628819999987172,,,20,19,Vrouw,Rechts,1,
,dotcolour,dotcolour,xotask,36,1,96,96,training,positivefb,84,hard,43,1.4336356000003434,['c'],1,left,['1'],6,0.09493899999961286,,,20,19,Vrouw,Rechts,1,
,dotcolour,dotcolour,xotask,37,1,97,97,training,positivefb,41,hard,38,2.5847524999999223,['n'],1,right,['2'],5,1.5002230000000054,,,20,19,Vrouw,Rechts,1,
,dotcolour,dotcolour,xotask,38,1,98,98,training,positivefb,98,easy,18,1.0670927999999549,['n'],1,right,['1'],6,0.3247063999997408,,,20,19,Vrouw,Rechts,1,
,dotcolour,dotcolour,xotask,39,1,99,99,training,positivefb,85,hard,45,1.4161475999999311,['n'],0,left,['1'],6,0.2715787999995882,,,20,19,Vrouw,Rechts,1,
,dotcolour,dotcolour,xotask,40,1,100,100,training,positivefb,93,average,27,0.6499001000001954,['n'],1,right,['1'],6,0.22660180000002583,,,20,19,Vrouw,Rechts,1,
,dotcolour,dotcolour,xotask,41,1,101,101,training,positivefb,96,easy,16,0.5660438000004433,['n'],1,right,['1'],6,0.1871288000002096,,,20,19,Vrouw,Rechts,1,
,dotcolour,dotcolour,xotask,42,1,102,102,training,positivefb,97,average,28,0.5178140999996685,['n'],1,right,['1'],6,0.2632127999995646,,,20,19,Vrouw,Rechts,1,
,dotcolour,dotcolour,xotask,43,1,103,103,training,positivefb,97,easy,61,1.083261400000083,['c'],1,left,['1'],6,0.13009879999935947,,,20,19,Vrouw,Rechts,1,
,dotcolour,dotcolour,xotask,44,1,104,104,training,positivefb,98,easy,17,0.6830276999999114,['n'],1,right,['1'],6,0.17810949999966397,,,20,19,Vrouw,Rechts,1,
,dotcolour,dotcolour,xotask,45,1,105,105,training,positivefb,93,easy,18,0.533749700000044,['n'],1,right,['1'],6,0.19009279999954742,,,20,19,Vrouw,Rechts,1,
,dotcolour,dotcolour,xotask,46,1,106,106,training,positivefb,85,average,25,0.60019309999916,['n'],1,right,['1'],6,0.23088340000049357,,,20,19,Vrouw,Rechts,1,
,dotcolour,dotcolour,xotask,47,1,107,107,training,positivefb,92,easy,62,1.1499027999998361,['c'],1,left,['1'],6,0.12783180000042194,,,20,19,Vrouw,Rechts,1,
,dotcolour,dotcolour,xotask,48,1,108,108,training,positivefb,94,easy,62,0.8999401999999463,['c'],1,left,['1'],6,0.1277311000003465,,,20,19,Vrouw,Rechts,1,
,dotcolour,dotcolour,xotask,49,1,109,109,training,positivefb,92,easy,17,0.5176802999994834,['n'],1,right,['1'],6,0.2303487999997742,,,20,19,Vrouw,Rechts,1,
,dotcolour,dotcolour,xotask,50,1,110,110,training,positivefb,96,easy,15,0.5667165000004388,['n'],1,right,['1'],6,0.527015399999982,,,20,19,Vrouw,Rechts,1,
,dotcolour,dotcolour,xotask,51,1,111,111,training,positivefb,96,average,53,1.0326147000005221,['c'],1,left,['1'],6,0.15328599999975268,,,20,19,Vrouw,Rechts,1,
,dotcolour,dotcolour,xotask,52,1,112,112,training,positivefb,89,hard,41,2.416985800000475,['c'],1,left,['1'],6,0.1708158999999796,,,20,19,Vrouw,Rechts,1,
,dotcolour,dotcolour,xotask,53,1,113,113,training,positivefb,94,average,28,0.61730979999993,['n'],1,right,['1'],6,0.17097029999968072,,,20,19,Vrouw,Rechts,1,
,dotcolour,dotcolour,xotask,54,1,114,114,training,positivefb,79,hard,44,2.4496515000000727,['n'],0,left,['1'],6,0.2100775999997495,,,20,19,Vrouw,Rechts,1,
,dotcolour,dotcolour,xotask,55,1,115,115,training,positivefb,92,hard,41,1.2501634999998714,['c'],1,left,['1'],6,0.12830480000047828,,,20,19,Vrouw,Rechts,1,
,dotcolour,dotcolour,xotask,56,1,116,116,training,positivefb,95,hard,35,2.116622799999277,['n'],1,right,['1'],6,0.1506316999993942,,,20,19,Vrouw,Rechts,1,
,dotcolour,dotcolour,xotask,57,1,117,117,training,positivefb,87,easy,63,1.1176720000003115,['c'],1,left,['1'],6,0.1804466000003231,,,20,19,Vrouw,Rechts,1,
,dotcolour,dotcolour,xotask,58,1,118,118,training,positivefb,59,average,29,3.9828806999994413,['c'],0,right,['8'],3,0.8946747999998479,,,20,19,Vrouw,Rechts,1,
,dotcolour,dotcolour,xotask,59,1,119,119,training,positivefb,83,average,53,1.2499846999999136,['c'],1,left,['1'],6,0.2096706999991511,,,20,19,Vrouw,Rechts,1,
,xotask,dotcolour,xotask,0,2,120,120,main,positivefb,-99,hard,,2.3682214999998905,['c'],1,left,['3'],4,4.609159399999953,51,,20,19,Vrouw,Rechts,1,
,xotask,dotcolour,xotask,1,2,121,121,main,positivefb,-99,hard,,3.9672691000005216,['n'],0,left,['3'],4,4.219075400000293,51,,20,19,Vrouw,Rechts,1,
,xotask,dotcolour,xotask,2,2,122,122,main,positivefb,-99,hard,,4.401181900000665,['c'],0,right,['3'],4,3.651074200000039,26,,20,19,Vrouw,Rechts,1,
,xotask,dotcolour,xotask,3,2,123,123,main,positivefb,-99,hard,,1.6181529000004957,['n'],1,right,['3'],4,1.1134338000001662,26,,20,19,Vrouw,Rechts,1,
,xotask,dotcolour,xotask,4,2,124,124,main,positivefb,-99,easy,,2.9839954999997644,['c'],1,left,['8'],3,4.2464403000003585,72,,20,19,Vrouw,Rechts,1,
,xotask,dotcolour,xotask,5,2,125,125,main,positivefb,-99,average,,1.5338135000001785,['n'],1,right,['8'],3,0.44098980000035226,18,,20,19,Vrouw,Rechts,1,
,xotask,dotcolour,xotask,6,2,126,126,main,positivefb,-99,easy,,2.184492300000784,['c'],1,left,['3'],4,1.6721242000003258,72,,20,19,Vrouw,Rechts,1,
,xotask,dotcolour,xotask,7,2,127,127,main,positivefb,-99,average,,3.517162400000416,['c'],1,left,['1'],6,1.0183661000000939,64,,20,19,Vrouw,Rechts,1,
,xotask,dotcolour,xotask,8,2,128,128,main,positivefb,-99,hard,,4.6005630999998175,['c'],0,right,['3'],4,1.1464286999998876,25,,20,19,Vrouw,Rechts,1,
,xotask,dotcolour,xotask,9,2,129,129,main,positivefb,-99,easy,,2.5676739000000453,['c'],1,left,['2'],5,0.43869509999967704,71,,20,19,Vrouw,Rechts,1,
,xotask,dotcolour,xotask,10,2,130,130,main,positivefb,-99,easy,,1.3685770000001867,['n'],1,right,['3'],4,1.4000255999999354,6,,20,19,Vrouw,Rechts,1,
,xotask,dotcolour,xotask,11,2,131,131,main,positivefb,-99,easy,,2.9504248000002917,['n'],0,left,['3'],4,1.3137440999998944,72,,20,19,Vrouw,Rechts,1,
,xotask,dotcolour,xotask,12,2,132,132,main,positivefb,-99,easy,,1.2180097000000387,['n'],1,right,['1'],6,0.8782352999996874,7,,20,19,Vrouw,Rechts,1,
,xotask,dotcolour,xotask,13,2,133,133,main,positivefb,-99,average,,1.2511395999999877,['n'],1,right,['2'],5,1.5298492000001715,15,,20,19,Vrouw,Rechts,1,
,xotask,dotcolour,xotask,14,2,134,134,main,positivefb,-99,easy,,0.9511069000000134,['n'],1,right,['1'],6,1.7122102999992421,7,,20,19,Vrouw,Rechts,1,
,xotask,dotcolour,xotask,15,2,135,135,main,positivefb,-99,easy,,1.1500916000004509,['n'],1,right,['1'],6,0.43943229999968025,8,,20,19,Vrouw,Rechts,1,
,xotask,dotcolour,xotask,16,2,136,136,main,positivefb,-99,average,,2.917628500000319,['n'],0,left,['2'],5,1.7295904000002338,61,,20,19,Vrouw,Rechts,1,
,xotask,dotcolour,xotask,17,2,137,137,main,positivefb,-99,average,,3.784063099999912,['c'],1,left,['2'],5,2.3825838000002477,63,,20,19,Vrouw,Rechts,1,
,xotask,dotcolour,xotask,18,2,138,138,main,positivefb,-99,average,,2.317431100000249,['n'],1,right,['2'],5,0.9387832000002163,18,,20,19,Vrouw,Rechts,1,
,xotask,dotcolour,xotask,19,2,139,139,main,positivefb,-99,easy,,1.6332151999995403,['c'],1,left,['2'],5,1.7092696999998225,71,,20,19,Vrouw,Rechts,1,
,xotask,dotcolour,xotask,20,2,140,140,main,positivefb,-99,easy,,0.9670535999994172,['n'],1,right,['1'],6,0.5155296000002636,5,,20,19,Vrouw,Rechts,1,
,xotask,dotcolour,xotask,21,2,141,141,main,positivefb,-99,average,,2.4846606000000975,['n'],1,right,['3'],4,1.0513440000004266,17,,20,19,Vrouw,Rechts,1,
,xotask,dotcolour,xotask,22,2,142,142,main,positivefb,-99,easy,,2.4168574999994235,['n'],0,left,['3'],4,0.35351019999961864,70,,20,19,Vrouw,Rechts,1,
,xotask,dotcolour,xotask,23,2,143,143,main,positivefb,-99,average,,2.317476400000487,['c'],1,left,['2'],5,1.039542900000015,64,,20,19,Vrouw,Rechts,1,
,xotask,dotcolour,xotask,24,2,144,144,main,positivefb,-99,hard,,1.3505607999995846,['c'],1,left,['2'],5,0.8896011000006183,53,,20,19,Vrouw,Rechts,1,
,xotask,dotcolour,xotask,25,2,145,145,main,positivefb,-99,average,,2.8179823999998916,['n'],1,right,['2'],5,0.31785239999953774,19,,20,19,Vrouw,Rechts,1,
,xotask,dotcolour,xotask,26,2,146,146,main,positivefb,-99,easy,,1.1661461000003328,['n'],1,right,['2'],5,0.24355720000039582,5,,20,19,Vrouw,Rechts,1,
,xotask,dotcolour,xotask,27,2,147,147,main,positivefb,-99,easy,,1.5171055000000706,['c'],1,left,['2'],5,0.2135349000000133,70,,20,19,Vrouw,Rechts,1,
,xotask,dotcolour,xotask,28,2,148,148,main,positivefb,-99,average,,1.95045140000002,['c'],1,left,['2'],5,0.1365285000001677,62,,20,19,Vrouw,Rechts,1,
,xotask,dotcolour,xotask,29,2,149,149,main,positivefb,-99,easy,,1.7011892000000444,['n'],1,right,['1'],6,0.3918057000000772,6,,20,19,Vrouw,Rechts,1,
,xotask,dotcolour,xotask,30,2,150,150,main,positivefb,-99,average,,1.6840015999996467,['c'],1,left,['2'],5,1.102461499999663,63,,20,19,Vrouw,Rechts,1,
,xotask,dotcolour,xotask,31,2,151,151,main,positivefb,-99,average,,1.301993400000356,['n'],1,right,['1'],6,0.2229555000003529,19,,20,19,Vrouw,Rechts,1,
,xotask,dotcolour,xotask,32,2,152,152,main,positivefb,-99,average,,1.0513427999994747,['n'],1,right,['1'],6,0.24523190000036266,18,,20,19,Vrouw,Rechts,1,
,xotask,dotcolour,xotask,33,2,153,153,main,positivefb,-99,average,,1.4516066999995019,['c'],1,left,['1'],6,0.2737944000000425,63,,20,19,Vrouw,Rechts,1,
,xotask,dotcolour,xotask,34,2,154,154,main,positivefb,-99,easy,,1.034554400000161,['c'],1,left,['1'],6,0.15891649999957735,72,,20,19,Vrouw,Rechts,1,
,xotask,dotcolour,xotask,35,2,155,155,main,positivefb,-99,hard,,1.7850157000002582,['n'],1,right,['2'],5,0.4185144000002765,26,,20,19,Vrouw,Rechts,1,
,xotask,dotcolour,xotask,36,2,156,156,main,positivefb,-99,easy,,2.3013880999997127,['n'],1,right,['8'],3,2.16649150000012,8,,20,19,Vrouw,Rechts,1,
,xotask,dotcolour,xotask,37,2,157,157,main,positivefb,-99,easy,,1.3335294000007707,['n'],1,right,['1'],6,0.2115273999997953,5,,20,19,Vrouw,Rechts,1,
,xotask,dotcolour,xotask,38,2,158,158,main,positivefb,-99,hard,,1.4004901999996946,['c'],1,left,['1'],6,0.2518983999998454,53,,20,19,Vrouw,Rechts,1,
,xotask,dotcolour,xotask,39,2,159,159,main,positivefb,-99,easy,,1.3667801999999938,['c'],1,left,['1'],6,0.179780500000561,72,,20,19,Vrouw,Rechts,1,
,xotask,dotcolour,xotask,40,2,160,160,main,positivefb,-99,average,,1.0506728999998813,['c'],1,left,['1'],6,0.3400165000002744,62,,20,19,Vrouw,Rechts,1,
,xotask,dotcolour,xotask,41,2,161,161,main,positivefb,-99,hard,,1.2501696999997876,['n'],1,right,['1'],6,0.5326452999997855,28,,20,19,Vrouw,Rechts,1,
,xotask,dotcolour,xotask,42,2,162,162,main,positivefb,-99,hard,,2.284330699999373,['c'],1,left,['3'],4,0.8135114999995494,50,,20,19,Vrouw,Rechts,1,
,xotask,dotcolour,xotask,43,2,163,163,main,positivefb,-99,hard,,1.6678944000004776,['c'],1,left,['3'],4,1.234818599999926,52,,20,19,Vrouw,Rechts,1,
,xotask,dotcolour,xotask,44,2,164,164,main,positivefb,-99,hard,,5.900370999999723,['c'],1,left,['8'],3,0.9182205000006434,50,,20,19,Vrouw,Rechts,1,
,xotask,dotcolour,xotask,45,2,165,165,main,positivefb,-99,hard,,2.768521900000451,['n'],1,right,['1'],6,0.44421500000044034,27,,20,19,Vrouw,Rechts,1,
,xotask,dotcolour,xotask,46,2,166,166,main,positivefb,-99,average,,1.5834359000000404,['n'],1,right,['1'],6,0.2360978000006071,16,,20,19,Vrouw,Rechts,1,
,xotask,dotcolour,xotask,47,2,167,167,main,positivefb,-99,hard,,2.40151220000007,['n'],0,left,['3'],4,0.4912856999999349,50,,20,19,Vrouw,Rechts,1,
,xotask,dotcolour,xotask,48,2,168,168,main,positivefb,-99,hard,,1.8013584000000264,['c'],1,left,['2'],5,1.1042350999996415,50,,20,19,Vrouw,Rechts,1,
,xotask,dotcolour,xotask,49,2,169,169,main,positivefb,-99,hard,,4.667473399999835,['n'],1,right,['8'],3,2.923006799999712,28,,20,19,Vrouw,Rechts,1,
,xotask,dotcolour,xotask,50,2,170,170,main,positivefb,-99,average,,9.56823489999988,['n'],0,left,['9'],2,3.4005121000000145,64,,20,19,Vrouw,Rechts,1,
,xotask,dotcolour,xotask,51,2,171,171,main,positivefb,-99,average,,6.4173463999995874,['n'],1,right,['3'],4,4.440705300000445,15,,20,19,Vrouw,Rechts,1,
,xotask,dotcolour,xotask,52,2,172,172,main,positivefb,-99,easy,,1.283894600000167,['n'],1,right,['1'],6,0.3326855000004798,6,,20,19,Vrouw,Rechts,1,
,xotask,dotcolour,xotask,53,2,173,173,main,positivefb,-99,hard,,2.167328699999416,['n'],1,right,['3'],4,1.7374092999998538,28,,20,19,Vrouw,Rechts,1,
,xotask,dotcolour,xotask,54,2,174,174,main,positivefb,-99,hard,,1.0349767000006977,['n'],1,right,['3'],4,0.8672090000000026,25,,20,19,Vrouw,Rechts,1,
,xotask,dotcolour,xotask,55,2,175,175,main,positivefb,-99,average,,2.2505933000002187,['n'],0,left,['3'],4,0.2480529000004026,60,,20,19,Vrouw,Rechts,1,
,xotask,dotcolour,xotask,56,2,176,176,main,positivefb,-99,hard,,1.1176347999999052,['n'],1,right,['1'],6,0.4085155000002487,28,,20,19,Vrouw,Rechts,1,
,xotask,dotcolour,xotask,57,2,177,177,main,positivefb,-99,hard,,3.451344300000528,['n'],0,left,['3'],4,0.7358010999996623,51,,20,19,Vrouw,Rechts,1,
,xotask,dotcolour,xotask,58,2,178,178,main,positivefb,-99,easy,,2.084545099999559,['c'],1,left,['1'],6,0.7441383000004862,73,,20,19,Vrouw,Rechts,1,
,xotask,dotcolour,xotask,59,2,179,179,main,positivefb,-99,average,,2.101499800000056,['n'],1,right,['3'],4,0.558998900000006,17,,20,19,Vrouw,Rechts,1,
,xotask,dotcolour,xotask,0,3,180,180,main,positivefb,-99,average,,2.500941399999647,['c'],1,left,['3'],4,2.98558950000006,64,,20,19,Vrouw,Rechts,1,
,xotask,dotcolour,xotask,1,3,181,181,main,positivefb,-99,average,,2.051661800000147,['n'],1,right,['1'],6,0.3931284999998752,16,,20,19,Vrouw,Rechts,1,
,xotask,dotcolour,xotask,2,3,182,182,main,positivefb,-99,hard,,1.7507809999997335,['c'],1,left,['1'],6,0.7722239000004265,52,,20,19,Vrouw,Rechts,1,
,xotask,dotcolour,xotask,3,3,183,183,main,positivefb,-99,easy,,1.1855531000001065,['c'],1,left,['2'],5,1.774919399999817,72,,20,19,Vrouw,Rechts,1,
,xotask,dotcolour,xotask,4,3,184,184,main,positivefb,-99,hard,,2.5504040999994686,['c'],0,right,['3'],4,0.9633209000003262,26,,20,19,Vrouw,Rechts,1,
,xotask,dotcolour,xotask,5,3,185,185,main,positivefb,-99,hard,,0.9180346000002828,['n'],1,right,['1'],6,0.9694073000000571,26,,20,19,Vrouw,Rechts,1,
,xotask,dotcolour,xotask,6,3,186,186,main,positivefb,-99,hard,,1.6516705999993064,['n'],1,right,['1'],6,0.4004458999997951,29,,20,19,Vrouw,Rechts,1,
,xotask,dotcolour,xotask,7,3,187,187,main,positivefb,-99,easy,,0.8005513999996765,['n'],1,right,['1'],6,0.37725739999950747,6,,20,19,Vrouw,Rechts,1,
,xotask,dotcolour,xotask,8,3,188,188,main,positivefb,-99,hard,,0.6999857999999222,['n'],1,right,['1'],6,0.2638415999999779,29,,20,19,Vrouw,Rechts,1,
,xotask,dotcolour,xotask,9,3,189,189,main,positivefb,-99,hard,,1.1681232999999338,['n'],1,right,['1'],6,0.31945120000000315,29,,20,19,Vrouw,Rechts,1,
,xotask,dotcolour,xotask,10,3,190,190,main,positivefb,-99,average,,0.8175516999999672,['n'],1,right,['1'],6,0.2345581999998103,15,,20,19,Vrouw,Rechts,1,
,xotask,dotcolour,xotask,11,3,191,191,main,positivefb,-99,average,,1.4848735000005036,['n'],0,left,['1'],6,0.28664479999952164,63,,20,19,Vrouw,Rechts,1,
,xotask,dotcolour,xotask,12,3,192,192,main,positivefb,-99,average,,4.0013357999996515,['c'],1,left,['3'],4,0.836905499999375,63,,20,19,Vrouw,Rechts,1,
,xotask,dotcolour,xotask,13,3,193,193,main,positivefb,-99,easy,,1.4009350000005725,['c'],1,left,['1'],6,1.06750700000066,73,,20,19,Vrouw,Rechts,1,
,xotask,dotcolour,xotask,14,3,194,194,main,positivefb,-99,easy,,0.8345358999995369,['n'],1,right,['1'],6,0.415879600000153,8,,20,19,Vrouw,Rechts,1,
,xotask,dotcolour,xotask,15,3,195,195,main,positivefb,-99,hard,,0.900402799999938,['n'],0,left,['2'],5,1.1645500000004176,51,,20,19,Vrouw,Rechts,1,
,xotask,dotcolour,xotask,16,3,196,196,main,positivefb,-99,hard,,1.4674065999997765,['c'],1,left,['2'],5,0.8039708000005703,52,,20,19,Vrouw,Rechts,1,
,xotask,dotcolour,xotask,17,3,197,197,main,positivefb,-99,easy,,0.7514242999995986,['n'],1,right,['1'],6,1.1260120999995706,9,,20,19,Vrouw,Rechts,1,
,xotask,dotcolour,xotask,18,3,198,198,main,positivefb,-99,average,,0.8680034000008163,['n'],1,right,['1'],6,0.28806770000028337,17,,20,19,Vrouw,Rechts,1,
,xotask,dotcolour,xotask,19,3,199,199,main,positivefb,-99,hard,,2.3344292000001587,['c'],0,right,['3'],4,0.6873309000002337,25,,20,19,Vrouw,Rechts,1,
,xotask,dotcolour,xotask,20,3,200,200,main,positivefb,-99,hard,,0.9839721999996982,['n'],1,right,['2'],5,0.7976495000002615,26,,20,19,Vrouw,Rechts,1,
,xotask,dotcolour,xotask,21,3,201,201,main,positivefb,-99,easy,,1.2342920000000959,['n'],1,right,['1'],6,0.4212056999995184,5,,20,19,Vrouw,Rechts,1,
,xotask,dotcolour,xotask,22,3,202,202,main,positivefb,-99,hard,,3.751293700000133,['n'],0,left,['8'],3,1.5672719999993205,52,,20,19,Vrouw,Rechts,1,
,xotask,dotcolour,xotask,23,3,203,203,main,positivefb,-99,average,,2.6834804000000076,['n'],1,right,['9'],2,2.1580316999998104,16,,20,19,Vrouw,Rechts,1,
,xotask,dotcolour,xotask,24,3,204,204,main,positivefb,-99,average,,2.0005480999998326,['c'],1,left,['3'],4,2.2888851999996405,64,,20,19,Vrouw,Rechts,1,
,xotask,dotcolour,xotask,25,3,205,205,main,positivefb,-99,easy,,2.3344500999992306,['n'],1,right,['2'],5,0.7446549999995113,5,,20,19,Vrouw,Rechts,1,
,xotask,dotcolour,xotask,26,3,206,206,main,positivefb,-99,easy,,0.7675742000001264,['n'],1,right,['2'],5,0.32556729999942036,6,,20,19,Vrouw,Rechts,1,
,xotask,dotcolour,xotask,27,3,207,207,main,positivefb,-99,hard,,1.551712200000111,['c'],1,left,['2'],5,0.7634791000000405,54,,20,19,Vrouw,Rechts,1,
,xotask,dotcolour,xotask,28,3,208,208,main,positivefb,-99,hard,,1.6676118999994287,['n'],0,left,['2'],5,0.3312196999995649,53,,20,19,Vrouw,Rechts,1,
,xotask,dotcolour,xotask,29,3,209,209,main,positivefb,-99,easy,,1.21729090000008,['c'],1,left,['1'],6,0.886282299999948,71,,20,19,Vrouw,Rechts,1,
,xotask,dotcolour,xotask,30,3,210,210,main,positivefb,-99,easy,,0.9337181999999302,['c'],1,left,['1'],6,0.38223679999919113,73,,20,19,Vrouw,Rechts,1,
,xotask,dotcolour,xotask,31,3,211,211,main,positivefb,-99,hard,,1.433829899999182,['c'],1,left,['2'],5,1.118094800000108,52,,20,19,Vrouw,Rechts,1,
,xotask,dotcolour,xotask,32,3,212,212,main,positivefb,-99,hard,,1.3175785000003088,['c'],1,left,['2'],5,0.35714589999952295,50,,20,19,Vrouw,Rechts,1,
,xotask,dotcolour,xotask,33,3,213,213,main,positivefb,-99,easy,,1.0341428000001542,['n'],1,right,['2'],5,2.015267799999492,8,,20,19,Vrouw,Rechts,1,
,xotask,dotcolour,xotask,34,3,214,214,main,positivefb,-99,hard,,0.8018867000000682,['n'],1,right,['1'],6,1.1430387000000337,27,,20,19,Vrouw,Rechts,1,
,xotask,dotcolour,xotask,35,3,215,215,main,positivefb,-99,average,,0.7173480000001291,['n'],1,right,['1'],6,0.2941307000000961,15,,20,19,Vrouw,Rechts,1,
,xotask,dotcolour,xotask,36,3,216,216,main,positivefb,-99,average,,1.4674473999994007,['c'],1,left,['1'],6,0.41625329999988026,60,,20,19,Vrouw,Rechts,1,
,xotask,dotcolour,xotask,37,3,217,217,main,positivefb,-99,average,,1.6003929999997126,['n'],1,right,['1'],6,0.3045724000003247,16,,20,19,Vrouw,Rechts,1,
,xotask,dotcolour,xotask,38,3,218,218,main,positivefb,-99,easy,,0.8847060999996756,['c'],1,left,['1'],6,0.33772919999955775,74,,20,19,Vrouw,Rechts,1,
,xotask,dotcolour,xotask,39,3,219,219,main,positivefb,-99,easy,,0.7347187000004851,['c'],1,left,['1'],6,0.36724539999977424,74,,20,19,Vrouw,Rechts,1,
,xotask,dotcolour,xotask,40,3,220,220,main,positivefb,-99,easy,,0.7667136000000028,['c'],1,left,['1'],6,0.45916119999947114,72,,20,19,Vrouw,Rechts,1,
,xotask,dotcolour,xotask,41,3,221,221,main,positivefb,-99,easy,,0.868435700000191,['c'],1,left,['1'],6,0.44687419999991107,70,,20,19,Vrouw,Rechts,1,
,xotask,dotcolour,xotask,42,3,222,222,main,positivefb,-99,hard,,1.0846952000001693,['n'],1,right,['1'],6,0.45065379999959987,26,,20,19,Vrouw,Rechts,1,
,xotask,dotcolour,xotask,43,3,223,223,main,positivefb,-99,average,,2.0681547000003775,['c'],1,left,['2'],5,1.0875733000002583,62,,20,19,Vrouw,Rechts,1,
,xotask,dotcolour,xotask,44,3,224,224,main,positivefb,-99,hard,,1.3007264000007126,['c'],1,left,['3'],4,1.4881724000006216,51,,20,19,Vrouw,Rechts,1,
,xotask,dotcolour,xotask,45,3,225,225,main,positivefb,-99,easy,,1.2668071999996755,['c'],1,left,['3'],4,0.587273200000709,73,,20,19,Vrouw,Rechts,1,
,xotask,dotcolour,xotask,46,3,226,226,main,positivefb,-99,easy,,0.8846287999995184,['n'],1,right,['2'],5,1.8890034999994896,8,,20,19,Vrouw,Rechts,1,
,xotask,dotcolour,xotask,47,3,227,227,main,positivefb,-99,easy,,0.8347725000003265,['n'],1,right,['1'],6,0.3969782000003761,7,,20,19,Vrouw,Rechts,1,
,xotask,dotcolour,xotask,48,3,228,228,main,positivefb,-99,average,,1.3336961999993946,['n'],1,right,['1'],6,0.7935189999998329,15,,20,19,Vrouw,Rechts,1,
,xotask,dotcolour,xotask,49,3,229,229,main,positivefb,-99,easy,,1.366823899999872,['c'],1,left,['1'],6,0.40367759999935515,72,,20,19,Vrouw,Rechts,1,
,xotask,dotcolour,xotask,50,3,230,230,main,positivefb,-99,average,,1.1496737999996185,['c'],1,left,['1'],6,0.35854810000000725,61,,20,19,Vrouw,Rechts,1,
,xotask,dotcolour,xotask,51,3,231,231,main,positivefb,-99,average,,2.0346028999992996,['n'],1,right,['3'],4,0.8641711000000214,16,,20,19,Vrouw,Rechts,1,
,xotask,dotcolour,xotask,52,3,232,232,main,positivefb,-99,hard,,1.0340022999998837,['n'],1,right,['2'],5,1.005067400000371,25,,20,19,Vrouw,Rechts,1,
,xotask,dotcolour,xotask,53,3,233,233,main,positivefb,-99,average,,1.2004992000001948,['n'],1,right,['1'],6,0.557180700000572,16,,20,19,Vrouw,Rechts,1,
,xotask,dotcolour,xotask,54,3,234,234,main,positivefb,-99,average,,1.451128400000016,['c'],1,left,['1'],6,0.5497916000003897,64,,20,19,Vrouw,Rechts,1,
,xotask,dotcolour,xotask,55,3,235,235,main,positivefb,-99,average,,1.1184438000000227,['n'],1,right,['2'],5,1.9565800999998828,19,,20,19,Vrouw,Rechts,1,
,xotask,dotcolour,xotask,56,3,236,236,main,positivefb,-99,average,,0.9845883999996659,['c'],1,left,['2'],5,0.5678265000005922,62,,20,19,Vrouw,Rechts,1,
,xotask,dotcolour,xotask,57,3,237,237,main,positivefb,-99,average,,5.584580800000367,['n'],0,left,['2'],5,0.5859862999996039,60,,20,19,Vrouw,Rechts,1,
,xotask,dotcolour,xotask,58,3,238,238,main,positivefb,-99,hard,,7.367409599999519,['n'],0,left,['3'],4,0.4133563999994294,50,,20,19,Vrouw,Rechts,1,
,xotask,dotcolour,xotask,59,3,239,239,main,positivefb,-99,easy,,1.685142999999698,['n'],1,right,['2'],5,0.8347728000007919,5,,20,19,Vrouw,Rechts,1,
,xotask,dotcolour,xotask,0,4,240,240,main,positivefb,-99,average,,1.6014096999997491,['c'],1,left,['3'],4,1.3362452000001213,60,,20,19,Vrouw,Rechts,1,
,xotask,dotcolour,xotask,1,4,241,241,main,positivefb,-99,hard,,2.7844112000002497,['c'],0,right,['8'],3,1.347404899999674,28,,20,19,Vrouw,Rechts,1,
,xotask,dotcolour,xotask,2,4,242,242,main,positivefb,-99,easy,,1.8177294999995866,['n'],1,right,['1'],6,0.22966690000066592,9,,20,19,Vrouw,Rechts,1,
,xotask,dotcolour,xotask,3,4,243,243,main,positivefb,-99,easy,,2.168325399999958,['n'],0,left,['3'],4,1.3671568999998271,72,,20,19,Vrouw,Rechts,1,
,xotask,dotcolour,xotask,4,4,244,244,main,positivefb,-99,average,,0.9342599999999948,['n'],1,right,['1'],6,1.1079113000005236,16,,20,19,Vrouw,Rechts,1,
,xotask,dotcolour,xotask,5,4,245,245,main,positivefb,-99,easy,,1.1344322999993892,['c'],1,left,['1'],6,0.44312989999980346,72,,20,19,Vrouw,Rechts,1,
,xotask,dotcolour,xotask,6,4,246,246,main,positivefb,-99,average,,1.5008222999995269,['c'],1,left,['1'],6,0.31074460000036197,63,,20,19,Vrouw,Rechts,1,
,xotask,dotcolour,xotask,7,4,247,247,main,positivefb,-99,hard,,3.733205999999882,['n'],1,right,['8'],3,0.805963700000575,29,,20,19,Vrouw,Rechts,1,
,xotask,dotcolour,xotask,8,4,248,248,main,positivefb,-99,hard,,1.0166386999999304,['n'],1,right,['1'],6,0.5341470999992453,28,,20,19,Vrouw,Rechts,1,
,xotask,dotcolour,xotask,9,4,249,249,main,positivefb,-99,hard,,0.9674233000005188,['c'],1,left,['1'],6,0.3223293000000922,54,,20,19,Vrouw,Rechts,1,
,xotask,dotcolour,xotask,10,4,250,250,main,positivefb,-99,hard,,1.0677032999992662,['c'],1,left,['1'],6,0.30858470000021043,53,,20,19,Vrouw,Rechts,1,
,xotask,dotcolour,xotask,11,4,251,251,main,positivefb,-99,average,,2.101002999999764,['c'],0,right,['3'],4,1.5246102999999493,19,,20,19,Vrouw,Rechts,1,
,xotask,dotcolour,xotask,12,4,252,252,main,positivefb,-99,hard,,3.550429400000212,['n'],1,right,['8'],3,2.4355124000003343,29,,20,19,Vrouw,Rechts,1,
,xotask,dotcolour,xotask,13,4,253,253,main,positivefb,-99,hard,,2.9336794999999256,['c'],1,left,['8'],3,1.396912500000326,50,,20,19,Vrouw,Rechts,1,
,xotask,dotcolour,xotask,14,4,254,254,main,positivefb,-99,average,,2.033539899999596,['n'],1,right,['2'],5,0.8054489999994985,16,,20,19,Vrouw,Rechts,1,
,xotask,dotcolour,xotask,15,4,255,255,main,positivefb,-99,average,,0.9171716000000742,['n'],1,right,['2'],5,0.2492588999994041,17,,20,19,Vrouw,Rechts,1,
,xotask,dotcolour,xotask,16,4,256,256,main,positivefb,-99,hard,,2.167586499999743,['c'],1,left,['3'],4,1.137246899999809,54,,20,19,Vrouw,Rechts,1,
,xotask,dotcolour,xotask,17,4,257,257,main,positivefb,-99,hard,,0.9512802999997803,['n'],1,right,['2'],5,1.0223966000003202,25,,20,19,Vrouw,Rechts,1,
,xotask,dotcolour,xotask,18,4,258,258,main,positivefb,-99,hard,,1.9843650000002526,['c'],1,left,['2'],5,1.7666539000001649,51,,20,19,Vrouw,Rechts,1,
,xotask,dotcolour,xotask,19,4,259,259,main,positivefb,-99,easy,,1.1000162000000273,['n'],1,right,['1'],6,0.4609523999997691,6,,20,19,Vrouw,Rechts,1,
,xotask,dotcolour,xotask,20,4,260,260,main,positivefb,-99,hard,,0.7009180999993987,['n'],1,right,['1'],6,0.2152568000001338,25,,20,19,Vrouw,Rechts,1,
,xotask,dotcolour,xotask,21,4,261,261,main,positivefb,-99,average,,0.9841136000004553,['c'],1,left,['1'],6,0.24865959999988263,61,,20,19,Vrouw,Rechts,1,
,xotask,dotcolour,xotask,22,4,262,262,main,positivefb,-99,easy,,1.0169992000001002,['n'],1,right,['1'],6,0.22241849999954866,7,,20,19,Vrouw,Rechts,1,
,xotask,dotcolour,xotask,23,4,263,263,main,positivefb,-99,average,,0.8165142999996533,['n'],1,right,['1'],6,0.18151180000040767,16,,20,19,Vrouw,Rechts,1,
,xotask,dotcolour,xotask,24,4,264,264,main,positivefb,-99,average,,0.9496207000001959,['c'],1,left,['1'],6,0.23316320000049018,63,,20,19,Vrouw,Rechts,1,
,xotask,dotcolour,xotask,25,4,265,265,main,positivefb,-99,easy,,0.8672449000005145,['c'],1,left,['1'],6,0.23758320000069943,71,,20,19,Vrouw,Rechts,1,
,xotask,dotcolour,xotask,26,4,266,266,main,positivefb,-99,easy,,4.3346363000000565,['n'],1,right,['8'],3,0.3915666000002602,9,,20,19,Vrouw,Rechts,1,
,xotask,dotcolour,xotask,27,4,267,267,main,positivefb,-99,average,,1.5351831999996648,['c'],1,left,['1'],6,0.33981579999999667,62,,20,19,Vrouw,Rechts,1,
,xotask,dotcolour,xotask,28,4,268,268,main,positivefb,-99,easy,,0.7521210999993855,['c'],1,left,['1'],6,0.3138042000000496,72,,20,19,Vrouw,Rechts,1,
,xotask,dotcolour,xotask,29,4,269,269,main,positivefb,-99,easy,,0.8671368000004804,['n'],1,right,['1'],6,0.2282668999996531,7,,20,19,Vrouw,Rechts,1,
,xotask,dotcolour,xotask,30,4,270,270,main,positivefb,-99,easy,,1.167141800000536,['c'],1,left,['1'],6,0.18886939999993047,71,,20,19,Vrouw,Rechts,1,
,xotask,dotcolour,xotask,31,4,271,271,main,positivefb,-99,easy,,0.8340418999996473,['n'],1,right,['1'],6,0.2452235999999175,5,,20,19,Vrouw,Rechts,1,
,xotask,dotcolour,xotask,32,4,272,272,main,positivefb,-99,average,,1.3845381000000998,['n'],0,left,['0'],1,3.3320154999992155,60,,20,19,Vrouw,Rechts,1,
,xotask,dotcolour,xotask,33,4,273,273,main,positivefb,-99,average,,6.88470099999995,['n'],1,right,['8'],3,0.7013262000000395,17,,20,19,Vrouw,Rechts,1,
,xotask,dotcolour,xotask,34,4,274,274,main,positivefb,-99,easy,,1.517792599999666,['c'],1,left,['1'],6,0.6051705999998376,73,,20,19,Vrouw,Rechts,1,
,xotask,dotcolour,xotask,35,4,275,275,main,positivefb,-99,hard,,2.86657280000054,['c'],1,left,['2'],5,0.794416399999136,53,,20,19,Vrouw,Rechts,1,
,xotask,dotcolour,xotask,36,4,276,276,main,positivefb,-99,hard,,3.5515739000002213,['c'],1,left,['3'],4,0.5579474000005575,52,,20,19,Vrouw,Rechts,1,
,xotask,dotcolour,xotask,37,4,277,277,main,positivefb,-99,average,,1.100789199999781,['n'],1,right,['1'],6,0.3329794999999649,16,,20,19,Vrouw,Rechts,1,
,xotask,dotcolour,xotask,38,4,278,278,main,positivefb,-99,easy,,0.6003805999998804,['n'],1,right,['1'],6,0.19990409999991243,6,,20,19,Vrouw,Rechts,1,
,xotask,dotcolour,xotask,39,4,279,279,main,positivefb,-99,average,,3.5162811000000147,['n'],0,left,['8'],3,1.8770340000000942,64,,20,19,Vrouw,Rechts,1,
,xotask,dotcolour,xotask,40,4,280,280,main,positivefb,-99,average,,1.668317399999978,['c'],1,left,['1'],6,0.37572850000015023,61,,20,19,Vrouw,Rechts,1,
,xotask,dotcolour,xotask,41,4,281,281,main,positivefb,-99,average,,1.4512721999999485,['n'],1,right,['1'],6,0.2878989000000729,15,,20,19,Vrouw,Rechts,1,
,xotask,dotcolour,xotask,42,4,282,282,main,positivefb,-99,easy,,0.8342650000004141,['c'],1,left,['1'],6,0.2599112999996578,73,,20,19,Vrouw,Rechts,1,
,xotask,dotcolour,xotask,43,4,283,283,main,positivefb,-99,easy,,0.8673828000000867,['c'],1,left,['1'],6,0.2881921999996848,71,,20,19,Vrouw,Rechts,1,
,xotask,dotcolour,xotask,44,4,284,284,main,positivefb,-99,average,,1.399543800000174,['c'],1,left,['1'],6,0.2931545000001279,61,,20,19,Vrouw,Rechts,1,
,xotask,dotcolour,xotask,45,4,285,285,main,positivefb,-99,hard,,2.3012770999994245,['c'],1,left,['1'],6,0.302125100000012,50,,20,19,Vrouw,Rechts,1,
,xotask,dotcolour,xotask,46,4,286,286,main,positivefb,-99,average,,0.9003761999993003,['n'],1,right,['1'],6,0.18329720000019734,15,,20,19,Vrouw,Rechts,1,
,xotask,dotcolour,xotask,47,4,287,287,main,positivefb,-99,hard,,1.0180807000006098,['c'],1,left,['1'],6,0.2721878000002107,51,,20,19,Vrouw,Rechts,1,
,xotask,dotcolour,xotask,48,4,288,288,main,positivefb,-99,easy,,0.9000575000000026,['c'],1,left,['1'],6,0.36126039999999193,72,,20,19,Vrouw,Rechts,1,
,xotask,dotcolour,xotask,49,4,289,289,main,positivefb,-99,easy,,0.7516506000001755,['n'],1,right,['1'],6,0.3432402999997066,8,,20,19,Vrouw,Rechts,1,
,xotask,dotcolour,xotask,50,4,290,290,main,positivefb,-99,easy,,0.7002910999999585,['n'],1,right,['1'],6,0.23756929999944987,7,,20,19,Vrouw,Rechts,1,
,xotask,dotcolour,xotask,51,4,291,291,main,positivefb,-99,hard,,5.300938200000019,['c'],0,right,['3'],4,1.3455261999997674,25,,20,19,Vrouw,Rechts,1,
,xotask,dotcolour,xotask,52,4,292,292,main,positivefb,-99,hard,,0.8509767999994438,['n'],1,right,['1'],6,0.3467776000006779,26,,20,19,Vrouw,Rechts,1,
,xotask,dotcolour,xotask,53,4,293,293,main,positivefb,-99,average,,0.9835168999998132,['c'],1,left,['1'],6,0.2550369000000501,60,,20,19,Vrouw,Rechts,1,
,xotask,dotcolour,xotask,54,4,294,294,main,positivefb,-99,easy,,1.0511642999999822,['c'],1,left,['1'],6,0.2835047000007762,74,,20,19,Vrouw,Rechts,1,
,xotask,dotcolour,xotask,55,4,295,295,main,positivefb,-99,average,,0.8175154000000475,['n'],1,right,['1'],6,0.25654759999997623,18,,20,19,Vrouw,Rechts,1,
,xotask,dotcolour,xotask,56,4,296,296,main,positivefb,-99,hard,,1.567695200000344,['c'],1,left,['3'],4,1.7520655999996961,50,,20,19,Vrouw,Rechts,1,
,xotask,dotcolour,xotask,57,4,297,297,main,positivefb,-99,easy,,1.900408000000425,['n'],1,right,['1'],6,0.35063310000077763,9,,20,19,Vrouw,Rechts,1,
,xotask,dotcolour,xotask,58,4,298,298,main,positivefb,-99,hard,,0.6681354000002102,['n'],1,right,['1'],6,0.2303554999998596,27,,20,19,Vrouw,Rechts,1,
,xotask,dotcolour,xotask,59,4,299,299,main,positivefb,-99,hard,,2.033843799999886,['n'],1,right,['3'],4,0.6453998999995747,29,,20,19,Vrouw,Rechts,1,
,dotcolour,dotcolour,xotask,0,0,0,300,training,positivefb,92,hard,43,1.1014044000003196,['c'],1,left,['1'],6,2.7552886000003127,,,20,19,Vrouw,Rechts,1,
,dotcolour,dotcolour,xotask,1,0,1,301,training,positivefb,96,easy,63,0.634800499999983,['c'],1,left,['1'],6,0.29918460000044433,,,20,19,Vrouw,Rechts,1,
,dotcolour,dotcolour,xotask,2,0,2,302,training,positivefb,97,hard,35,0.9667733000005683,['n'],1,right,['1'],6,0.27989350000007107,,,20,19,Vrouw,Rechts,1,
,dotcolour,dotcolour,xotask,3,0,3,303,training,positivefb,93,easy,64,0.6998477999995885,['c'],1,left,['1'],6,0.29012320000038017,,,20,19,Vrouw,Rechts,1,
,dotcolour,dotcolour,xotask,4,0,4,304,training,positivefb,98,average,54,0.6011016000002201,['c'],1,left,['1'],6,0.2624767999996038,,,20,19,Vrouw,Rechts,1,
,dotcolour,dotcolour,xotask,5,0,5,305,training,positivefb,75,hard,44,1.0510266000001138,['c'],1,left,['3'],4,0.9385071999995489,,,20,19,Vrouw,Rechts,1,
,dotcolour,dotcolour,xotask,6,0,6,306,training,positivefb,72,hard,43,0.7834082999997918,['c'],1,left,['2'],5,0.5974148000004789,,,20,19,Vrouw,Rechts,1,
,dotcolour,dotcolour,xotask,7,0,7,307,training,positivefb,97,average,27,0.7830298999997467,['n'],1,right,['1'],6,0.2069125999996686,,,20,19,Vrouw,Rechts,1,
,dotcolour,dotcolour,xotask,8,0,8,308,training,positivefb,96,average,29,0.5332789000003686,['n'],1,right,['1'],6,0.21745699999974022,,,20,19,Vrouw,Rechts,1,
,dotcolour,dotcolour,xotask,9,0,9,309,training,positivefb,80,easy,63,0.7664944999996806,['c'],1,left,['1'],6,0.22631839999939984,,,20,19,Vrouw,Rechts,1,
,dotcolour,dotcolour,xotask,10,0,10,310,training,positivefb,90,easy,18,2.482358400000521,['n'],1,right,['3'],4,0.27002079999965645,,,20,19,Vrouw,Rechts,1,
,dotcolour,dotcolour,xotask,11,0,11,311,training,positivefb,80,hard,35,0.7180533000000651,['c'],0,right,['1'],6,0.48738930000035907,,,20,19,Vrouw,Rechts,1,
,dotcolour,dotcolour,xotask,12,0,12,312,training,positivefb,82,average,54,0.7663359000007404,['c'],1,left,['1'],6,0.26854760000060196,,,20,19,Vrouw,Rechts,1,
,dotcolour,dotcolour,xotask,13,0,13,313,training,positivefb,93,hard,39,0.8004240000000209,['c'],0,right,['1'],6,0.2583193999998912,,,20,19,Vrouw,Rechts,1,
,dotcolour,dotcolour,xotask,14,0,14,314,training,positivefb,97,easy,65,0.6671266000003016,['c'],1,left,['1'],6,0.30122019999998884,,,20,19,Vrouw,Rechts,1,
,dotcolour,dotcolour,xotask,15,0,15,315,training,positivefb,92,average,53,0.9998600999997507,['c'],1,left,['2'],5,0.4257152000000133,,,20,19,Vrouw,Rechts,1,
,dotcolour,dotcolour,xotask,16,0,16,316,training,positivefb,93,easy,15,0.6837404999996579,['n'],1,right,['1'],6,0.19791359999999258,,,20,19,Vrouw,Rechts,1,
,dotcolour,dotcolour,xotask,17,0,17,317,training,positivefb,96,hard,36,0.8850609999999506,['n'],1,right,['1'],6,0.3940294999993057,,,20,19,Vrouw,Rechts,1,
,dotcolour,dotcolour,xotask,18,0,18,318,training,positivefb,78,hard,39,0.8669818999997005,['c'],0,right,['1'],6,0.19242669999948703,,,20,19,Vrouw,Rechts,1,
,dotcolour,dotcolour,xotask,19,0,19,319,training,positivefb,83,easy,18,0.5999438999997437,['n'],1,right,['1'],6,0.16854929999954038,,,20,19,Vrouw,Rechts,1,
,dotcolour,dotcolour,xotask,20,0,20,320,training,positivefb,90,average,55,1.283988500000305,['c'],1,left,['1'],6,0.2788892999997188,,,20,19,Vrouw,Rechts,1,
,dotcolour,dotcolour,xotask,21,0,21,321,training,positivefb,97,average,29,0.6335243000003175,['n'],1,right,['1'],6,0.1871486999998524,,,20,19,Vrouw,Rechts,1,
,dotcolour,dotcolour,xotask,22,0,22,322,training,positivefb,97,hard,44,1.0335674000007202,['c'],1,left,['1'],6,0.18656470000041736,,,20,19,Vrouw,Rechts,1,
,dotcolour,dotcolour,xotask,23,0,23,323,training,positivefb,97,average,55,0.6507549999996627,['c'],1,left,['1'],6,0.2171269000000393,,,20,19,Vrouw,Rechts,1,
,dotcolour,dotcolour,xotask,24,0,24,324,training,positivefb,99,easy,65,0.5993717000001197,['c'],1,left,['1'],6,0.25642900000002555,,,20,19,Vrouw,Rechts,1,
,dotcolour,dotcolour,xotask,25,0,25,325,training,positivefb,77,hard,44,0.5493120999999519,['c'],1,left,['1'],6,1.0005467999999382,,,20,19,Vrouw,Rechts,1,
,dotcolour,dotcolour,xotask,26,0,26,326,training,positivefb,81,average,27,0.6007183000001532,['n'],1,right,['1'],6,0.16889249999985623,,,20,19,Vrouw,Rechts,1,
,dotcolour,dotcolour,xotask,27,0,27,327,training,positivefb,94,hard,41,0.7668121999995492,['c'],1,left,['1'],6,0.21927850000065519,,,20,19,Vrouw,Rechts,1,
,dotcolour,dotcolour,xotask,28,0,28,328,training,positivefb,99,easy,63,0.650423399999454,['c'],1,left,['1'],6,0.24861820000023727,,,20,19,Vrouw,Rechts,1,
,dotcolour,dotcolour,xotask,29,0,29,329,training,positivefb,95,easy,19,0.49951380000038625,['n'],1,right,['1'],6,0.20266430000083346,,,20,19,Vrouw,Rechts,1,
,dotcolour,dotcolour,xotask,30,0,30,330,training,positivefb,91,average,29,0.7163561999996091,['n'],1,right,['1'],6,0.21388560000013968,,,20,19,Vrouw,Rechts,1,
,dotcolour,dotcolour,xotask,31,0,31,331,training,positivefb,84,easy,63,0.5842905999998038,['c'],1,left,['1'],6,0.31860990000041056,,,20,19,Vrouw,Rechts,1,
,dotcolour,dotcolour,xotask,32,0,32,332,training,positivefb,85,hard,43,1.200713000000178,['n'],0,left,['1'],6,0.17772139999942738,,,20,19,Vrouw,Rechts,1,
,dotcolour,dotcolour,xotask,33,0,33,333,training,positivefb,94,easy,17,1.08339370000067,['n'],1,right,['1'],6,0.1679375000003347,,,20,19,Vrouw,Rechts,1,
,dotcolour,dotcolour,xotask,34,0,34,334,training,positivefb,59,hard,36,0.8834438000003502,['c'],0,right,['1'],6,0.21435199999996257,,,20,19,Vrouw,Rechts,1,
,dotcolour,dotcolour,xotask,35,0,35,335,training,positivefb,98,average,54,0.799929599999814,['c'],1,left,['1'],6,0.31806129999949917,,,20,19,Vrouw,Rechts,1,
,dotcolour,dotcolour,xotask,36,0,36,336,training,positivefb,92,average,55,0.6835355999992316,['c'],1,left,['1'],6,0.22941929999979038,,,20,19,Vrouw,Rechts,1,
,dotcolour,dotcolour,xotask,37,0,37,337,training,positivefb,85,easy,16,0.6833470000001398,['n'],1,right,['1'],6,0.273344499999439,,,20,19,Vrouw,Rechts,1,
,dotcolour,dotcolour,xotask,38,0,38,338,training,positivefb,99,easy,16,0.5990681000002951,['n'],1,right,['1'],6,0.2305329000000711,,,20,19,Vrouw,Rechts,1,
,dotcolour,dotcolour,xotask,39,0,39,339,training,positivefb,81,hard,38,1.7344180000000051,['n'],1,right,['3'],4,0.8082399999993868,,,20,19,Vrouw,Rechts,1,
,dotcolour,dotcolour,xotask,40,0,40,340,training,positivefb,85,easy,19,0.7010242999995171,['n'],1,right,['1'],6,0.548339500000111,,,20,19,Vrouw,Rechts,1,
,dotcolour,dotcolour,xotask,41,0,41,341,training,positivefb,35,hard,35,1.3164066999997885,['c'],0,right,['3'],4,0.9375567000006413,,,20,19,Vrouw,Rechts,1,
,dotcolour,dotcolour,xotask,42,0,42,342,training,positivefb,98,average,28,0.7669200999998793,['n'],1,right,['1'],6,0.3251696000006632,,,20,19,Vrouw,Rechts,1,
,dotcolour,dotcolour,xotask,43,0,43,343,training,positivefb,97,average,25,0.5338193999996292,['n'],1,right,['1'],6,0.16321270000025834,,,20,19,Vrouw,Rechts,1,
,dotcolour,dotcolour,xotask,44,0,44,344,training,positivefb,94,average,51,0.767260300000089,['c'],1,left,['1'],6,0.9588197000002765,,,20,19,Vrouw,Rechts,1,
,dotcolour,dotcolour,xotask,45,0,45,345,training,positivefb,95,easy,65,0.6670350000003964,['c'],1,left,['1'],6,0.3020670000005339,,,20,19,Vrouw,Rechts,1,
,dotcolour,dotcolour,xotask,46,0,46,346,training,positivefb,98,average,28,0.5337048000001232,['n'],1,right,['1'],6,0.16581270000006043,,,20,19,Vrouw,Rechts,1,
,dotcolour,dotcolour,xotask,47,0,47,347,training,positivefb,94,average,28,0.949182600000313,['n'],1,right,['1'],6,0.19278829999984737,,,20,19,Vrouw,Rechts,1,
,dotcolour,dotcolour,xotask,48,0,48,348,training,positivefb,97,average,53,0.6678600000004735,['c'],1,left,['1'],6,0.3265194999994492,,,20,19,Vrouw,Rechts,1,
,dotcolour,dotcolour,xotask,49,0,49,349,training,positivefb,96,hard,42,0.7516746000001149,['c'],1,left,['1'],6,0.25170319999961066,,,20,19,Vrouw,Rechts,1,
,dotcolour,dotcolour,xotask,50,0,50,350,training,positivefb,86,hard,37,1.216936099999657,['n'],1,right,['1'],6,0.5372340999992957,,,20,19,Vrouw,Rechts,1,
,dotcolour,dotcolour,xotask,51,0,51,351,training,positivefb,73,average,51,0.599269400000594,['n'],0,left,['0'],1,2.27609080000002,,,20,19,Vrouw,Rechts,1,
,dotcolour,dotcolour,xotask,52,0,52,352,training,positivefb,86,hard,41,2.133361999999579,['c'],1,left,['3'],4,0.9948673999997482,,,20,19,Vrouw,Rechts,1,
,dotcolour,dotcolour,xotask,53,0,53,353,training,positivefb,95,easy,16,0.7160476999997627,['n'],1,right,['1'],6,0.4149594000000434,,,20,19,Vrouw,Rechts,1,
,dotcolour,dotcolour,xotask,54,0,54,354,training,positivefb,97,easy,63,0.5169766000008167,['c'],1,left,['1'],6,0.20227299999987736,,,20,19,Vrouw,Rechts,1,
,dotcolour,dotcolour,xotask,55,0,55,355,training,positivefb,55,hard,35,1.7002455000001646,['n'],1,right,['3'],4,0.9584831000001941,,,20,19,Vrouw,Rechts,1,
,dotcolour,dotcolour,xotask,56,0,56,356,training,positivefb,94,hard,45,1.050492100000156,['c'],1,left,['1'],6,0.20625070000005508,,,20,19,Vrouw,Rechts,1,
,dotcolour,dotcolour,xotask,57,0,57,357,training,positivefb,86,average,26,0.5993078999999852,['n'],1,right,['1'],6,0.14245089999985794,,,20,19,Vrouw,Rechts,1,
,dotcolour,dotcolour,xotask,58,0,58,358,training,positivefb,86,easy,18,0.7342884999998205,['n'],1,right,['1'],6,0.1476143999998385,,,20,19,Vrouw,Rechts,1,
,dotcolour,dotcolour,xotask,59,0,59,359,training,positivefb,94,easy,65,0.5833511999999246,['c'],1,left,['1'],6,0.1983710999993491,,,20,19,Vrouw,Rechts,1,
,dotcolour,dotcolour,xotask,0,1,60,360,training,positivefb,87,hard,36,2.85140279999996,['n'],1,right,['1'],6,0.18540419999953883,,,20,19,Vrouw,Rechts,1,
,dotcolour,dotcolour,xotask,1,1,61,361,training,positivefb,94,easy,19,0.5170699000000241,['n'],1,right,['1'],6,0.15700870000000577,,,20,19,Vrouw,Rechts,1,
,dotcolour,dotcolour,xotask,2,1,62,362,training,positivefb,89,hard,44,0.8172535000003336,['c'],1,left,['1'],6,0.1897699000001012,,,20,19,Vrouw,Rechts,1,
,dotcolour,dotcolour,xotask,3,1,63,363,training,positivefb,95,hard,44,0.8171056000001045,['c'],1,left,['1'],6,0.20640350000030594,,,20,19,Vrouw,Rechts,1,
,dotcolour,dotcolour,xotask,4,1,64,364,training,positivefb,92,hard,45,1.049888500000634,['c'],1,left,['3'],4,0.8920919000001959,,,20,19,Vrouw,Rechts,1,
,dotcolour,dotcolour,xotask,5,1,65,365,training,positivefb,95,average,55,0.8326998000002277,['c'],1,left,['1'],6,0.35184839999965334,,,20,19,Vrouw,Rechts,1,
,dotcolour,dotcolour,xotask,6,1,66,366,training,positivefb,99,easy,65,0.6168688999996448,['c'],1,left,['1'],6,0.1849173000000519,,,20,19,Vrouw,Rechts,1,
,dotcolour,dotcolour,xotask,7,1,67,367,training,positivefb,61,hard,39,2.59990740000012,['c'],0,right,['3'],4,0.6661379000006491,,,20,19,Vrouw,Rechts,1,
,dotcolour,dotcolour,xotask,8,1,68,368,training,positivefb,84,hard,41,1.016157000000021,['c'],1,left,['2'],5,1.2540726999995968,,,20,19,Vrouw,Rechts,1,
,dotcolour,dotcolour,xotask,9,1,69,369,training,positivefb,58,easy,18,0.7667934000000969,['n'],1,right,['1'],6,0.3418659999997544,,,20,19,Vrouw,Rechts,1,
,dotcolour,dotcolour,xotask,10,1,70,370,training,positivefb,95,average,55,0.816022900000462,['c'],1,left,['1'],6,0.24730429999999615,,,20,19,Vrouw,Rechts,1,
,dotcolour,dotcolour,xotask,11,1,71,371,training,positivefb,62,hard,43,3.1503514000005453,['n'],0,left,['3'],4,0.6080524000008154,,,20,19,Vrouw,Rechts,1,
,dotcolour,dotcolour,xotask,12,1,72,372,training,positivefb,95,easy,63,0.7502791999995679,['c'],1,left,['1'],6,0.4900760000000446,,,20,19,Vrouw,Rechts,1,
,dotcolour,dotcolour,xotask,13,1,73,373,training,positivefb,99,average,55,0.6495703999999023,['c'],1,left,['1'],6,0.2528947999999218,,,20,19,Vrouw,Rechts,1,
,dotcolour,dotcolour,xotask,14,1,74,374,training,positivefb,95,easy,16,0.7000584999996136,['n'],1,right,['1'],6,0.2387659000005442,,,20,19,Vrouw,Rechts,1,
,dotcolour,dotcolour,xotask,15,1,75,375,training,positivefb,92,hard,37,0.8836983999999575,['n'],1,right,['1'],6,0.4339050999997198,,,20,19,Vrouw,Rechts,1,
,dotcolour,dotcolour,xotask,16,1,76,376,training,positivefb,36,average,54,0.6829262000001108,['n'],0,left,['0'],1,1.6616368000004513,,,20,19,Vrouw,Rechts,1,
,dotcolour,dotcolour,xotask,17,1,77,377,training,positivefb,91,easy,62,0.7841189000000668,['c'],1,left,['1'],6,0.28311219999977766,,,20,19,Vrouw,Rechts,1,
,dotcolour,dotcolour,xotask,18,1,78,378,training,positivefb,88,hard,38,1.784323800000493,['n'],1,right,['2'],5,0.5051178999992771,,,20,19,Vrouw,Rechts,1,
,dotcolour,dotcolour,xotask,19,1,79,379,training,positivefb,98,easy,16,1.0999069999998028,['n'],1,right,['2'],5,0.4483598999995593,,,20,19,Vrouw,Rechts,1,
,dotcolour,dotcolour,xotask,20,1,80,380,training,positivefb,85,hard,35,0.9000145999998495,['c'],0,right,['1'],6,0.22701690000030794,,,20,19,Vrouw,Rechts,1,
,dotcolour,dotcolour,xotask,21,1,81,381,training,positivefb,88,easy,17,1.0505310999997164,['n'],1,right,['1'],6,0.1681810999998561,,,20,19,Vrouw,Rechts,1,
,dotcolour,dotcolour,xotask,22,1,82,382,training,positivefb,96,average,28,0.8995813000001363,['n'],1,right,['1'],6,0.20497470000009343,,,20,19,Vrouw,Rechts,1,
,dotcolour,dotcolour,xotask,23,1,83,383,training,positivefb,71,hard,44,2.566516699999738,['c'],1,left,['1'],6,0.14311069999985193,,,20,19,Vrouw,Rechts,1,
,dotcolour,dotcolour,xotask,24,1,84,384,training,positivefb,91,average,26,1.2003132999998343,['n'],1,right,['1'],6,0.1932612999999037,,,20,19,Vrouw,Rechts,1,
,dotcolour,dotcolour,xotask,25,1,85,385,training,positivefb,64,hard,41,1.634208899999976,['c'],1,left,['3'],4,1.0408970000007685,,,20,19,Vrouw,Rechts,1,
,dotcolour,dotcolour,xotask,26,1,86,386,training,positivefb,96,easy,63,0.932853299999806,['c'],1,left,['1'],6,0.3464722000007896,,,20,19,Vrouw,Rechts,1,
,dotcolour,dotcolour,xotask,27,1,87,387,training,positivefb,90,average,27,1.3503787000008742,['n'],1,right,['1'],6,0.16694279999956052,,,20,19,Vrouw,Rechts,1,
,dotcolour,dotcolour,xotask,28,1,88,388,training,positivefb,86,average,25,0.7509471000003032,['n'],1,right,['1'],6,0.146136899999874,,,20,19,Vrouw,Rechts,1,
,dotcolour,dotcolour,xotask,29,1,89,389,training,positivefb,93,average,26,0.7176724999999351,['n'],1,right,['1'],6,0.1844059000004563,,,20,19,Vrouw,Rechts,1,
,dotcolour,dotcolour,xotask,30,1,90,390,training,positivefb,95,easy,17,0.6004174999998213,['n'],1,right,['1'],6,0.20195299999977578,,,20,19,Vrouw,Rechts,1,
,dotcolour,dotcolour,xotask,31,1,91,391,training,positivefb,90,hard,38,1.2502720000002228,['c'],0,right,['1'],6,0.23130109999965498,,,20,19,Vrouw,Rechts,1,
,dotcolour,dotcolour,xotask,32,1,92,392,training,positivefb,95,easy,17,0.5838514000006398,['n'],1,right,['1'],6,0.2622871000003215,,,20,19,Vrouw,Rechts,1,
,dotcolour,dotcolour,xotask,33,1,93,393,training,positivefb,82,hard,37,0.9006006999998135,['n'],1,right,['3'],4,1.4003712999992786,,,20,19,Vrouw,Rechts,1,
,dotcolour,dotcolour,xotask,34,1,94,394,training,positivefb,100,easy,15,0.8168672000001607,['n'],1,right,['1'],6,1.1433400999994774,,,20,19,Vrouw,Rechts,1,
,dotcolour,dotcolour,xotask,35,1,95,395,training,positivefb,91,easy,63,0.7003407000001971,['c'],1,left,['1'],6,0.23872879999998986,,,20,19,Vrouw,Rechts,1,
,dotcolour,dotcolour,xotask,36,1,96,396,training,positivefb,98,easy,63,0.5492784000007305,['c'],1,left,['1'],6,0.2878749000001335,,,20,19,Vrouw,Rechts,1,
,dotcolour,dotcolour,xotask,37,1,97,397,training,positivefb,98,easy,61,0.5673787999994602,['c'],1,left,['1'],6,0.293108800000482,,,20,19,Vrouw,Rechts,1,
,dotcolour,dotcolour,xotask,38,1,98,398,training,positivefb,75,average,29,0.5497992999999042,['n'],1,right,['1'],6,0.17158400000062102,,,20,19,Vrouw,Rechts,1,
,dotcolour,dotcolour,xotask,39,1,99,399,training,positivefb,83,average,55,1.0001082000007955,['c'],1,left,['1'],6,0.2137695999999778,,,20,19,Vrouw,Rechts,1,
,dotcolour,dotcolour,xotask,40,1,100,400,training,positivefb,89,average,29,0.5173124999992069,['n'],1,right,['1'],6,0.2726779999993596,,,20,19,Vrouw,Rechts,1,
,dotcolour,dotcolour,xotask,41,1,101,401,training,positivefb,95,easy,61,0.784014500000012,['c'],1,left,['1'],6,0.23102530000051047,,,20,19,Vrouw,Rechts,1,
,dotcolour,dotcolour,xotask,42,1,102,402,training,positivefb,72,hard,35,2.550011600000289,['n'],1,right,['3'],4,0.6719521000004534,,,20,19,Vrouw,Rechts,1,
,dotcolour,dotcolour,xotask,43,1,103,403,training,positivefb,92,hard,37,3.365862499999821,['n'],1,right,['3'],4,0.7905035000003409,,,20,19,Vrouw,Rechts,1,
,dotcolour,dotcolour,xotask,44,1,104,404,training,positivefb,90,average,26,0.8159663999995246,['n'],1,right,['1'],6,0.25444009999955597,,,20,19,Vrouw,Rechts,1,
,dotcolour,dotcolour,xotask,45,1,105,405,training,positivefb,86,average,25,0.6669306999992841,['n'],1,right,['1'],6,0.12246320000031119,,,20,19,Vrouw,Rechts,1,
,dotcolour,dotcolour,xotask,46,1,106,406,training,positivefb,98,easy,63,0.7835219999997207,['c'],1,left,['1'],6,0.2537800000000061,,,20,19,Vrouw,Rechts,1,
,dotcolour,dotcolour,xotask,47,1,107,407,training,positivefb,95,easy,17,0.6996168000005127,['n'],1,right,['1'],6,0.2564947000000757,,,20,19,Vrouw,Rechts,1,
,dotcolour,dotcolour,xotask,48,1,108,408,training,positivefb,33,hard,42,0.7839420999998765,['n'],0,left,['9'],2,2.494973500000924,,,20,19,Vrouw,Rechts,1,
,dotcolour,dotcolour,xotask,49,1,109,409,training,positivefb,91,average,55,0.9010754999999335,['c'],1,left,['1'],6,0.26349999999911233,,,20,19,Vrouw,Rechts,1,
,dotcolour,dotcolour,xotask,50,1,110,410,training,positivefb,96,average,51,0.7498541999993904,['c'],1,left,['1'],6,0.431003799998507,,,20,19,Vrouw,Rechts,1,
,dotcolour,dotcolour,xotask,51,1,111,411,training,positivefb,83,average,26,1.2332893999991938,['n'],1,right,['1'],6,0.3244146999986697,,,20,19,Vrouw,Rechts,1,
,dotcolour,dotcolour,xotask,52,1,112,412,training,positivefb,98,easy,17,0.6170239999992191,['n'],1,right,['1'],6,0.15112559999943187,,,20,19,Vrouw,Rechts,1,
,dotcolour,dotcolour,xotask,53,1,113,413,training,positivefb,89,average,54,0.6836660999997548,['c'],1,left,['1'],6,0.15737560000161466,,,20,19,Vrouw,Rechts,1,
,dotcolour,dotcolour,xotask,54,1,114,414,training,positivefb,83,hard,38,3.0507173000005423,['n'],1,right,['3'],4,0.9253389000004972,,,20,19,Vrouw,Rechts,1,
,dotcolour,dotcolour,xotask,55,1,115,415,training,positivefb,97,easy,62,0.8011093999994046,['c'],1,left,['1'],6,0.10535180000078981,,,20,19,Vrouw,Rechts,1,
,dotcolour,dotcolour,xotask,56,1,116,416,training,positivefb,96,average,53,0.5843007999992551,['c'],1,left,['1'],6,0.23775010000099428,,,20,19,Vrouw,Rechts,1,
,dotcolour,dotcolour,xotask,57,1,117,417,training,positivefb,94,average,52,0.5998737999998411,['c'],1,left,['1'],6,0.1405986000008852,,,20,19,Vrouw,Rechts,1,
,dotcolour,dotcolour,xotask,58,1,118,418,training,positivefb,96,hard,45,0.6658726000005117,['c'],1,left,['1'],6,0.2363351000003604,,,20,19,Vrouw,Rechts,1,
,dotcolour,dotcolour,xotask,59,1,119,419,training,positivefb,96,hard,45,0.9337271000003966,['c'],1,left,['1'],6,0.23024220000115747,,,20,19,Vrouw,Rechts,1,
,dotcolour,dotcolour,xotask,0,2,120,420,main,positivefb,-99,easy,64,1.0675683000008576,['c'],1,left,['1'],6,0.17416450000018813,,,20,19,Vrouw,Rechts,1,
,dotcolour,dotcolour,xotask,1,2,121,421,main,positivefb,-99,hard,45,0.667173100000582,['c'],1,left,['1'],6,0.6696031000010407,,,20,19,Vrouw,Rechts,1,
,dotcolour,dotcolour,xotask,2,2,122,422,main,positivefb,-99,easy,61,0.534533800000645,['c'],1,left,['1'],6,0.15860460000112653,,,20,19,Vrouw,Rechts,1,
,dotcolour,dotcolour,xotask,3,2,123,423,main,positivefb,-99,hard,41,0.6339227999997092,['c'],1,left,['1'],6,0.16760859999885724,,,20,19,Vrouw,Rechts,1,
,dotcolour,dotcolour,xotask,4,2,124,424,main,positivefb,-99,hard,35,0.7349368000013783,['c'],0,right,['1'],6,0.1803816999999981,,,20,19,Vrouw,Rechts,1,
,dotcolour,dotcolour,xotask,5,2,125,425,main,positivefb,-99,easy,18,0.6019940999995015,['n'],1,right,['1'],6,0.1103175000007468,,,20,19,Vrouw,Rechts,1,
,dotcolour,dotcolour,xotask,6,2,126,426,main,positivefb,-99,easy,19,0.6336538000014116,['n'],1,right,['1'],6,0.18552710000039951,,,20,19,Vrouw,Rechts,1,
,dotcolour,dotcolour,xotask,7,2,127,427,main,positivefb,-99,easy,61,0.6679012999993574,['c'],1,left,['1'],6,0.14423680000072636,,,20,19,Vrouw,Rechts,1,
,dotcolour,dotcolour,xotask,8,2,128,428,main,positivefb,-99,hard,45,0.7841191999996227,['c'],1,left,['1'],6,0.12372979999963718,,,20,19,Vrouw,Rechts,1,
,dotcolour,dotcolour,xotask,9,2,129,429,main,positivefb,-99,average,28,0.584321500000442,['n'],1,right,['1'],6,0.18497620000016468,,,20,19,Vrouw,Rechts,1,
,dotcolour,dotcolour,xotask,10,2,130,430,main,positivefb,-99,hard,44,0.8012803999990865,['c'],1,left,['2'],5,1.9305380999994668,,,20,19,Vrouw,Rechts,1,
,dotcolour,dotcolour,xotask,11,2,131,431,main,positivefb,-99,easy,62,0.8172697999998491,['c'],1,left,['1'],6,0.18989679999867803,,,20,19,Vrouw,Rechts,1,
,dotcolour,dotcolour,xotask,12,2,132,432,main,positivefb,-99,hard,42,0.7345891000004485,['c'],1,left,['1'],6,0.20952480000050855,,,20,19,Vrouw,Rechts,1,
,dotcolour,dotcolour,xotask,13,2,133,433,main,positivefb,-99,hard,41,0.6511081000007835,['c'],1,left,['0'],1,1.9923103999990417,,,20,19,Vrouw,Rechts,1,
,dotcolour,dotcolour,xotask,14,2,134,434,main,positivefb,-99,average,55,0.93476340000052,['c'],1,left,['1'],6,0.29249770000024,,,20,19,Vrouw,Rechts,1,
,dotcolour,dotcolour,xotask,15,2,135,435,main,positivefb,-99,easy,16,0.7841334999993705,['n'],1,right,['1'],6,0.24974180000026536,,,20,19,Vrouw,Rechts,1,
,dotcolour,dotcolour,xotask,16,2,136,436,main,positivefb,-99,hard,35,2.368631600000299,['n'],1,right,['2'],5,0.5142879000013636,,,20,19,Vrouw,Rechts,1,
,dotcolour,dotcolour,xotask,17,2,137,437,main,positivefb,-99,easy,15,0.584159300000465,['n'],1,right,['1'],6,0.21461689999887312,,,20,19,Vrouw,Rechts,1,
,dotcolour,dotcolour,xotask,18,2,138,438,main,positivefb,-99,average,53,0.8663667999990139,['c'],1,left,['1'],6,0.2279884999989008,,,20,19,Vrouw,Rechts,1,
,dotcolour,dotcolour,xotask,19,2,139,439,main,positivefb,-99,hard,36,1.4854231999997864,['c'],0,right,['2'],5,0.8009306999992987,,,20,19,Vrouw,Rechts,1,
,dotcolour,dotcolour,xotask,20,2,140,440,main,positivefb,-99,average,26,0.7679284000005282,['n'],1,right,['1'],6,0.26691009999922244,,,20,19,Vrouw,Rechts,1,
,dotcolour,dotcolour,xotask,21,2,141,441,main,positivefb,-99,hard,39,1.8005260999998427,['n'],1,right,['1'],6,0.21680339999875287,,,20,19,Vrouw,Rechts,1,
,dotcolour,dotcolour,xotask,22,2,142,442,main,positivefb,-99,average,54,0.984824999999546,['c'],1,left,['1'],6,0.28225580000071204,,,20,19,Vrouw,Rechts,1,
,dotcolour,dotcolour,xotask,23,2,143,443,main,positivefb,-99,average,53,0.7179288999996061,['c'],1,left,['1'],6,0.2582931999986613,,,20,19,Vrouw,Rechts,1,
,dotcolour,dotcolour,xotask,24,2,144,444,main,positivefb,-99,easy,19,0.6680508999997983,['n'],1,right,['1'],6,0.25472830000035174,,,20,19,Vrouw,Rechts,1,
,dotcolour,dotcolour,xotask,25,2,145,445,main,positivefb,-99,easy,62,0.7838201999984449,['c'],1,left,['1'],6,0.23046839999915392,,,20,19,Vrouw,Rechts,1,
,dotcolour,dotcolour,xotask,26,2,146,446,main,positivefb,-99,easy,19,0.6009195000006002,['n'],1,right,['1'],6,0.22977820000050997,,,20,19,Vrouw,Rechts,1,
,dotcolour,dotcolour,xotask,27,2,147,447,main,positivefb,-99,average,28,0.6500949000001128,['n'],1,right,['1'],6,0.251279500000237,,,20,19,Vrouw,Rechts,1,
,dotcolour,dotcolour,xotask,28,2,148,448,main,positivefb,-99,hard,43,2.417319000000134,['c'],1,left,['3'],4,0.8818675000002258,,,20,19,Vrouw,Rechts,1,
,dotcolour,dotcolour,xotask,29,2,149,449,main,positivefb,-99,hard,37,3.8015345000003435,['n'],1,right,['3'],4,0.8157432999996672,,,20,19,Vrouw,Rechts,1,
,dotcolour,dotcolour,xotask,30,2,150,450,main,positivefb,-99,hard,38,0.868141499999183,['n'],1,right,['2'],5,0.7808696000010968,,,20,19,Vrouw,Rechts,1,
,dotcolour,dotcolour,xotask,31,2,151,451,main,positivefb,-99,average,55,0.7015912999995635,['c'],1,left,['1'],6,0.18655699999908393,,,20,19,Vrouw,Rechts,1,
,dotcolour,dotcolour,xotask,32,2,152,452,main,positivefb,-99,easy,15,0.8500287999995635,['n'],1,right,['1'],6,0.22611660000075062,,,20,19,Vrouw,Rechts,1,
,dotcolour,dotcolour,xotask,33,2,153,453,main,positivefb,-99,easy,16,0.7501694999991741,['n'],1,right,['1'],6,0.2599006999989797,,,20,19,Vrouw,Rechts,1,
,dotcolour,dotcolour,xotask,34,2,154,454,main,positivefb,-99,average,29,0.9005653000003804,['n'],1,right,['1'],6,0.22257989999889105,,,20,19,Vrouw,Rechts,1,
,dotcolour,dotcolour,xotask,35,2,155,455,main,positivefb,-99,easy,62,0.7011041999994632,['c'],1,left,['1'],6,0.20274999999855936,,,20,19,Vrouw,Rechts,1,
,dotcolour,dotcolour,xotask,36,2,156,456,main,positivefb,-99,hard,44,1.8160914000000048,['c'],1,left,['2'],5,1.0434265000003506,,,20,19,Vrouw,Rechts,1,
,dotcolour,dotcolour,xotask,37,2,157,457,main,positivefb,-99,hard,45,1.449969900000724,['c'],1,left,['1'],6,0.42399119999936374,,,20,19,Vrouw,Rechts,1,
,dotcolour,dotcolour,xotask,38,2,158,458,main,positivefb,-99,easy,19,0.7503665999993245,['n'],1,right,['1'],6,0.19421009999859962,,,20,19,Vrouw,Rechts,1,
,dotcolour,dotcolour,xotask,39,2,159,459,main,positivefb,-99,average,26,0.6506988000001002,['n'],1,right,['1'],6,0.2658308999998553,,,20,19,Vrouw,Rechts,1,
,dotcolour,dotcolour,xotask,40,2,160,460,main,positivefb,-99,hard,37,0.9173066000003018,['n'],1,right,['1'],6,0.2588142999993579,,,20,19,Vrouw,Rechts,1,
,dotcolour,dotcolour,xotask,41,2,161,461,main,positivefb,-99,average,55,0.6676607000008516,['c'],1,left,['1'],6,0.2546829999992042,,,20,19,Vrouw,Rechts,1,
,dotcolour,dotcolour,xotask,42,2,162,462,main,positivefb,-99,easy,63,0.5840788999994402,['c'],1,left,['1'],6,0.23047760000008566,,,20,19,Vrouw,Rechts,1,
,dotcolour,dotcolour,xotask,43,2,163,463,main,positivefb,-99,hard,36,2.651845600001252,['c'],0,right,['3'],4,0.6684577999985777,,,20,19,Vrouw,Rechts,1,
,dotcolour,dotcolour,xotask,44,2,164,464,main,positivefb,-99,easy,18,0.7995009000005666,['n'],1,right,['1'],6,0.4337818999993033,,,20,19,Vrouw,Rechts,1,
,dotcolour,dotcolour,xotask,45,2,165,465,main,positivefb,-99,hard,43,1.3845178999999916,['c'],1,left,['2'],5,0.906534499999907,,,20,19,Vrouw,Rechts,1,
,dotcolour,dotcolour,xotask,46,2,166,466,main,positivefb,-99,average,29,1.4175551000007545,['c'],0,right,['3'],4,0.8229468000008637,,,20,19,Vrouw,Rechts,1,
,dotcolour,dotcolour,xotask,47,2,167,467,main,positivefb,-99,easy,65,0.9347596999996313,['c'],1,left,['1'],6,0.3290741999990132,,,20,19,Vrouw,Rechts,1,
,dotcolour,dotcolour,xotask,48,2,168,468,main,positivefb,-99,easy,64,0.9837444000004325,['c'],1,left,['1'],6,0.26193050000074436,,,20,19,Vrouw,Rechts,1,
,dotcolour,dotcolour,xotask,49,2,169,469,main,positivefb,-99,average,29,0.7502127000007022,['n'],1,right,['1'],6,0.2227772999995068,,,20,19,Vrouw,Rechts,1,
,dotcolour,dotcolour,xotask,50,2,170,470,main,positivefb,-99,average,55,0.7176707999988139,['c'],1,left,['1'],6,0.16987450000124227,,,20,19,Vrouw,Rechts,1,
,dotcolour,dotcolour,xotask,51,2,171,471,main,positivefb,-99,average,26,0.6340960999987146,['n'],1,right,['1'],6,0.23414170000069134,,,20,19,Vrouw,Rechts,1,
,dotcolour,dotcolour,xotask,52,2,172,472,main,positivefb,-99,hard,39,0.7835596000004443,['n'],1,right,['1'],6,0.267072200000257,,,20,19,Vrouw,Rechts,1,
,dotcolour,dotcolour,xotask,53,2,173,473,main,positivefb,-99,average,53,0.8348654000001261,['c'],1,left,['1'],6,0.23129429999971762,,,20,19,Vrouw,Rechts,1,
,dotcolour,dotcolour,xotask,54,2,174,474,main,positivefb,-99,hard,37,1.5838432000000466,['n'],1,right,['8'],3,1.7032045000014477,,,20,19,Vrouw,Rechts,1,
,dotcolour,dotcolour,xotask,55,2,175,475,main,positivefb,-99,average,27,1.1838024999997288,['n'],1,right,['1'],6,0.7408974000009039,,,20,19,Vrouw,Rechts,1,
,dotcolour,dotcolour,xotask,56,2,176,476,main,positivefb,-99,average,26,0.7172740999994858,['n'],1,right,['1'],6,1.122692700000698,,,20,19,Vrouw,Rechts,1,
,dotcolour,dotcolour,xotask,57,2,177,477,main,positivefb,-99,average,52,1.118673499999204,['n'],0,left,['0'],1,2.034941300000355,,,20,19,Vrouw,Rechts,1,
,dotcolour,dotcolour,xotask,58,2,178,478,main,positivefb,-99,easy,63,1.0344155000002502,['c'],1,left,['1'],6,0.28907559999970545,,,20,19,Vrouw,Rechts,1,
,dotcolour,dotcolour,xotask,59,2,179,479,main,positivefb,-99,average,55,0.7174078000007285,['c'],1,left,['1'],6,0.20937100000082864,,,20,19,Vrouw,Rechts,1,
,dotcolour,dotcolour,xotask,0,3,180,480,main,positivefb,-99,easy,16,1.3848242000003665,['n'],1,right,['1'],6,0.1655062000008911,,,20,19,Vrouw,Rechts,1,
,dotcolour,dotcolour,xotask,1,3,181,481,main,positivefb,-99,hard,42,1.633981800001493,['c'],1,left,['2'],5,0.7177518000007694,,,20,19,Vrouw,Rechts,1,
,dotcolour,dotcolour,xotask,2,3,182,482,main,positivefb,-99,hard,44,1.268335599999773,['c'],1,left,['3'],4,0.5516179999995074,,,20,19,Vrouw,Rechts,1,
,dotcolour,dotcolour,xotask,3,3,183,483,main,positivefb,-99,average,26,0.8181244999996125,['n'],1,right,['1'],6,0.15319649999946705,,,20,19,Vrouw,Rechts,1,
,dotcolour,dotcolour,xotask,4,3,184,484,main,positivefb,-99,hard,45,0.7673095999998623,['c'],1,left,['1'],6,0.2614383000000089,,,20,19,Vrouw,Rechts,1,
,dotcolour,dotcolour,xotask,5,3,185,485,main,positivefb,-99,easy,65,0.6182776000005106,['c'],1,left,['1'],6,0.3235425999992003,,,20,19,Vrouw,Rechts,1,
,dotcolour,dotcolour,xotask,6,3,186,486,main,positivefb,-99,hard,44,1.0340942999991967,['c'],1,left,['3'],4,0.878348600001118,,,20,19,Vrouw,Rechts,1,
,dotcolour,dotcolour,xotask,7,3,187,487,main,positivefb,-99,average,51,0.8678386000010505,['c'],1,left,['1'],6,0.8576247000000876,,,20,19,Vrouw,Rechts,1,
,dotcolour,dotcolour,xotask,8,3,188,488,main,positivefb,-99,average,29,0.817845400000806,['n'],1,right,['1'],6,0.2150602000001527,,,20,19,Vrouw,Rechts,1,
,dotcolour,dotcolour,xotask,9,3,189,489,main,positivefb,-99,average,27,3.050237299999935,['n'],1,right,['8'],3,1.6459448000005068,,,20,19,Vrouw,Rechts,1,
,dotcolour,dotcolour,xotask,10,3,190,490,main,positivefb,-99,hard,42,1.451677600000039,['c'],1,left,['2'],5,0.4107830000011745,,,20,19,Vrouw,Rechts,1,
,dotcolour,dotcolour,xotask,11,3,191,491,main,positivefb,-99,hard,35,0.8520738999995956,['n'],1,right,['1'],6,0.26605259999996633,,,20,19,Vrouw,Rechts,1,
,dotcolour,dotcolour,xotask,12,3,192,492,main,positivefb,-99,average,26,0.9503543000009813,['n'],1,right,['1'],6,0.17748870000104944,,,20,19,Vrouw,Rechts,1,
,dotcolour,dotcolour,xotask,13,3,193,493,main,positivefb,-99,average,29,0.6340580000014597,['n'],1,right,['1'],6,0.19401230000039504,,,20,19,Vrouw,Rechts,1,
,dotcolour,dotcolour,xotask,14,3,194,494,main,positivefb,-99,hard,35,0.8347024999984569,['n'],1,right,['1'],6,0.2422764000002644,,,20,19,Vrouw,Rechts,1,
,dotcolour,dotcolour,xotask,15,3,195,495,main,positivefb,-99,hard,38,0.6666144000009808,['n'],1,right,['1'],6,0.1825754000001325,,,20,19,Vrouw,Rechts,1,
,dotcolour,dotcolour,xotask,16,3,196,496,main,positivefb,-99,easy,62,1.084722800000236,['c'],1,left,['1'],6,0.22846750000098837,,,20,19,Vrouw,Rechts,1,
,dotcolour,dotcolour,xotask,17,3,197,497,main,positivefb,-99,easy,61,0.6343077000001358,['c'],1,left,['1'],6,0.21179139999912877,,,20,19,Vrouw,Rechts,1,
,dotcolour,dotcolour,xotask,18,3,198,498,main,positivefb,-99,average,52,0.7175889999998617,['c'],1,left,['1'],6,0.46391940000103205,,,20,19,Vrouw,Rechts,1,
,dotcolour,dotcolour,xotask,19,3,199,499,main,positivefb,-99,easy,63,0.585139299999355,['c'],1,left,['1'],6,0.23101879999921948,,,20,19,Vrouw,Rechts,1,
,dotcolour,dotcolour,xotask,20,3,200,500,main,positivefb,-99,easy,17,0.7673532000007981,['n'],1,right,['1'],6,0.23181709999880695,,,20,19,Vrouw,Rechts,1,
,dotcolour,dotcolour,xotask,21,3,201,501,main,positivefb,-99,easy,61,0.584261099998912,['c'],1,left,['1'],6,0.1433524000003672,,,20,19,Vrouw,Rechts,1,
,dotcolour,dotcolour,xotask,22,3,202,502,main,positivefb,-99,hard,41,0.8020008999992569,['c'],1,left,['1'],6,0.17070400000011432,,,20,19,Vrouw,Rechts,1,
,dotcolour,dotcolour,xotask,23,3,203,503,main,positivefb,-99,easy,65,0.783258500001466,['c'],1,left,['1'],6,0.15036010000039823,,,20,19,Vrouw,Rechts,1,
,dotcolour,dotcolour,xotask,24,3,204,504,main,positivefb,-99,hard,35,0.7340538999997079,['n'],1,right,['1'],6,0.17126640000060434,,,20,19,Vrouw,Rechts,1,
,dotcolour,dotcolour,xotask,25,3,205,505,main,positivefb,-99,easy,19,0.6170777000006638,['n'],1,right,['1'],6,0.19671109999944747,,,20,19,Vrouw,Rechts,1,
,dotcolour,dotcolour,xotask,26,3,206,506,main,positivefb,-99,average,27,0.5837802000005468,['n'],1,right,['1'],6,0.25453139999990526,,,20,19,Vrouw,Rechts,1,
,dotcolour,dotcolour,xotask,27,3,207,507,main,positivefb,-99,hard,45,1.6185409999998228,['c'],1,left,['1'],6,0.13231760000053328,,,20,19,Vrouw,Rechts,1,
,dotcolour,dotcolour,xotask,28,3,208,508,main,positivefb,-99,easy,16,0.6665032000000792,['n'],1,right,['1'],6,0.20493319999877713,,,20,19,Vrouw,Rechts,1,
,dotcolour,dotcolour,xotask,29,3,209,509,main,positivefb,-99,average,55,0.6182817000008072,['c'],1,left,['1'],6,0.09316459999899962,,,20,19,Vrouw,Rechts,1,
,dotcolour,dotcolour,xotask,30,3,210,510,main,positivefb,-99,easy,19,0.6337603000010859,['n'],1,right,['1'],6,0.19285760000093433,,,20,19,Vrouw,Rechts,1,
,dotcolour,dotcolour,xotask,31,3,211,511,main,positivefb,-99,easy,64,0.6498926999993273,['c'],1,left,['1'],6,0.13601629999902798,,,20,19,Vrouw,Rechts,1,
,dotcolour,dotcolour,xotask,32,3,212,512,main,positivefb,-99,average,25,0.6507077000005665,['n'],1,right,['1'],6,0.19394119999924442,,,20,19,Vrouw,Rechts,1,
,dotcolour,dotcolour,xotask,33,3,213,513,main,positivefb,-99,hard,44,1.1671854999985953,['c'],1,left,['1'],6,0.14884879999954137,,,20,19,Vrouw,Rechts,1,
,dotcolour,dotcolour,xotask,34,3,214,514,main,positivefb,-99,easy,62,0.7673057000010886,['c'],1,left,['1'],6,0.1686454999999114,,,20,19,Vrouw,Rechts,1,
,dotcolour,dotcolour,xotask,35,3,215,515,main,positivefb,-99,average,26,0.6503400999990845,['n'],1,right,['1'],6,0.21628919999966456,,,20,19,Vrouw,Rechts,1,
,dotcolour,dotcolour,xotask,36,3,216,516,main,positivefb,-99,hard,42,0.934305000000677,['c'],1,left,['1'],6,0.09101340000052005,,,20,19,Vrouw,Rechts,1,
,dotcolour,dotcolour,xotask,37,3,217,517,main,positivefb,-99,average,52,0.6349057000006724,['c'],1,left,['1'],6,0.15146180000010645,,,20,19,Vrouw,Rechts,1,
,dotcolour,dotcolour,xotask,38,3,218,518,main,positivefb,-99,average,53,0.5341910999995889,['c'],1,left,['1'],6,0.22063080000043556,,,20,19,Vrouw,Rechts,1,
,dotcolour,dotcolour,xotask,39,3,219,519,main,positivefb,-99,easy,15,0.7338355000010779,['n'],1,right,['1'],6,0.14298369999960414,,,20,19,Vrouw,Rechts,1,
,dotcolour,dotcolour,xotask,40,3,220,520,main,positivefb,-99,easy,61,1.4676698000002943,['c'],1,left,['1'],6,0.14346420000038052,,,20,19,Vrouw,Rechts,1,
,dotcolour,dotcolour,xotask,41,3,221,521,main,positivefb,-99,easy,18,0.5841072000002896,['n'],1,right,['1'],6,0.1801647000011144,,,20,19,Vrouw,Rechts,1,
,dotcolour,dotcolour,xotask,42,3,222,522,main,positivefb,-99,hard,39,0.9516923000010138,['c'],0,right,['1'],6,0.15260729999863543,,,20,19,Vrouw,Rechts,1,
,dotcolour,dotcolour,xotask,43,3,223,523,main,positivefb,-99,hard,35,1.767448799999329,['c'],0,right,['1'],6,0.07594600000084029,,,20,19,Vrouw,Rechts,1,
,dotcolour,dotcolour,xotask,44,3,224,524,main,positivefb,-99,hard,35,0.7007892000001448,['n'],1,right,['1'],6,0.14934809999977006,,,20,19,Vrouw,Rechts,1,
,dotcolour,dotcolour,xotask,45,3,225,525,main,positivefb,-99,easy,15,0.6342587999988609,['n'],1,right,['1'],6,0.15191840000079537,,,20,19,Vrouw,Rechts,1,
,dotcolour,dotcolour,xotask,46,3,226,526,main,positivefb,-99,hard,41,0.8503994999991846,['c'],1,left,['1'],6,0.112693399998534,,,20,19,Vrouw,Rechts,1,
,dotcolour,dotcolour,xotask,47,3,227,527,main,positivefb,-99,average,52,0.7673862999999983,['c'],1,left,['1'],6,0.13482269999985874,,,20,19,Vrouw,Rechts,1,
,dotcolour,dotcolour,xotask,48,3,228,528,main,positivefb,-99,hard,36,0.7165679999998247,['n'],1,right,['1'],6,0.2129414999999426,,,20,19,Vrouw,Rechts,1,
,dotcolour,dotcolour,xotask,49,3,229,529,main,positivefb,-99,easy,18,0.6679289000003337,['n'],1,right,['1'],6,0.14751820000128646,,,20,19,Vrouw,Rechts,1,
,dotcolour,dotcolour,xotask,50,3,230,530,main,positivefb,-99,easy,62,0.6513259000003018,['c'],1,left,['1'],6,0.17258990000118501,,,20,19,Vrouw,Rechts,1,
,dotcolour,dotcolour,xotask,51,3,231,531,main,positivefb,-99,average,26,1.1338068000004569,['n'],1,right,['1'],6,0.07350290000067616,,,20,19,Vrouw,Rechts,1,
,dotcolour,dotcolour,xotask,52,3,232,532,main,positivefb,-99,hard,35,2.284078299999237,['c'],0,right,['1'],6,0.18809390000023996,,,20,19,Vrouw,Rechts,1,
,dotcolour,dotcolour,xotask,53,3,233,533,main,positivefb,-99,average,26,0.7332979000002524,['n'],1,right,['1'],6,0.11996900000121968,,,20,19,Vrouw,Rechts,1,
,dotcolour,dotcolour,xotask,54,3,234,534,main,positivefb,-99,average,53,0.9511592999988352,['c'],1,left,['1'],6,0.5501578999992489,,,20,19,Vrouw,Rechts,1,
,dotcolour,dotcolour,xotask,55,3,235,535,main,positivefb,-99,average,55,0.7338343999999779,['c'],1,left,['1'],6,1.1472169999997277,,,20,19,Vrouw,Rechts,1,
,dotcolour,dotcolour,xotask,56,3,236,536,main,positivefb,-99,average,53,0.6837584999993851,['c'],1,left,['1'],6,0.19514429999981076,,,20,19,Vrouw,Rechts,1,
,dotcolour,dotcolour,xotask,57,3,237,537,main,positivefb,-99,easy,19,0.6665597000010166,['n'],1,right,['1'],6,0.1701385999986087,,,20,19,Vrouw,Rechts,1,
,dotcolour,dotcolour,xotask,58,3,238,538,main,positivefb,-99,average,51,0.7514539000003424,['c'],1,left,['1'],6,0.2534756999993988,,,20,19,Vrouw,Rechts,1,
,dotcolour,dotcolour,xotask,59,3,239,539,main,positivefb,-99,hard,36,2.151944499999445,['n'],1,right,['3'],4,0.6309831999988091,,,20,19,Vrouw,Rechts,1,
,dotcolour,dotcolour,xotask,0,4,240,540,main,positivefb,-99,easy,16,1.4511461000001873,['n'],1,right,['1'],6,0.23572189999867987,,,20,19,Vrouw,Rechts,1,
,dotcolour,dotcolour,xotask,1,4,241,541,main,positivefb,-99,hard,39,1.4675704000001133,['c'],0,right,['2'],5,0.5446345000000292,,,20,19,Vrouw,Rechts,1,
,dotcolour,dotcolour,xotask,2,4,242,542,main,positivefb,-99,easy,61,0.6166183000004821,['c'],1,left,['1'],6,0.17927720000079717,,,20,19,Vrouw,Rechts,1,
,dotcolour,dotcolour,xotask,3,4,243,543,main,positivefb,-99,average,53,0.5838184999993246,['c'],1,left,['1'],6,0.28620299999965937,,,20,19,Vrouw,Rechts,1,
,dotcolour,dotcolour,xotask,4,4,244,544,main,positivefb,-99,easy,19,0.5670398000002024,['n'],1,right,['1'],6,0.16475100000025122,,,20,19,Vrouw,Rechts,1,
,dotcolour,dotcolour,xotask,5,4,245,545,main,positivefb,-99,easy,63,0.6011564000000362,['c'],1,left,['1'],6,0.17485619999933988,,,20,19,Vrouw,Rechts,1,
,dotcolour,dotcolour,xotask,6,4,246,546,main,positivefb,-99,easy,19,0.5829864000006637,['n'],1,right,['1'],6,0.1853038999997807,,,20,19,Vrouw,Rechts,1,
,dotcolour,dotcolour,xotask,7,4,247,547,main,positivefb,-99,hard,43,1.7507848999994167,['c'],1,left,['3'],4,0.6207479999993666,,,20,19,Vrouw,Rechts,1,
,dotcolour,dotcolour,xotask,8,4,248,548,main,positivefb,-99,easy,19,0.9844283000002179,['n'],1,right,['1'],6,0.28544289999990724,,,20,19,Vrouw,Rechts,1,
,dotcolour,dotcolour,xotask,9,4,249,549,main,positivefb,-99,easy,65,0.9335700000010547,['c'],1,left,['1'],6,0.10110320000057982,,,20,19,Vrouw,Rechts,1,
,dotcolour,dotcolour,xotask,10,4,250,550,main,positivefb,-99,average,51,0.6685622999993939,['c'],1,left,['1'],6,0.19103809999978694,,,20,19,Vrouw,Rechts,1,
,dotcolour,dotcolour,xotask,11,4,251,551,main,positivefb,-99,easy,17,0.7176438000005874,['n'],1,right,['1'],6,0.20343959999991057,,,20,19,Vrouw,Rechts,1,
,dotcolour,dotcolour,xotask,12,4,252,552,main,positivefb,-99,average,27,0.7670161000005464,['n'],1,right,['1'],6,0.1897462999986601,,,20,19,Vrouw,Rechts,1,
,dotcolour,dotcolour,xotask,13,4,253,553,main,positivefb,-99,hard,35,1.700668899999073,['n'],1,right,['3'],4,1.4910884000000806,,,20,19,Vrouw,Rechts,1,
,dotcolour,dotcolour,xotask,14,4,254,554,main,positivefb,-99,easy,18,0.834983500000817,['n'],1,right,['1'],6,0.26350209999873186,,,20,19,Vrouw,Rechts,1,
,dotcolour,dotcolour,xotask,15,4,255,555,main,positivefb,-99,hard,45,1.134041100000104,['c'],1,left,['1'],6,0.17711320000125852,,,20,19,Vrouw,Rechts,1,
,dotcolour,dotcolour,xotask,16,4,256,556,main,positivefb,-99,average,25,0.8177906999990228,['n'],1,right,['1'],6,0.25816370000029565,,,20,19,Vrouw,Rechts,1,
,dotcolour,dotcolour,xotask,17,4,257,557,main,positivefb,-99,average,29,0.6180447999995522,['n'],1,right,['1'],6,0.11969680000038352,,,20,19,Vrouw,Rechts,1,
,dotcolour,dotcolour,xotask,18,4,258,558,main,positivefb,-99,average,52,0.8339602000014565,['c'],1,left,['1'],6,0.1468339000002743,,,20,19,Vrouw,Rechts,1,
,dotcolour,dotcolour,xotask,19,4,259,559,main,positivefb,-99,hard,35,2.250488800000312,['c'],0,right,['3'],4,0.5719563000002381,,,20,19,Vrouw,Rechts,1,
,dotcolour,dotcolour,xotask,20,4,260,560,main,positivefb,-99,average,27,0.8174380999989808,['n'],1,right,['1'],6,0.1568847000016831,,,20,19,Vrouw,Rechts,1,
,dotcolour,dotcolour,xotask,21,4,261,561,main,positivefb,-99,average,25,0.5676060999994661,['n'],1,right,['1'],6,0.20139150000068184,,,20,19,Vrouw,Rechts,1,
,dotcolour,dotcolour,xotask,22,4,262,562,main,positivefb,-99,hard,36,1.567054899998766,['c'],0,right,['2'],5,0.9312576000011177,,,20,19,Vrouw,Rechts,1,
,dotcolour,dotcolour,xotask,23,4,263,563,main,positivefb,-99,easy,18,0.6348061999997299,['n'],1,right,['1'],6,0.1414186999991216,,,20,19,Vrouw,Rechts,1,
,dotcolour,dotcolour,xotask,24,4,264,564,main,positivefb,-99,easy,19,0.7338376000006974,['n'],1,right,['1'],6,0.17178179999973509,,,20,19,Vrouw,Rechts,1,
,dotcolour,dotcolour,xotask,25,4,265,565,main,positivefb,-99,hard,41,0.5341416999999637,['n'],0,left,['9'],2,2.096194199999445,,,20,19,Vrouw,Rechts,1,
,dotcolour,dotcolour,xotask,26,4,266,566,main,positivefb,-99,average,29,1.665965000000142,['n'],1,right,['2'],5,0.9475598000008176,,,20,19,Vrouw,Rechts,1,
,dotcolour,dotcolour,xotask,27,4,267,567,main,positivefb,-99,hard,43,1.267987400000493,['c'],1,left,['2'],5,1.2114038999989134,,,20,19,Vrouw,Rechts,1,
,dotcolour,dotcolour,xotask,28,4,268,568,main,positivefb,-99,easy,62,0.7512303999992582,['c'],1,left,['1'],6,0.19817830000101821,,,20,19,Vrouw,Rechts,1,
,dotcolour,dotcolour,xotask,29,4,269,569,main,positivefb,-99,hard,38,0.8175532999994175,['n'],1,right,['1'],6,0.5985940999999002,,,20,19,Vrouw,Rechts,1,
,dotcolour,dotcolour,xotask,30,4,270,570,main,positivefb,-99,hard,37,0.8177220999987185,['n'],1,right,['1'],6,0.1988865999992413,,,20,19,Vrouw,Rechts,1,
,dotcolour,dotcolour,xotask,31,4,271,571,main,positivefb,-99,average,29,1.767107900001065,['n'],1,right,['2'],5,2.0887165000003733,,,20,19,Vrouw,Rechts,1,
,dotcolour,dotcolour,xotask,32,4,272,572,main,positivefb,-99,average,53,0.7682413999991695,['c'],1,left,['1'],6,0.6070008000006055,,,20,19,Vrouw,Rechts,1,
,dotcolour,dotcolour,xotask,33,4,273,573,main,positivefb,-99,easy,65,0.8013310000005731,['c'],1,left,['1'],6,0.21526230000017677,,,20,19,Vrouw,Rechts,1,
,dotcolour,dotcolour,xotask,34,4,274,574,main,positivefb,-99,easy,62,0.5838686000006419,['c'],1,left,['1'],6,0.25573609999992186,,,20,19,Vrouw,Rechts,1,
,dotcolour,dotcolour,xotask,35,4,275,575,main,positivefb,-99,average,26,1.1172872999995889,['n'],1,right,['1'],6,0.3461786000007123,,,20,19,Vrouw,Rechts,1,
,dotcolour,dotcolour,xotask,36,4,276,576,main,positivefb,-99,easy,18,0.5178387999985716,['n'],1,right,['1'],6,0.2565936999999394,,,20,19,Vrouw,Rechts,1,
,dotcolour,dotcolour,xotask,37,4,277,577,main,positivefb,-99,average,53,0.9002008000006754,['c'],1,left,['1'],6,0.1795614000002388,,,20,19,Vrouw,Rechts,1,
,dotcolour,dotcolour,xotask,38,4,278,578,main,positivefb,-99,easy,61,0.684136199999557,['c'],1,left,['1'],6,0.13802580000083253,,,20,19,Vrouw,Rechts,1,
,dotcolour,dotcolour,xotask,39,4,279,579,main,positivefb,-99,easy,63,0.7347720999987359,['c'],1,left,['1'],6,0.9127031000007264,,,20,19,Vrouw,Rechts,1,
,dotcolour,dotcolour,xotask,40,4,280,580,main,positivefb,-99,hard,43,1.6839796999993268,['n'],0,left,['2'],5,0.7854459999998653,,,20,19,Vrouw,Rechts,1,
,dotcolour,dotcolour,xotask,41,4,281,581,main,positivefb,-99,hard,36,0.8854953000009118,['n'],1,right,['1'],6,0.25589209999998275,,,20,19,Vrouw,Rechts,1,
,dotcolour,dotcolour,xotask,42,4,282,582,main,positivefb,-99,hard,35,2.451214799999434,['n'],1,right,['3'],4,0.5484775000004447,,,20,19,Vrouw,Rechts,1,
,dotcolour,dotcolour,xotask,43,4,283,583,main,positivefb,-99,easy,63,0.6843632999989495,['c'],1,left,['1'],6,0.0915872000005038,,,20,19,Vrouw,Rechts,1,
,dotcolour,dotcolour,xotask,44,4,284,584,main,positivefb,-99,average,53,0.5839694999995118,['c'],1,left,['1'],6,0.13042940000013914,,,20,19,Vrouw,Rechts,1,
,dotcolour,dotcolour,xotask,45,4,285,585,main,positivefb,-99,average,54,0.5344490999996196,['c'],1,left,['1'],6,0.16898629999923287,,,20,19,Vrouw,Rechts,1,
,dotcolour,dotcolour,xotask,46,4,286,586,main,positivefb,-99,average,53,0.55012859999988,['c'],1,left,['1'],6,0.14022290000139037,,,20,19,Vrouw,Rechts,1,
,dotcolour,dotcolour,xotask,47,4,287,587,main,positivefb,-99,hard,44,0.9010555000004388,['c'],1,left,['1'],6,0.1405692000007548,,,20,19,Vrouw,Rechts,1,
,dotcolour,dotcolour,xotask,48,4,288,588,main,positivefb,-99,average,54,0.7494671000004018,['c'],1,left,['1'],6,0.18578749999869615,,,20,19,Vrouw,Rechts,1,
,dotcolour,dotcolour,xotask,49,4,289,589,main,positivefb,-99,easy,63,0.6004450999989785,['c'],1,left,['1'],6,0.15513800000007905,,,20,19,Vrouw,Rechts,1,
,dotcolour,dotcolour,xotask,50,4,290,590,main,positivefb,-99,hard,43,1.3662925999997242,['c'],1,left,['1'],6,0.07933570000022883,,,20,19,Vrouw,Rechts,1,
,dotcolour,dotcolour,xotask,51,4,291,591,main,positivefb,-99,hard,44,0.9835430000002816,['c'],1,left,['2'],5,0.8139737999990757,,,20,19,Vrouw,Rechts,1,
,dotcolour,dotcolour,xotask,52,4,292,592,main,positivefb,-99,average,28,0.8679062999999587,['n'],1,right,['1'],6,0.2681014000008872,,,20,19,Vrouw,Rechts,1,
,dotcolour,dotcolour,xotask,53,4,293,593,main,positivefb,-99,hard,41,3.466624300001058,['n'],0,left,['3'],4,0.6713921999999002,,,20,19,Vrouw,Rechts,1,
,dotcolour,dotcolour,xotask,54,4,294,594,main,positivefb,-99,hard,39,0.7494773999987956,['n'],1,right,['1'],6,0.9354423999993742,,,20,19,Vrouw,Rechts,1,
,dotcolour,dotcolour,xotask,55,4,295,595,main,positivefb,-99,easy,18,0.4994942000012088,['n'],1,right,['1'],6,0.15073689999917406,,,20,19,Vrouw,Rechts,1,
,dotcolour,dotcolour,xotask,56,4,296,596,main,positivefb,-99,hard,37,0.9333912000001874,['n'],1,right,['1'],6,0.20402429999921878,,,20,19,Vrouw,Rechts,1,
,dotcolour,dotcolour,xotask,57,4,297,597,main,positivefb,-99,average,29,0.9839461000010488,['n'],1,right,['1'],6,0.18929519999983313,,,20,19,Vrouw,Rechts,1,
,dotcolour,dotcolour,xotask,58,4,298,598,main,positivefb,-99,hard,41,1.0005051999996795,['n'],0,left,['1'],6,0.17476999999962572,,,20,19,Vrouw,Rechts,1,
,dotcolour,dotcolour,xotask,59,4,299,599,main,positivefb,-99,average,51,0.8007887000003393,['c'],1,left,['1'],6,0.23285390000091866,,,20,19,Vrouw,Rechts,1,
,dotcolour,dotcolour,xotask,0,0,0,600,training,positivefb,86,average,28,1.4505341999993107,['n'],1,right,['1'],6,1.5700852000009036,,,20,19,Vrouw,Rechts,1,
,dotcolour,dotcolour,xotask,1,0,1,601,training,positivefb,94,average,29,0.6345229999988078,['n'],1,right,['1'],6,0.14521150000109628,,,20,19,Vrouw,Rechts,1,
,dotcolour,dotcolour,xotask,2,0,2,602,training,positivefb,98,average,28,0.49943619999976363,['n'],1,right,['1'],6,0.14405620000070485,,,20,19,Vrouw,Rechts,1,
,dotcolour,dotcolour,xotask,3,0,3,603,training,positivefb,83,easy,16,0.5492119999998977,['n'],1,right,['1'],6,0.13999930000136374,,,20,19,Vrouw,Rechts,1,
,dotcolour,dotcolour,xotask,4,0,4,604,training,positivefb,87,average,51,0.7680731000000378,['c'],1,left,['1'],6,0.2571334000003844,,,20,19,Vrouw,Rechts,1,
,dotcolour,dotcolour,xotask,5,0,5,605,training,positivefb,80,easy,17,0.4668619000003673,['n'],1,right,['1'],6,0.22814819999985048,,,20,19,Vrouw,Rechts,1,
,dotcolour,dotcolour,xotask,6,0,6,606,training,positivefb,89,hard,43,0.8675569999995787,['c'],1,left,['1'],6,0.08853869999984454,,,20,19,Vrouw,Rechts,1,
,dotcolour,dotcolour,xotask,7,0,7,607,training,positivefb,87,hard,38,0.6345253999988927,['n'],1,right,['1'],6,0.18021240000052785,,,20,19,Vrouw,Rechts,1,
,dotcolour,dotcolour,xotask,8,0,8,608,training,positivefb,98,average,51,0.7500516000000061,['c'],1,left,['2'],5,0.6713297000005696,,,20,19,Vrouw,Rechts,1,
,dotcolour,dotcolour,xotask,9,0,9,609,training,positivefb,91,average,28,1.3826993999991828,['n'],1,right,['1'],6,0.33360670000001846,,,20,19,Vrouw,Rechts,1,
,dotcolour,dotcolour,xotask,10,0,10,610,training,positivefb,86,easy,18,0.583061600000292,['n'],1,right,['1'],6,0.14513029999943683,,,20,19,Vrouw,Rechts,1,
,dotcolour,dotcolour,xotask,11,0,11,611,training,positivefb,99,easy,18,0.5837420000007114,['n'],1,right,['1'],6,0.17980340000030992,,,20,19,Vrouw,Rechts,1,
,dotcolour,dotcolour,xotask,12,0,12,612,training,positivefb,87,easy,61,0.6828149000011763,['c'],1,left,['1'],6,0.20180600000094273,,,20,19,Vrouw,Rechts,1,
,dotcolour,dotcolour,xotask,13,0,13,613,training,positivefb,90,hard,45,0.8667465999988053,['c'],1,left,['1'],6,0.09549590000096941,,,20,19,Vrouw,Rechts,1,
,dotcolour,dotcolour,xotask,14,0,14,614,training,positivefb,73,hard,37,2.599891199999547,['c'],0,right,['3'],4,0.4925463999989006,,,20,19,Vrouw,Rechts,1,
,dotcolour,dotcolour,xotask,15,0,15,615,training,positivefb,99,easy,17,0.7002248000007967,['n'],1,right,['1'],6,0.23674789999859058,,,20,19,Vrouw,Rechts,1,
,dotcolour,dotcolour,xotask,16,0,16,616,training,positivefb,96,average,28,0.8663655999989714,['n'],1,right,['1'],6,0.28057949999856646,,,20,19,Vrouw,Rechts,1,
,dotcolour,dotcolour,xotask,17,0,17,617,training,positivefb,94,average,28,0.7167301999998017,['n'],1,right,['1'],6,0.1688570999995136,,,20,19,Vrouw,Rechts,1,
,dotcolour,dotcolour,xotask,18,0,18,618,training,positivefb,97,hard,39,1.1333233000004839,['n'],1,right,['1'],6,0.23659310000039113,,,20,19,Vrouw,Rechts,1,
,dotcolour,dotcolour,xotask,19,0,19,619,training,positivefb,88,average,29,0.6162937000008242,['n'],1,right,['1'],6,0.30674269999872195,,,20,19,Vrouw,Rechts,1,
,dotcolour,dotcolour,xotask,20,0,20,620,training,positivefb,97,easy,62,0.6997661999994307,['c'],1,left,['1'],6,1.0666505000008328,,,20,19,Vrouw,Rechts,1,
,dotcolour,dotcolour,xotask,21,0,21,621,training,positivefb,93,average,55,0.6663678000004438,['c'],1,left,['1'],6,0.14969849999943108,,,20,19,Vrouw,Rechts,1,
,dotcolour,dotcolour,xotask,22,0,22,622,training,positivefb,97,easy,64,0.5495346000006975,['c'],1,left,['1'],6,0.13814760000059323,,,20,19,Vrouw,Rechts,1,
,dotcolour,dotcolour,xotask,23,0,23,623,training,positivefb,99,easy,61,0.4995515000009618,['c'],1,left,['1'],6,0.2164435999984562,,,20,19,Vrouw,Rechts,1,
,dotcolour,dotcolour,xotask,24,0,24,624,training,positivefb,94,average,51,0.4665454999994836,['c'],1,left,['1'],6,0.1734409999990021,,,20,19,Vrouw,Rechts,1,
,dotcolour,dotcolour,xotask,25,0,25,625,training,positivefb,52,average,51,0.7671019999997952,['c'],1,left,['1'],6,0.5915513999989344,,,20,19,Vrouw,Rechts,1,
,dotcolour,dotcolour,xotask,26,0,26,626,training,positivefb,99,easy,62,0.5007980999998836,['c'],1,left,['1'],6,0.1569445999994059,,,20,19,Vrouw,Rechts,1,
,dotcolour,dotcolour,xotask,27,0,27,627,training,positivefb,81,hard,35,0.7508746000003157,['n'],1,right,['1'],6,0.12075219999860565,,,20,19,Vrouw,Rechts,1,
,dotcolour,dotcolour,xotask,28,0,28,628,training,positivefb,98,easy,16,0.6341666000007535,['n'],1,right,['1'],6,0.11455489999934798,,,20,19,Vrouw,Rechts,1,
,dotcolour,dotcolour,xotask,29,0,29,629,training,positivefb,72,hard,35,1.9346129000005021,['c'],0,right,['3'],4,0.6491107000001648,,,20,19,Vrouw,Rechts,1,
,dotcolour,dotcolour,xotask,30,0,30,630,training,positivefb,89,easy,17,1.699701499999719,['n'],1,right,['1'],6,0.25065790000007837,,,20,19,Vrouw,Rechts,1,
,dotcolour,dotcolour,xotask,31,0,31,631,training,positivefb,75,hard,38,2.517972900001041,['c'],0,right,['2'],5,0.37963830000080634,,,20,19,Vrouw,Rechts,1,
,dotcolour,dotcolour,xotask,32,0,32,632,training,positivefb,92,average,26,0.9013938999996753,['n'],1,right,['1'],6,0.15316359999997076,,,20,19,Vrouw,Rechts,1,
,dotcolour,dotcolour,xotask,33,0,33,633,training,positivefb,84,hard,45,0.8825551000009,['c'],1,left,['1'],6,0.08771060000071884,,,20,19,Vrouw,Rechts,1,
,dotcolour,dotcolour,xotask,34,0,34,634,training,positivefb,78,average,52,1.4839990999989823,['c'],1,left,['1'],6,0.19331360000069253,,,20,19,Vrouw,Rechts,1,
,dotcolour,dotcolour,xotask,35,0,35,635,training,positivefb,94,easy,63,0.6669124000000011,['c'],1,left,['1'],6,0.1760751000001619,,,20,19,Vrouw,Rechts,1,
,dotcolour,dotcolour,xotask,36,0,36,636,training,positivefb,67,hard,38,1.050843499999246,['n'],1,right,['1'],6,0.902548600000955,,,20,19,Vrouw,Rechts,1,
,dotcolour,dotcolour,xotask,37,0,37,637,training,positivefb,98,easy,65,0.6170761000012135,['c'],1,left,['1'],6,0.13047610000103305,,,20,19,Vrouw,Rechts,1,
,dotcolour,dotcolour,xotask,38,0,38,638,training,positivefb,95,hard,43,0.8827203999990161,['c'],1,left,['1'],6,0.12280119999923045,,,20,19,Vrouw,Rechts,1,
,dotcolour,dotcolour,xotask,39,0,39,639,training,positivefb,89,hard,41,2.333123799999157,['c'],1,left,['3'],4,0.44817650000004505,,,20,19,Vrouw,Rechts,1,
,dotcolour,dotcolour,xotask,40,0,40,640,training,positivefb,97,average,27,0.8666056000001845,['n'],1,right,['1'],6,0.22776860000158194,,,20,19,Vrouw,Rechts,1,
,dotcolour,dotcolour,xotask,41,0,41,641,training,positivefb,90,hard,37,0.9499457000001712,['c'],0,right,['1'],6,0.1407509000000573,,,20,19,Vrouw,Rechts,1,
,dotcolour,dotcolour,xotask,42,0,42,642,training,positivefb,88,easy,17,0.7500369999997929,['n'],1,right,['1'],6,0.17803519999870332,,,20,19,Vrouw,Rechts,1,
,dotcolour,dotcolour,xotask,43,0,43,643,training,positivefb,95,average,55,0.5999219000004814,['c'],1,left,['1'],6,0.04258500000105414,,,20,19,Vrouw,Rechts,1,
,dotcolour,dotcolour,xotask,44,0,44,644,training,positivefb,95,easy,65,0.7674360999990313,['c'],1,left,['1'],6,0.1469292999991012,,,20,19,Vrouw,Rechts,1,
,dotcolour,dotcolour,xotask,45,0,45,645,training,positivefb,93,average,25,0.6166560000001482,['n'],1,right,['1'],6,0.141024100001232,,,20,19,Vrouw,Rechts,1,
,dotcolour,dotcolour,xotask,46,0,46,646,training,positivefb,92,hard,37,0.6664945000011357,['n'],1,right,['1'],6,0.10893790000045556,,,20,19,Vrouw,Rechts,1,
,dotcolour,dotcolour,xotask,47,0,47,647,training,positivefb,98,hard,41,0.7009965000015654,['c'],1,left,['1'],6,0.861411699999735,,,20,19,Vrouw,Rechts,1,
,dotcolour,dotcolour,xotask,48,0,48,648,training,positivefb,82,easy,19,0.6671642999990581,['c'],0,right,['1'],6,0.2561201999997138,,,20,19,Vrouw,Rechts,1,
,dotcolour,dotcolour,xotask,49,0,49,649,training,positivefb,96,hard,44,0.8163060000006226,['c'],1,left,['1'],6,0.4932186999994883,,,20,19,Vrouw,Rechts,1,
