starttime,task,fbtask,firsttask,withinblocktrial,block,withintasktrial,trial,running,feedback,fbscore,difflevel,reddots,rt,resp,cor,cresp,conf_press,cj,RTconf,n_xes,stoptime,sub,age,gender,handedness,session,
1714978791,dotcolour,dotcolour,xotask,0,0,0,0,training,positivefb,93,average,28,2.2506186000000525,['n'],1,right,['3'],3,3.8797139000000698,,,12,18,Vrouw,Rechts,1,
,dotcolour,dotcolour,xotask,1,0,1,1,training,positivefb,97,easy,16,1.5335062000001471,['n'],1,right,['8'],4,2.326772099999971,,,12,18,Vrouw,Rechts,1,
,dotcolour,dotcolour,xotask,2,0,2,2,training,positivefb,79,average,29,1.6670136000000184,['n'],1,right,['8'],4,0.8543650999999954,,,12,18,Vrouw,Rechts,1,
,dotcolour,dotcolour,xotask,3,0,3,3,training,positivefb,93,average,55,2.0178613999999016,['c'],1,left,['9'],5,1.5718693999999687,,,12,18,Vrouw,Rechts,1,
,dotcolour,dotcolour,xotask,4,0,4,4,training,positivefb,4,easy,64,2.5833949000000302,['n'],0,left,['8'],4,2.5014878000001772,,,12,18,Vrouw,Rechts,1,
,dotcolour,dotcolour,xotask,5,0,5,5,training,positivefb,100,easy,15,0.8839505000000827,['n'],1,right,['0'],6,0.8214703000001009,,,12,18,Vrouw,Rechts,1,
,dotcolour,dotcolour,xotask,6,0,6,6,training,positivefb,85,average,25,1.76688809999996,['n'],1,right,['9'],5,0.5900836999999228,,,12,18,Vrouw,Rechts,1,
,dotcolour,dotcolour,xotask,7,0,7,7,training,positivefb,82,hard,44,1.8831451000000925,['n'],0,left,['0'],6,0.315058800000088,,,12,18,Vrouw,Rechts,1,
,dotcolour,dotcolour,xotask,8,0,8,8,training,positivefb,79,easy,65,1.4485541999999896,['c'],1,left,['0'],6,0.8920232000000397,,,12,18,Vrouw,Rechts,1,
,dotcolour,dotcolour,xotask,9,0,9,9,training,positivefb,60,hard,45,1.1342062000001079,['n'],0,left,['0'],6,0.475687999999991,,,12,18,Vrouw,Rechts,1,
,dotcolour,dotcolour,xotask,10,0,10,10,training,positivefb,94,easy,17,1.0994178999999349,['n'],1,right,['0'],6,0.31705809999994017,,,12,18,Vrouw,Rechts,1,
,dotcolour,dotcolour,xotask,11,0,11,11,training,positivefb,96,average,53,1.1329070000001593,['c'],1,left,['8'],4,1.0594303999998829,,,12,18,Vrouw,Rechts,1,
,dotcolour,dotcolour,xotask,12,0,12,12,training,positivefb,98,average,55,0.7998866000000362,['c'],1,left,['9'],5,0.6252594000000045,,,12,18,Vrouw,Rechts,1,
,dotcolour,dotcolour,xotask,13,0,13,13,training,positivefb,86,easy,63,1.1338206999998874,['c'],1,left,['9'],5,0.2915736999998444,,,12,18,Vrouw,Rechts,1,
,dotcolour,dotcolour,xotask,14,0,14,14,training,positivefb,86,average,27,1.0838008000000627,['n'],1,right,['9'],5,0.45280700000012075,,,12,18,Vrouw,Rechts,1,
,dotcolour,dotcolour,xotask,15,0,15,15,training,positivefb,51,hard,42,2.0341977000000497,['n'],0,left,['8'],4,1.737682199999881,,,12,18,Vrouw,Rechts,1,
,dotcolour,dotcolour,xotask,16,0,16,16,training,positivefb,92,average,52,1.4004001999999218,['c'],1,left,['0'],6,0.6037240999999085,,,12,18,Vrouw,Rechts,1,
,dotcolour,dotcolour,xotask,17,0,17,17,training,positivefb,68,hard,42,1.4999940000000151,['n'],0,left,['9'],5,0.655696700000135,,,12,18,Vrouw,Rechts,1,
,dotcolour,dotcolour,xotask,18,0,18,18,training,positivefb,95,easy,62,0.9162395999999262,['c'],1,left,['0'],6,0.3531120000000101,,,12,18,Vrouw,Rechts,1,
,dotcolour,dotcolour,xotask,19,0,19,19,training,positivefb,94,hard,36,1.6167946000000484,['n'],1,right,['3'],3,1.1223201999998764,,,12,18,Vrouw,Rechts,1,
,dotcolour,dotcolour,xotask,20,0,20,20,training,positivefb,72,hard,39,1.7498447999998916,['n'],1,right,['8'],4,0.3517117999999755,,,12,18,Vrouw,Rechts,1,
,dotcolour,dotcolour,xotask,21,0,21,21,training,positivefb,92,average,26,0.833321000000069,['n'],1,right,['0'],6,0.2563964000000851,,,12,18,Vrouw,Rechts,1,
,dotcolour,dotcolour,xotask,22,0,22,22,training,positivefb,90,easy,62,1.1003137999998671,['c'],1,left,['0'],6,0.3144142999999531,,,12,18,Vrouw,Rechts,1,
,dotcolour,dotcolour,xotask,23,0,23,23,training,positivefb,90,average,26,0.900762499999928,['n'],1,right,['0'],6,0.24937309999995705,,,12,18,Vrouw,Rechts,1,
,dotcolour,dotcolour,xotask,24,0,24,24,training,positivefb,92,hard,37,1.5842093999999634,['c'],0,right,['3'],3,0.8893070000001444,,,12,18,Vrouw,Rechts,1,
,dotcolour,dotcolour,xotask,25,0,25,25,training,positivefb,88,average,53,1.066959499999939,['c'],1,left,['9'],5,0.6116223999999875,,,12,18,Vrouw,Rechts,1,
,dotcolour,dotcolour,xotask,26,0,26,26,training,positivefb,96,easy,17,0.8996835000000374,['n'],1,right,['0'],6,0.2711778999998842,,,12,18,Vrouw,Rechts,1,
,dotcolour,dotcolour,xotask,27,0,27,27,training,positivefb,58,hard,41,1.2172445000001062,['n'],0,left,['8'],4,0.5078214000000116,,,12,18,Vrouw,Rechts,1,
,dotcolour,dotcolour,xotask,28,0,28,28,training,positivefb,79,average,53,0.8505891999998312,['c'],1,left,['9'],5,0.5899504999999863,,,12,18,Vrouw,Rechts,1,
,dotcolour,dotcolour,xotask,29,0,29,29,training,positivefb,76,hard,42,1.0836578999999347,['c'],1,left,['0'],6,0.24306469999987712,,,12,18,Vrouw,Rechts,1,
,dotcolour,dotcolour,xotask,30,0,30,30,training,positivefb,96,average,26,1.0169652999998107,['n'],1,right,['8'],4,0.8332679999998618,,,12,18,Vrouw,Rechts,1,
,dotcolour,dotcolour,xotask,31,0,31,31,training,positivefb,87,hard,36,0.9841928000000735,['n'],1,right,['0'],6,0.30466500000011365,,,12,18,Vrouw,Rechts,1,
,dotcolour,dotcolour,xotask,32,0,32,32,training,positivefb,91,hard,42,1.300098700000035,['n'],0,left,['9'],5,0.43218690000003335,,,12,18,Vrouw,Rechts,1,
,dotcolour,dotcolour,xotask,33,0,33,33,training,positivefb,59,average,29,1.6332445999998981,['n'],1,right,['9'],5,0.2859788999999182,,,12,18,Vrouw,Rechts,1,
,dotcolour,dotcolour,xotask,34,0,34,34,training,positivefb,93,hard,36,0.9332659000001513,['n'],1,right,['9'],5,0.17336070000010295,,,12,18,Vrouw,Rechts,1,
,dotcolour,dotcolour,xotask,35,0,35,35,training,positivefb,95,hard,37,0.5995153999999729,['n'],1,right,['9'],5,0.1503514000000905,,,12,18,Vrouw,Rechts,1,
,dotcolour,dotcolour,xotask,36,0,36,36,training,positivefb,91,hard,38,0.8668317999999999,['n'],1,right,['9'],5,0.16603009999994356,,,12,18,Vrouw,Rechts,1,
,dotcolour,dotcolour,xotask,37,0,37,37,training,positivefb,96,easy,61,0.7843282999999701,['c'],1,left,['9'],5,0.1359201000000212,,,12,18,Vrouw,Rechts,1,
,dotcolour,dotcolour,xotask,38,0,38,38,training,positivefb,96,average,54,0.8339307999999619,['c'],1,left,['0'],6,0.10530919999996513,,,12,18,Vrouw,Rechts,1,
,dotcolour,dotcolour,xotask,39,0,39,39,training,positivefb,80,hard,41,2.0000433000000157,['n'],0,left,['8'],4,0.4938615999999456,,,12,18,Vrouw,Rechts,1,
,dotcolour,dotcolour,xotask,40,0,40,40,training,positivefb,85,hard,44,0.9494134000001395,['c'],1,left,['0'],6,0.7800982000001113,,,12,18,Vrouw,Rechts,1,
,dotcolour,dotcolour,xotask,41,0,41,41,training,positivefb,99,average,52,1.0842317000001458,['c'],1,left,['8'],4,0.5859610999998495,,,12,18,Vrouw,Rechts,1,
,dotcolour,dotcolour,xotask,42,0,42,42,training,positivefb,89,easy,61,0.8342115999998896,['c'],1,left,['0'],6,0.5453290000000379,,,12,18,Vrouw,Rechts,1,
,dotcolour,dotcolour,xotask,43,0,43,43,training,positivefb,93,easy,16,1.0506212999998752,['n'],1,right,['0'],6,0.34607180000011795,,,12,18,Vrouw,Rechts,1,
,dotcolour,dotcolour,xotask,44,0,44,44,training,positivefb,86,average,53,0.8009388000000399,['c'],1,left,['9'],5,0.3328197999999247,,,12,18,Vrouw,Rechts,1,
,dotcolour,dotcolour,xotask,45,0,45,45,training,positivefb,43,hard,44,0.9336702000000514,['c'],1,left,['9'],5,1.1457856000001811,,,12,18,Vrouw,Rechts,1,
,dotcolour,dotcolour,xotask,46,0,46,46,training,positivefb,92,easy,64,0.767698399999972,['c'],1,left,['0'],6,0.2220615999999609,,,12,18,Vrouw,Rechts,1,
,dotcolour,dotcolour,xotask,47,0,47,47,training,positivefb,95,easy,16,0.9498919000000114,['n'],1,right,['0'],6,0.17580440000006092,,,12,18,Vrouw,Rechts,1,
,dotcolour,dotcolour,xotask,48,0,48,48,training,positivefb,95,hard,35,0.8171419999998761,['n'],1,right,['0'],6,0.12009069999999156,,,12,18,Vrouw,Rechts,1,
,dotcolour,dotcolour,xotask,49,0,49,49,training,positivefb,94,hard,37,0.6342662999998083,['n'],1,right,['0'],6,0.1782544999998663,,,12,18,Vrouw,Rechts,1,
,dotcolour,dotcolour,xotask,50,0,50,50,training,positivefb,98,easy,17,0.4666733000001386,['n'],1,right,['0'],6,0.20880140000008396,,,12,18,Vrouw,Rechts,1,
,dotcolour,dotcolour,xotask,51,0,51,51,training,positivefb,96,easy,62,0.7674662000001717,['c'],1,left,['9'],5,0.322733400000061,,,12,18,Vrouw,Rechts,1,
,dotcolour,dotcolour,xotask,52,0,52,52,training,positivefb,92,easy,18,0.8012688000001162,['n'],1,right,['0'],6,0.13344729999994343,,,12,18,Vrouw,Rechts,1,
,dotcolour,dotcolour,xotask,53,0,53,53,training,positivefb,95,average,25,0.9341578000000936,['n'],1,right,['0'],6,0.10671330000013768,,,12,18,Vrouw,Rechts,1,
,dotcolour,dotcolour,xotask,54,0,54,54,training,positivefb,98,average,29,0.500583000000006,['n'],1,right,['0'],6,0.1710989000000609,,,12,18,Vrouw,Rechts,1,
,dotcolour,dotcolour,xotask,55,0,55,55,training,positivefb,99,easy,19,0.4004549000001134,['n'],1,right,['0'],6,0.13221810000004552,,,12,18,Vrouw,Rechts,1,
,dotcolour,dotcolour,xotask,56,0,56,56,training,positivefb,99,hard,37,0.3672704000000522,['n'],1,right,['0'],6,0.12825420000012855,,,12,18,Vrouw,Rechts,1,
,dotcolour,dotcolour,xotask,57,0,57,57,training,positivefb,80,easy,61,0.7333920000000944,['c'],1,left,['0'],6,0.3663291999998819,,,12,18,Vrouw,Rechts,1,
,dotcolour,dotcolour,xotask,58,0,58,58,training,positivefb,94,average,52,0.8494631000000936,['c'],1,left,['8'],4,0.5737228999998933,,,12,18,Vrouw,Rechts,1,
,dotcolour,dotcolour,xotask,59,0,59,59,training,positivefb,97,easy,17,0.6502517999999782,['n'],1,right,['0'],6,0.1329436999999416,,,12,18,Vrouw,Rechts,1,
,dotcolour,dotcolour,xotask,0,1,60,60,training,positivefb,87,average,51,1.2993744000000333,['c'],1,left,['0'],6,0.6607903999999962,,,12,18,Vrouw,Rechts,1,
,dotcolour,dotcolour,xotask,1,1,61,61,training,positivefb,91,easy,15,0.6005538000001707,['n'],1,right,['0'],6,0.14687500000013642,,,12,18,Vrouw,Rechts,1,
,dotcolour,dotcolour,xotask,2,1,62,62,training,positivefb,64,hard,35,1.800908900000195,['c'],0,right,['3'],3,0.9335969999999634,,,12,18,Vrouw,Rechts,1,
,dotcolour,dotcolour,xotask,3,1,63,63,training,positivefb,51,average,51,1.3507691999998315,['n'],0,left,['1'],1,1.0985266000000138,,,12,18,Vrouw,Rechts,1,
,dotcolour,dotcolour,xotask,4,1,64,64,training,positivefb,98,average,29,0.6330613000000085,['n'],1,right,['0'],6,0.18109150000009322,,,12,18,Vrouw,Rechts,1,
,dotcolour,dotcolour,xotask,5,1,65,65,training,positivefb,90,easy,62,0.7679728000000523,['c'],1,left,['0'],6,0.2634396000000834,,,12,18,Vrouw,Rechts,1,
,dotcolour,dotcolour,xotask,6,1,66,66,training,positivefb,92,easy,63,0.7176927000000433,['c'],1,left,['0'],6,0.10514379999995072,,,12,18,Vrouw,Rechts,1,
,dotcolour,dotcolour,xotask,7,1,67,67,training,positivefb,94,average,51,0.5160673000000315,['c'],1,left,['0'],6,0.04036909999990712,,,12,18,Vrouw,Rechts,1,
,dotcolour,dotcolour,xotask,8,1,68,68,training,positivefb,85,hard,45,1.9333882999999332,['c'],1,left,['8'],4,0.9858572999999069,,,12,18,Vrouw,Rechts,1,
,dotcolour,dotcolour,xotask,9,1,69,69,training,positivefb,98,easy,62,0.6839496000000054,['c'],1,left,['9'],5,0.4872139999999945,,,12,18,Vrouw,Rechts,1,
,dotcolour,dotcolour,xotask,10,1,70,70,training,positivefb,98,average,55,0.6839654999998857,['c'],1,left,['0'],6,0.2885291000000052,,,12,18,Vrouw,Rechts,1,
,dotcolour,dotcolour,xotask,11,1,71,71,training,positivefb,94,average,51,1.6330470000000332,['c'],1,left,['8'],4,0.5558734999999615,,,12,18,Vrouw,Rechts,1,
,dotcolour,dotcolour,xotask,12,1,72,72,training,positivefb,99,easy,17,0.8673897999999554,['n'],1,right,['0'],6,0.5151438000000326,,,12,18,Vrouw,Rechts,1,
,dotcolour,dotcolour,xotask,13,1,73,73,training,positivefb,76,easy,63,1.1338485000001128,['c'],1,left,['0'],6,0.3455902000000606,,,12,18,Vrouw,Rechts,1,
,dotcolour,dotcolour,xotask,14,1,74,74,training,positivefb,92,average,29,0.9672075000000859,['n'],1,right,['0'],6,0.21327739999992446,,,12,18,Vrouw,Rechts,1,
,dotcolour,dotcolour,xotask,15,1,75,75,training,positivefb,95,easy,15,0.6845608000000993,['n'],1,right,['0'],6,0.2418436999998903,,,12,18,Vrouw,Rechts,1,
,dotcolour,dotcolour,xotask,16,1,76,76,training,positivefb,96,hard,45,1.3834921999998642,['n'],0,left,['8'],4,0.5937017999999625,,,12,18,Vrouw,Rechts,1,
,dotcolour,dotcolour,xotask,17,1,77,77,training,positivefb,93,average,28,0.7328471000000718,['n'],1,right,['0'],6,0.16458179999995082,,,12,18,Vrouw,Rechts,1,
,dotcolour,dotcolour,xotask,18,1,78,78,training,positivefb,93,easy,15,0.5843322999999145,['n'],1,right,['0'],6,0.1913409999999658,,,12,18,Vrouw,Rechts,1,
,dotcolour,dotcolour,xotask,19,1,79,79,training,positivefb,81,easy,17,0.500419200000124,['n'],1,right,['0'],6,0.22033299999998235,,,12,18,Vrouw,Rechts,1,
,dotcolour,dotcolour,xotask,20,1,80,80,training,positivefb,8,hard,41,0.6844688000001042,['n'],0,left,['8'],4,0.6400633000000653,,,12,18,Vrouw,Rechts,1,
,dotcolour,dotcolour,xotask,21,1,81,81,training,positivefb,43,hard,42,1.851085600000033,['c'],1,left,['8'],4,0.8047692000000097,,,12,18,Vrouw,Rechts,1,
,dotcolour,dotcolour,xotask,22,1,82,82,training,positivefb,52,easy,61,0.8826265999998668,['n'],0,left,['1'],1,1.1134471999998823,,,12,18,Vrouw,Rechts,1,
,dotcolour,dotcolour,xotask,23,1,83,83,training,positivefb,88,hard,41,1.7165883000000122,['c'],1,left,['0'],6,0.6886825000001409,,,12,18,Vrouw,Rechts,1,
,dotcolour,dotcolour,xotask,24,1,84,84,training,positivefb,93,average,28,0.683187099999941,['n'],1,right,['0'],6,0.12198989999978949,,,12,18,Vrouw,Rechts,1,
,dotcolour,dotcolour,xotask,25,1,85,85,training,positivefb,93,hard,38,1.0843472999999904,['n'],1,right,['0'],6,0.13817259999996168,,,12,18,Vrouw,Rechts,1,
,dotcolour,dotcolour,xotask,26,1,86,86,training,positivefb,70,average,28,0.732896700000083,['n'],1,right,['0'],6,0.19952119999993556,,,12,18,Vrouw,Rechts,1,
,dotcolour,dotcolour,xotask,27,1,87,87,training,positivefb,96,average,26,0.7009803999999349,['n'],1,right,['8'],4,0.5394977000000836,,,12,18,Vrouw,Rechts,1,
,dotcolour,dotcolour,xotask,28,1,88,88,training,positivefb,89,average,55,0.7336946000000353,['c'],1,left,['0'],6,0.17661910000015268,,,12,18,Vrouw,Rechts,1,
,dotcolour,dotcolour,xotask,29,1,89,89,training,positivefb,86,hard,45,0.765829100000019,['n'],0,left,['8'],4,0.6114400999999816,,,12,18,Vrouw,Rechts,1,
,dotcolour,dotcolour,xotask,30,1,90,90,training,positivefb,93,hard,45,0.6169485999998869,['n'],0,left,['9'],5,0.3628014000000803,,,12,18,Vrouw,Rechts,1,
,dotcolour,dotcolour,xotask,31,1,91,91,training,positivefb,29,average,51,0.667734899999914,['n'],0,left,['1'],1,1.138132899999846,,,12,18,Vrouw,Rechts,1,
,dotcolour,dotcolour,xotask,32,1,92,92,training,positivefb,92,hard,36,1.1341337000001204,['c'],0,right,['8'],4,0.5195220999999037,,,12,18,Vrouw,Rechts,1,
,dotcolour,dotcolour,xotask,33,1,93,93,training,positivefb,91,easy,62,1.5160750000000007,['c'],1,left,['0'],6,1.0777675000001636,,,12,18,Vrouw,Rechts,1,
,dotcolour,dotcolour,xotask,34,1,94,94,training,positivefb,91,easy,17,1.1006247000000258,['n'],1,right,['0'],6,0.14343570000005457,,,12,18,Vrouw,Rechts,1,
,dotcolour,dotcolour,xotask,35,1,95,95,training,positivefb,99,easy,15,0.5000929999998789,['n'],1,right,['0'],6,0.16632079999999405,,,12,18,Vrouw,Rechts,1,
,dotcolour,dotcolour,xotask,36,1,96,96,training,positivefb,62,hard,42,0.8334847999999511,['n'],0,left,['8'],4,0.4863356999999269,,,12,18,Vrouw,Rechts,1,
,dotcolour,dotcolour,xotask,37,1,97,97,training,positivefb,73,hard,39,0.6662026000001333,['n'],1,right,['9'],5,0.3603153999999904,,,12,18,Vrouw,Rechts,1,
,dotcolour,dotcolour,xotask,38,1,98,98,training,positivefb,78,hard,43,0.683096199999909,['n'],0,left,['0'],6,0.11090919999992366,,,12,18,Vrouw,Rechts,1,
,dotcolour,dotcolour,xotask,39,1,99,99,training,positivefb,97,hard,38,0.8826908999999432,['n'],1,right,['0'],6,0.6475974999998471,,,12,18,Vrouw,Rechts,1,
,dotcolour,dotcolour,xotask,40,1,100,100,training,positivefb,20,easy,61,0.7335571000000982,['n'],0,left,['1'],1,0.9846206000001985,,,12,18,Vrouw,Rechts,1,
,dotcolour,dotcolour,xotask,41,1,101,101,training,positivefb,72,hard,36,0.9664635999999973,['c'],0,right,['1'],1,0.2424872999999934,,,12,18,Vrouw,Rechts,1,
,dotcolour,dotcolour,xotask,42,1,102,102,training,positivefb,90,average,29,1.1013416999999208,['n'],1,right,['0'],6,0.2935228000001189,,,12,18,Vrouw,Rechts,1,
,dotcolour,dotcolour,xotask,43,1,103,103,training,positivefb,97,hard,37,1.1507237999999234,['n'],1,right,['9'],5,1.204369300000053,,,12,18,Vrouw,Rechts,1,
,dotcolour,dotcolour,xotask,44,1,104,104,training,positivefb,92,easy,16,1.6354372000000694,['n'],1,right,['0'],6,0.35496770000008837,,,12,18,Vrouw,Rechts,1,
,dotcolour,dotcolour,xotask,45,1,105,105,training,positivefb,91,hard,37,0.8665565000001152,['n'],1,right,['0'],6,0.1462238999999954,,,12,18,Vrouw,Rechts,1,
,dotcolour,dotcolour,xotask,46,1,106,106,training,positivefb,90,easy,61,0.9662326000000121,['c'],1,left,['1'],1,0.150514499999872,,,12,18,Vrouw,Rechts,1,
,dotcolour,dotcolour,xotask,47,1,107,107,training,positivefb,85,easy,15,0.8169311999999991,['n'],1,right,['0'],6,0.13567600000010316,,,12,18,Vrouw,Rechts,1,
,dotcolour,dotcolour,xotask,48,1,108,108,training,positivefb,80,average,54,0.8840711999998803,['n'],0,left,['0'],6,0.1829685000000154,,,12,18,Vrouw,Rechts,1,
,dotcolour,dotcolour,xotask,49,1,109,109,training,positivefb,89,hard,35,0.7680149000000256,['n'],1,right,['0'],6,0.20030370000017683,,,12,18,Vrouw,Rechts,1,
,dotcolour,dotcolour,xotask,50,1,110,110,training,positivefb,94,easy,18,0.7007619000000886,['n'],1,right,['9'],5,0.3486239999999725,,,12,18,Vrouw,Rechts,1,
,dotcolour,dotcolour,xotask,51,1,111,111,training,positivefb,95,average,25,0.58423780000021,['n'],1,right,['9'],5,0.18369499999994332,,,12,18,Vrouw,Rechts,1,
,dotcolour,dotcolour,xotask,52,1,112,112,training,positivefb,63,hard,39,2.248402500000111,['n'],1,right,['8'],4,1.181480400000055,,,12,18,Vrouw,Rechts,1,
,dotcolour,dotcolour,xotask,53,1,113,113,training,positivefb,95,average,27,0.6502113999999892,['n'],1,right,['0'],6,0.12459979999994175,,,12,18,Vrouw,Rechts,1,
,dotcolour,dotcolour,xotask,54,1,114,114,training,positivefb,63,easy,64,0.40110649999996895,['n'],0,left,['0'],6,1.0147228999999243,,,12,18,Vrouw,Rechts,1,
,dotcolour,dotcolour,xotask,55,1,115,115,training,positivefb,95,average,52,0.9842530999999326,['c'],1,left,['1'],1,0.17575280000005478,,,12,18,Vrouw,Rechts,1,
,dotcolour,dotcolour,xotask,56,1,116,116,training,positivefb,90,easy,63,6.300138199999992,['c'],1,left,['2'],2,1.7252657999999883,,,12,18,Vrouw,Rechts,1,
,dotcolour,dotcolour,xotask,57,1,117,117,training,positivefb,81,average,28,1.950342700000192,['n'],1,right,['0'],6,0.329899899999873,,,12,18,Vrouw,Rechts,1,
,dotcolour,dotcolour,xotask,58,1,118,118,training,positivefb,92,hard,44,0.7163468000001103,['n'],0,left,['9'],5,0.4249346000001424,,,12,18,Vrouw,Rechts,1,
,dotcolour,dotcolour,xotask,59,1,119,119,training,positivefb,70,average,54,1.6508269000000837,['c'],1,left,['9'],5,0.45402869999998074,,,12,18,Vrouw,Rechts,1,
,xotask,dotcolour,xotask,0,2,120,120,main,positivefb,-99,easy,,4.5174393000002055,['c'],0,right,['8'],4,1.555040199999894,8,,12,18,Vrouw,Rechts,1,
,xotask,dotcolour,xotask,1,2,121,121,main,positivefb,-99,easy,,4.199991799999907,['n'],1,right,['3'],3,1.5738591000001634,9,,12,18,Vrouw,Rechts,1,
,xotask,dotcolour,xotask,2,2,122,122,main,positivefb,-99,easy,,1.734762499999988,['c'],1,left,['9'],5,0.7790374000001066,72,,12,18,Vrouw,Rechts,1,
,xotask,dotcolour,xotask,3,2,123,123,main,positivefb,-99,average,,2.449863499999992,['c'],0,right,['9'],5,0.4909150999999383,17,,12,18,Vrouw,Rechts,1,
,xotask,dotcolour,xotask,4,2,124,124,main,positivefb,-99,average,,2.267074999999977,['n'],1,right,['9'],5,0.8448935000001256,19,,12,18,Vrouw,Rechts,1,
,xotask,dotcolour,xotask,5,2,125,125,main,positivefb,-99,easy,,1.9674992999998722,['n'],1,right,['9'],5,0.16623389999995197,8,,12,18,Vrouw,Rechts,1,
,xotask,dotcolour,xotask,6,2,126,126,main,positivefb,-99,easy,,1.216841899999963,['c'],1,left,['8'],4,0.8876983000000109,72,,12,18,Vrouw,Rechts,1,
,xotask,dotcolour,xotask,7,2,127,127,main,positivefb,-99,average,,3.267733700000008,['c'],1,left,['9'],5,0.4341589999999087,61,,12,18,Vrouw,Rechts,1,
,xotask,dotcolour,xotask,8,2,128,128,main,positivefb,-99,average,,2.582908299999872,['c'],0,right,['3'],3,0.906166100000064,18,,12,18,Vrouw,Rechts,1,
,xotask,dotcolour,xotask,9,2,129,129,main,positivefb,-99,hard,,1.5998900000001868,['c'],1,left,['0'],6,0.3670544000001428,54,,12,18,Vrouw,Rechts,1,
,xotask,dotcolour,xotask,10,2,130,130,main,positivefb,-99,easy,,1.7002405999999155,['n'],1,right,['9'],5,0.372926600000028,7,,12,18,Vrouw,Rechts,1,
,xotask,dotcolour,xotask,11,2,131,131,main,positivefb,-99,hard,,3.0001755000000685,['c'],0,right,['3'],3,0.3030021999998098,27,,12,18,Vrouw,Rechts,1,
,xotask,dotcolour,xotask,12,2,132,132,main,positivefb,-99,average,,1.8017929000000095,['c'],1,left,['9'],5,0.37095959999987826,63,,12,18,Vrouw,Rechts,1,
,xotask,dotcolour,xotask,13,2,133,133,main,positivefb,-99,hard,,5.133448400000134,['c'],0,right,['3'],3,0.6164002000000437,29,,12,18,Vrouw,Rechts,1,
,xotask,dotcolour,xotask,14,2,134,134,main,positivefb,-99,hard,,6.951046399999996,['n'],1,right,['8'],4,1.0025086999999075,29,,12,18,Vrouw,Rechts,1,
,xotask,dotcolour,xotask,15,2,135,135,main,positivefb,-99,easy,,2.450916199999938,['n'],1,right,['9'],5,2.489224800000102,5,,12,18,Vrouw,Rechts,1,
,xotask,dotcolour,xotask,16,2,136,136,main,positivefb,-99,easy,,1.6169709999999213,['c'],1,left,['9'],5,0.41309690000002774,71,,12,18,Vrouw,Rechts,1,
,xotask,dotcolour,xotask,17,2,137,137,main,positivefb,-99,average,,1.8500430999999935,['c'],0,right,['9'],5,0.26035269999988486,19,,12,18,Vrouw,Rechts,1,
,xotask,dotcolour,xotask,18,2,138,138,main,positivefb,-99,hard,,1.2179332000000613,['n'],1,right,['9'],5,0.25872849999996106,25,,12,18,Vrouw,Rechts,1,
,xotask,dotcolour,xotask,19,2,139,139,main,positivefb,-99,hard,,0.7508135000000493,['c'],1,left,['9'],5,0.21074090000001888,52,,12,18,Vrouw,Rechts,1,
,xotask,dotcolour,xotask,20,2,140,140,main,positivefb,-99,easy,,1.466676600000028,['n'],1,right,['0'],6,0.2087859999999182,5,,12,18,Vrouw,Rechts,1,
,xotask,dotcolour,xotask,21,2,141,141,main,positivefb,-99,easy,,1.1005627000001823,['n'],1,right,['0'],6,0.21392789999981687,8,,12,18,Vrouw,Rechts,1,
,xotask,dotcolour,xotask,22,2,142,142,main,positivefb,-99,average,,1.5011601000001065,['c'],1,left,['0'],6,0.2736334999999599,62,,12,18,Vrouw,Rechts,1,
,xotask,dotcolour,xotask,23,2,143,143,main,positivefb,-99,hard,,1.4836334000001443,['n'],1,right,['9'],5,0.20529850000002625,28,,12,18,Vrouw,Rechts,1,
,xotask,dotcolour,xotask,24,2,144,144,main,positivefb,-99,average,,0.9337019000001874,['c'],1,left,['0'],6,0.15256369999997332,61,,12,18,Vrouw,Rechts,1,
,xotask,dotcolour,xotask,25,2,145,145,main,positivefb,-99,hard,,0.966734200000019,['n'],0,left,['8'],4,0.5166345000000092,53,,12,18,Vrouw,Rechts,1,
,xotask,dotcolour,xotask,26,2,146,146,main,positivefb,-99,easy,,1.0168151000000307,['c'],0,right,['8'],4,0.23984470000004876,9,,12,18,Vrouw,Rechts,1,
,xotask,dotcolour,xotask,27,2,147,147,main,positivefb,-99,hard,,0.7171309000000292,['c'],0,right,['8'],4,0.1545054999999138,27,,12,18,Vrouw,Rechts,1,
,xotask,dotcolour,xotask,28,2,148,148,main,positivefb,-99,hard,,0.7514420999998492,['c'],1,left,['8'],4,0.15060339999990902,52,,12,18,Vrouw,Rechts,1,
,xotask,dotcolour,xotask,29,2,149,149,main,positivefb,-99,average,,0.8667177000002084,['c'],1,left,['9'],5,0.4075050999999803,61,,12,18,Vrouw,Rechts,1,
,xotask,dotcolour,xotask,30,2,150,150,main,positivefb,-99,easy,,0.6333933000000798,['c'],0,right,['3'],3,0.39105879999988247,8,,12,18,Vrouw,Rechts,1,
,xotask,dotcolour,xotask,31,2,151,151,main,positivefb,-99,average,,1.0340611000001445,['c'],1,left,['8'],4,0.18275820000008025,61,,12,18,Vrouw,Rechts,1,
,xotask,dotcolour,xotask,32,2,152,152,main,positivefb,-99,average,,0.5339804000000186,['c'],0,right,['9'],5,0.21823240000003352,17,,12,18,Vrouw,Rechts,1,
,xotask,dotcolour,xotask,33,2,153,153,main,positivefb,-99,average,,0.4330032000000301,['c'],1,left,['9'],5,0.4495093000000452,62,,12,18,Vrouw,Rechts,1,
,xotask,dotcolour,xotask,34,2,154,154,main,positivefb,-99,hard,,0.7844729000000825,['c'],0,right,['3'],3,0.8721041000001151,27,,12,18,Vrouw,Rechts,1,
,xotask,dotcolour,xotask,35,2,155,155,main,positivefb,-99,easy,,0.5507211999999981,['c'],1,left,['9'],5,0.1359855000000607,70,,12,18,Vrouw,Rechts,1,
,xotask,dotcolour,xotask,36,2,156,156,main,positivefb,-99,hard,,0.6507772999998451,['n'],0,left,['8'],4,0.19306039999992208,50,,12,18,Vrouw,Rechts,1,
,xotask,dotcolour,xotask,37,2,157,157,main,positivefb,-99,easy,,0.4846293999999034,['c'],1,left,['0'],6,0.6389970000000176,74,,12,18,Vrouw,Rechts,1,
,xotask,dotcolour,xotask,38,2,158,158,main,positivefb,-99,hard,,0.7179442000001472,['c'],0,right,['9'],5,0.2738832000000002,25,,12,18,Vrouw,Rechts,1,
,xotask,dotcolour,xotask,39,2,159,159,main,positivefb,-99,average,,0.29964029999996455,['c'],1,left,['8'],4,0.14055359999997563,64,,12,18,Vrouw,Rechts,1,
,xotask,dotcolour,xotask,40,2,160,160,main,positivefb,-99,easy,,0.36703449999981785,['c'],1,left,['0'],6,0.47285740000006626,74,,12,18,Vrouw,Rechts,1,
,xotask,dotcolour,xotask,41,2,161,161,main,positivefb,-99,easy,,0.667066499999919,['c'],1,left,['0'],6,0.10858260000009068,72,,12,18,Vrouw,Rechts,1,
,xotask,dotcolour,xotask,42,2,162,162,main,positivefb,-99,easy,,0.43417249999993146,['c'],1,left,['0'],6,0.12809139999990293,72,,12,18,Vrouw,Rechts,1,
,xotask,dotcolour,xotask,43,2,163,163,main,positivefb,-99,hard,,0.3513020000000324,['c'],0,right,['0'],6,0.509086699999898,29,,12,18,Vrouw,Rechts,1,
,xotask,dotcolour,xotask,44,2,164,164,main,positivefb,-99,easy,,0.6175852999999734,['c'],0,right,['9'],5,0.07380499999999302,9,,12,18,Vrouw,Rechts,1,
,xotask,dotcolour,xotask,45,2,165,165,main,positivefb,-99,average,,0.44975429999999506,['c'],0,right,['0'],6,0.20617330000004586,19,,12,18,Vrouw,Rechts,1,
,xotask,dotcolour,xotask,46,2,166,166,main,positivefb,-99,average,,2.484060100000079,['n'],1,right,['0'],6,0.15481700000009369,16,,12,18,Vrouw,Rechts,1,
,xotask,dotcolour,xotask,47,2,167,167,main,positivefb,-99,easy,,0.9329468000000816,['c'],1,left,['0'],6,0.13651310000000194,70,,12,18,Vrouw,Rechts,1,
,xotask,dotcolour,xotask,48,2,168,168,main,positivefb,-99,average,,1.0343709999999646,['c'],0,right,['0'],6,0.15386739999985366,18,,12,18,Vrouw,Rechts,1,
,xotask,dotcolour,xotask,49,2,169,169,main,positivefb,-99,hard,,1.6162136000000373,['c'],1,left,['8'],4,0.28391390000001593,51,,12,18,Vrouw,Rechts,1,
,xotask,dotcolour,xotask,50,2,170,170,main,positivefb,-99,hard,,1.0347035000002052,['n'],1,right,['0'],6,0.16877070000009553,26,,12,18,Vrouw,Rechts,1,
,xotask,dotcolour,xotask,51,2,171,171,main,positivefb,-99,average,,1.4331316000000243,['c'],1,left,['8'],4,0.1053082999999333,61,,12,18,Vrouw,Rechts,1,
,xotask,dotcolour,xotask,52,2,172,172,main,positivefb,-99,average,,1.5010498999999982,['c'],0,right,['0'],6,0.3295995999999377,17,,12,18,Vrouw,Rechts,1,
,xotask,dotcolour,xotask,53,2,173,173,main,positivefb,-99,hard,,0.6175348000001577,['c'],1,left,['3'],3,0.33308529999999337,53,,12,18,Vrouw,Rechts,1,
,xotask,dotcolour,xotask,54,2,174,174,main,positivefb,-99,hard,,0.5839836000000105,['c'],1,left,['3'],3,0.529234100000167,51,,12,18,Vrouw,Rechts,1,
,xotask,dotcolour,xotask,55,2,175,175,main,positivefb,-99,easy,,0.5184472999999343,['c'],1,left,['0'],6,0.19219700000007833,74,,12,18,Vrouw,Rechts,1,
,xotask,dotcolour,xotask,56,2,176,176,main,positivefb,-99,average,,0.5000512999999955,['c'],0,right,['9'],5,0.24520399999983056,16,,12,18,Vrouw,Rechts,1,
,xotask,dotcolour,xotask,57,2,177,177,main,positivefb,-99,hard,,0.267281500000081,['c'],1,left,['9'],5,0.25883299999986775,54,,12,18,Vrouw,Rechts,1,
,xotask,dotcolour,xotask,58,2,178,178,main,positivefb,-99,hard,,0.4002332000000024,['c'],1,left,['0'],6,0.23297950000005585,53,,12,18,Vrouw,Rechts,1,
,xotask,dotcolour,xotask,59,2,179,179,main,positivefb,-99,average,,0.12233900000001086,['c'],1,left,['8'],4,0.44922360000009576,60,,12,18,Vrouw,Rechts,1,
,xotask,dotcolour,xotask,0,3,180,180,main,positivefb,-99,hard,,0.934733499999993,['c'],1,left,['8'],4,0.20304329999999027,52,,12,18,Vrouw,Rechts,1,
,xotask,dotcolour,xotask,1,3,181,181,main,positivefb,-99,average,,0.3342156999999588,['c'],1,left,['0'],6,0.23087690000011207,60,,12,18,Vrouw,Rechts,1,
,xotask,dotcolour,xotask,2,3,182,182,main,positivefb,-99,easy,,0.2844522999998844,['c'],1,left,['8'],4,0.171567800000048,74,,12,18,Vrouw,Rechts,1,
,xotask,dotcolour,xotask,3,3,183,183,main,positivefb,-99,easy,,0.8834619000001567,['c'],0,right,['9'],5,0.12196909999988748,9,,12,18,Vrouw,Rechts,1,
,xotask,dotcolour,xotask,4,3,184,184,main,positivefb,-99,hard,,0.36617019999994227,['c'],0,right,['0'],6,0.26360509999994974,26,,12,18,Vrouw,Rechts,1,
,xotask,dotcolour,xotask,5,3,185,185,main,positivefb,-99,easy,,0.7342777999999726,['c'],1,left,['0'],6,0.7846390000001975,74,,12,18,Vrouw,Rechts,1,
,xotask,dotcolour,xotask,6,3,186,186,main,positivefb,-99,hard,,0.5681064000000333,['n'],1,right,['9'],5,0.474382500000047,28,,12,18,Vrouw,Rechts,1,
,xotask,dotcolour,xotask,7,3,187,187,main,positivefb,-99,hard,,0.6507939000000533,['n'],1,right,['8'],4,0.39129269999989447,25,,12,18,Vrouw,Rechts,1,
,xotask,dotcolour,xotask,8,3,188,188,main,positivefb,-99,easy,,0.8680438000001232,['c'],1,left,['0'],6,0.1978483000000324,74,,12,18,Vrouw,Rechts,1,
,xotask,dotcolour,xotask,9,3,189,189,main,positivefb,-99,easy,,0.6839125999999851,['n'],1,right,['0'],6,0.362661499999831,7,,12,18,Vrouw,Rechts,1,
,xotask,dotcolour,xotask,10,3,190,190,main,positivefb,-99,hard,,0.5998485000000073,['c'],1,left,['0'],6,0.1663218000001052,54,,12,18,Vrouw,Rechts,1,
,xotask,dotcolour,xotask,11,3,191,191,main,positivefb,-99,easy,,0.7169568999997864,['c'],0,right,['0'],6,0.18771360000005188,9,,12,18,Vrouw,Rechts,1,
,xotask,dotcolour,xotask,12,3,192,192,main,positivefb,-99,average,,0.9671285000001717,['n'],0,left,['0'],6,0.1583127000001241,60,,12,18,Vrouw,Rechts,1,
,xotask,dotcolour,xotask,13,3,193,193,main,positivefb,-99,average,,0.46712289999982204,['c'],0,right,['9'],5,0.2216684999998506,18,,12,18,Vrouw,Rechts,1,
,xotask,dotcolour,xotask,14,3,194,194,main,positivefb,-99,hard,,0.384528199999977,['c'],1,left,['0'],6,1.015000500000042,50,,12,18,Vrouw,Rechts,1,
,xotask,dotcolour,xotask,15,3,195,195,main,positivefb,-99,average,,0.4168525000000045,['c'],1,left,['3'],3,0.9822266999999556,64,,12,18,Vrouw,Rechts,1,
,xotask,dotcolour,xotask,16,3,196,196,main,positivefb,-99,easy,,0.5334167999999408,['c'],1,left,['0'],6,0.26668279999989863,72,,12,18,Vrouw,Rechts,1,
,xotask,dotcolour,xotask,17,3,197,197,main,positivefb,-99,easy,,0.6001831999999467,['c'],1,left,['0'],6,0.1283578000000034,74,,12,18,Vrouw,Rechts,1,
,xotask,dotcolour,xotask,18,3,198,198,main,positivefb,-99,hard,,0.7009209999998802,['c'],0,right,['0'],6,0.10331919999998718,25,,12,18,Vrouw,Rechts,1,
,xotask,dotcolour,xotask,19,3,199,199,main,positivefb,-99,average,,0.7506472000000031,['c'],0,right,['1'],1,1.1427329000000555,19,,12,18,Vrouw,Rechts,1,
,xotask,dotcolour,xotask,20,3,200,200,main,positivefb,-99,average,,1.4017489999998816,['c'],0,right,['9'],5,0.40996319999999287,17,,12,18,Vrouw,Rechts,1,
,xotask,dotcolour,xotask,21,3,201,201,main,positivefb,-99,hard,,0.6836857000000691,['c'],0,right,['1'],1,1.1995610999999826,26,,12,18,Vrouw,Rechts,1,
,xotask,dotcolour,xotask,22,3,202,202,main,positivefb,-99,average,,2.03443029999994,['c'],1,left,['0'],6,0.33460970000010093,60,,12,18,Vrouw,Rechts,1,
,xotask,dotcolour,xotask,23,3,203,203,main,positivefb,-99,average,,0.4336315000000468,['n'],1,right,['0'],6,0.2650549999998475,15,,12,18,Vrouw,Rechts,1,
,xotask,dotcolour,xotask,24,3,204,204,main,positivefb,-99,average,,0.617283499999985,['n'],1,right,['0'],6,0.14997760000005655,15,,12,18,Vrouw,Rechts,1,
,xotask,dotcolour,xotask,25,3,205,205,main,positivefb,-99,hard,,1.017649899999924,['c'],1,left,['8'],4,0.21614920000001803,54,,12,18,Vrouw,Rechts,1,
,xotask,dotcolour,xotask,26,3,206,206,main,positivefb,-99,easy,,0.6171547999999802,['n'],1,right,['0'],6,0.15074200000003657,6,,12,18,Vrouw,Rechts,1,
,xotask,dotcolour,xotask,27,3,207,207,main,positivefb,-99,easy,,1.017642300000034,['n'],0,left,['9'],5,0.41773940000007315,71,,12,18,Vrouw,Rechts,1,
,xotask,dotcolour,xotask,28,3,208,208,main,positivefb,-99,easy,,1.0839171999998598,['n'],1,right,['0'],6,0.2064874999998665,9,,12,18,Vrouw,Rechts,1,
,xotask,dotcolour,xotask,29,3,209,209,main,positivefb,-99,easy,,0.9674926000000141,['c'],1,left,['0'],6,0.10432970000010755,73,,12,18,Vrouw,Rechts,1,
,xotask,dotcolour,xotask,30,3,210,210,main,positivefb,-99,average,,1.250295099999903,['c'],0,right,['1'],1,0.8269337000001542,18,,12,18,Vrouw,Rechts,1,
,xotask,dotcolour,xotask,31,3,211,211,main,positivefb,-99,average,,0.5998829000000114,['n'],1,right,['0'],6,0.1702316000000792,17,,12,18,Vrouw,Rechts,1,
,xotask,dotcolour,xotask,32,3,212,212,main,positivefb,-99,easy,,0.4000717999999779,['n'],1,right,['0'],6,0.18105830000013157,8,,12,18,Vrouw,Rechts,1,
,xotask,dotcolour,xotask,33,3,213,213,main,positivefb,-99,average,,0.9178249999999935,['c'],1,left,['9'],5,0.3457304999999451,62,,12,18,Vrouw,Rechts,1,
,xotask,dotcolour,xotask,34,3,214,214,main,positivefb,-99,hard,,0.5012547999999697,['n'],1,right,['0'],6,0.15265389999990475,28,,12,18,Vrouw,Rechts,1,
,xotask,dotcolour,xotask,35,3,215,215,main,positivefb,-99,average,,0.9505194999999276,['n'],1,right,['8'],4,0.42145080000000235,17,,12,18,Vrouw,Rechts,1,
,xotask,dotcolour,xotask,36,3,216,216,main,positivefb,-99,hard,,1.066989700000022,['c'],1,left,['0'],6,0.4184066000000257,51,,12,18,Vrouw,Rechts,1,
,xotask,dotcolour,xotask,37,3,217,217,main,positivefb,-99,average,,1.1165098999999827,['c'],1,left,['9'],5,0.46232880000002297,61,,12,18,Vrouw,Rechts,1,
,xotask,dotcolour,xotask,38,3,218,218,main,positivefb,-99,hard,,0.9503628999998455,['n'],1,right,['9'],5,0.3749450000000252,27,,12,18,Vrouw,Rechts,1,
,xotask,dotcolour,xotask,39,3,219,219,main,positivefb,-99,average,,0.5671883999998499,['c'],1,left,['9'],5,0.16973230000007788,63,,12,18,Vrouw,Rechts,1,
,xotask,dotcolour,xotask,40,3,220,220,main,positivefb,-99,hard,,1.4165118000000803,['n'],0,left,['8'],4,0.30779210000014245,54,,12,18,Vrouw,Rechts,1,
,xotask,dotcolour,xotask,41,3,221,221,main,positivefb,-99,average,,0.9833051999999043,['n'],1,right,['9'],5,0.4166032999999061,18,,12,18,Vrouw,Rechts,1,
,xotask,dotcolour,xotask,42,3,222,222,main,positivefb,-99,hard,,0.7832058999999845,['n'],1,right,['9'],5,0.21007889999987128,28,,12,18,Vrouw,Rechts,1,
,xotask,dotcolour,xotask,43,3,223,223,main,positivefb,-99,easy,,0.7673482000000149,['n'],1,right,['0'],6,0.19592809999994643,7,,12,18,Vrouw,Rechts,1,
,xotask,dotcolour,xotask,44,3,224,224,main,positivefb,-99,average,,0.4828078999998979,['n'],1,right,['9'],5,0.41764360000001943,16,,12,18,Vrouw,Rechts,1,
,xotask,dotcolour,xotask,45,3,225,225,main,positivefb,-99,average,,0.46652400000016314,['c'],1,left,['8'],4,0.18325949999984914,64,,12,18,Vrouw,Rechts,1,
,xotask,dotcolour,xotask,46,3,226,226,main,positivefb,-99,average,,0.8673722999999427,['c'],1,left,['9'],5,0.21334890000002815,64,,12,18,Vrouw,Rechts,1,
,xotask,dotcolour,xotask,47,3,227,227,main,positivefb,-99,easy,,0.5831599000000551,['c'],1,left,['0'],6,0.3192054000001008,74,,12,18,Vrouw,Rechts,1,
,xotask,dotcolour,xotask,48,3,228,228,main,positivefb,-99,hard,,0.7516927000001488,['c'],1,left,['0'],6,0.1483192999999119,52,,12,18,Vrouw,Rechts,1,
,xotask,dotcolour,xotask,49,3,229,229,main,positivefb,-99,hard,,1.1509095999999772,['n'],1,right,['0'],6,0.18533060000004298,27,,12,18,Vrouw,Rechts,1,
,xotask,dotcolour,xotask,50,3,230,230,main,positivefb,-99,average,,0.8514823000000433,['c'],1,left,['9'],5,0.24037199999997938,60,,12,18,Vrouw,Rechts,1,
,xotask,dotcolour,xotask,51,3,231,231,main,positivefb,-99,easy,,0.43340039999998226,['c'],1,left,['0'],6,0.5353792999999314,74,,12,18,Vrouw,Rechts,1,
,xotask,dotcolour,xotask,52,3,232,232,main,positivefb,-99,easy,,0.5500599000001785,['n'],1,right,['0'],6,0.172843599999851,9,,12,18,Vrouw,Rechts,1,
,xotask,dotcolour,xotask,53,3,233,233,main,positivefb,-99,hard,,0.7993754000001445,['c'],1,left,['9'],5,0.2707409000001917,54,,12,18,Vrouw,Rechts,1,
,xotask,dotcolour,xotask,54,3,234,234,main,positivefb,-99,hard,,0.7997490000000198,['c'],0,right,['8'],4,0.4607248999998319,29,,12,18,Vrouw,Rechts,1,
,xotask,dotcolour,xotask,55,3,235,235,main,positivefb,-99,easy,,0.6842921999998453,['c'],1,left,['0'],6,0.1920198000000255,72,,12,18,Vrouw,Rechts,1,
,xotask,dotcolour,xotask,56,3,236,236,main,positivefb,-99,hard,,0.8829232000000502,['n'],0,left,['9'],5,0.1577577000000474,53,,12,18,Vrouw,Rechts,1,
,xotask,dotcolour,xotask,57,3,237,237,main,positivefb,-99,easy,,0.6676179000000957,['c'],0,right,['0'],6,0.19779400000015812,7,,12,18,Vrouw,Rechts,1,
,xotask,dotcolour,xotask,58,3,238,238,main,positivefb,-99,easy,,0.7351750000000266,['n'],1,right,['0'],6,0.177620799999886,9,,12,18,Vrouw,Rechts,1,
,xotask,dotcolour,xotask,59,3,239,239,main,positivefb,-99,hard,,0.8674074000000473,['n'],0,left,['0'],6,0.16968769999994038,51,,12,18,Vrouw,Rechts,1,
,xotask,dotcolour,xotask,0,4,240,240,main,positivefb,-99,average,,2.1503479000000425,['c'],1,left,['3'],3,0.9427120000000286,60,,12,18,Vrouw,Rechts,1,
,xotask,dotcolour,xotask,1,4,241,241,main,positivefb,-99,easy,,0.9007739999999558,['c'],1,left,['0'],6,0.1258272999998553,70,,12,18,Vrouw,Rechts,1,
,xotask,dotcolour,xotask,2,4,242,242,main,positivefb,-99,average,,0.8178304999999,['c'],1,left,['3'],3,0.21724840000001677,60,,12,18,Vrouw,Rechts,1,
,xotask,dotcolour,xotask,3,4,243,243,main,positivefb,-99,average,,0.4346883999999136,['c'],1,left,['0'],6,0.28800669999986894,62,,12,18,Vrouw,Rechts,1,
,xotask,dotcolour,xotask,4,4,244,244,main,positivefb,-99,average,,0.8001904000000195,['c'],1,left,['0'],6,0.14083909999999378,63,,12,18,Vrouw,Rechts,1,
,xotask,dotcolour,xotask,5,4,245,245,main,positivefb,-99,average,,0.816863400000102,['n'],1,right,['0'],6,0.15958580000005895,16,,12,18,Vrouw,Rechts,1,
,xotask,dotcolour,xotask,6,4,246,246,main,positivefb,-99,hard,,0.4841066999999839,['c'],1,left,['0'],6,0.1673414000001685,50,,12,18,Vrouw,Rechts,1,
,xotask,dotcolour,xotask,7,4,247,247,main,positivefb,-99,average,,0.38458029999992505,['n'],1,right,['0'],6,0.1298116000000391,17,,12,18,Vrouw,Rechts,1,
,xotask,dotcolour,xotask,8,4,248,248,main,positivefb,-99,hard,,0.5842263999998067,['c'],1,left,['9'],5,0.31869940000001407,53,,12,18,Vrouw,Rechts,1,
,xotask,dotcolour,xotask,9,4,249,249,main,positivefb,-99,easy,,0.6008385999998609,['n'],1,right,['9'],5,0.21056780000003528,6,,12,18,Vrouw,Rechts,1,
,xotask,dotcolour,xotask,10,4,250,250,main,positivefb,-99,average,,0.732809399999951,['n'],0,left,['0'],6,0.27036599999996724,62,,12,18,Vrouw,Rechts,1,
,xotask,dotcolour,xotask,11,4,251,251,main,positivefb,-99,average,,0.5003833000000668,['c'],0,right,['1'],1,0.704128399999945,18,,12,18,Vrouw,Rechts,1,
,xotask,dotcolour,xotask,12,4,252,252,main,positivefb,-99,easy,,0.9676699999999983,['c'],1,left,['0'],6,0.2864434999999048,71,,12,18,Vrouw,Rechts,1,
,xotask,dotcolour,xotask,13,4,253,253,main,positivefb,-99,average,,1.28478999999993,['n'],1,right,['0'],6,0.1992521999998189,17,,12,18,Vrouw,Rechts,1,
,xotask,dotcolour,xotask,14,4,254,254,main,positivefb,-99,hard,,0.6006841999999324,['n'],1,right,['9'],5,0.12066660000004958,27,,12,18,Vrouw,Rechts,1,
,xotask,dotcolour,xotask,15,4,255,255,main,positivefb,-99,hard,,0.5004142000000229,['n'],1,right,['0'],6,0.4324474000000009,25,,12,18,Vrouw,Rechts,1,
,xotask,dotcolour,xotask,16,4,256,256,main,positivefb,-99,average,,0.4674764999999752,['n'],1,right,['0'],6,0.34084409999991294,19,,12,18,Vrouw,Rechts,1,
,xotask,dotcolour,xotask,17,4,257,257,main,positivefb,-99,easy,,0.6841755000000376,['n'],0,left,['1'],1,0.7806690999998409,72,,12,18,Vrouw,Rechts,1,
,xotask,dotcolour,xotask,18,4,258,258,main,positivefb,-99,easy,,0.9511970999999448,['n'],1,right,['0'],6,0.11975729999994655,5,,12,18,Vrouw,Rechts,1,
,xotask,dotcolour,xotask,19,4,259,259,main,positivefb,-99,hard,,0.5847197000000506,['n'],1,right,['0'],6,0.1884403999999904,28,,12,18,Vrouw,Rechts,1,
,xotask,dotcolour,xotask,20,4,260,260,main,positivefb,-99,average,,0.48470620000011877,['c'],0,right,['9'],5,0.4115219000000252,18,,12,18,Vrouw,Rechts,1,
,xotask,dotcolour,xotask,21,4,261,261,main,positivefb,-99,easy,,0.9006776999999602,['c'],1,left,['0'],6,0.2400593999998364,70,,12,18,Vrouw,Rechts,1,
,xotask,dotcolour,xotask,22,4,262,262,main,positivefb,-99,average,,0.7170602000001054,['n'],1,right,['0'],6,0.13069289999998546,15,,12,18,Vrouw,Rechts,1,
,xotask,dotcolour,xotask,23,4,263,263,main,positivefb,-99,hard,,0.9158439000000271,['c'],1,left,['0'],6,0.25011029999996026,53,,12,18,Vrouw,Rechts,1,
,xotask,dotcolour,xotask,24,4,264,264,main,positivefb,-99,hard,,0.6514428000000407,['c'],0,right,['0'],6,0.19058829999994487,28,,12,18,Vrouw,Rechts,1,
,xotask,dotcolour,xotask,25,4,265,265,main,positivefb,-99,hard,,1.7505822000000535,['n'],1,right,['0'],6,0.18557970000006208,26,,12,18,Vrouw,Rechts,1,
,xotask,dotcolour,xotask,26,4,266,266,main,positivefb,-99,hard,,0.8340370000000803,['c'],1,left,['8'],4,0.36177349999979924,53,,12,18,Vrouw,Rechts,1,
,xotask,dotcolour,xotask,27,4,267,267,main,positivefb,-99,hard,,0.6342951999999968,['n'],1,right,['8'],4,0.3230942000000141,25,,12,18,Vrouw,Rechts,1,
,xotask,dotcolour,xotask,28,4,268,268,main,positivefb,-99,hard,,0.7348540999998932,['n'],0,left,['9'],5,0.19368789999998626,50,,12,18,Vrouw,Rechts,1,
,xotask,dotcolour,xotask,29,4,269,269,main,positivefb,-99,average,,0.7332728999999745,['n'],1,right,['9'],5,0.1894976000000952,16,,12,18,Vrouw,Rechts,1,
,xotask,dotcolour,xotask,30,4,270,270,main,positivefb,-99,hard,,0.7344583999999941,['c'],1,left,['9'],5,0.1216402999998536,51,,12,18,Vrouw,Rechts,1,
,xotask,dotcolour,xotask,31,4,271,271,main,positivefb,-99,hard,,1.0347862999999506,['n'],1,right,['9'],5,0.13285430000019005,26,,12,18,Vrouw,Rechts,1,
,xotask,dotcolour,xotask,32,4,272,272,main,positivefb,-99,average,,1.1841635000000679,['c'],1,left,['8'],4,0.3604898000000958,62,,12,18,Vrouw,Rechts,1,
,xotask,dotcolour,xotask,33,4,273,273,main,positivefb,-99,average,,1.2664503999999397,['n'],0,left,['3'],3,0.15977640000005522,61,,12,18,Vrouw,Rechts,1,
,xotask,dotcolour,xotask,34,4,274,274,main,positivefb,-99,easy,,1.067568299999948,['n'],1,right,['0'],6,0.20876080000016373,6,,12,18,Vrouw,Rechts,1,
,xotask,dotcolour,xotask,35,4,275,275,main,positivefb,-99,easy,,0.6002788000000692,['n'],1,right,['0'],6,0.1536787000000004,9,,12,18,Vrouw,Rechts,1,
,xotask,dotcolour,xotask,36,4,276,276,main,positivefb,-99,hard,,0.3848653000000013,['n'],0,left,['8'],4,0.6608862999999019,53,,12,18,Vrouw,Rechts,1,
,xotask,dotcolour,xotask,37,4,277,277,main,positivefb,-99,hard,,0.6846720999999434,['n'],1,right,['0'],6,0.12835389999986546,25,,12,18,Vrouw,Rechts,1,
,xotask,dotcolour,xotask,38,4,278,278,main,positivefb,-99,easy,,0.466739299999972,['n'],0,left,['1'],1,0.6651378999999906,72,,12,18,Vrouw,Rechts,1,
,xotask,dotcolour,xotask,39,4,279,279,main,positivefb,-99,easy,,0.8503771000000597,['c'],0,right,['0'],6,0.4217888000000585,7,,12,18,Vrouw,Rechts,1,
,xotask,dotcolour,xotask,40,4,280,280,main,positivefb,-99,easy,,0.916492099999914,['c'],1,left,['0'],6,0.13644909999993615,72,,12,18,Vrouw,Rechts,1,
,xotask,dotcolour,xotask,41,4,281,281,main,positivefb,-99,average,,0.5839152999999442,['n'],0,left,['0'],6,0.16443049999998038,64,,12,18,Vrouw,Rechts,1,
,xotask,dotcolour,xotask,42,4,282,282,main,positivefb,-99,easy,,0.3169763000000785,['n'],1,right,['9'],5,0.21063019999996868,5,,12,18,Vrouw,Rechts,1,
,xotask,dotcolour,xotask,43,4,283,283,main,positivefb,-99,hard,,0.3336030000000392,['n'],0,left,['9'],5,0.16593620000003284,54,,12,18,Vrouw,Rechts,1,
,xotask,dotcolour,xotask,44,4,284,284,main,positivefb,-99,easy,,0.3845420000000104,['c'],0,right,['1'],1,0.14437520000001314,8,,12,18,Vrouw,Rechts,1,
,xotask,dotcolour,xotask,45,4,285,285,main,positivefb,-99,average,,0.30009460000019317,['c'],1,left,['9'],5,0.415935300000001,60,,12,18,Vrouw,Rechts,1,
,xotask,dotcolour,xotask,46,4,286,286,main,positivefb,-99,hard,,0.26767869999980576,['c'],0,right,['0'],6,0.14868559999990794,27,,12,18,Vrouw,Rechts,1,
,xotask,dotcolour,xotask,47,4,287,287,main,positivefb,-99,average,,0.16944549999993797,['c'],0,right,['0'],6,0.22371529999986706,19,,12,18,Vrouw,Rechts,1,
,xotask,dotcolour,xotask,48,4,288,288,main,positivefb,-99,easy,,0.5846954999999525,['c'],1,left,['9'],5,0.24807200000009288,74,,12,18,Vrouw,Rechts,1,
,xotask,dotcolour,xotask,49,4,289,289,main,positivefb,-99,easy,,0.23355670000000828,['c'],1,left,['0'],6,0.5014449000000241,70,,12,18,Vrouw,Rechts,1,
,xotask,dotcolour,xotask,50,4,290,290,main,positivefb,-99,hard,,0.03332159999990836,['c'],0,right,['9'],5,0.24246889999994892,29,,12,18,Vrouw,Rechts,1,
,xotask,dotcolour,xotask,51,4,291,291,main,positivefb,-99,easy,,0.0597883999998885,['n'],0,left,['9'],5,0.0819451999998364,70,,12,18,Vrouw,Rechts,1,
,xotask,dotcolour,xotask,52,4,292,292,main,positivefb,-99,easy,,2.8167155000001003,['n'],1,right,['0'],6,0.45443989999989753,9,,12,18,Vrouw,Rechts,1,
,xotask,dotcolour,xotask,53,4,293,293,main,positivefb,-99,easy,,0.8677606999999625,['c'],1,left,['8'],4,0.3546714999999949,71,,12,18,Vrouw,Rechts,1,
,xotask,dotcolour,xotask,54,4,294,294,main,positivefb,-99,hard,,0.9840514999998504,['n'],0,left,['9'],5,0.2688967000001412,54,,12,18,Vrouw,Rechts,1,
,xotask,dotcolour,xotask,55,4,295,295,main,positivefb,-99,hard,,0.7175449999999728,['c'],1,left,['0'],6,0.6551733999999669,53,,12,18,Vrouw,Rechts,1,
,xotask,dotcolour,xotask,56,4,296,296,main,positivefb,-99,easy,,0.6341270999998869,['n'],1,right,['9'],5,0.9325725999999577,8,,12,18,Vrouw,Rechts,1,
,xotask,dotcolour,xotask,57,4,297,297,main,positivefb,-99,average,,0.6003223999998681,['n'],1,right,['9'],5,0.1355474999998023,18,,12,18,Vrouw,Rechts,1,
,xotask,dotcolour,xotask,58,4,298,298,main,positivefb,-99,average,,0.6829760999999053,['c'],1,left,['9'],5,0.1108956999999009,63,,12,18,Vrouw,Rechts,1,
,xotask,dotcolour,xotask,59,4,299,299,main,positivefb,-99,easy,,0.7350119000000177,['n'],1,right,['9'],5,0.1026081999998496,9,,12,18,Vrouw,Rechts,1,
,dotcolour,dotcolour,xotask,0,0,0,300,training,positivefb,88,hard,45,1.3676508999999442,['c'],1,left,['8'],4,1.0358885000000555,,,12,18,Vrouw,Rechts,1,
,dotcolour,dotcolour,xotask,1,0,1,301,training,positivefb,92,easy,15,1.5322059000000081,['n'],1,right,['0'],6,0.22055439999985538,,,12,18,Vrouw,Rechts,1,
,dotcolour,dotcolour,xotask,2,0,2,302,training,positivefb,92,average,27,0.9826433000000634,['n'],1,right,['9'],5,0.16492820000007669,,,12,18,Vrouw,Rechts,1,
,dotcolour,dotcolour,xotask,3,0,3,303,training,positivefb,91,average,27,0.6338732000001528,['n'],1,right,['9'],5,0.14780580000001464,,,12,18,Vrouw,Rechts,1,
,dotcolour,dotcolour,xotask,4,0,4,304,training,positivefb,98,easy,61,0.7334543000001759,['c'],1,left,['9'],5,0.409082799999851,,,12,18,Vrouw,Rechts,1,
,dotcolour,dotcolour,xotask,5,0,5,305,training,positivefb,83,hard,41,1.051020600000129,['n'],0,left,['8'],4,0.18314639999994142,,,12,18,Vrouw,Rechts,1,
,dotcolour,dotcolour,xotask,6,0,6,306,training,positivefb,96,hard,36,0.7331982999999127,['n'],1,right,['9'],5,0.1545597000001635,,,12,18,Vrouw,Rechts,1,
,dotcolour,dotcolour,xotask,7,0,7,307,training,positivefb,84,hard,43,1.3832233000000542,['n'],0,left,['1'],1,0.7328006000000187,,,12,18,Vrouw,Rechts,1,
,dotcolour,dotcolour,xotask,8,0,8,308,training,positivefb,97,hard,35,0.7834457000001294,['n'],1,right,['8'],4,0.20894819999989522,,,12,18,Vrouw,Rechts,1,
,dotcolour,dotcolour,xotask,9,0,9,309,training,positivefb,92,hard,38,0.8331964999999855,['n'],1,right,['8'],4,0.11923009999986789,,,12,18,Vrouw,Rechts,1,
,dotcolour,dotcolour,xotask,10,0,10,310,training,positivefb,94,hard,39,0.4006150999998681,['c'],0,right,['8'],4,0.2826400999999805,,,12,18,Vrouw,Rechts,1,
,dotcolour,dotcolour,xotask,11,0,11,311,training,positivefb,96,easy,15,0.3327630000001136,['n'],1,right,['0'],6,0.32105790000014167,,,12,18,Vrouw,Rechts,1,
,dotcolour,dotcolour,xotask,12,0,12,312,training,positivefb,89,hard,38,0.4336746999999832,['n'],1,right,['9'],5,0.17214979999994284,,,12,18,Vrouw,Rechts,1,
,dotcolour,dotcolour,xotask,13,0,13,313,training,positivefb,93,hard,37,0.8173741000000518,['c'],0,right,['8'],4,0.1563410000001113,,,12,18,Vrouw,Rechts,1,
,dotcolour,dotcolour,xotask,14,0,14,314,training,positivefb,98,average,53,0.7827694000000065,['c'],1,left,['8'],4,0.11887690000003204,,,12,18,Vrouw,Rechts,1,
,dotcolour,dotcolour,xotask,15,0,15,315,training,positivefb,95,easy,65,0.8502637000001414,['c'],1,left,['0'],6,0.14460299999996096,,,12,18,Vrouw,Rechts,1,
,dotcolour,dotcolour,xotask,16,0,16,316,training,positivefb,94,hard,45,0.6830333999998857,['c'],1,left,['0'],6,0.27992119999998977,,,12,18,Vrouw,Rechts,1,
,dotcolour,dotcolour,xotask,17,0,17,317,training,positivefb,98,easy,64,0.4497182000000066,['c'],1,left,['0'],6,0.1628193999999894,,,12,18,Vrouw,Rechts,1,
,dotcolour,dotcolour,xotask,18,0,18,318,training,positivefb,98,easy,62,0.45088110000006054,['c'],1,left,['0'],6,0.14674509999986185,,,12,18,Vrouw,Rechts,1,
,dotcolour,dotcolour,xotask,19,0,19,319,training,positivefb,97,average,52,0.3842004000000543,['c'],1,left,['0'],6,0.07838790000005247,,,12,18,Vrouw,Rechts,1,
,dotcolour,dotcolour,xotask,20,0,20,320,training,positivefb,43,average,29,0.30064979999997377,['c'],0,right,['1'],1,0.8158994000000348,,,12,18,Vrouw,Rechts,1,
,dotcolour,dotcolour,xotask,21,0,21,321,training,positivefb,93,easy,18,1.0168791999999485,['n'],1,right,['0'],6,0.11087539999994078,,,12,18,Vrouw,Rechts,1,
,dotcolour,dotcolour,xotask,22,0,22,322,training,positivefb,95,average,27,0.6675978999999188,['n'],1,right,['0'],6,0.0880030999999235,,,12,18,Vrouw,Rechts,1,
,dotcolour,dotcolour,xotask,23,0,23,323,training,positivefb,93,easy,61,0.5830989000000955,['c'],1,left,['0'],6,0.13343409999993128,,,12,18,Vrouw,Rechts,1,
,dotcolour,dotcolour,xotask,24,0,24,324,training,positivefb,88,average,53,1.1003249999998843,['c'],1,left,['0'],6,0.12421739999990677,,,12,18,Vrouw,Rechts,1,
,dotcolour,dotcolour,xotask,25,0,25,325,training,positivefb,50,hard,45,1.101382699999931,['n'],0,left,['3'],3,0.6909832999999708,,,12,18,Vrouw,Rechts,1,
,dotcolour,dotcolour,xotask,26,0,26,326,training,positivefb,88,easy,64,0.916991199999984,['c'],1,left,['0'],6,0.09921260000010079,,,12,18,Vrouw,Rechts,1,
,dotcolour,dotcolour,xotask,27,0,27,327,training,positivefb,80,hard,39,0.9004611000000295,['c'],0,right,['0'],6,0.13104229999999006,,,12,18,Vrouw,Rechts,1,
,dotcolour,dotcolour,xotask,28,0,28,328,training,positivefb,25,hard,38,0.7000158999999258,['c'],0,right,['1'],1,1.5142013999998198,,,12,18,Vrouw,Rechts,1,
,dotcolour,dotcolour,xotask,29,0,29,329,training,positivefb,90,average,51,0.8847137000002476,['c'],1,left,['0'],6,0.13003210000033505,,,12,18,Vrouw,Rechts,1,
,dotcolour,dotcolour,xotask,30,0,30,330,training,positivefb,99,average,55,1.2165913999997429,['c'],1,left,['1'],1,1.2058380999997098,,,12,18,Vrouw,Rechts,1,
,dotcolour,dotcolour,xotask,31,0,31,331,training,positivefb,86,easy,63,0.7833071999998538,['c'],1,left,['0'],6,0.15786960000014005,,,12,18,Vrouw,Rechts,1,
,dotcolour,dotcolour,xotask,32,0,32,332,training,positivefb,98,average,25,0.7664518999999927,['n'],1,right,['0'],6,0.11314570000013191,,,12,18,Vrouw,Rechts,1,
,dotcolour,dotcolour,xotask,33,0,33,333,training,positivefb,71,average,51,0.6840325999996821,['n'],0,left,['0'],6,0.15386869999974806,,,12,18,Vrouw,Rechts,1,
,dotcolour,dotcolour,xotask,34,0,34,334,training,positivefb,97,hard,44,1.2161612999998397,['c'],1,left,['0'],6,0.1307050000000345,,,12,18,Vrouw,Rechts,1,
,dotcolour,dotcolour,xotask,35,0,35,335,training,positivefb,96,easy,17,0.7335395999998582,['n'],1,right,['0'],6,0.0805195999996613,,,12,18,Vrouw,Rechts,1,
,dotcolour,dotcolour,xotask,36,0,36,336,training,positivefb,89,hard,41,0.9337410000002819,['n'],0,left,['0'],6,0.12143920000016806,,,12,18,Vrouw,Rechts,1,
,dotcolour,dotcolour,xotask,37,0,37,337,training,positivefb,98,easy,15,0.6675694999998996,['n'],1,right,['0'],6,0.10576970000010988,,,12,18,Vrouw,Rechts,1,
,dotcolour,dotcolour,xotask,38,0,38,338,training,positivefb,96,easy,63,0.6996630000003279,['c'],1,left,['9'],5,0.3538118999999824,,,12,18,Vrouw,Rechts,1,
,dotcolour,dotcolour,xotask,39,0,39,339,training,positivefb,78,hard,45,1.1332225000001017,['n'],0,left,['8'],4,0.21460399999978108,,,12,18,Vrouw,Rechts,1,
,dotcolour,dotcolour,xotask,40,0,40,340,training,positivefb,94,hard,39,0.500128599999698,['n'],1,right,['9'],5,0.15465000000040163,,,12,18,Vrouw,Rechts,1,
,dotcolour,dotcolour,xotask,41,0,41,341,training,positivefb,79,average,29,0.4846818999999414,['n'],1,right,['9'],5,0.17689319999999498,,,12,18,Vrouw,Rechts,1,
,dotcolour,dotcolour,xotask,42,0,42,342,training,positivefb,83,average,26,0.4505484000001161,['n'],1,right,['0'],6,0.41654289999996763,,,12,18,Vrouw,Rechts,1,
,dotcolour,dotcolour,xotask,43,0,43,343,training,positivefb,95,easy,62,0.6671736000002966,['c'],1,left,['9'],5,0.14910319999989952,,,12,18,Vrouw,Rechts,1,
,dotcolour,dotcolour,xotask,44,0,44,344,training,positivefb,91,easy,19,0.8342631999998957,['n'],1,right,['9'],5,0.11757910000005722,,,12,18,Vrouw,Rechts,1,
,dotcolour,dotcolour,xotask,45,0,45,345,training,positivefb,90,easy,15,0.5504698999998254,['n'],1,right,['9'],5,0.1231764999997722,,,12,18,Vrouw,Rechts,1,
,dotcolour,dotcolour,xotask,46,0,46,346,training,positivefb,84,easy,63,0.7006897000001118,['c'],1,left,['9'],5,0.09850940000023911,,,12,18,Vrouw,Rechts,1,
,dotcolour,dotcolour,xotask,47,0,47,347,training,positivefb,96,average,26,0.6171957000001385,['n'],1,right,['9'],5,0.1338937000000442,,,12,18,Vrouw,Rechts,1,
,dotcolour,dotcolour,xotask,48,0,48,348,training,positivefb,95,average,26,0.8167803999999705,['n'],1,right,['9'],5,0.08733480000000782,,,12,18,Vrouw,Rechts,1,
,dotcolour,dotcolour,xotask,49,0,49,349,training,positivefb,91,easy,17,0.6173453000001246,['n'],1,right,['9'],5,0.11561650000021473,,,12,18,Vrouw,Rechts,1,
,dotcolour,dotcolour,xotask,50,0,50,350,training,positivefb,97,average,55,0.5673221000001831,['c'],1,left,['9'],5,0.10424560000001293,,,12,18,Vrouw,Rechts,1,
,dotcolour,dotcolour,xotask,51,0,51,351,training,positivefb,95,easy,18,0.5329926000003979,['n'],1,right,['9'],5,0.12638020000031247,,,12,18,Vrouw,Rechts,1,
,dotcolour,dotcolour,xotask,52,0,52,352,training,positivefb,95,average,28,0.6337370000001101,['n'],1,right,['9'],5,0.13632139999981518,,,12,18,Vrouw,Rechts,1,
,dotcolour,dotcolour,xotask,53,0,53,353,training,positivefb,74,hard,44,1.2839582999999948,['n'],0,left,['9'],5,0.11189140000033149,,,12,18,Vrouw,Rechts,1,
,dotcolour,dotcolour,xotask,54,0,54,354,training,positivefb,91,easy,19,0.5677795000001424,['n'],1,right,['0'],6,0.2859339000001455,,,12,18,Vrouw,Rechts,1,
,dotcolour,dotcolour,xotask,55,0,55,355,training,positivefb,72,average,54,0.599413899999945,['c'],1,left,['8'],4,0.2502491000000191,,,12,18,Vrouw,Rechts,1,
,dotcolour,dotcolour,xotask,56,0,56,356,training,positivefb,99,average,52,0.49976580000020476,['c'],1,left,['0'],6,0.13272539999979927,,,12,18,Vrouw,Rechts,1,
,dotcolour,dotcolour,xotask,57,0,57,357,training,positivefb,78,hard,41,1.4326046000001043,['n'],0,left,['8'],4,0.26212549999991097,,,12,18,Vrouw,Rechts,1,
,dotcolour,dotcolour,xotask,58,0,58,358,training,positivefb,90,average,53,0.733353999999963,['c'],1,left,['0'],6,0.2055593999998564,,,12,18,Vrouw,Rechts,1,
,dotcolour,dotcolour,xotask,59,0,59,359,training,positivefb,43,hard,39,0.7829441999997471,['c'],0,right,['1'],1,0.7354546999999911,,,12,18,Vrouw,Rechts,1,
,dotcolour,dotcolour,xotask,0,1,60,360,training,positivefb,88,hard,38,1.1170768999995744,['n'],1,right,['9'],5,0.10464930000034656,,,12,18,Vrouw,Rechts,1,
,dotcolour,dotcolour,xotask,1,1,61,361,training,positivefb,91,hard,39,0.9501047999997354,['n'],1,right,['9'],5,0.16612149999991743,,,12,18,Vrouw,Rechts,1,
,dotcolour,dotcolour,xotask,2,1,62,362,training,positivefb,97,average,51,1.2338850000001003,['c'],1,left,['9'],5,0.09384709999994811,,,12,18,Vrouw,Rechts,1,
,dotcolour,dotcolour,xotask,3,1,63,363,training,positivefb,98,hard,38,1.017877100000078,['c'],0,right,['2'],2,1.3060183000002326,,,12,18,Vrouw,Rechts,1,
,dotcolour,dotcolour,xotask,4,1,64,364,training,positivefb,77,hard,37,1.8341292000000067,['c'],0,right,['9'],5,0.13249259999975038,,,12,18,Vrouw,Rechts,1,
,dotcolour,dotcolour,xotask,5,1,65,365,training,positivefb,50,average,51,0.5498897999996188,['n'],0,left,['9'],5,0.6420763999999508,,,12,18,Vrouw,Rechts,1,
,dotcolour,dotcolour,xotask,6,1,66,366,training,positivefb,95,easy,61,0.6328938000001472,['c'],1,left,['9'],5,0.11112999999977546,,,12,18,Vrouw,Rechts,1,
,dotcolour,dotcolour,xotask,7,1,67,367,training,positivefb,43,hard,38,1.767888700000185,['n'],1,right,['0'],6,0.3887912000000142,,,12,18,Vrouw,Rechts,1,
,dotcolour,dotcolour,xotask,8,1,68,368,training,positivefb,96,average,51,0.6503313999996863,['c'],1,left,['0'],6,0.12331100000028528,,,12,18,Vrouw,Rechts,1,
,dotcolour,dotcolour,xotask,9,1,69,369,training,positivefb,90,easy,64,0.7825724999997874,['c'],1,left,['0'],6,0.0951098999998976,,,12,18,Vrouw,Rechts,1,
,dotcolour,dotcolour,xotask,10,1,70,370,training,positivefb,90,average,29,0.8839528000003156,['n'],1,right,['8'],4,0.17618270000002667,,,12,18,Vrouw,Rechts,1,
,dotcolour,dotcolour,xotask,11,1,71,371,training,positivefb,98,average,55,0.7170132999999623,['c'],1,left,['0'],6,0.1327710999998999,,,12,18,Vrouw,Rechts,1,
,dotcolour,dotcolour,xotask,12,1,72,372,training,positivefb,95,hard,44,0.715913399999863,['c'],1,left,['0'],6,0.21097820000022693,,,12,18,Vrouw,Rechts,1,
,dotcolour,dotcolour,xotask,13,1,73,373,training,positivefb,93,easy,17,0.7166548999998668,['n'],1,right,['0'],6,0.1665168999998059,,,12,18,Vrouw,Rechts,1,
,dotcolour,dotcolour,xotask,14,1,74,374,training,positivefb,90,easy,15,0.8329539000001205,['n'],1,right,['0'],6,0.09392210000032719,,,12,18,Vrouw,Rechts,1,
,dotcolour,dotcolour,xotask,15,1,75,375,training,positivefb,93,hard,42,0.966838700000153,['c'],1,left,['8'],4,0.4928783000000294,,,12,18,Vrouw,Rechts,1,
,dotcolour,dotcolour,xotask,16,1,76,376,training,positivefb,96,easy,63,0.8164246000001185,['c'],1,left,['0'],6,0.1444352000003164,,,12,18,Vrouw,Rechts,1,
,dotcolour,dotcolour,xotask,17,1,77,377,training,positivefb,93,easy,16,0.7828632000000653,['n'],1,right,['0'],6,0.15535890000001018,,,12,18,Vrouw,Rechts,1,
,dotcolour,dotcolour,xotask,18,1,78,378,training,positivefb,90,hard,41,1.400851700000203,['c'],1,left,['0'],6,0.32604899999978443,,,12,18,Vrouw,Rechts,1,
,dotcolour,dotcolour,xotask,19,1,79,379,training,positivefb,100,easy,61,0.6831257999997433,['c'],1,left,['0'],6,1.34984089999989,,,12,18,Vrouw,Rechts,1,
,dotcolour,dotcolour,xotask,20,1,80,380,training,positivefb,98,hard,41,0.8664519000003565,['n'],0,left,['8'],4,0.2215265000004365,,,12,18,Vrouw,Rechts,1,
,dotcolour,dotcolour,xotask,21,1,81,381,training,positivefb,83,hard,45,2.234361799999988,['c'],1,left,['0'],6,0.2753498000001855,,,12,18,Vrouw,Rechts,1,
,dotcolour,dotcolour,xotask,22,1,82,382,training,positivefb,88,average,52,3.5334939999997914,['c'],1,left,['8'],4,1.003070000000207,,,12,18,Vrouw,Rechts,1,
,dotcolour,dotcolour,xotask,23,1,83,383,training,positivefb,99,average,26,0.5827269000001252,['n'],1,right,['0'],6,0.12404160000005504,,,12,18,Vrouw,Rechts,1,
,dotcolour,dotcolour,xotask,24,1,84,384,training,positivefb,94,average,26,1.0679130999997142,['n'],1,right,['0'],6,0.8523015000000669,,,12,18,Vrouw,Rechts,1,
,dotcolour,dotcolour,xotask,25,1,85,385,training,positivefb,99,average,26,0.7673222000003079,['n'],1,right,['0'],6,0.8360815999999431,,,12,18,Vrouw,Rechts,1,
,dotcolour,dotcolour,xotask,26,1,86,386,training,positivefb,66,average,51,1.0162816999995812,['c'],1,left,['0'],6,0.33782650000011927,,,12,18,Vrouw,Rechts,1,
,dotcolour,dotcolour,xotask,27,1,87,387,training,positivefb,91,hard,45,1.2341381999999612,['c'],1,left,['8'],4,0.1791347000003043,,,12,18,Vrouw,Rechts,1,
,dotcolour,dotcolour,xotask,28,1,88,388,training,positivefb,76,hard,44,0.8163486000003104,['c'],1,left,['8'],4,0.15623340000001917,,,12,18,Vrouw,Rechts,1,
,dotcolour,dotcolour,xotask,29,1,89,389,training,positivefb,86,hard,35,1.0170506999997997,['n'],1,right,['9'],5,0.12526070000012623,,,12,18,Vrouw,Rechts,1,
,dotcolour,dotcolour,xotask,30,1,90,390,training,positivefb,81,hard,39,0.8661413999998331,['n'],1,right,['9'],5,0.1176988999995956,,,12,18,Vrouw,Rechts,1,
,dotcolour,dotcolour,xotask,31,1,91,391,training,positivefb,80,hard,43,0.6671673000000737,['n'],0,left,['9'],5,0.11043609999978798,,,12,18,Vrouw,Rechts,1,
,dotcolour,dotcolour,xotask,32,1,92,392,training,positivefb,98,hard,37,0.6331853000001502,['n'],1,right,['9'],5,0.1458056999999826,,,12,18,Vrouw,Rechts,1,
,dotcolour,dotcolour,xotask,33,1,93,393,training,positivefb,98,average,55,0.883264600000075,['c'],1,left,['0'],6,0.3530820000000858,,,12,18,Vrouw,Rechts,1,
,dotcolour,dotcolour,xotask,34,1,94,394,training,positivefb,74,average,25,0.7667350000001534,['c'],0,right,['9'],5,0.42818780000015977,,,12,18,Vrouw,Rechts,1,
,dotcolour,dotcolour,xotask,35,1,95,395,training,positivefb,96,easy,65,0.8338496000001214,['c'],1,left,['8'],4,0.28168559999994613,,,12,18,Vrouw,Rechts,1,
,dotcolour,dotcolour,xotask,36,1,96,396,training,positivefb,87,average,25,0.41726779999999053,['n'],1,right,['9'],5,0.1496831999997994,,,12,18,Vrouw,Rechts,1,
,dotcolour,dotcolour,xotask,37,1,97,397,training,positivefb,94,average,54,0.6341142999999647,['c'],1,left,['9'],5,0.1264237000000321,,,12,18,Vrouw,Rechts,1,
,dotcolour,dotcolour,xotask,38,1,98,398,training,positivefb,77,easy,64,0.401170699999966,['n'],0,left,['9'],5,0.193854999999985,,,12,18,Vrouw,Rechts,1,
,dotcolour,dotcolour,xotask,39,1,99,399,training,positivefb,94,easy,15,0.6841595999999299,['n'],1,right,['9'],5,0.06354939999982889,,,12,18,Vrouw,Rechts,1,
,dotcolour,dotcolour,xotask,40,1,100,400,training,positivefb,68,average,28,0.26761080000005677,['c'],0,right,['1'],1,0.763245900000129,,,12,18,Vrouw,Rechts,1,
,dotcolour,dotcolour,xotask,41,1,101,401,training,positivefb,82,hard,39,0.8004244999997354,['c'],0,right,['9'],5,0.25328459999991537,,,12,18,Vrouw,Rechts,1,
,dotcolour,dotcolour,xotask,42,1,102,402,training,positivefb,96,average,27,0.8671841000000313,['n'],1,right,['9'],5,0.06454309999980978,,,12,18,Vrouw,Rechts,1,
,dotcolour,dotcolour,xotask,43,1,103,403,training,positivefb,14,easy,65,0.5679513999998562,['n'],0,left,['1'],1,0.7601244000002225,,,12,18,Vrouw,Rechts,1,
,dotcolour,dotcolour,xotask,44,1,104,404,training,positivefb,93,easy,19,0.9343862999999146,['n'],1,right,['9'],5,0.07663969999975961,,,12,18,Vrouw,Rechts,1,
,dotcolour,dotcolour,xotask,45,1,105,405,training,positivefb,94,easy,17,0.7002474000000802,['n'],1,right,['9'],5,0.08598630000005869,,,12,18,Vrouw,Rechts,1,
,dotcolour,dotcolour,xotask,46,1,106,406,training,positivefb,81,hard,44,2.8329961999997977,['c'],1,left,['3'],3,0.8976881000003232,,,12,18,Vrouw,Rechts,1,
,dotcolour,dotcolour,xotask,47,1,107,407,training,positivefb,91,easy,64,1.2012638000001061,['c'],1,left,['9'],5,0.046283499999844935,,,12,18,Vrouw,Rechts,1,
,dotcolour,dotcolour,xotask,48,1,108,408,training,positivefb,93,hard,35,1.0838507999997091,['n'],1,right,['9'],5,0.08952420000014172,,,12,18,Vrouw,Rechts,1,
,dotcolour,dotcolour,xotask,49,1,109,409,training,positivefb,95,average,28,0.6835959999998522,['c'],0,right,['9'],5,0.06636029999981474,,,12,18,Vrouw,Rechts,1,
,dotcolour,dotcolour,xotask,50,1,110,410,training,positivefb,95,hard,42,0.7826780000000326,['c'],1,left,['9'],5,0.4407894999999371,,,12,18,Vrouw,Rechts,1,
,dotcolour,dotcolour,xotask,51,1,111,411,training,positivefb,89,easy,16,0.7001736000001983,['c'],0,right,['9'],5,0.06705360000023575,,,12,18,Vrouw,Rechts,1,
,dotcolour,dotcolour,xotask,52,1,112,412,training,positivefb,87,easy,61,0.8504687999998168,['n'],0,left,['9'],5,0.06273510000028182,,,12,18,Vrouw,Rechts,1,
,dotcolour,dotcolour,xotask,53,1,113,413,training,positivefb,97,easy,65,0.6510810999998284,['c'],1,left,['9'],5,0.07475909999993746,,,12,18,Vrouw,Rechts,1,
,dotcolour,dotcolour,xotask,54,1,114,414,training,positivefb,86,average,51,0.884544100000312,['c'],1,left,['9'],5,0.05256620000000112,,,12,18,Vrouw,Rechts,1,
,dotcolour,dotcolour,xotask,55,1,115,415,training,positivefb,91,easy,17,0.7669941999997718,['n'],1,right,['9'],5,0.11544980000007854,,,12,18,Vrouw,Rechts,1,
,dotcolour,dotcolour,xotask,56,1,116,416,training,positivefb,78,easy,17,0.6335325000000012,['n'],1,right,['8'],4,0.23777879999988727,,,12,18,Vrouw,Rechts,1,
,dotcolour,dotcolour,xotask,57,1,117,417,training,positivefb,92,average,53,0.8998999000000367,['c'],1,left,['9'],5,0.13654109999970387,,,12,18,Vrouw,Rechts,1,
,dotcolour,dotcolour,xotask,58,1,118,418,training,positivefb,90,average,28,0.7172264000000723,['n'],1,right,['0'],6,0.11832690000028379,,,12,18,Vrouw,Rechts,1,
,dotcolour,dotcolour,xotask,59,1,119,419,training,positivefb,93,easy,16,0.7845032000000174,['n'],1,right,['9'],5,0.034235899999657704,,,12,18,Vrouw,Rechts,1,
,dotcolour,dotcolour,xotask,0,2,120,420,main,positivefb,-99,hard,37,3.2685231000000385,['n'],1,right,['9'],5,6.4495615999999245,,,12,18,Vrouw,Rechts,1,
,dotcolour,dotcolour,xotask,1,2,121,421,main,positivefb,-99,average,55,1.0842105000001538,['c'],1,left,['9'],5,0.6607155000001512,,,12,18,Vrouw,Rechts,1,
,dotcolour,dotcolour,xotask,2,2,122,422,main,positivefb,-99,hard,44,3.584106399999655,['n'],0,left,['9'],5,0.4201653999998598,,,12,18,Vrouw,Rechts,1,
,dotcolour,dotcolour,xotask,3,2,123,423,main,positivefb,-99,average,55,1.2014211999999134,['c'],1,left,['9'],5,0.25235380000003715,,,12,18,Vrouw,Rechts,1,
,dotcolour,dotcolour,xotask,4,2,124,424,main,positivefb,-99,hard,44,0.6181381999999758,['c'],1,left,['9'],5,0.10548849999986487,,,12,18,Vrouw,Rechts,1,
,dotcolour,dotcolour,xotask,5,2,125,425,main,positivefb,-99,hard,41,1.2499815999999555,['n'],0,left,['8'],4,0.10885050000024421,,,12,18,Vrouw,Rechts,1,
,dotcolour,dotcolour,xotask,6,2,126,426,main,positivefb,-99,average,54,0.6845908999998755,['c'],1,left,['0'],6,0.15042259999972885,,,12,18,Vrouw,Rechts,1,
,dotcolour,dotcolour,xotask,7,2,127,427,main,positivefb,-99,average,25,1.017944599999737,['n'],1,right,['0'],6,0.22381070000028558,,,12,18,Vrouw,Rechts,1,
,dotcolour,dotcolour,xotask,8,2,128,428,main,positivefb,-99,average,28,0.616868500000237,['n'],1,right,['0'],6,0.1514885999999933,,,12,18,Vrouw,Rechts,1,
,dotcolour,dotcolour,xotask,9,2,129,429,main,positivefb,-99,easy,18,0.5670960000002196,['n'],1,right,['0'],6,0.1471948000003067,,,12,18,Vrouw,Rechts,1,
,dotcolour,dotcolour,xotask,10,2,130,430,main,positivefb,-99,easy,17,0.5179019000001972,['n'],1,right,['0'],6,0.13728779999973995,,,12,18,Vrouw,Rechts,1,
,dotcolour,dotcolour,xotask,11,2,131,431,main,positivefb,-99,easy,62,0.45117130000016914,['c'],1,left,['0'],6,0.1468854000004285,,,12,18,Vrouw,Rechts,1,
,dotcolour,dotcolour,xotask,12,2,132,432,main,positivefb,-99,easy,19,0.4332686000002468,['n'],1,right,['0'],6,0.1415711999998166,,,12,18,Vrouw,Rechts,1,
,dotcolour,dotcolour,xotask,13,2,133,433,main,positivefb,-99,hard,36,0.5012661000000662,['c'],0,right,['8'],4,0.6054205000000366,,,12,18,Vrouw,Rechts,1,
,dotcolour,dotcolour,xotask,14,2,134,434,main,positivefb,-99,hard,37,1.067866899999899,['c'],0,right,['8'],4,0.03472920000012891,,,12,18,Vrouw,Rechts,1,
,dotcolour,dotcolour,xotask,15,2,135,435,main,positivefb,-99,hard,41,0.634053600000243,['n'],0,left,['8'],4,0.08895030000030602,,,12,18,Vrouw,Rechts,1,
,dotcolour,dotcolour,xotask,16,2,136,436,main,positivefb,-99,easy,61,0.6836766000001262,['c'],1,left,['0'],6,0.11477920000015729,,,12,18,Vrouw,Rechts,1,
,dotcolour,dotcolour,xotask,17,2,137,437,main,positivefb,-99,hard,45,0.9015168000000813,['c'],1,left,['1'],1,0.7389103000000432,,,12,18,Vrouw,Rechts,1,
,dotcolour,dotcolour,xotask,18,2,138,438,main,positivefb,-99,hard,43,1.9017370999999912,['c'],1,left,['0'],6,0.0902936000002228,,,12,18,Vrouw,Rechts,1,
,dotcolour,dotcolour,xotask,19,2,139,439,main,positivefb,-99,average,55,1.1996441000001141,['c'],1,left,['0'],6,0.09535000000005311,,,12,18,Vrouw,Rechts,1,
,dotcolour,dotcolour,xotask,20,2,140,440,main,positivefb,-99,average,27,0.41684650000024703,['n'],1,right,['0'],6,0.1322082000001501,,,12,18,Vrouw,Rechts,1,
,dotcolour,dotcolour,xotask,21,2,141,441,main,positivefb,-99,easy,16,0.43359090000012657,['c'],0,right,['1'],1,0.5735343000001194,,,12,18,Vrouw,Rechts,1,
,dotcolour,dotcolour,xotask,22,2,142,442,main,positivefb,-99,hard,42,0.6836769000001368,['n'],0,left,['0'],6,0.09301779999987048,,,12,18,Vrouw,Rechts,1,
,dotcolour,dotcolour,xotask,23,2,143,443,main,positivefb,-99,easy,15,0.6341514000000643,['n'],1,right,['0'],6,0.06439349999982369,,,12,18,Vrouw,Rechts,1,
,dotcolour,dotcolour,xotask,24,2,144,444,main,positivefb,-99,average,54,0.6511296999997285,['c'],1,left,['0'],6,0.12484589999985474,,,12,18,Vrouw,Rechts,1,
,dotcolour,dotcolour,xotask,25,2,145,445,main,positivefb,-99,easy,17,0.5511203000000933,['n'],1,right,['0'],6,0.10695409999971162,,,12,18,Vrouw,Rechts,1,
,dotcolour,dotcolour,xotask,26,2,146,446,main,positivefb,-99,easy,62,0.36657149999973626,['c'],1,left,['0'],6,0.08107590000008713,,,12,18,Vrouw,Rechts,1,
,dotcolour,dotcolour,xotask,27,2,147,447,main,positivefb,-99,easy,15,0.3513022000001911,['n'],1,right,['0'],6,0.0968540000003486,,,12,18,Vrouw,Rechts,1,
,dotcolour,dotcolour,xotask,28,2,148,448,main,positivefb,-99,average,28,0.3168938999997408,['c'],0,right,['1'],1,0.6494550000002164,,,12,18,Vrouw,Rechts,1,
,dotcolour,dotcolour,xotask,29,2,149,449,main,positivefb,-99,hard,39,0.4847423000001072,['n'],1,right,['0'],6,0.09259240000028512,,,12,18,Vrouw,Rechts,1,
,dotcolour,dotcolour,xotask,30,2,150,450,main,positivefb,-99,easy,65,0.6686211000001094,['c'],1,left,['0'],6,0.11916219999966415,,,12,18,Vrouw,Rechts,1,
,dotcolour,dotcolour,xotask,31,2,151,451,main,positivefb,-99,average,53,0.45116619999998875,['c'],1,left,['0'],6,0.10546880000038072,,,12,18,Vrouw,Rechts,1,
,dotcolour,dotcolour,xotask,32,2,152,452,main,positivefb,-99,hard,41,0.8007415000001856,['n'],0,left,['0'],6,0.1182861000002049,,,12,18,Vrouw,Rechts,1,
,dotcolour,dotcolour,xotask,33,2,153,453,main,positivefb,-99,hard,43,3.31721940000034,['c'],1,left,['8'],4,0.17404759999999442,,,12,18,Vrouw,Rechts,1,
,dotcolour,dotcolour,xotask,34,2,154,454,main,positivefb,-99,hard,38,1.8495084999999563,['c'],0,right,['9'],5,0.29336490000014237,,,12,18,Vrouw,Rechts,1,
,dotcolour,dotcolour,xotask,35,2,155,455,main,positivefb,-99,easy,64,0.785143699999935,['c'],1,left,['9'],5,0.20337389999986044,,,12,18,Vrouw,Rechts,1,
,dotcolour,dotcolour,xotask,36,2,156,456,main,positivefb,-99,easy,65,0.41728460000013,['c'],1,left,['0'],6,0.08395059999975274,,,12,18,Vrouw,Rechts,1,
,dotcolour,dotcolour,xotask,37,2,157,457,main,positivefb,-99,easy,62,0.3341740999999274,['c'],1,left,['0'],6,0.09957649999978457,,,12,18,Vrouw,Rechts,1,
,dotcolour,dotcolour,xotask,38,2,158,458,main,positivefb,-99,hard,37,0.7345641000001706,['n'],1,right,['0'],6,0.0988734999996268,,,12,18,Vrouw,Rechts,1,
,dotcolour,dotcolour,xotask,39,2,159,459,main,positivefb,-99,average,55,0.5843988000001445,['c'],1,left,['0'],6,0.0886398000002373,,,12,18,Vrouw,Rechts,1,
,dotcolour,dotcolour,xotask,40,2,160,460,main,positivefb,-99,average,29,0.3342721999997593,['n'],1,right,['0'],6,0.08009140000012849,,,12,18,Vrouw,Rechts,1,
,dotcolour,dotcolour,xotask,41,2,161,461,main,positivefb,-99,average,51,1.0181414999997287,['c'],1,left,['0'],6,0.08587350000016158,,,12,18,Vrouw,Rechts,1,
,dotcolour,dotcolour,xotask,42,2,162,462,main,positivefb,-99,average,25,0.7505839000000378,['n'],1,right,['0'],6,0.10894800000005489,,,12,18,Vrouw,Rechts,1,
,dotcolour,dotcolour,xotask,43,2,163,463,main,positivefb,-99,easy,16,0.4669901000002028,['n'],1,right,['0'],6,0.2145237999998244,,,12,18,Vrouw,Rechts,1,
,dotcolour,dotcolour,xotask,44,2,164,464,main,positivefb,-99,average,25,0.4005451000002722,['n'],1,right,['0'],6,0.13485099999979866,,,12,18,Vrouw,Rechts,1,
,dotcolour,dotcolour,xotask,45,2,165,465,main,positivefb,-99,hard,36,0.38462970000000496,['n'],1,right,['0'],6,0.07546589999992648,,,12,18,Vrouw,Rechts,1,
,dotcolour,dotcolour,xotask,46,2,166,466,main,positivefb,-99,hard,45,0.334128999999848,['n'],0,left,['0'],6,0.12304249999988315,,,12,18,Vrouw,Rechts,1,
,dotcolour,dotcolour,xotask,47,2,167,467,main,positivefb,-99,easy,61,0.6825853000000279,['c'],1,left,['9'],5,0.2685083000001214,,,12,18,Vrouw,Rechts,1,
,dotcolour,dotcolour,xotask,48,2,168,468,main,positivefb,-99,hard,37,1.5835117999999966,['n'],1,right,['9'],5,0.08286750000024767,,,12,18,Vrouw,Rechts,1,
,dotcolour,dotcolour,xotask,49,2,169,469,main,positivefb,-99,hard,39,0.9507338999997046,['c'],0,right,['8'],4,0.1617020000003322,,,12,18,Vrouw,Rechts,1,
,dotcolour,dotcolour,xotask,50,2,170,470,main,positivefb,-99,easy,62,0.7681867999999668,['c'],1,left,['8'],4,0.07804559999976846,,,12,18,Vrouw,Rechts,1,
,dotcolour,dotcolour,xotask,51,2,171,471,main,positivefb,-99,average,27,0.46728399999983594,['c'],0,right,['0'],6,0.14555459999974119,,,12,18,Vrouw,Rechts,1,
,dotcolour,dotcolour,xotask,52,2,172,472,main,positivefb,-99,easy,15,0.6675814999998693,['n'],1,right,['0'],6,0.050249299999904906,,,12,18,Vrouw,Rechts,1,
,dotcolour,dotcolour,xotask,53,2,173,473,main,positivefb,-99,average,54,1.9656723000002785,['c'],1,left,['8'],4,0.6740215999998327,,,12,18,Vrouw,Rechts,1,
,dotcolour,dotcolour,xotask,54,2,174,474,main,positivefb,-99,easy,63,0.9176791999998386,['c'],1,left,['0'],6,0.4353288000002067,,,12,18,Vrouw,Rechts,1,
,dotcolour,dotcolour,xotask,55,2,175,475,main,positivefb,-99,hard,39,1.0509014999997817,['n'],1,right,['9'],5,0.16891009999972084,,,12,18,Vrouw,Rechts,1,
,dotcolour,dotcolour,xotask,56,2,176,476,main,positivefb,-99,average,28,1.6347710999998526,['n'],1,right,['0'],6,0.0735514000002695,,,12,18,Vrouw,Rechts,1,
,dotcolour,dotcolour,xotask,57,2,177,477,main,positivefb,-99,average,26,0.8015214000001833,['n'],1,right,['0'],6,0.11164890000009109,,,12,18,Vrouw,Rechts,1,
,dotcolour,dotcolour,xotask,58,2,178,478,main,positivefb,-99,average,55,0.7009548000000905,['n'],0,left,['0'],6,0.08881450000035329,,,12,18,Vrouw,Rechts,1,
,dotcolour,dotcolour,xotask,59,2,179,479,main,positivefb,-99,easy,18,0.7840651999999864,['c'],0,right,['8'],4,0.23048030000018116,,,12,18,Vrouw,Rechts,1,
,dotcolour,dotcolour,xotask,0,3,180,480,main,positivefb,-99,easy,17,3.234934300000077,['c'],0,right,['0'],6,0.8416689000000588,,,12,18,Vrouw,Rechts,1,
,dotcolour,dotcolour,xotask,1,3,181,481,main,positivefb,-99,hard,39,1.8169950000001336,['n'],1,right,['0'],6,0.19190429999980552,,,12,18,Vrouw,Rechts,1,
,dotcolour,dotcolour,xotask,2,3,182,482,main,positivefb,-99,hard,43,1.116584100000182,['c'],1,left,['8'],4,0.42870719999973517,,,12,18,Vrouw,Rechts,1,
,dotcolour,dotcolour,xotask,3,3,183,483,main,positivefb,-99,easy,15,0.9839263000003484,['n'],1,right,['0'],6,0.16508550000025934,,,12,18,Vrouw,Rechts,1,
,dotcolour,dotcolour,xotask,4,3,184,484,main,positivefb,-99,hard,35,0.6675749999999425,['n'],1,right,['0'],6,0.1087854000002153,,,12,18,Vrouw,Rechts,1,
,dotcolour,dotcolour,xotask,5,3,185,485,main,positivefb,-99,hard,41,0.9341204000002108,['n'],0,left,['8'],4,0.05206240000006801,,,12,18,Vrouw,Rechts,1,
,dotcolour,dotcolour,xotask,6,3,186,486,main,positivefb,-99,average,26,0.4848907999999028,['n'],1,right,['0'],6,0.2642052999999578,,,12,18,Vrouw,Rechts,1,
,dotcolour,dotcolour,xotask,7,3,187,487,main,positivefb,-99,average,51,0.6515889999996034,['c'],1,left,['8'],4,0.1724275999999918,,,12,18,Vrouw,Rechts,1,
,dotcolour,dotcolour,xotask,8,3,188,488,main,positivefb,-99,easy,61,0.6180887999998959,['c'],1,left,['0'],6,0.11780099999987215,,,12,18,Vrouw,Rechts,1,
,dotcolour,dotcolour,xotask,9,3,189,489,main,positivefb,-99,easy,64,0.38457659999994576,['c'],1,left,['0'],6,0.09013009999989663,,,12,18,Vrouw,Rechts,1,
,dotcolour,dotcolour,xotask,10,3,190,490,main,positivefb,-99,hard,43,0.8839198999999098,['c'],1,left,['0'],6,0.3406190000000606,,,12,18,Vrouw,Rechts,1,
,dotcolour,dotcolour,xotask,11,3,191,491,main,positivefb,-99,hard,41,1.4512260999999853,['n'],0,left,['8'],4,0.1575063999998747,,,12,18,Vrouw,Rechts,1,
,dotcolour,dotcolour,xotask,12,3,192,492,main,positivefb,-99,hard,36,0.8339193000001615,['c'],0,right,['3'],3,0.8863387000001239,,,12,18,Vrouw,Rechts,1,
,dotcolour,dotcolour,xotask,13,3,193,493,main,positivefb,-99,easy,19,0.6841749999998683,['n'],1,right,['8'],4,0.1538925999998355,,,12,18,Vrouw,Rechts,1,
,dotcolour,dotcolour,xotask,14,3,194,494,main,positivefb,-99,easy,19,0.6844062000000122,['n'],1,right,['0'],6,0.11205550000022413,,,12,18,Vrouw,Rechts,1,
,dotcolour,dotcolour,xotask,15,3,195,495,main,positivefb,-99,easy,16,0.3840507999998408,['n'],1,right,['0'],6,0.1579677999998239,,,12,18,Vrouw,Rechts,1,
,dotcolour,dotcolour,xotask,16,3,196,496,main,positivefb,-99,easy,62,0.6335732000002281,['c'],1,left,['0'],6,0.13512390000005325,,,12,18,Vrouw,Rechts,1,
,dotcolour,dotcolour,xotask,17,3,197,497,main,positivefb,-99,hard,45,0.8856520999997883,['n'],0,left,['8'],4,0.1111868000002687,,,12,18,Vrouw,Rechts,1,
,dotcolour,dotcolour,xotask,18,3,198,498,main,positivefb,-99,easy,18,0.8185377999998309,['c'],0,right,['1'],1,0.8190283000003546,,,12,18,Vrouw,Rechts,1,
,dotcolour,dotcolour,xotask,19,3,199,499,main,positivefb,-99,hard,35,1.1348355000000083,['n'],1,right,['0'],6,0.2776394999996228,,,12,18,Vrouw,Rechts,1,
,dotcolour,dotcolour,xotask,20,3,200,500,main,positivefb,-99,hard,38,0.5180558000001838,['n'],1,right,['0'],6,0.18340160000025207,,,12,18,Vrouw,Rechts,1,
,dotcolour,dotcolour,xotask,21,3,201,501,main,positivefb,-99,easy,65,0.6675310999999056,['c'],1,left,['0'],6,0.12518520000003264,,,12,18,Vrouw,Rechts,1,
,dotcolour,dotcolour,xotask,22,3,202,502,main,positivefb,-99,easy,61,0.43341519999967204,['c'],1,left,['0'],6,0.09657379999998739,,,12,18,Vrouw,Rechts,1,
,dotcolour,dotcolour,xotask,23,3,203,503,main,positivefb,-99,easy,17,0.7345539999996618,['n'],1,right,['0'],6,0.20083230000000185,,,12,18,Vrouw,Rechts,1,
,dotcolour,dotcolour,xotask,24,3,204,504,main,positivefb,-99,hard,37,0.6009658999996645,['n'],1,right,['0'],6,0.13723350000009304,,,12,18,Vrouw,Rechts,1,
,dotcolour,dotcolour,xotask,25,3,205,505,main,positivefb,-99,average,51,0.6671875000001819,['c'],1,left,['0'],6,0.18550679999998465,,,12,18,Vrouw,Rechts,1,
,dotcolour,dotcolour,xotask,26,3,206,506,main,positivefb,-99,hard,42,0.5345216000000619,['n'],0,left,['1'],1,0.8857294999997976,,,12,18,Vrouw,Rechts,1,
,dotcolour,dotcolour,xotask,27,3,207,507,main,positivefb,-99,easy,15,0.6340586999999687,['n'],1,right,['0'],6,0.08951040000010835,,,12,18,Vrouw,Rechts,1,
,dotcolour,dotcolour,xotask,28,3,208,508,main,positivefb,-99,easy,65,0.6013410000000476,['c'],1,left,['0'],6,0.10327550000010888,,,12,18,Vrouw,Rechts,1,
,dotcolour,dotcolour,xotask,29,3,209,509,main,positivefb,-99,average,29,1.3347475000000486,['n'],1,right,['8'],4,0.038845000000037544,,,12,18,Vrouw,Rechts,1,
,dotcolour,dotcolour,xotask,30,3,210,510,main,positivefb,-99,hard,39,1.4009283000000323,['c'],0,right,['0'],6,0.06991029999971943,,,12,18,Vrouw,Rechts,1,
,dotcolour,dotcolour,xotask,31,3,211,511,main,positivefb,-99,average,28,0.5172408000003088,['c'],0,right,['0'],6,0.0791452999997091,,,12,18,Vrouw,Rechts,1,
,dotcolour,dotcolour,xotask,32,3,212,512,main,positivefb,-99,average,28,0.3667201000002933,['c'],0,right,['0'],6,0.02234490000000733,,,12,18,Vrouw,Rechts,1,
,dotcolour,dotcolour,xotask,33,3,213,513,main,positivefb,-99,easy,64,2.7006319000001895,['c'],1,left,['0'],6,0.12249490000021979,,,12,18,Vrouw,Rechts,1,
,dotcolour,dotcolour,xotask,34,3,214,514,main,positivefb,-99,average,52,1.1336922999998933,['c'],1,left,['0'],6,0.13726649999989604,,,12,18,Vrouw,Rechts,1,
,dotcolour,dotcolour,xotask,35,3,215,515,main,positivefb,-99,easy,19,0.7169957000000977,['n'],1,right,['0'],6,0.09596770000007382,,,12,18,Vrouw,Rechts,1,
,dotcolour,dotcolour,xotask,36,3,216,516,main,positivefb,-99,average,51,1.5842949999996563,['c'],1,left,['0'],6,0.12583180000001448,,,12,18,Vrouw,Rechts,1,
,dotcolour,dotcolour,xotask,37,3,217,517,main,positivefb,-99,hard,39,3.217293400000017,['c'],0,right,['8'],4,0.07353890000013052,,,12,18,Vrouw,Rechts,1,
,dotcolour,dotcolour,xotask,38,3,218,518,main,positivefb,-99,hard,41,4.484816500000306,['c'],1,left,['3'],3,0.37982480000027863,,,12,18,Vrouw,Rechts,1,
,dotcolour,dotcolour,xotask,39,3,219,519,main,positivefb,-99,average,28,1.8177964000001339,['n'],1,right,['0'],6,0.4455487999998695,,,12,18,Vrouw,Rechts,1,
,dotcolour,dotcolour,xotask,40,3,220,520,main,positivefb,-99,average,27,0.5840281999999206,['n'],1,right,['0'],6,0.10141430000021501,,,12,18,Vrouw,Rechts,1,
,dotcolour,dotcolour,xotask,41,3,221,521,main,positivefb,-99,hard,37,0.46760870000025534,['n'],1,right,['0'],6,0.2309943000000203,,,12,18,Vrouw,Rechts,1,
,dotcolour,dotcolour,xotask,42,3,222,522,main,positivefb,-99,average,25,0.8340763999999581,['n'],1,right,['8'],4,0.25379320000001826,,,12,18,Vrouw,Rechts,1,
,dotcolour,dotcolour,xotask,43,3,223,523,main,positivefb,-99,average,54,0.8011958000001869,['c'],1,left,['8'],4,0.11611229999971329,,,12,18,Vrouw,Rechts,1,
,dotcolour,dotcolour,xotask,44,3,224,524,main,positivefb,-99,average,27,0.8841599999996106,['n'],1,right,['8'],4,0.12490529999968203,,,12,18,Vrouw,Rechts,1,
,dotcolour,dotcolour,xotask,45,3,225,525,main,positivefb,-99,average,27,0.7337179000001015,['n'],1,right,['8'],4,0.1712110999997094,,,12,18,Vrouw,Rechts,1,
,dotcolour,dotcolour,xotask,46,3,226,526,main,positivefb,-99,easy,19,0.3514244000002691,['n'],1,right,['8'],4,0.16715030000023035,,,12,18,Vrouw,Rechts,1,
,dotcolour,dotcolour,xotask,47,3,227,527,main,positivefb,-99,hard,39,0.3340259999999944,['n'],1,right,['0'],6,0.20429719999992813,,,12,18,Vrouw,Rechts,1,
,dotcolour,dotcolour,xotask,48,3,228,528,main,positivefb,-99,hard,41,0.6685922000001483,['n'],0,left,['0'],6,0.154225199999928,,,12,18,Vrouw,Rechts,1,
,dotcolour,dotcolour,xotask,49,3,229,529,main,positivefb,-99,average,54,1.5010455000001457,['n'],0,left,['9'],5,0.35272119999990537,,,12,18,Vrouw,Rechts,1,
,dotcolour,dotcolour,xotask,50,3,230,530,main,positivefb,-99,easy,62,1.0173801999999341,['c'],1,left,['9'],5,0.1465512999998282,,,12,18,Vrouw,Rechts,1,
,dotcolour,dotcolour,xotask,51,3,231,531,main,positivefb,-99,average,27,0.5339027999998507,['n'],1,right,['9'],5,0.1202155999999377,,,12,18,Vrouw,Rechts,1,
,dotcolour,dotcolour,xotask,52,3,232,532,main,positivefb,-99,average,52,0.5848501000000397,['n'],0,left,['9'],5,0.08547889999999825,,,12,18,Vrouw,Rechts,1,
,dotcolour,dotcolour,xotask,53,3,233,533,main,positivefb,-99,easy,64,0.4341706999998678,['c'],1,left,['9'],5,0.21702289999984714,,,12,18,Vrouw,Rechts,1,
,dotcolour,dotcolour,xotask,54,3,234,534,main,positivefb,-99,average,54,0.28382009999995716,['c'],1,left,['0'],6,0.10210260000030758,,,12,18,Vrouw,Rechts,1,
,dotcolour,dotcolour,xotask,55,3,235,535,main,positivefb,-99,hard,44,0.28358090000028824,['c'],1,left,['9'],5,0.07094250000000102,,,12,18,Vrouw,Rechts,1,
,dotcolour,dotcolour,xotask,56,3,236,536,main,positivefb,-99,hard,42,0.2170467999999346,['c'],1,left,['8'],4,0.08446159999994052,,,12,18,Vrouw,Rechts,1,
,dotcolour,dotcolour,xotask,57,3,237,537,main,positivefb,-99,average,55,0.12424000000009983,['c'],1,left,['0'],6,0.034539399999630405,,,12,18,Vrouw,Rechts,1,
,dotcolour,dotcolour,xotask,58,3,238,538,main,positivefb,-99,easy,65,0.16306989999975485,['c'],1,left,['9'],5,0.09003500000017084,,,12,18,Vrouw,Rechts,1,
,dotcolour,dotcolour,xotask,59,3,239,539,main,positivefb,-99,average,55,0.1289796999999453,['c'],1,left,['8'],4,0.02349869999989096,,,12,18,Vrouw,Rechts,1,
,dotcolour,dotcolour,xotask,0,4,240,540,main,positivefb,-99,average,52,4.368554700000004,['c'],1,left,['8'],4,4.419065800000226,,,12,18,Vrouw,Rechts,1,
,dotcolour,dotcolour,xotask,1,4,241,541,main,positivefb,-99,average,25,4.6845244000001,['c'],0,right,['3'],3,0.792024500000025,,,12,18,Vrouw,Rechts,1,
,dotcolour,dotcolour,xotask,2,4,242,542,main,positivefb,-99,hard,43,1.2348869000002196,['c'],1,left,['8'],4,0.11957770000026358,,,12,18,Vrouw,Rechts,1,
,dotcolour,dotcolour,xotask,3,4,243,543,main,positivefb,-99,average,27,0.6177382000000762,['c'],0,right,['9'],5,0.19542569999975967,,,12,18,Vrouw,Rechts,1,
,dotcolour,dotcolour,xotask,4,4,244,544,main,positivefb,-99,average,52,0.6672244999999748,['c'],1,left,['0'],6,0.32997949999980847,,,12,18,Vrouw,Rechts,1,
,dotcolour,dotcolour,xotask,5,4,245,545,main,positivefb,-99,hard,38,1.9340938999998798,['n'],1,right,['0'],6,0.19263329999967027,,,12,18,Vrouw,Rechts,1,
,dotcolour,dotcolour,xotask,6,4,246,546,main,positivefb,-99,hard,43,0.6173694999997679,['n'],0,left,['9'],5,0.20891409999967436,,,12,18,Vrouw,Rechts,1,
,dotcolour,dotcolour,xotask,7,4,247,547,main,positivefb,-99,easy,19,0.38450700000021243,['n'],1,right,['8'],4,0.15480040000011286,,,12,18,Vrouw,Rechts,1,
,dotcolour,dotcolour,xotask,8,4,248,548,main,positivefb,-99,easy,17,0.33384810000006837,['n'],1,right,['0'],6,0.16738700000041717,,,12,18,Vrouw,Rechts,1,
,dotcolour,dotcolour,xotask,9,4,249,549,main,positivefb,-99,hard,44,1.1833035999998174,['c'],1,left,['9'],5,0.37883649999957925,,,12,18,Vrouw,Rechts,1,
,dotcolour,dotcolour,xotask,10,4,250,550,main,positivefb,-99,average,26,0.9506719999999405,['n'],1,right,['9'],5,0.22965499999963868,,,12,18,Vrouw,Rechts,1,
,dotcolour,dotcolour,xotask,11,4,251,551,main,positivefb,-99,hard,36,0.5501168999999209,['c'],0,right,['3'],3,0.7048531999998886,,,12,18,Vrouw,Rechts,1,
,dotcolour,dotcolour,xotask,12,4,252,552,main,positivefb,-99,average,26,0.5183730999997351,['n'],1,right,['9'],5,0.12009809999972276,,,12,18,Vrouw,Rechts,1,
,dotcolour,dotcolour,xotask,13,4,253,553,main,positivefb,-99,average,53,0.6351670999997623,['c'],1,left,['3'],3,0.8588418999997884,,,12,18,Vrouw,Rechts,1,
,dotcolour,dotcolour,xotask,14,4,254,554,main,positivefb,-99,hard,42,1.8513131999998222,['c'],1,left,['8'],4,0.2394536000001608,,,12,18,Vrouw,Rechts,1,
,dotcolour,dotcolour,xotask,15,4,255,555,main,positivefb,-99,easy,65,0.7017280000000028,['c'],1,left,['0'],6,0.2666991000000962,,,12,18,Vrouw,Rechts,1,
,dotcolour,dotcolour,xotask,16,4,256,556,main,positivefb,-99,hard,38,0.6670285000000149,['c'],0,right,['0'],6,0.1500676000000567,,,12,18,Vrouw,Rechts,1,
,dotcolour,dotcolour,xotask,17,4,257,557,main,positivefb,-99,average,29,1.001114300000154,['n'],1,right,['0'],6,0.14494179999974222,,,12,18,Vrouw,Rechts,1,
,dotcolour,dotcolour,xotask,18,4,258,558,main,positivefb,-99,average,26,0.7501989999996113,['n'],1,right,['0'],6,0.13396840000041266,,,12,18,Vrouw,Rechts,1,
,dotcolour,dotcolour,xotask,19,4,259,559,main,positivefb,-99,easy,19,0.5503251000000091,['n'],1,right,['0'],6,0.11548170000014579,,,12,18,Vrouw,Rechts,1,
,dotcolour,dotcolour,xotask,20,4,260,560,main,positivefb,-99,easy,65,0.8673154000002796,['c'],1,left,['8'],4,0.3013980000000629,,,12,18,Vrouw,Rechts,1,
,dotcolour,dotcolour,xotask,21,4,261,561,main,positivefb,-99,average,52,0.651019300000371,['c'],1,left,['9'],5,0.1759425000000192,,,12,18,Vrouw,Rechts,1,
,dotcolour,dotcolour,xotask,22,4,262,562,main,positivefb,-99,easy,61,0.4520759999995789,['c'],1,left,['9'],5,0.08815999999978885,,,12,18,Vrouw,Rechts,1,
,dotcolour,dotcolour,xotask,23,4,263,563,main,positivefb,-99,easy,19,0.8844270000004144,['c'],0,right,['0'],6,0.14588580000008733,,,12,18,Vrouw,Rechts,1,
,dotcolour,dotcolour,xotask,24,4,264,564,main,positivefb,-99,average,53,0.7684526999996706,['c'],1,left,['0'],6,0.7350276000001941,,,12,18,Vrouw,Rechts,1,
,dotcolour,dotcolour,xotask,25,4,265,565,main,positivefb,-99,easy,16,2.23451440000008,['n'],1,right,['0'],6,0.13676970000005895,,,12,18,Vrouw,Rechts,1,
,dotcolour,dotcolour,xotask,26,4,266,566,main,positivefb,-99,hard,38,0.9848822000003565,['n'],1,right,['0'],6,0.20429369999965274,,,12,18,Vrouw,Rechts,1,
,dotcolour,dotcolour,xotask,27,4,267,567,main,positivefb,-99,hard,36,0.6348446000001786,['n'],1,right,['0'],6,0.1315996999996969,,,12,18,Vrouw,Rechts,1,
,dotcolour,dotcolour,xotask,28,4,268,568,main,positivefb,-99,easy,19,0.634978499999761,['n'],1,right,['0'],6,0.10977589999993143,,,12,18,Vrouw,Rechts,1,
,dotcolour,dotcolour,xotask,29,4,269,569,main,positivefb,-99,hard,36,0.500389300000279,['n'],1,right,['0'],6,0.24633700000003955,,,12,18,Vrouw,Rechts,1,
,dotcolour,dotcolour,xotask,30,4,270,570,main,positivefb,-99,average,28,0.5172944999999345,['n'],1,right,['0'],6,0.16900440000017625,,,12,18,Vrouw,Rechts,1,
,dotcolour,dotcolour,xotask,31,4,271,571,main,positivefb,-99,easy,61,0.5006547000002683,['c'],1,left,['0'],6,0.14297170000008919,,,12,18,Vrouw,Rechts,1,
,dotcolour,dotcolour,xotask,32,4,272,572,main,positivefb,-99,hard,35,1.8007701000001362,['n'],1,right,['0'],6,0.12259140000014668,,,12,18,Vrouw,Rechts,1,
,dotcolour,dotcolour,xotask,33,4,273,573,main,positivefb,-99,easy,64,0.5843103000001975,['c'],1,left,['0'],6,0.07924489999959405,,,12,18,Vrouw,Rechts,1,
,dotcolour,dotcolour,xotask,34,4,274,574,main,positivefb,-99,average,25,0.500581400000101,['c'],0,right,['1'],1,0.7452720000001136,,,12,18,Vrouw,Rechts,1,
,dotcolour,dotcolour,xotask,35,4,275,575,main,positivefb,-99,easy,65,1.0344640000002983,['c'],1,left,['1'],1,0.14667359999975815,,,12,18,Vrouw,Rechts,1,
,dotcolour,dotcolour,xotask,36,4,276,576,main,positivefb,-99,hard,39,1.0018920000002254,['n'],1,right,['0'],6,0.1425039000000652,,,12,18,Vrouw,Rechts,1,
,dotcolour,dotcolour,xotask,37,4,277,577,main,positivefb,-99,hard,44,1.3509060999999747,['c'],1,left,['1'],1,0.28412570000000414,,,12,18,Vrouw,Rechts,1,
,dotcolour,dotcolour,xotask,38,4,278,578,main,positivefb,-99,hard,42,0.7179717999997592,['n'],0,left,['0'],6,0.10845359999984794,,,12,18,Vrouw,Rechts,1,
,dotcolour,dotcolour,xotask,39,4,279,579,main,positivefb,-99,hard,41,0.4511781000001065,['c'],1,left,['1'],1,0.09502829999973983,,,12,18,Vrouw,Rechts,1,
,dotcolour,dotcolour,xotask,40,4,280,580,main,positivefb,-99,hard,45,0.3513351000001421,['n'],0,left,['0'],6,0.13443520000009812,,,12,18,Vrouw,Rechts,1,
,dotcolour,dotcolour,xotask,41,4,281,581,main,positivefb,-99,average,27,0.30102309999983845,['c'],0,right,['2'],2,0.09339760000011665,,,12,18,Vrouw,Rechts,1,
,dotcolour,dotcolour,xotask,42,4,282,582,main,positivefb,-99,easy,15,0.31734499999993204,['c'],0,right,['8'],4,3.510960399999931,,,12,18,Vrouw,Rechts,1,
,dotcolour,dotcolour,xotask,43,4,283,583,main,positivefb,-99,easy,63,1.967630900000131,['c'],1,left,['0'],6,0.4527634000000944,,,12,18,Vrouw,Rechts,1,
,dotcolour,dotcolour,xotask,44,4,284,584,main,positivefb,-99,average,54,0.601604099999804,['c'],1,left,['0'],6,0.15543550000029427,,,12,18,Vrouw,Rechts,1,
,dotcolour,dotcolour,xotask,45,4,285,585,main,positivefb,-99,average,55,0.46820160000015676,['c'],1,left,['0'],6,0.14723360000016328,,,12,18,Vrouw,Rechts,1,
,dotcolour,dotcolour,xotask,46,4,286,586,main,positivefb,-99,easy,19,0.4177288999999291,['n'],1,right,['0'],6,0.1493518999996013,,,12,18,Vrouw,Rechts,1,
,dotcolour,dotcolour,xotask,47,4,287,587,main,positivefb,-99,hard,38,0.3516841000000568,['c'],0,right,['3'],3,0.7465157999999974,,,12,18,Vrouw,Rechts,1,
,dotcolour,dotcolour,xotask,48,4,288,588,main,positivefb,-99,hard,43,0.6508868999999322,['c'],1,left,['3'],3,0.2038234999999986,,,12,18,Vrouw,Rechts,1,
,dotcolour,dotcolour,xotask,49,4,289,589,main,positivefb,-99,easy,19,0.40105769999991026,['c'],0,right,['1'],1,1.2048866999998609,,,12,18,Vrouw,Rechts,1,
,dotcolour,dotcolour,xotask,50,4,290,590,main,positivefb,-99,average,55,0.8340312000000267,['c'],1,left,['0'],6,0.14002479999999196,,,12,18,Vrouw,Rechts,1,
,dotcolour,dotcolour,xotask,51,4,291,591,main,positivefb,-99,hard,41,0.8016428000000815,['c'],1,left,['3'],3,0.19095549999974537,,,12,18,Vrouw,Rechts,1,
,dotcolour,dotcolour,xotask,52,4,292,592,main,positivefb,-99,hard,37,0.617649999999685,['c'],0,right,['8'],4,0.38384080000014364,,,12,18,Vrouw,Rechts,1,
,dotcolour,dotcolour,xotask,53,4,293,593,main,positivefb,-99,easy,61,1.0835627000001296,['c'],1,left,['0'],6,0.11778609999964829,,,12,18,Vrouw,Rechts,1,
,dotcolour,dotcolour,xotask,54,4,294,594,main,positivefb,-99,easy,19,0.48451010000007955,['n'],1,right,['0'],6,0.17491560000007667,,,12,18,Vrouw,Rechts,1,
,dotcolour,dotcolour,xotask,55,4,295,595,main,positivefb,-99,average,55,0.7017013999998198,['c'],1,left,['8'],4,0.5086424000000989,,,12,18,Vrouw,Rechts,1,
,dotcolour,dotcolour,xotask,56,4,296,596,main,positivefb,-99,easy,65,0.5840180000000146,['c'],1,left,['9'],5,0.13016830000015034,,,12,18,Vrouw,Rechts,1,
,dotcolour,dotcolour,xotask,57,4,297,597,main,positivefb,-99,average,52,0.31682969999974375,['c'],1,left,['0'],6,0.09717700000010154,,,12,18,Vrouw,Rechts,1,
,dotcolour,dotcolour,xotask,58,4,298,598,main,positivefb,-99,easy,65,0.2849277999998776,['c'],1,left,['0'],6,0.08352199999990262,,,12,18,Vrouw,Rechts,1,
,dotcolour,dotcolour,xotask,59,4,299,599,main,positivefb,-99,average,27,1.0169365000001562,['n'],1,right,['0'],6,0.12757160000001022,,,12,18,Vrouw,Rechts,1,
,dotcolour,dotcolour,xotask,0,0,0,600,training,positivefb,78,easy,62,7.8010073000000375,['c'],1,left,['8'],4,2.1953843000001143,,,12,18,Vrouw,Rechts,1,
,dotcolour,dotcolour,xotask,1,0,1,601,training,positivefb,65,average,55,2.232879099999991,['n'],0,left,['9'],5,0.3698171999999431,,,12,18,Vrouw,Rechts,1,
,dotcolour,dotcolour,xotask,2,0,2,602,training,positivefb,83,hard,41,0.9340824000000794,['c'],1,left,['9'],5,0.13366550000000643,,,12,18,Vrouw,Rechts,1,
,dotcolour,dotcolour,xotask,3,0,3,603,training,positivefb,95,easy,16,0.633737900000142,['n'],1,right,['9'],5,0.04671520000010787,,,12,18,Vrouw,Rechts,1,
,dotcolour,dotcolour,xotask,4,0,4,604,training,positivefb,84,average,25,0.8166368000001967,['n'],1,right,['9'],5,0.8930356999999276,,,12,18,Vrouw,Rechts,1,
,dotcolour,dotcolour,xotask,5,0,5,605,training,positivefb,95,easy,64,0.6505545999998503,['c'],1,left,['3'],3,0.29552140000032523,,,12,18,Vrouw,Rechts,1,
,dotcolour,dotcolour,xotask,6,0,6,606,training,positivefb,91,average,55,0.6338620999999875,['c'],1,left,['9'],5,0.13099509999983638,,,12,18,Vrouw,Rechts,1,
,dotcolour,dotcolour,xotask,7,0,7,607,training,positivefb,96,hard,45,0.5175254999999197,['c'],1,left,['9'],5,0.07246649999979127,,,12,18,Vrouw,Rechts,1,
,dotcolour,dotcolour,xotask,8,0,8,608,training,positivefb,94,hard,41,0.4164304999999331,['c'],1,left,['8'],4,0.4456312000002072,,,12,18,Vrouw,Rechts,1,
,dotcolour,dotcolour,xotask,9,0,9,609,training,positivefb,99,easy,17,0.3998925999999301,['n'],1,right,['9'],5,0.10012529999994513,,,12,18,Vrouw,Rechts,1,
,dotcolour,dotcolour,xotask,10,0,10,610,training,positivefb,99,easy,61,0.18596340000021883,['c'],1,left,['9'],5,0.10431950000020151,,,12,18,Vrouw,Rechts,1,
,dotcolour,dotcolour,xotask,11,0,11,611,training,positivefb,96,easy,65,0.33349930000031236,['c'],1,left,['8'],4,0.09468829999968875,,,12,18,Vrouw,Rechts,1,
,dotcolour,dotcolour,xotask,12,0,12,612,training,positivefb,99,easy,63,0.2503241999997954,['c'],1,left,['9'],5,0.0420656000001145,,,12,18,Vrouw,Rechts,1,
,dotcolour,dotcolour,xotask,13,0,13,613,training,positivefb,97,easy,15,0.8340996000001724,['n'],1,right,['9'],5,0.10234500000024127,,,12,18,Vrouw,Rechts,1,
,dotcolour,dotcolour,xotask,14,0,14,614,training,positivefb,93,hard,45,0.8167289000002711,['n'],0,left,['9'],5,0.01088819999995394,,,12,18,Vrouw,Rechts,1,
,dotcolour,dotcolour,xotask,15,0,15,615,training,positivefb,91,average,28,0.7169449000002714,['n'],1,right,['9'],5,0.08503050000035728,,,12,18,Vrouw,Rechts,1,
,dotcolour,dotcolour,xotask,16,0,16,616,training,positivefb,95,hard,35,0.30111329999999725,['c'],0,right,['9'],5,0.07863730000008218,,,12,18,Vrouw,Rechts,1,
,dotcolour,dotcolour,xotask,17,0,17,617,training,positivefb,99,hard,45,0.24965869999959978,['c'],1,left,['9'],5,0.01812240000026577,,,12,18,Vrouw,Rechts,1,
,dotcolour,dotcolour,xotask,18,0,18,618,training,positivefb,92,average,27,0.7665895000000091,['n'],1,right,['9'],5,0.09802950000039345,,,12,18,Vrouw,Rechts,1,
,dotcolour,dotcolour,xotask,19,0,19,619,training,positivefb,96,hard,39,0.5330774000003657,['n'],1,right,['9'],5,0.10475590000032753,,,12,18,Vrouw,Rechts,1,
,dotcolour,dotcolour,xotask,20,0,20,620,training,positivefb,88,hard,42,0.4508256999997684,['n'],0,left,['0'],6,0.17081059999964054,,,12,18,Vrouw,Rechts,1,
,dotcolour,dotcolour,xotask,21,0,21,621,training,positivefb,84,easy,17,0.8333289000001969,['n'],1,right,['0'],6,0.13050739999971483,,,12,18,Vrouw,Rechts,1,
,dotcolour,dotcolour,xotask,22,0,22,622,training,positivefb,99,average,27,0.43380889999980354,['n'],1,right,['0'],6,0.12442239999973026,,,12,18,Vrouw,Rechts,1,
,dotcolour,dotcolour,xotask,23,0,23,623,training,positivefb,98,easy,19,0.3339393999999629,['n'],1,right,['0'],6,0.09029340000006414,,,12,18,Vrouw,Rechts,1,
,dotcolour,dotcolour,xotask,24,0,24,624,training,positivefb,98,average,29,0.3165905000000748,['n'],1,right,['0'],6,0.10645999999997002,,,12,18,Vrouw,Rechts,1,
,dotcolour,dotcolour,xotask,25,0,25,625,training,positivefb,97,hard,37,0.36772079999991547,['n'],1,right,['0'],6,0.06371179999996457,,,12,18,Vrouw,Rechts,1,
,dotcolour,dotcolour,xotask,26,0,26,626,training,positivefb,99,average,27,0.36684710000008636,['n'],1,right,['0'],6,0.11925049999990733,,,12,18,Vrouw,Rechts,1,
,dotcolour,dotcolour,xotask,27,0,27,627,training,positivefb,97,easy,15,0.4172601999998733,['n'],1,right,['0'],6,0.09730540000009569,,,12,18,Vrouw,Rechts,1,
,dotcolour,dotcolour,xotask,28,0,28,628,training,positivefb,42,average,51,0.38331609999977445,['n'],0,left,['2'],2,0.6469454999996742,,,12,18,Vrouw,Rechts,1,
,dotcolour,dotcolour,xotask,29,0,29,629,training,positivefb,63,average,52,0.8494863000000805,['n'],0,left,['8'],4,0.43503489999966405,,,12,18,Vrouw,Rechts,1,
,dotcolour,dotcolour,xotask,30,0,30,630,training,positivefb,96,easy,63,0.9175814000000173,['c'],1,left,['0'],6,0.1488868999999795,,,12,18,Vrouw,Rechts,1,
,dotcolour,dotcolour,xotask,31,0,31,631,training,positivefb,98,hard,42,0.3335888999999952,['c'],1,left,['0'],6,0.03327649999982896,,,12,18,Vrouw,Rechts,1,
,dotcolour,dotcolour,xotask,32,0,32,632,training,positivefb,78,hard,35,0.6162828999999874,['c'],0,right,['1'],1,0.7437157999997908,,,12,18,Vrouw,Rechts,1,
,dotcolour,dotcolour,xotask,33,0,33,633,training,positivefb,84,average,53,0.7171339999999873,['c'],1,left,['1'],1,0.17421379999996134,,,12,18,Vrouw,Rechts,1,
,dotcolour,dotcolour,xotask,34,0,34,634,training,positivefb,98,average,52,0.6669663000002402,['c'],1,left,['1'],1,0.43681870000000345,,,12,18,Vrouw,Rechts,1,
,dotcolour,dotcolour,xotask,35,0,35,635,training,positivefb,59,hard,36,1.65053910000006,['n'],1,right,['0'],6,0.42465660000016214,,,12,18,Vrouw,Rechts,1,
,dotcolour,dotcolour,xotask,36,0,36,636,training,positivefb,96,average,54,0.6659613000001627,['n'],0,left,['8'],4,0.1259700000000521,,,12,18,Vrouw,Rechts,1,
,dotcolour,dotcolour,xotask,37,0,37,637,training,positivefb,74,easy,63,0.5837455000000773,['n'],0,left,['9'],5,0.3938981999999669,,,12,18,Vrouw,Rechts,1,
,dotcolour,dotcolour,xotask,38,0,38,638,training,positivefb,100,hard,39,0.2669756000000234,['n'],1,right,['9'],5,0.13601299999982075,,,12,18,Vrouw,Rechts,1,
,dotcolour,dotcolour,xotask,39,0,39,639,training,positivefb,98,easy,64,0.21589999999969223,['n'],0,left,['8'],4,0.16173870000011448,,,12,18,Vrouw,Rechts,1,
,dotcolour,dotcolour,xotask,40,0,40,640,training,positivefb,88,average,55,0.29989439999962997,['n'],0,left,['0'],6,0.151912700000139,,,12,18,Vrouw,Rechts,1,
,dotcolour,dotcolour,xotask,41,0,41,641,training,positivefb,77,hard,43,0.23279569999976957,['n'],0,left,['9'],5,0.24083699999982855,,,12,18,Vrouw,Rechts,1,
,dotcolour,dotcolour,xotask,42,0,42,642,training,positivefb,99,hard,37,0.24991629999976794,['c'],0,right,['3'],3,0.02980489999981728,,,12,18,Vrouw,Rechts,1,
,dotcolour,dotcolour,xotask,43,0,43,643,training,positivefb,96,hard,35,0.43359719999989466,['c'],0,right,['3'],3,0.05069599999978891,,,12,18,Vrouw,Rechts,1,
,dotcolour,dotcolour,xotask,44,0,44,644,training,positivefb,73,easy,17,1.3008042999999816,['n'],1,right,['0'],6,0.2853037999998378,,,12,18,Vrouw,Rechts,1,
,dotcolour,dotcolour,xotask,45,0,45,645,training,positivefb,70,easy,62,0.7005580999998529,['n'],0,left,['0'],6,0.16627079999989292,,,12,18,Vrouw,Rechts,1,
,dotcolour,dotcolour,xotask,46,0,46,646,training,positivefb,99,hard,35,0.24949939999987691,['n'],1,right,['9'],5,0.14868239999987054,,,12,18,Vrouw,Rechts,1,
,dotcolour,dotcolour,xotask,47,0,47,647,training,positivefb,98,average,53,0.17773910000005344,['n'],0,left,['9'],5,0.023810099999991508,,,12,18,Vrouw,Rechts,1,
,dotcolour,dotcolour,xotask,48,0,48,648,training,positivefb,87,average,51,0.7828082999999424,['n'],0,left,['0'],6,0.06304900000031921,,,12,18,Vrouw,Rechts,1,
