starttime,task,fbtask,firsttask,withinblocktrial,block,withintasktrial,trial,running,feedback,fbscore,difflevel,reddots,rt,resp,cor,cresp,conf_press,cj,RTconf,n_xes,post1,post2,post3,post4,post5,stoptime,sub,age,gender,handedness,session,
1715159323,dotcolour,dotcolour,xotask,0,0,0,0,training,negativefb,55,hard,37,1.3509333000001789,['n'],1,right,['1'],6,1.3032078999999612,,,,,,,,4,20,Vrouw,Rechts,2,
,dotcolour,dotcolour,xotask,1,0,1,1,training,negativefb,43,hard,35,1.4164974000000257,['n'],1,right,['3'],4,1.0018686999999318,,,,,,,,4,20,Vrouw,Rechts,2,
,dotcolour,dotcolour,xotask,2,0,2,2,training,negativefb,86,easy,15,0.8672104999998282,['n'],1,right,['2'],5,0.9023754999998346,,,,,,,,4,20,Vrouw,Rechts,2,
,dotcolour,dotcolour,xotask,3,0,3,3,training,negativefb,56,average,52,0.8156887000000097,['c'],1,left,['1'],6,0.5861397999999554,,,,,,,,4,20,Vrouw,Rechts,2,
,dotcolour,dotcolour,xotask,4,0,4,4,training,negativefb,69,easy,19,0.6830781999999544,['n'],1,right,['1'],6,0.6634255000001303,,,,,,,,4,20,Vrouw,Rechts,2,
,dotcolour,dotcolour,xotask,5,0,5,5,training,negativefb,46,average,51,1.5334125000001677,['c'],1,left,['3'],4,0.3611369000000195,,,,,,,,4,20,Vrouw,Rechts,2,
,dotcolour,dotcolour,xotask,6,0,6,6,training,negativefb,7,hard,44,1.2992567000001145,['n'],0,left,['3'],4,0.750585000000001,,,,,,,,4,20,Vrouw,Rechts,2,
,dotcolour,dotcolour,xotask,7,0,7,7,training,negativefb,96,easy,15,1.032670199999984,['n'],1,right,['1'],6,0.5594386000000213,,,,,,,,4,20,Vrouw,Rechts,2,
,dotcolour,dotcolour,xotask,8,0,8,8,training,negativefb,88,easy,19,1.100970899999993,['n'],1,right,['1'],6,0.3339382999999998,,,,,,,,4,20,Vrouw,Rechts,2,
,dotcolour,dotcolour,xotask,9,0,9,9,training,negativefb,91,easy,18,0.5501242999998794,['n'],1,right,['1'],6,0.37780180000004293,,,,,,,,4,20,Vrouw,Rechts,2,
,dotcolour,dotcolour,xotask,10,0,10,10,training,negativefb,76,average,29,1.0495456999999533,['n'],1,right,['2'],5,0.4734565000001112,,,,,,,,4,20,Vrouw,Rechts,2,
,dotcolour,dotcolour,xotask,11,0,11,11,training,negativefb,58,easy,16,0.6333316000000195,['n'],1,right,['1'],6,0.3021343000000343,,,,,,,,4,20,Vrouw,Rechts,2,
,dotcolour,dotcolour,xotask,12,0,12,12,training,negativefb,88,average,25,0.8992158000000927,['n'],1,right,['2'],5,0.47029970000016874,,,,,,,,4,20,Vrouw,Rechts,2,
,dotcolour,dotcolour,xotask,13,0,13,13,training,negativefb,60,average,28,1.699779099999887,['n'],1,right,['3'],4,0.327328899999884,,,,,,,,4,20,Vrouw,Rechts,2,
,dotcolour,dotcolour,xotask,14,0,14,14,training,negativefb,96,average,54,0.9000998999999865,['c'],1,left,['3'],4,0.3743021000000226,,,,,,,,4,20,Vrouw,Rechts,2,
,dotcolour,dotcolour,xotask,15,0,15,15,training,negativefb,89,average,26,0.600195900000017,['n'],1,right,['2'],5,0.5124442999999701,,,,,,,,4,20,Vrouw,Rechts,2,
,dotcolour,dotcolour,xotask,16,0,16,16,training,negativefb,66,hard,37,1.367667900000015,['n'],1,right,['3'],4,0.30164849999982835,,,,,,,,4,20,Vrouw,Rechts,2,
,dotcolour,dotcolour,xotask,17,0,17,17,training,negativefb,83,hard,43,0.9156807000001663,['c'],1,left,['3'],4,0.29332739999995283,,,,,,,,4,20,Vrouw,Rechts,2,
,dotcolour,dotcolour,xotask,18,0,18,18,training,negativefb,66,easy,64,0.7498732000001382,['c'],1,left,['1'],6,0.26716350000015154,,,,,,,,4,20,Vrouw,Rechts,2,
,dotcolour,dotcolour,xotask,19,0,19,19,training,negativefb,61,hard,42,1.000321299999996,['c'],1,left,['3'],4,0.32885190000001785,,,,,,,,4,20,Vrouw,Rechts,2,
,dotcolour,dotcolour,xotask,20,0,20,20,training,negativefb,93,easy,16,0.5163767000001371,['n'],1,right,['1'],6,0.29584760000011556,,,,,,,,4,20,Vrouw,Rechts,2,
,dotcolour,dotcolour,xotask,21,0,21,21,training,negativefb,56,easy,63,0.7499050999999781,['c'],1,left,['1'],6,0.3028543999998874,,,,,,,,4,20,Vrouw,Rechts,2,
,dotcolour,dotcolour,xotask,22,0,22,22,training,negativefb,28,hard,38,1.9170324000001528,['n'],1,right,['3'],4,0.2616438999998536,,,,,,,,4,20,Vrouw,Rechts,2,
,dotcolour,dotcolour,xotask,23,0,23,23,training,negativefb,86,easy,62,0.75083769999992,['c'],1,left,['1'],6,0.2947323000000779,,,,,,,,4,20,Vrouw,Rechts,2,
,dotcolour,dotcolour,xotask,24,0,24,24,training,negativefb,79,hard,38,1.6341600000000653,['c'],0,right,['3'],4,0.32982529999981125,,,,,,,,4,20,Vrouw,Rechts,2,
,dotcolour,dotcolour,xotask,25,0,25,25,training,negativefb,89,easy,19,0.7000347000000602,['n'],1,right,['1'],6,0.2657254999999168,,,,,,,,4,20,Vrouw,Rechts,2,
,dotcolour,dotcolour,xotask,26,0,26,26,training,negativefb,44,easy,63,0.6158543999999893,['c'],1,left,['1'],6,0.2623084000001654,,,,,,,,4,20,Vrouw,Rechts,2,
,dotcolour,dotcolour,xotask,27,0,27,27,training,negativefb,90,easy,17,0.6493530000000192,['n'],1,right,['1'],6,0.26647989999992205,,,,,,,,4,20,Vrouw,Rechts,2,
,dotcolour,dotcolour,xotask,28,0,28,28,training,negativefb,34,hard,37,1.6157235000000583,['c'],0,right,['3'],4,0.3342618000001494,,,,,,,,4,20,Vrouw,Rechts,2,
,dotcolour,dotcolour,xotask,29,0,29,29,training,negativefb,71,average,55,0.8491349999999329,['c'],1,left,['2'],5,0.5601868000001105,,,,,,,,4,20,Vrouw,Rechts,2,
,dotcolour,dotcolour,xotask,30,0,30,30,training,negativefb,17,easy,65,0.7160656999999446,['c'],1,left,['1'],6,0.2213305999998738,,,,,,,,4,20,Vrouw,Rechts,2,
,dotcolour,dotcolour,xotask,31,0,31,31,training,negativefb,48,easy,64,0.5318864999999278,['c'],1,left,['1'],6,0.2798574999999346,,,,,,,,4,20,Vrouw,Rechts,2,
,dotcolour,dotcolour,xotask,32,0,32,32,training,negativefb,49,hard,42,0.9518415000000005,['n'],0,left,['3'],4,0.27032680000002074,,,,,,,,4,20,Vrouw,Rechts,2,
,dotcolour,dotcolour,xotask,33,0,33,33,training,negativefb,87,average,51,1.1496758000000682,['n'],0,left,['8'],3,1.3422555999998167,,,,,,,,4,20,Vrouw,Rechts,2,
,dotcolour,dotcolour,xotask,34,0,34,34,training,negativefb,88,average,27,0.9326541000000361,['n'],1,right,['1'],6,0.24378269999988333,,,,,,,,4,20,Vrouw,Rechts,2,
,dotcolour,dotcolour,xotask,35,0,35,35,training,negativefb,87,average,27,1.1501051000000189,['n'],1,right,['1'],6,0.25989179999987755,,,,,,,,4,20,Vrouw,Rechts,2,
,dotcolour,dotcolour,xotask,36,0,36,36,training,negativefb,86,average,29,0.5341825000000426,['n'],1,right,['1'],6,0.2130840999998327,,,,,,,,4,20,Vrouw,Rechts,2,
,dotcolour,dotcolour,xotask,37,0,37,37,training,negativefb,50,average,51,1.0173489999999674,['c'],1,left,['3'],4,0.31662299999993593,,,,,,,,4,20,Vrouw,Rechts,2,
,dotcolour,dotcolour,xotask,38,0,38,38,training,negativefb,58,hard,36,0.9992732000000615,['n'],1,right,['3'],4,0.27966109999988475,,,,,,,,4,20,Vrouw,Rechts,2,
,dotcolour,dotcolour,xotask,39,0,39,39,training,negativefb,57,hard,35,1.7834656999998515,['n'],1,right,['3'],4,0.2854706000000533,,,,,,,,4,20,Vrouw,Rechts,2,
,dotcolour,dotcolour,xotask,40,0,40,40,training,negativefb,93,average,27,0.950269599999956,['n'],1,right,['3'],4,0.27644600000007813,,,,,,,,4,20,Vrouw,Rechts,2,
,dotcolour,dotcolour,xotask,41,0,41,41,training,negativefb,43,easy,15,0.6999461999998857,['n'],1,right,['1'],6,0.22167369999988296,,,,,,,,4,20,Vrouw,Rechts,2,
,dotcolour,dotcolour,xotask,42,0,42,42,training,negativefb,67,easy,61,0.6498391000000083,['c'],1,left,['1'],6,0.22685470000010355,,,,,,,,4,20,Vrouw,Rechts,2,
,dotcolour,dotcolour,xotask,43,0,43,43,training,negativefb,79,easy,62,0.5844809000000168,['c'],1,left,['1'],6,0.2589588000000731,,,,,,,,4,20,Vrouw,Rechts,2,
,dotcolour,dotcolour,xotask,44,0,44,44,training,negativefb,47,hard,41,1.11657009999999,['c'],1,left,['3'],4,0.22864430000004177,,,,,,,,4,20,Vrouw,Rechts,2,
,dotcolour,dotcolour,xotask,45,0,45,45,training,negativefb,70,hard,44,0.7338941000000432,['n'],0,left,['3'],4,0.23124170000005506,,,,,,,,4,20,Vrouw,Rechts,2,
,dotcolour,dotcolour,xotask,46,0,46,46,training,negativefb,51,easy,62,0.5671700999998848,['c'],1,left,['1'],6,0.20802659999981188,,,,,,,,4,20,Vrouw,Rechts,2,
,dotcolour,dotcolour,xotask,47,0,47,47,training,negativefb,73,hard,35,0.8501407999999628,['n'],1,right,['3'],4,0.6619430999999167,,,,,,,,4,20,Vrouw,Rechts,2,
,dotcolour,dotcolour,xotask,48,0,48,48,training,negativefb,70,hard,35,0.865887100000009,['n'],1,right,['3'],4,0.3934509999999136,,,,,,,,4,20,Vrouw,Rechts,2,
,dotcolour,dotcolour,xotask,49,0,49,49,training,negativefb,36,hard,43,0.7846793999999591,['n'],0,left,['2'],5,0.2742172999999184,,,,,,,,4,20,Vrouw,Rechts,2,
,dotcolour,dotcolour,xotask,50,0,50,50,training,negativefb,54,average,52,1.3834789,['c'],1,left,['3'],4,0.2969097000000147,,,,,,,,4,20,Vrouw,Rechts,2,
,dotcolour,dotcolour,xotask,51,0,51,51,training,negativefb,75,hard,43,1.3008727999999792,['n'],0,left,['3'],4,0.25733690000015486,,,,,,,,4,20,Vrouw,Rechts,2,
,dotcolour,dotcolour,xotask,52,0,52,52,training,negativefb,74,average,28,0.8834186000001409,['n'],1,right,['1'],6,0.29225850000011633,,,,,,,,4,20,Vrouw,Rechts,2,
,dotcolour,dotcolour,xotask,53,0,53,53,training,negativefb,81,average,25,0.5650247999999465,['n'],1,right,['1'],6,0.2099894000000404,,,,,,,,4,20,Vrouw,Rechts,2,
,dotcolour,dotcolour,xotask,54,0,54,54,training,negativefb,83,easy,65,0.7165207999998984,['c'],1,left,['1'],6,0.2774861000000328,,,,,,,,4,20,Vrouw,Rechts,2,
,dotcolour,dotcolour,xotask,55,0,55,55,training,negativefb,59,average,52,0.9835101000001032,['c'],1,left,['1'],6,0.2602081999998518,,,,,,,,4,20,Vrouw,Rechts,2,
,dotcolour,dotcolour,xotask,56,0,56,56,training,negativefb,80,average,53,0.7161031000000548,['c'],1,left,['1'],6,0.28521459999979015,,,,,,,,4,20,Vrouw,Rechts,2,
,dotcolour,dotcolour,xotask,57,0,57,57,training,negativefb,92,average,54,0.8669601999999941,['c'],1,left,['1'],6,0.2229518999999982,,,,,,,,4,20,Vrouw,Rechts,2,
,dotcolour,dotcolour,xotask,58,0,58,58,training,negativefb,45,hard,45,0.800182599999971,['n'],0,left,['2'],5,0.40643969999996443,,,,,,,,4,20,Vrouw,Rechts,2,
,dotcolour,dotcolour,xotask,59,0,59,59,training,negativefb,10,hard,42,0.9170305000000099,['n'],0,left,['2'],5,0.41079139999988,,,,,,,,4,20,Vrouw,Rechts,2,
,dotcolour,dotcolour,xotask,0,1,60,60,training,negativefb,81,easy,16,0.7337532000001374,['n'],1,right,['1'],6,0.330404499999986,,,,,,,,4,20,Vrouw,Rechts,2,
,dotcolour,dotcolour,xotask,1,1,61,61,training,negativefb,93,average,28,0.5674460000000181,['n'],1,right,['1'],6,0.3032332000000224,,,,,,,,4,20,Vrouw,Rechts,2,
,dotcolour,dotcolour,xotask,2,1,62,62,training,negativefb,82,hard,42,0.9346313999999438,['c'],1,left,['2'],5,0.3343339999998989,,,,,,,,4,20,Vrouw,Rechts,2,
,dotcolour,dotcolour,xotask,3,1,63,63,training,negativefb,39,hard,39,1.8671507999999903,['c'],0,right,['3'],4,0.3101242000000184,,,,,,,,4,20,Vrouw,Rechts,2,
,dotcolour,dotcolour,xotask,4,1,64,64,training,negativefb,81,easy,63,0.6839416000000256,['c'],1,left,['1'],6,0.21545479999986128,,,,,,,,4,20,Vrouw,Rechts,2,
,dotcolour,dotcolour,xotask,5,1,65,65,training,negativefb,57,easy,64,0.7824826999999459,['c'],1,left,['1'],6,0.17605879999996432,,,,,,,,4,20,Vrouw,Rechts,2,
,dotcolour,dotcolour,xotask,6,1,66,66,training,negativefb,53,hard,43,1.6500256000001627,['n'],0,left,['3'],4,0.35946850000004815,,,,,,,,4,20,Vrouw,Rechts,2,
,dotcolour,dotcolour,xotask,7,1,67,67,training,negativefb,64,hard,43,1.7667191999998977,['c'],1,left,['3'],4,0.25022660000013275,,,,,,,,4,20,Vrouw,Rechts,2,
,dotcolour,dotcolour,xotask,8,1,68,68,training,negativefb,53,average,25,0.6331993999999668,['n'],1,right,['1'],6,0.29554910000001655,,,,,,,,4,20,Vrouw,Rechts,2,
,dotcolour,dotcolour,xotask,9,1,69,69,training,negativefb,52,average,52,1.5328107999998792,['c'],1,left,['3'],4,0.302612199999885,,,,,,,,4,20,Vrouw,Rechts,2,
,dotcolour,dotcolour,xotask,10,1,70,70,training,negativefb,70,hard,41,0.9348156000000927,['n'],0,left,['2'],5,0.24550380000005134,,,,,,,,4,20,Vrouw,Rechts,2,
,dotcolour,dotcolour,xotask,11,1,71,71,training,negativefb,60,easy,16,0.615672399999994,['n'],1,right,['1'],6,0.22729910000020936,,,,,,,,4,20,Vrouw,Rechts,2,
,dotcolour,dotcolour,xotask,12,1,72,72,training,negativefb,81,easy,62,0.6823150999998688,['c'],1,left,['1'],6,0.3190254000001005,,,,,,,,4,20,Vrouw,Rechts,2,
,dotcolour,dotcolour,xotask,13,1,73,73,training,negativefb,53,hard,35,1.916131299999961,['n'],1,right,['3'],4,0.35762610000006134,,,,,,,,4,20,Vrouw,Rechts,2,
,dotcolour,dotcolour,xotask,14,1,74,74,training,negativefb,94,easy,63,0.7511924999998882,['c'],1,left,['1'],6,0.1937623999999687,,,,,,,,4,20,Vrouw,Rechts,2,
,dotcolour,dotcolour,xotask,15,1,75,75,training,negativefb,85,easy,64,0.582570700000133,['c'],1,left,['1'],6,0.13198579999993854,,,,,,,,4,20,Vrouw,Rechts,2,
,dotcolour,dotcolour,xotask,16,1,76,76,training,negativefb,84,easy,65,0.5494834000000992,['c'],1,left,['1'],6,0.1931520000000546,,,,,,,,4,20,Vrouw,Rechts,2,
,dotcolour,dotcolour,xotask,17,1,77,77,training,negativefb,46,hard,38,1.350574399999914,['c'],0,right,['2'],5,0.2762328000001162,,,,,,,,4,20,Vrouw,Rechts,2,
,dotcolour,dotcolour,xotask,18,1,78,78,training,negativefb,61,hard,44,1.1670125999999073,['c'],1,left,['3'],4,0.2822121000001516,,,,,,,,4,20,Vrouw,Rechts,2,
,dotcolour,dotcolour,xotask,19,1,79,79,training,negativefb,31,average,52,1.5164111999999932,['c'],1,left,['3'],4,0.3072841000000608,,,,,,,,4,20,Vrouw,Rechts,2,
,dotcolour,dotcolour,xotask,20,1,80,80,training,negativefb,46,hard,43,1.7001703999999336,['n'],0,left,['3'],4,0.6594569999999749,,,,,,,,4,20,Vrouw,Rechts,2,
,dotcolour,dotcolour,xotask,21,1,81,81,training,negativefb,48,hard,37,0.9660542999999961,['n'],1,right,['2'],5,0.23403099999995902,,,,,,,,4,20,Vrouw,Rechts,2,
,dotcolour,dotcolour,xotask,22,1,82,82,training,negativefb,67,hard,37,1.26553059999992,['n'],1,right,['3'],4,0.2785822000000735,,,,,,,,4,20,Vrouw,Rechts,2,
,dotcolour,dotcolour,xotask,23,1,83,83,training,negativefb,71,average,54,1.3995190000000548,['c'],1,left,['3'],4,0.22778429999993932,,,,,,,,4,20,Vrouw,Rechts,2,
,dotcolour,dotcolour,xotask,24,1,84,84,training,negativefb,82,hard,35,1.2831198999999742,['n'],1,right,['3'],4,0.3044952000000194,,,,,,,,4,20,Vrouw,Rechts,2,
,dotcolour,dotcolour,xotask,25,1,85,85,training,negativefb,76,average,52,1.3834209999999985,['c'],1,left,['2'],5,0.3653764000000592,,,,,,,,4,20,Vrouw,Rechts,2,
,dotcolour,dotcolour,xotask,26,1,86,86,training,negativefb,45,average,25,0.7839459000001625,['n'],1,right,['1'],6,0.20804480000015246,,,,,,,,4,20,Vrouw,Rechts,2,
,dotcolour,dotcolour,xotask,27,1,87,87,training,negativefb,32,hard,45,1.2167755999998917,['c'],1,left,['3'],4,0.2633917000000565,,,,,,,,4,20,Vrouw,Rechts,2,
,dotcolour,dotcolour,xotask,28,1,88,88,training,negativefb,80,easy,61,0.8838276999999835,['c'],1,left,['1'],6,0.18608759999983704,,,,,,,,4,20,Vrouw,Rechts,2,
,dotcolour,dotcolour,xotask,29,1,89,89,training,negativefb,59,average,27,0.6337172999999439,['n'],1,right,['1'],6,0.27339600000004793,,,,,,,,4,20,Vrouw,Rechts,2,
,dotcolour,dotcolour,xotask,30,1,90,90,training,negativefb,50,easy,16,0.5495348000001741,['n'],1,right,['1'],6,0.33698869999989256,,,,,,,,4,20,Vrouw,Rechts,2,
,dotcolour,dotcolour,xotask,31,1,91,91,training,negativefb,86,easy,18,0.5000669999999445,['n'],1,right,['1'],6,0.27972040000008747,,,,,,,,4,20,Vrouw,Rechts,2,
,dotcolour,dotcolour,xotask,32,1,92,92,training,negativefb,53,average,25,0.5338950999998815,['n'],1,right,['1'],6,0.28776029999994535,,,,,,,,4,20,Vrouw,Rechts,2,
,dotcolour,dotcolour,xotask,33,1,93,93,training,negativefb,62,easy,16,0.48292930000002343,['n'],1,right,['1'],6,0.29710709999994833,,,,,,,,4,20,Vrouw,Rechts,2,
,dotcolour,dotcolour,xotask,34,1,94,94,training,negativefb,58,easy,18,0.6330364999998892,['n'],1,right,['1'],6,0.2607561000002079,,,,,,,,4,20,Vrouw,Rechts,2,
,dotcolour,dotcolour,xotask,35,1,95,95,training,negativefb,38,easy,64,0.6992801999999756,['c'],1,left,['1'],6,0.2226803999999447,,,,,,,,4,20,Vrouw,Rechts,2,
,dotcolour,dotcolour,xotask,36,1,96,96,training,negativefb,83,easy,15,0.6818226000000323,['n'],1,right,['1'],6,0.2587983000000804,,,,,,,,4,20,Vrouw,Rechts,2,
,dotcolour,dotcolour,xotask,37,1,97,97,training,negativefb,33,hard,36,1.1155590000000757,['n'],1,right,['1'],6,0.24456190000000788,,,,,,,,4,20,Vrouw,Rechts,2,
,dotcolour,dotcolour,xotask,38,1,98,98,training,negativefb,63,easy,18,0.5652938999999151,['n'],1,right,['1'],6,0.28420570000002954,,,,,,,,4,20,Vrouw,Rechts,2,
,dotcolour,dotcolour,xotask,39,1,99,99,training,negativefb,58,average,51,2.5337792000000263,['c'],1,left,['3'],4,0.7802194999999301,,,,,,,,4,20,Vrouw,Rechts,2,
,dotcolour,dotcolour,xotask,40,1,100,100,training,negativefb,58,average,29,0.6504334999999628,['n'],1,right,['2'],5,0.46709900000018933,,,,,,,,4,20,Vrouw,Rechts,2,
,dotcolour,dotcolour,xotask,41,1,101,101,training,negativefb,53,hard,39,2.100716700000021,['c'],0,right,['3'],4,0.30077090000008866,,,,,,,,4,20,Vrouw,Rechts,2,
,dotcolour,dotcolour,xotask,42,1,102,102,training,negativefb,86,average,51,1.09847979999995,['c'],1,left,['2'],5,0.22101379999980963,,,,,,,,4,20,Vrouw,Rechts,2,
,dotcolour,dotcolour,xotask,43,1,103,103,training,negativefb,68,average,27,1.0670442000000548,['n'],1,right,['2'],5,0.265250000000151,,,,,,,,4,20,Vrouw,Rechts,2,
,dotcolour,dotcolour,xotask,44,1,104,104,training,negativefb,47,average,25,0.648945700000013,['n'],1,right,['1'],6,0.18925079999985428,,,,,,,,4,20,Vrouw,Rechts,2,
,dotcolour,dotcolour,xotask,45,1,105,105,training,negativefb,34,hard,43,2.234335500000043,['n'],0,left,['3'],4,0.26107180000008157,,,,,,,,4,20,Vrouw,Rechts,2,
,dotcolour,dotcolour,xotask,46,1,106,106,training,negativefb,29,average,52,0.9159571000000142,['c'],1,left,['2'],5,0.27032370000006267,,,,,,,,4,20,Vrouw,Rechts,2,
,dotcolour,dotcolour,xotask,47,1,107,107,training,negativefb,67,easy,63,0.6503412000001845,['c'],1,left,['1'],6,0.20957029999999577,,,,,,,,4,20,Vrouw,Rechts,2,
,dotcolour,dotcolour,xotask,48,1,108,108,training,negativefb,91,average,54,0.5834250999998858,['c'],1,left,['1'],6,0.38647770000011406,,,,,,,,4,20,Vrouw,Rechts,2,
,dotcolour,dotcolour,xotask,49,1,109,109,training,negativefb,79,easy,19,0.49889980000011747,['n'],1,right,['1'],6,0.19939189999990958,,,,,,,,4,20,Vrouw,Rechts,2,
,dotcolour,dotcolour,xotask,50,1,110,110,training,negativefb,57,hard,43,1.5340075999999954,['n'],0,left,['3'],4,0.26636290000010376,,,,,,,,4,20,Vrouw,Rechts,2,
,dotcolour,dotcolour,xotask,51,1,111,111,training,negativefb,49,hard,38,2.234195600000021,['c'],0,right,['3'],4,0.3905188999999609,,,,,,,,4,20,Vrouw,Rechts,2,
,dotcolour,dotcolour,xotask,52,1,112,112,training,negativefb,70,hard,38,1.6004841000001306,['n'],1,right,['3'],4,0.2870244000000639,,,,,,,,4,20,Vrouw,Rechts,2,
,dotcolour,dotcolour,xotask,53,1,113,113,training,negativefb,45,easy,16,0.5998498000001291,['n'],1,right,['1'],6,0.2916898000000856,,,,,,,,4,20,Vrouw,Rechts,2,
,dotcolour,dotcolour,xotask,54,1,114,114,training,negativefb,89,average,53,0.9838755999999194,['c'],1,left,['2'],5,0.3451658999999836,,,,,,,,4,20,Vrouw,Rechts,2,
,dotcolour,dotcolour,xotask,55,1,115,115,training,negativefb,88,average,55,0.6986845999999787,['c'],1,left,['2'],5,0.24824139999986983,,,,,,,,4,20,Vrouw,Rechts,2,
,dotcolour,dotcolour,xotask,56,1,116,116,training,negativefb,72,average,25,0.6503556000000117,['n'],1,right,['1'],6,0.15635900000006586,,,,,,,,4,20,Vrouw,Rechts,2,
,dotcolour,dotcolour,xotask,57,1,117,117,training,negativefb,35,hard,41,2.0670394999999644,['c'],1,left,['3'],4,0.5155470000001969,,,,,,,,4,20,Vrouw,Rechts,2,
,dotcolour,dotcolour,xotask,58,1,118,118,training,negativefb,76,average,26,0.5995270000000801,['n'],1,right,['1'],6,0.3276650999998765,,,,,,,,4,20,Vrouw,Rechts,2,
,dotcolour,dotcolour,xotask,59,1,119,119,training,negativefb,80,easy,65,0.8166790000000219,['c'],1,left,['1'],6,0.2660331000001861,,,,,,,,4,20,Vrouw,Rechts,2,
,xotask,dotcolour,xotask,0,2,120,120,main,negativefb,-99,average,,1.5667716000000382,['c'],1,left,['2'],5,2.0547302999998465,60,,,,,,,4,20,Vrouw,Rechts,2,
,xotask,dotcolour,xotask,1,2,121,121,main,negativefb,-99,average,,1.0342149000000518,['n'],1,right,['2'],5,0.47583720000011454,17,,,,,,,4,20,Vrouw,Rechts,2,
,xotask,dotcolour,xotask,2,2,122,122,main,negativefb,-99,easy,,0.7838842000001023,['c'],1,left,['2'],5,0.281981400000177,73,,,,,,,4,20,Vrouw,Rechts,2,
,xotask,dotcolour,xotask,3,2,123,123,main,negativefb,-99,easy,,0.8503831000000446,['n'],1,right,['1'],6,0.23009569999999258,9,,,,,,,4,20,Vrouw,Rechts,2,
,xotask,dotcolour,xotask,4,2,124,124,main,negativefb,-99,hard,,2.2338287999998556,['c'],1,left,['3'],4,0.28482480000002397,52,,,,,,,4,20,Vrouw,Rechts,2,
,xotask,dotcolour,xotask,5,2,125,125,main,negativefb,-99,easy,,0.8010318999999981,['n'],1,right,['2'],5,0.38625550000006115,8,,,,,,,4,20,Vrouw,Rechts,2,
,xotask,dotcolour,xotask,6,2,126,126,main,negativefb,-99,hard,,1.1172989000001508,['c'],1,left,['2'],5,0.31893970000010086,51,,,,,,,4,20,Vrouw,Rechts,2,
,xotask,dotcolour,xotask,7,2,127,127,main,negativefb,-99,average,,1.1503969999998844,['c'],1,left,['1'],6,0.2207594000001336,62,,,,,,,4,20,Vrouw,Rechts,2,
,xotask,dotcolour,xotask,8,2,128,128,main,negativefb,-99,average,,0.784293899999966,['c'],1,left,['1'],6,0.25304750000009335,62,,,,,,,4,20,Vrouw,Rechts,2,
,xotask,dotcolour,xotask,9,2,129,129,main,negativefb,-99,hard,,0.6174875000001521,['n'],1,right,['1'],6,0.25927440000009483,28,,,,,,,4,20,Vrouw,Rechts,2,
,xotask,dotcolour,xotask,10,2,130,130,main,negativefb,-99,average,,1.300615099999959,['c'],1,left,['2'],5,0.23834560000000238,64,,,,,,,4,20,Vrouw,Rechts,2,
,xotask,dotcolour,xotask,11,2,131,131,main,negativefb,-99,hard,,1.0510004000000208,['c'],1,left,['1'],6,0.19558410000013282,53,,,,,,,4,20,Vrouw,Rechts,2,
,xotask,dotcolour,xotask,12,2,132,132,main,negativefb,-99,easy,,0.5849148999998306,['c'],1,left,['1'],6,0.230069100000037,70,,,,,,,4,20,Vrouw,Rechts,2,
,xotask,dotcolour,xotask,13,2,133,133,main,negativefb,-99,easy,,0.650373400000035,['n'],1,right,['1'],6,0.14751139999998486,7,,,,,,,4,20,Vrouw,Rechts,2,
,xotask,dotcolour,xotask,14,2,134,134,main,negativefb,-99,average,,0.6331599000000097,['c'],1,left,['1'],6,0.2136688000000504,64,,,,,,,4,20,Vrouw,Rechts,2,
,xotask,dotcolour,xotask,15,2,135,135,main,negativefb,-99,average,,0.6178046999998514,['n'],1,right,['1'],6,0.1979682999999568,16,,,,,,,4,20,Vrouw,Rechts,2,
,xotask,dotcolour,xotask,16,2,136,136,main,negativefb,-99,hard,,1.0171003000000383,['c'],1,left,['2'],5,0.18256980000001022,50,,,,,,,4,20,Vrouw,Rechts,2,
,xotask,dotcolour,xotask,17,2,137,137,main,negativefb,-99,hard,,1.1000813999999082,['c'],1,left,['2'],5,0.18745699999999488,54,,,,,,,4,20,Vrouw,Rechts,2,
,xotask,dotcolour,xotask,18,2,138,138,main,negativefb,-99,easy,,0.966276999999991,['c'],1,left,['2'],5,0.3909986999999546,71,,,,,,,4,20,Vrouw,Rechts,2,
,xotask,dotcolour,xotask,19,2,139,139,main,negativefb,-99,easy,,0.5504733999998734,['n'],1,right,['1'],6,0.21039029999997183,8,,,,,,,4,20,Vrouw,Rechts,2,
,xotask,dotcolour,xotask,20,2,140,140,main,negativefb,-99,average,,0.7679956999998012,['c'],1,left,['1'],6,0.18010259999982736,62,,,,,,,4,20,Vrouw,Rechts,2,
,xotask,dotcolour,xotask,21,2,141,141,main,negativefb,-99,average,,0.7342745999999352,['c'],1,left,['1'],6,0.20111449999990327,61,,,,,,,4,20,Vrouw,Rechts,2,
,xotask,dotcolour,xotask,22,2,142,142,main,negativefb,-99,hard,,0.901200400000107,['c'],1,left,['2'],5,0.21307449999994788,52,,,,,,,4,20,Vrouw,Rechts,2,
,xotask,dotcolour,xotask,23,2,143,143,main,negativefb,-99,easy,,0.617454399999815,['c'],1,left,['1'],6,0.23700060000010126,71,,,,,,,4,20,Vrouw,Rechts,2,
,xotask,dotcolour,xotask,24,2,144,144,main,negativefb,-99,easy,,0.6008024000000205,['n'],1,right,['1'],6,0.18916790000002948,9,,,,,,,4,20,Vrouw,Rechts,2,
,xotask,dotcolour,xotask,25,2,145,145,main,negativefb,-99,hard,,1.0674955000001773,['n'],1,right,['2'],5,0.3152268000001186,29,,,,,,,4,20,Vrouw,Rechts,2,
,xotask,dotcolour,xotask,26,2,146,146,main,negativefb,-99,hard,,1.1168113999999605,['n'],0,left,['3'],4,0.4197438000001057,50,,,,,,,4,20,Vrouw,Rechts,2,
,xotask,dotcolour,xotask,27,2,147,147,main,negativefb,-99,easy,,0.9509861000001365,['n'],1,right,['1'],6,0.22176300000000992,8,,,,,,,4,20,Vrouw,Rechts,2,
,xotask,dotcolour,xotask,28,2,148,148,main,negativefb,-99,easy,,0.5343017999998665,['n'],1,right,['1'],6,0.20847309999999197,7,,,,,,,4,20,Vrouw,Rechts,2,
,xotask,dotcolour,xotask,29,2,149,149,main,negativefb,-99,average,,0.732891299999892,['c'],1,left,['2'],5,0.47574839999992946,62,,,,,,,4,20,Vrouw,Rechts,2,
,xotask,dotcolour,xotask,30,2,150,150,main,negativefb,-99,hard,,1.399790499999881,['n'],0,left,['8'],3,1.4660212999999658,51,,,,,,,4,20,Vrouw,Rechts,2,
,xotask,dotcolour,xotask,31,2,151,151,main,negativefb,-99,average,,1.0504994999998871,['n'],1,right,['2'],5,0.17403170000011414,19,,,,,,,4,20,Vrouw,Rechts,2,
,xotask,dotcolour,xotask,32,2,152,152,main,negativefb,-99,hard,,1.2500395000001845,['c'],0,right,['3'],4,0.34196159999987685,29,,,,,,,4,20,Vrouw,Rechts,2,
,xotask,dotcolour,xotask,33,2,153,153,main,negativefb,-99,easy,,0.7168171000000712,['c'],1,left,['1'],6,0.2918199000000641,70,,,,,,,4,20,Vrouw,Rechts,2,
,xotask,dotcolour,xotask,34,2,154,154,main,negativefb,-99,hard,,2.166477299999997,['n'],1,right,['3'],4,1.1314222999999402,25,,,,,,,4,20,Vrouw,Rechts,2,
,xotask,dotcolour,xotask,35,2,155,155,main,negativefb,-99,average,,1.3490492000000813,['n'],1,right,['2'],5,0.20974390000014864,18,,,,,,,4,20,Vrouw,Rechts,2,
,xotask,dotcolour,xotask,36,2,156,156,main,negativefb,-99,average,,0.6841405999998642,['n'],1,right,['2'],5,0.17498300000011113,15,,,,,,,4,20,Vrouw,Rechts,2,
,xotask,dotcolour,xotask,37,2,157,157,main,negativefb,-99,easy,,0.6010314999998627,['n'],1,right,['1'],6,0.18501480000008996,7,,,,,,,4,20,Vrouw,Rechts,2,
,xotask,dotcolour,xotask,38,2,158,158,main,negativefb,-99,easy,,0.6838444999998501,['c'],1,left,['1'],6,0.1430768000000171,72,,,,,,,4,20,Vrouw,Rechts,2,
,xotask,dotcolour,xotask,39,2,159,159,main,negativefb,-99,average,,1.132586100000026,['n'],1,right,['2'],5,0.20495609999989028,18,,,,,,,4,20,Vrouw,Rechts,2,
,xotask,dotcolour,xotask,40,2,160,160,main,negativefb,-99,average,,0.7163348999999926,['n'],1,right,['2'],5,0.1132738999999674,15,,,,,,,4,20,Vrouw,Rechts,2,
,xotask,dotcolour,xotask,41,2,161,161,main,negativefb,-99,average,,0.6673777999999402,['n'],1,right,['2'],5,0.1705354000000625,19,,,,,,,4,20,Vrouw,Rechts,2,
,xotask,dotcolour,xotask,42,2,162,162,main,negativefb,-99,average,,0.7676730999999108,['n'],0,left,['2'],5,0.27839059999996607,61,,,,,,,4,20,Vrouw,Rechts,2,
,xotask,dotcolour,xotask,43,2,163,163,main,negativefb,-99,hard,,1.067577300000039,['n'],1,right,['2'],5,0.2255310999998983,25,,,,,,,4,20,Vrouw,Rechts,2,
,xotask,dotcolour,xotask,44,2,164,164,main,negativefb,-99,average,,0.80102920000013,['c'],1,left,['1'],6,0.3303843000001052,62,,,,,,,4,20,Vrouw,Rechts,2,
,xotask,dotcolour,xotask,45,2,165,165,main,negativefb,-99,easy,,0.550200100000211,['c'],1,left,['1'],6,0.24727480000001378,71,,,,,,,4,20,Vrouw,Rechts,2,
,xotask,dotcolour,xotask,46,2,166,166,main,negativefb,-99,hard,,0.6498689000000013,['n'],1,right,['2'],5,0.14937429999986307,25,,,,,,,4,20,Vrouw,Rechts,2,
,xotask,dotcolour,xotask,47,2,167,167,main,negativefb,-99,average,,0.6679567000001043,['n'],1,right,['1'],6,0.18863979999991898,15,,,,,,,4,20,Vrouw,Rechts,2,
,xotask,dotcolour,xotask,48,2,168,168,main,negativefb,-99,easy,,0.7343943999999283,['c'],1,left,['1'],6,0.24084449999986646,71,,,,,,,4,20,Vrouw,Rechts,2,
,xotask,dotcolour,xotask,49,2,169,169,main,negativefb,-99,easy,,2.050690999999915,['n'],0,left,['3'],4,0.3752521000001252,72,,,,,,,4,20,Vrouw,Rechts,2,
,xotask,dotcolour,xotask,50,2,170,170,main,negativefb,-99,easy,,0.6679553999999825,['n'],1,right,['1'],6,0.18954869999993207,6,,,,,,,4,20,Vrouw,Rechts,2,
,xotask,dotcolour,xotask,51,2,171,171,main,negativefb,-99,hard,,2.5678852000000916,['c'],1,left,['3'],4,0.46549259999983406,54,,,,,,,4,20,Vrouw,Rechts,2,
,xotask,dotcolour,xotask,52,2,172,172,main,negativefb,-99,hard,,0.9340306999999939,['n'],1,right,['1'],6,0.1853713999998945,29,,,,,,,4,20,Vrouw,Rechts,2,
,xotask,dotcolour,xotask,53,2,173,173,main,negativefb,-99,hard,,1.8010910999998941,['n'],1,right,['3'],4,0.3392714999999953,28,,,,,,,4,20,Vrouw,Rechts,2,
,xotask,dotcolour,xotask,54,2,174,174,main,negativefb,-99,hard,,1.150193100000024,['c'],0,right,['3'],4,0.28801439999983813,29,,,,,,,4,20,Vrouw,Rechts,2,
,xotask,dotcolour,xotask,55,2,175,175,main,negativefb,-99,average,,0.7168080999999802,['n'],1,right,['2'],5,0.4096662000001743,19,,,,,,,4,20,Vrouw,Rechts,2,
,xotask,dotcolour,xotask,56,2,176,176,main,negativefb,-99,hard,,1.0337460000000647,['n'],1,right,['1'],6,0.160280099999909,28,,,,,,,4,20,Vrouw,Rechts,2,
,xotask,dotcolour,xotask,57,2,177,177,main,negativefb,-99,hard,,0.9512632999999369,['c'],1,left,['2'],5,0.24479010000004564,53,,,,,,,4,20,Vrouw,Rechts,2,
,xotask,dotcolour,xotask,58,2,178,178,main,negativefb,-99,easy,,0.5497898000000987,['n'],1,right,['1'],6,0.23062290000007124,5,,,,,,,4,20,Vrouw,Rechts,2,
,xotask,dotcolour,xotask,59,2,179,179,main,negativefb,-99,easy,,1.7842024999999921,['n'],0,left,['3'],4,0.16665450000004967,70,,,,,,,4,20,Vrouw,Rechts,2,
,xotask,dotcolour,xotask,0,3,180,180,main,negativefb,-99,easy,,0.8015646000001198,['n'],1,right,['1'],6,0.19602000000008957,5,,,,,,,4,20,Vrouw,Rechts,2,
,xotask,dotcolour,xotask,1,3,181,181,main,negativefb,-99,hard,,0.9675339999998869,['c'],1,left,['1'],6,0.1591616000000613,52,,,,,,,4,20,Vrouw,Rechts,2,
,xotask,dotcolour,xotask,2,3,182,182,main,negativefb,-99,hard,,1.1172497000000021,['c'],1,left,['2'],5,0.269166499999983,52,,,,,,,4,20,Vrouw,Rechts,2,
,xotask,dotcolour,xotask,3,3,183,183,main,negativefb,-99,average,,0.6833811000001333,['n'],1,right,['1'],6,0.11150809999980993,15,,,,,,,4,20,Vrouw,Rechts,2,
,xotask,dotcolour,xotask,4,3,184,184,main,negativefb,-99,average,,0.7343848000000435,['n'],1,right,['1'],6,0.19174689999999828,16,,,,,,,4,20,Vrouw,Rechts,2,
,xotask,dotcolour,xotask,5,3,185,185,main,negativefb,-99,easy,,0.5505984000001263,['c'],1,left,['1'],6,0.2030354000000898,73,,,,,,,4,20,Vrouw,Rechts,2,
,xotask,dotcolour,xotask,6,3,186,186,main,negativefb,-99,hard,,0.6007426000001033,['c'],1,left,['1'],6,0.24437539999985347,52,,,,,,,4,20,Vrouw,Rechts,2,
,xotask,dotcolour,xotask,7,3,187,187,main,negativefb,-99,easy,,0.550856500000009,['n'],1,right,['1'],6,0.18995590000008633,9,,,,,,,4,20,Vrouw,Rechts,2,
,xotask,dotcolour,xotask,8,3,188,188,main,negativefb,-99,average,,2.466832199999999,['c'],0,right,['3'],4,0.3002198000001499,17,,,,,,,4,20,Vrouw,Rechts,2,
,xotask,dotcolour,xotask,9,3,189,189,main,negativefb,-99,hard,,1.0665824000000157,['n'],1,right,['2'],5,0.5180192999998781,25,,,,,,,4,20,Vrouw,Rechts,2,
,xotask,dotcolour,xotask,10,3,190,190,main,negativefb,-99,average,,0.9183279000001221,['n'],1,right,['2'],5,0.21402080000007118,19,,,,,,,4,20,Vrouw,Rechts,2,
,xotask,dotcolour,xotask,11,3,191,191,main,negativefb,-99,easy,,0.83302609999987,['c'],1,left,['2'],5,0.1649477000000843,70,,,,,,,4,20,Vrouw,Rechts,2,
,xotask,dotcolour,xotask,12,3,192,192,main,negativefb,-99,average,,1.333712099999957,['n'],0,left,['2'],5,0.2174150999999256,64,,,,,,,4,20,Vrouw,Rechts,2,
,xotask,dotcolour,xotask,13,3,193,193,main,negativefb,-99,hard,,0.6174172999999428,['n'],1,right,['2'],5,0.15305450000005294,25,,,,,,,4,20,Vrouw,Rechts,2,
,xotask,dotcolour,xotask,14,3,194,194,main,negativefb,-99,easy,,0.6675298000000112,['n'],1,right,['1'],6,0.1776588999998694,5,,,,,,,4,20,Vrouw,Rechts,2,
,xotask,dotcolour,xotask,15,3,195,195,main,negativefb,-99,easy,,0.6844416000001274,['c'],1,left,['1'],6,0.5842752999999448,74,,,,,,,4,20,Vrouw,Rechts,2,
,xotask,dotcolour,xotask,16,3,196,196,main,negativefb,-99,average,,0.900739600000179,['n'],1,right,['2'],5,0.13404709999986153,19,,,,,,,4,20,Vrouw,Rechts,2,
,xotask,dotcolour,xotask,17,3,197,197,main,negativefb,-99,easy,,0.8679263999999876,['c'],1,left,['2'],5,0.2059533999999985,71,,,,,,,4,20,Vrouw,Rechts,2,
,xotask,dotcolour,xotask,18,3,198,198,main,negativefb,-99,easy,,0.8509103999999752,['c'],1,left,['1'],6,0.15654480000011972,73,,,,,,,4,20,Vrouw,Rechts,2,
,xotask,dotcolour,xotask,19,3,199,199,main,negativefb,-99,average,,0.6500482000001284,['c'],1,left,['1'],6,0.15831389999993917,62,,,,,,,4,20,Vrouw,Rechts,2,
,xotask,dotcolour,xotask,20,3,200,200,main,negativefb,-99,hard,,1.85056429999986,['n'],0,left,['3'],4,0.11861279999993712,51,,,,,,,4,20,Vrouw,Rechts,2,
,xotask,dotcolour,xotask,21,3,201,201,main,negativefb,-99,hard,,1.517775299999812,['n'],0,left,['3'],4,0.19838270000013836,50,,,,,,,4,20,Vrouw,Rechts,2,
,xotask,dotcolour,xotask,22,3,202,202,main,negativefb,-99,easy,,0.9663759999998547,['n'],1,right,['1'],6,0.0972873000000618,8,,,,,,,4,20,Vrouw,Rechts,2,
,xotask,dotcolour,xotask,23,3,203,203,main,negativefb,-99,hard,,0.6503842000001896,['n'],1,right,['1'],6,0.17124349999994593,27,,,,,,,4,20,Vrouw,Rechts,2,
,xotask,dotcolour,xotask,24,3,204,204,main,negativefb,-99,average,,0.7677126999999473,['c'],1,left,['1'],6,0.1751639999999952,63,,,,,,,4,20,Vrouw,Rechts,2,
,xotask,dotcolour,xotask,25,3,205,205,main,negativefb,-99,easy,,0.6339037000000189,['n'],1,right,['1'],6,0.20069519999992735,6,,,,,,,4,20,Vrouw,Rechts,2,
,xotask,dotcolour,xotask,26,3,206,206,main,negativefb,-99,hard,,0.6999101000001247,['n'],1,right,['1'],6,0.189348500000051,27,,,,,,,4,20,Vrouw,Rechts,2,
,xotask,dotcolour,xotask,27,3,207,207,main,negativefb,-99,hard,,1.4009228999998413,['n'],0,left,['3'],4,0.23758199999997487,52,,,,,,,4,20,Vrouw,Rechts,2,
,xotask,dotcolour,xotask,28,3,208,208,main,negativefb,-99,easy,,0.6681949999999688,['n'],1,right,['2'],5,0.1709593999999015,9,,,,,,,4,20,Vrouw,Rechts,2,
,xotask,dotcolour,xotask,29,3,209,209,main,negativefb,-99,easy,,1.0842823000000408,['n'],1,right,['2'],5,0.26497790000007626,6,,,,,,,4,20,Vrouw,Rechts,2,
,xotask,dotcolour,xotask,30,3,210,210,main,negativefb,-99,average,,0.8676915999999437,['n'],0,left,['2'],5,0.12450169999988248,60,,,,,,,4,20,Vrouw,Rechts,2,
,xotask,dotcolour,xotask,31,3,211,211,main,negativefb,-99,easy,,0.7011856000001444,['c'],1,left,['1'],6,0.16519210000001294,71,,,,,,,4,20,Vrouw,Rechts,2,
,xotask,dotcolour,xotask,32,3,212,212,main,negativefb,-99,average,,0.8000675000000683,['c'],1,left,['1'],6,0.23970190000000002,61,,,,,,,4,20,Vrouw,Rechts,2,
,xotask,dotcolour,xotask,33,3,213,213,main,negativefb,-99,hard,,1.0004896999998891,['c'],1,left,['2'],5,0.15934260000017275,50,,,,,,,4,20,Vrouw,Rechts,2,
,xotask,dotcolour,xotask,34,3,214,214,main,negativefb,-99,hard,,0.7996303999998418,['n'],1,right,['2'],5,0.48153530000013234,26,,,,,,,4,20,Vrouw,Rechts,2,
,xotask,dotcolour,xotask,35,3,215,215,main,negativefb,-99,average,,1.0173099999999522,['c'],1,left,['2'],5,0.1740495000001374,60,,,,,,,4,20,Vrouw,Rechts,2,
,xotask,dotcolour,xotask,36,3,216,216,main,negativefb,-99,hard,,2.2663861999999426,['c'],1,left,['2'],5,0.1901249000000007,51,,,,,,,4,20,Vrouw,Rechts,2,
,xotask,dotcolour,xotask,37,3,217,217,main,negativefb,-99,easy,,0.7179986999999528,['c'],1,left,['2'],5,0.17092170000000806,74,,,,,,,4,20,Vrouw,Rechts,2,
,xotask,dotcolour,xotask,38,3,218,218,main,negativefb,-99,average,,0.7847498999999516,['n'],1,right,['2'],5,0.11776349999990998,18,,,,,,,4,20,Vrouw,Rechts,2,
,xotask,dotcolour,xotask,39,3,219,219,main,negativefb,-99,average,,0.5833967999999459,['n'],1,right,['1'],6,0.11479469999994762,15,,,,,,,4,20,Vrouw,Rechts,2,
,xotask,dotcolour,xotask,40,3,220,220,main,negativefb,-99,average,,2.2487883000001148,['n'],0,left,['3'],4,0.2375320000001011,60,,,,,,,4,20,Vrouw,Rechts,2,
,xotask,dotcolour,xotask,41,3,221,221,main,negativefb,-99,hard,,0.8342400999999882,['n'],1,right,['1'],6,0.19497000000001208,28,,,,,,,4,20,Vrouw,Rechts,2,
,xotask,dotcolour,xotask,42,3,222,222,main,negativefb,-99,average,,0.6334951000001183,['c'],1,left,['2'],5,0.7549895999998171,62,,,,,,,4,20,Vrouw,Rechts,2,
,xotask,dotcolour,xotask,43,3,223,223,main,negativefb,-99,hard,,0.9175350999998955,['n'],1,right,['2'],5,0.18548299999997653,25,,,,,,,4,20,Vrouw,Rechts,2,
,xotask,dotcolour,xotask,44,3,224,224,main,negativefb,-99,hard,,2.1178439999998773,['n'],0,left,['3'],4,0.17308709999997518,50,,,,,,,4,20,Vrouw,Rechts,2,
,xotask,dotcolour,xotask,45,3,225,225,main,negativefb,-99,easy,,0.884381299999859,['c'],1,left,['1'],6,0.18077229999994415,72,,,,,,,4,20,Vrouw,Rechts,2,
,xotask,dotcolour,xotask,46,3,226,226,main,negativefb,-99,easy,,1.1840687999999773,['c'],1,left,['1'],6,0.17521149999993213,70,,,,,,,4,20,Vrouw,Rechts,2,
,xotask,dotcolour,xotask,47,3,227,227,main,negativefb,-99,average,,1.0835876000001008,['n'],1,right,['2'],5,0.4933998999999858,16,,,,,,,4,20,Vrouw,Rechts,2,
,xotask,dotcolour,xotask,48,3,228,228,main,negativefb,-99,average,,0.8334079000001111,['n'],1,right,['1'],6,0.12235579999992297,15,,,,,,,4,20,Vrouw,Rechts,2,
,xotask,dotcolour,xotask,49,3,229,229,main,negativefb,-99,easy,,1.1180987999998706,['n'],1,right,['2'],5,0.1456505000001016,9,,,,,,,4,20,Vrouw,Rechts,2,
,xotask,dotcolour,xotask,50,3,230,230,main,negativefb,-99,average,,1.3677128999997876,['n'],0,left,['3'],4,0.15859270000009928,62,,,,,,,4,20,Vrouw,Rechts,2,
,xotask,dotcolour,xotask,51,3,231,231,main,negativefb,-99,average,,1.0499479000000065,['c'],1,left,['2'],5,0.2630768999999873,63,,,,,,,4,20,Vrouw,Rechts,2,
,xotask,dotcolour,xotask,52,3,232,232,main,negativefb,-99,hard,,1.5660219999999754,['c'],1,left,['3'],4,0.15896199999997407,54,,,,,,,4,20,Vrouw,Rechts,2,
,xotask,dotcolour,xotask,53,3,233,233,main,negativefb,-99,easy,,0.7009590999998636,['n'],1,right,['1'],6,0.16589990000011312,8,,,,,,,4,20,Vrouw,Rechts,2,
,xotask,dotcolour,xotask,54,3,234,234,main,negativefb,-99,easy,,0.5506121999999323,['n'],1,right,['1'],6,1.0497983000000204,5,,,,,,,4,20,Vrouw,Rechts,2,
,xotask,dotcolour,xotask,55,3,235,235,main,negativefb,-99,average,,0.7173989999998867,['n'],1,right,['1'],6,0.14791950000017096,15,,,,,,,4,20,Vrouw,Rechts,2,
,xotask,dotcolour,xotask,56,3,236,236,main,negativefb,-99,hard,,0.5330662999999731,['n'],1,right,['2'],5,0.3539740000001075,26,,,,,,,4,20,Vrouw,Rechts,2,
,xotask,dotcolour,xotask,57,3,237,237,main,negativefb,-99,hard,,1.4178993999998966,['n'],1,right,['3'],4,0.19626519999997072,27,,,,,,,4,20,Vrouw,Rechts,2,
,xotask,dotcolour,xotask,58,3,238,238,main,negativefb,-99,hard,,0.6505311999999321,['n'],1,right,['1'],6,0.1470549000000574,29,,,,,,,4,20,Vrouw,Rechts,2,
,xotask,dotcolour,xotask,59,3,239,239,main,negativefb,-99,easy,,0.7684381999999914,['c'],1,left,['1'],6,0.13591539999993074,72,,,,,,,4,20,Vrouw,Rechts,2,
,xotask,dotcolour,xotask,0,4,240,240,main,negativefb,-99,easy,,0.784065499999997,['n'],1,right,['1'],6,0.1881261999999424,9,,,,,,,4,20,Vrouw,Rechts,2,
,xotask,dotcolour,xotask,1,4,241,241,main,negativefb,-99,easy,,0.6505848000001606,['c'],1,left,['1'],6,0.18749010000010458,70,,,,,,,4,20,Vrouw,Rechts,2,
,xotask,dotcolour,xotask,2,4,242,242,main,negativefb,-99,easy,,0.9351303000000826,['n'],1,right,['1'],6,0.09488119999991795,8,,,,,,,4,20,Vrouw,Rechts,2,
,xotask,dotcolour,xotask,3,4,243,243,main,negativefb,-99,easy,,0.6166898000001311,['c'],1,left,['1'],6,0.13277449999986857,72,,,,,,,4,20,Vrouw,Rechts,2,
,xotask,dotcolour,xotask,4,4,244,244,main,negativefb,-99,average,,0.7342277000000195,['n'],1,right,['1'],6,0.13822379999987788,19,,,,,,,4,20,Vrouw,Rechts,2,
,xotask,dotcolour,xotask,5,4,245,245,main,negativefb,-99,average,,1.0839100999999118,['c'],1,left,['3'],4,0.21024769999985438,61,,,,,,,4,20,Vrouw,Rechts,2,
,xotask,dotcolour,xotask,6,4,246,246,main,negativefb,-99,hard,,0.618245399999978,['n'],1,right,['1'],6,0.25053410000009535,25,,,,,,,4,20,Vrouw,Rechts,2,
,xotask,dotcolour,xotask,7,4,247,247,main,negativefb,-99,easy,,0.800144199999977,['c'],1,left,['2'],5,0.20916299999998955,71,,,,,,,4,20,Vrouw,Rechts,2,
,xotask,dotcolour,xotask,8,4,248,248,main,negativefb,-99,hard,,1.0998510000001716,['c'],0,right,['3'],4,0.5975490000000718,25,,,,,,,4,20,Vrouw,Rechts,2,
,xotask,dotcolour,xotask,9,4,249,249,main,negativefb,-99,easy,,0.5329022000000805,['n'],1,right,['1'],6,0.11377749999996922,8,,,,,,,4,20,Vrouw,Rechts,2,
,xotask,dotcolour,xotask,10,4,250,250,main,negativefb,-99,hard,,1.0518286999999873,['n'],0,left,['2'],5,0.18927389999998923,52,,,,,,,4,20,Vrouw,Rechts,2,
,xotask,dotcolour,xotask,11,4,251,251,main,negativefb,-99,average,,0.6010575999998764,['n'],1,right,['2'],5,0.13400209999986146,19,,,,,,,4,20,Vrouw,Rechts,2,
,xotask,dotcolour,xotask,12,4,252,252,main,negativefb,-99,average,,1.3170427000000018,['c'],1,left,['3'],4,0.12561269999991964,63,,,,,,,4,20,Vrouw,Rechts,2,
,xotask,dotcolour,xotask,13,4,253,253,main,negativefb,-99,hard,,0.6506093999998939,['n'],1,right,['1'],6,0.13524869999992006,28,,,,,,,4,20,Vrouw,Rechts,2,
,xotask,dotcolour,xotask,14,4,254,254,main,negativefb,-99,easy,,1.0328663999998753,['n'],1,right,['1'],6,0.08948190000000977,9,,,,,,,4,20,Vrouw,Rechts,2,
,xotask,dotcolour,xotask,15,4,255,255,main,negativefb,-99,hard,,0.7008249000000433,['n'],1,right,['1'],6,0.12283880000018144,27,,,,,,,4,20,Vrouw,Rechts,2,
,xotask,dotcolour,xotask,16,4,256,256,main,negativefb,-99,average,,0.8161577000000761,['c'],1,left,['1'],6,0.15021969999997964,64,,,,,,,4,20,Vrouw,Rechts,2,
,xotask,dotcolour,xotask,17,4,257,257,main,negativefb,-99,average,,0.9167125999999826,['n'],1,right,['3'],4,0.30065109999986817,19,,,,,,,4,20,Vrouw,Rechts,2,
,xotask,dotcolour,xotask,18,4,258,258,main,negativefb,-99,average,,0.6667147999999088,['n'],1,right,['1'],6,0.09336549999989074,18,,,,,,,4,20,Vrouw,Rechts,2,
,xotask,dotcolour,xotask,19,4,259,259,main,negativefb,-99,easy,,0.8831131000001733,['c'],1,left,['1'],6,0.12030210000011721,73,,,,,,,4,20,Vrouw,Rechts,2,
,xotask,dotcolour,xotask,20,4,260,260,main,negativefb,-99,average,,0.8010276999998496,['c'],1,left,['2'],5,0.18806349999999838,60,,,,,,,4,20,Vrouw,Rechts,2,
,xotask,dotcolour,xotask,21,4,261,261,main,negativefb,-99,easy,,0.5836295999999948,['n'],1,right,['1'],6,0.2063246000000163,9,,,,,,,4,20,Vrouw,Rechts,2,
,xotask,dotcolour,xotask,22,4,262,262,main,negativefb,-99,average,,2.1505282000000534,['n'],1,right,['3'],4,0.6652447999999822,18,,,,,,,4,20,Vrouw,Rechts,2,
,xotask,dotcolour,xotask,23,4,263,263,main,negativefb,-99,easy,,0.7999472999999853,['c'],1,left,['1'],6,0.30373949999989236,73,,,,,,,4,20,Vrouw,Rechts,2,
,xotask,dotcolour,xotask,24,4,264,264,main,negativefb,-99,average,,0.6501903000000766,['n'],1,right,['1'],6,0.1308076999998775,15,,,,,,,4,20,Vrouw,Rechts,2,
,xotask,dotcolour,xotask,25,4,265,265,main,negativefb,-99,hard,,0.9852827999998226,['n'],1,right,['1'],6,0.11896449999994729,28,,,,,,,4,20,Vrouw,Rechts,2,
,xotask,dotcolour,xotask,26,4,266,266,main,negativefb,-99,hard,,1.2176888999999846,['n'],1,right,['3'],4,0.5703689999998005,29,,,,,,,4,20,Vrouw,Rechts,2,
,xotask,dotcolour,xotask,27,4,267,267,main,negativefb,-99,hard,,1.700461099999984,['c'],1,left,['3'],4,0.13664300000004914,54,,,,,,,4,20,Vrouw,Rechts,2,
,xotask,dotcolour,xotask,28,4,268,268,main,negativefb,-99,easy,,0.7501913000000968,['n'],1,right,['2'],5,0.20613000000003012,6,,,,,,,4,20,Vrouw,Rechts,2,
,xotask,dotcolour,xotask,29,4,269,269,main,negativefb,-99,easy,,0.5171121999999286,['n'],1,right,['1'],6,0.18575480000004063,6,,,,,,,4,20,Vrouw,Rechts,2,
,xotask,dotcolour,xotask,30,4,270,270,main,negativefb,-99,easy,,0.5496210000001156,['n'],1,right,['1'],6,0.14849190000018098,8,,,,,,,4,20,Vrouw,Rechts,2,
,xotask,dotcolour,xotask,31,4,271,271,main,negativefb,-99,hard,,1.3346621000000596,['n'],1,right,['2'],5,0.16196419999982936,25,,,,,,,4,20,Vrouw,Rechts,2,
,xotask,dotcolour,xotask,32,4,272,272,main,negativefb,-99,hard,,0.7001886000000468,['c'],1,left,['1'],6,0.1296642999998312,52,,,,,,,4,20,Vrouw,Rechts,2,
,xotask,dotcolour,xotask,33,4,273,273,main,negativefb,-99,average,,0.9164811000000554,['c'],1,left,['1'],6,0.14419580000003407,62,,,,,,,4,20,Vrouw,Rechts,2,
,xotask,dotcolour,xotask,34,4,274,274,main,negativefb,-99,easy,,0.6840878999998949,['c'],1,left,['2'],5,0.31267810000008467,73,,,,,,,4,20,Vrouw,Rechts,2,
,xotask,dotcolour,xotask,35,4,275,275,main,negativefb,-99,hard,,0.8843306000001121,['c'],1,left,['2'],5,0.15355369999997492,52,,,,,,,4,20,Vrouw,Rechts,2,
,xotask,dotcolour,xotask,36,4,276,276,main,negativefb,-99,hard,,2.783282900000131,['c'],0,right,['3'],4,0.17347509999990507,29,,,,,,,4,20,Vrouw,Rechts,2,
,xotask,dotcolour,xotask,37,4,277,277,main,negativefb,-99,average,,0.8841153000000759,['c'],1,left,['1'],6,0.19576849999998558,63,,,,,,,4,20,Vrouw,Rechts,2,
,xotask,dotcolour,xotask,38,4,278,278,main,negativefb,-99,hard,,1.034810200000038,['c'],1,left,['1'],6,0.1803777000000082,50,,,,,,,4,20,Vrouw,Rechts,2,
,xotask,dotcolour,xotask,39,4,279,279,main,negativefb,-99,hard,,2.3508200999999644,['c'],0,right,['3'],4,0.4002064999999675,26,,,,,,,4,20,Vrouw,Rechts,2,
,xotask,dotcolour,xotask,40,4,280,280,main,negativefb,-99,hard,,0.8662200000001121,['c'],1,left,['2'],5,0.1822170999998889,51,,,,,,,4,20,Vrouw,Rechts,2,
,xotask,dotcolour,xotask,41,4,281,281,main,negativefb,-99,average,,0.5503715999998349,['n'],1,right,['1'],6,0.21702479999999014,16,,,,,,,4,20,Vrouw,Rechts,2,
,xotask,dotcolour,xotask,42,4,282,282,main,negativefb,-99,average,,1.0179200000000037,['n'],1,right,['2'],5,0.09700760000009723,19,,,,,,,4,20,Vrouw,Rechts,2,
,xotask,dotcolour,xotask,43,4,283,283,main,negativefb,-99,easy,,0.5837435999999343,['c'],1,left,['1'],6,0.11879829999998037,73,,,,,,,4,20,Vrouw,Rechts,2,
,xotask,dotcolour,xotask,44,4,284,284,main,negativefb,-99,hard,,1.3835891000001084,['n'],1,right,['3'],4,0.13079549999997653,29,,,,,,,4,20,Vrouw,Rechts,2,
,xotask,dotcolour,xotask,45,4,285,285,main,negativefb,-99,average,,0.8671233000000029,['c'],1,left,['1'],6,0.3408905000001141,61,,,,,,,4,20,Vrouw,Rechts,2,
,xotask,dotcolour,xotask,46,4,286,286,main,negativefb,-99,hard,,1.7676495999999133,['c'],1,left,['3'],4,0.12148049999996147,51,,,,,,,4,20,Vrouw,Rechts,2,
,xotask,dotcolour,xotask,47,4,287,287,main,negativefb,-99,hard,,1.06739790000006,['c'],1,left,['3'],4,0.4187815000000228,51,,,,,,,4,20,Vrouw,Rechts,2,
,xotask,dotcolour,xotask,48,4,288,288,main,negativefb,-99,average,,1.100010999999995,['n'],1,right,['3'],4,0.1913908999999876,18,,,,,,,4,20,Vrouw,Rechts,2,
,xotask,dotcolour,xotask,49,4,289,289,main,negativefb,-99,average,,0.9338906000000406,['n'],1,right,['2'],5,0.09137950000013007,17,,,,,,,4,20,Vrouw,Rechts,2,
,xotask,dotcolour,xotask,50,4,290,290,main,negativefb,-99,average,,1.0522063999999318,['n'],0,left,['2'],5,0.1897684999999001,63,,,,,,,4,20,Vrouw,Rechts,2,
,xotask,dotcolour,xotask,51,4,291,291,main,negativefb,-99,hard,,0.9180691999999908,['c'],1,left,['2'],5,0.6754138999999668,53,,,,,,,4,20,Vrouw,Rechts,2,
,xotask,dotcolour,xotask,52,4,292,292,main,negativefb,-99,easy,,0.7841215999999349,['c'],1,left,['1'],6,0.13748370000007526,73,,,,,,,4,20,Vrouw,Rechts,2,
,xotask,dotcolour,xotask,53,4,293,293,main,negativefb,-99,easy,,0.6676746000000549,['n'],1,right,['1'],6,0.11499770000000353,8,,,,,,,4,20,Vrouw,Rechts,2,
,xotask,dotcolour,xotask,54,4,294,294,main,negativefb,-99,hard,,1.783311700000013,['n'],0,left,['2'],5,0.14321410000002288,51,,,,,,,4,20,Vrouw,Rechts,2,
,xotask,dotcolour,xotask,55,4,295,295,main,negativefb,-99,easy,,2.1352105000000847,['c'],1,left,['1'],6,0.15771399999994173,70,,,,,,,4,20,Vrouw,Rechts,2,
,xotask,dotcolour,xotask,56,4,296,296,main,negativefb,-99,average,,0.6826866000001246,['c'],1,left,['1'],6,0.1417225000000144,64,,,,,,,4,20,Vrouw,Rechts,2,
,xotask,dotcolour,xotask,57,4,297,297,main,negativefb,-99,average,,0.6514629000000696,['c'],1,left,['1'],6,0.11041310000018711,61,,,,,,,4,20,Vrouw,Rechts,2,
,xotask,dotcolour,xotask,58,4,298,298,main,negativefb,-99,easy,,0.7343290000001161,['c'],1,left,['1'],6,0.19785669999987476,71,,,,,,,4,20,Vrouw,Rechts,2,
,xotask,dotcolour,xotask,59,4,299,299,main,negativefb,-99,easy,,1.032704400000057,['n'],1,right,['2'],5,0.13455520000002252,9,,,,,,,4,20,Vrouw,Rechts,2,
,dotcolour,dotcolour,xotask,0,0,0,300,training,negativefb,58,hard,37,1.2670989999999165,['c'],0,right,['2'],5,1.9771006999999372,,,,,,,,4,20,Vrouw,Rechts,2,
,dotcolour,dotcolour,xotask,1,0,1,301,training,negativefb,65,easy,18,0.6664610000000266,['n'],1,right,['1'],6,0.15058090000002267,,,,,,,,4,20,Vrouw,Rechts,2,
,dotcolour,dotcolour,xotask,2,0,2,302,training,negativefb,84,easy,18,0.6497768000001543,['n'],1,right,['1'],6,0.10378749999995307,,,,,,,,4,20,Vrouw,Rechts,2,
,dotcolour,dotcolour,xotask,3,0,3,303,training,negativefb,70,easy,16,0.5334392999998272,['n'],1,right,['1'],6,0.10989789999985078,,,,,,,,4,20,Vrouw,Rechts,2,
,dotcolour,dotcolour,xotask,4,0,4,304,training,negativefb,80,easy,62,0.6171977999999854,['c'],1,left,['1'],6,0.12095440000007329,,,,,,,,4,20,Vrouw,Rechts,2,
,dotcolour,dotcolour,xotask,5,0,5,305,training,negativefb,32,average,53,0.9675488000000314,['n'],0,left,['3'],4,0.13433809999992263,,,,,,,,4,20,Vrouw,Rechts,2,
,dotcolour,dotcolour,xotask,6,0,6,306,training,negativefb,85,average,26,0.7675234000000728,['n'],1,right,['1'],6,0.4735214999998334,,,,,,,,4,20,Vrouw,Rechts,2,
,dotcolour,dotcolour,xotask,7,0,7,307,training,negativefb,38,hard,44,1.2665426000000934,['c'],1,left,['3'],4,0.13263879999999517,,,,,,,,4,20,Vrouw,Rechts,2,
,dotcolour,dotcolour,xotask,8,0,8,308,training,negativefb,84,easy,65,0.765281400000049,['c'],1,left,['1'],6,0.14528059999997822,,,,,,,,4,20,Vrouw,Rechts,2,
,dotcolour,dotcolour,xotask,9,0,9,309,training,negativefb,62,hard,44,1.717209099999991,['n'],0,left,['3'],4,0.12679750000006607,,,,,,,,4,20,Vrouw,Rechts,2,
,dotcolour,dotcolour,xotask,10,0,10,310,training,negativefb,63,easy,62,0.5841801999999916,['c'],1,left,['1'],6,0.1074818999998115,,,,,,,,4,20,Vrouw,Rechts,2,
,dotcolour,dotcolour,xotask,11,0,11,311,training,negativefb,32,average,54,1.3319977000001018,['c'],1,left,['1'],6,0.17819140000005973,,,,,,,,4,20,Vrouw,Rechts,2,
,dotcolour,dotcolour,xotask,12,0,12,312,training,negativefb,50,hard,38,1.2172597000001133,['c'],0,right,['3'],4,0.13026369999988674,,,,,,,,4,20,Vrouw,Rechts,2,
,dotcolour,dotcolour,xotask,13,0,13,313,training,negativefb,86,average,27,0.7338379000000259,['n'],1,right,['2'],5,0.23272799999995186,,,,,,,,4,20,Vrouw,Rechts,2,
,dotcolour,dotcolour,xotask,14,0,14,314,training,negativefb,85,average,26,1.251420699999926,['n'],1,right,['2'],5,0.17348450000008597,,,,,,,,4,20,Vrouw,Rechts,2,
,dotcolour,dotcolour,xotask,15,0,15,315,training,negativefb,55,hard,44,1.2825961999999436,['c'],1,left,['3'],4,0.22826039999995373,,,,,,,,4,20,Vrouw,Rechts,2,
,dotcolour,dotcolour,xotask,16,0,16,316,training,negativefb,27,easy,17,0.76698650000003,['n'],1,right,['1'],6,0.17234570000005078,,,,,,,,4,20,Vrouw,Rechts,2,
,dotcolour,dotcolour,xotask,17,0,17,317,training,negativefb,95,easy,63,0.6504858000000695,['c'],1,left,['1'],6,0.1883578000001762,,,,,,,,4,20,Vrouw,Rechts,2,
,dotcolour,dotcolour,xotask,18,0,18,318,training,negativefb,57,easy,16,0.6010980999999447,['n'],1,right,['1'],6,0.1004009999999198,,,,,,,,4,20,Vrouw,Rechts,2,
,dotcolour,dotcolour,xotask,19,0,19,319,training,negativefb,51,average,52,1.1336029999999937,['n'],0,left,['3'],4,0.25137340000014774,,,,,,,,4,20,Vrouw,Rechts,2,
,dotcolour,dotcolour,xotask,20,0,20,320,training,negativefb,45,hard,39,1.1175969000000805,['c'],0,right,['3'],4,0.09289990000002035,,,,,,,,4,20,Vrouw,Rechts,2,
,dotcolour,dotcolour,xotask,21,0,21,321,training,negativefb,49,hard,38,3.6676124999999047,['n'],1,right,['3'],4,0.15893640000012965,,,,,,,,4,20,Vrouw,Rechts,2,
,dotcolour,dotcolour,xotask,22,0,22,322,training,negativefb,71,hard,41,1.4508305000001656,['n'],0,left,['3'],4,0.20690209999997933,,,,,,,,4,20,Vrouw,Rechts,2,
,dotcolour,dotcolour,xotask,23,0,23,323,training,negativefb,67,hard,36,1.416291000000001,['n'],1,right,['3'],4,0.13456779999978608,,,,,,,,4,20,Vrouw,Rechts,2,
,dotcolour,dotcolour,xotask,24,0,24,324,training,negativefb,63,average,54,1.4494500000000698,['c'],1,left,['2'],5,0.15056159999994634,,,,,,,,4,20,Vrouw,Rechts,2,
,dotcolour,dotcolour,xotask,25,0,25,325,training,negativefb,63,average,27,1.3338482000001477,['n'],1,right,['1'],6,0.10760540000001129,,,,,,,,4,20,Vrouw,Rechts,2,
,dotcolour,dotcolour,xotask,26,0,26,326,training,negativefb,52,easy,19,0.83304720000001,['n'],1,right,['1'],6,0.06268250000016451,,,,,,,,4,20,Vrouw,Rechts,2,
,dotcolour,dotcolour,xotask,27,0,27,327,training,negativefb,56,average,26,0.6163436999997884,['n'],1,right,['1'],6,0.060594499999979234,,,,,,,,4,20,Vrouw,Rechts,2,
,dotcolour,dotcolour,xotask,28,0,28,328,training,negativefb,89,easy,65,0.6987834999999905,['c'],1,left,['1'],6,0.13369749999992564,,,,,,,,4,20,Vrouw,Rechts,2,
,dotcolour,dotcolour,xotask,29,0,29,329,training,negativefb,73,hard,41,2.084222499999896,['c'],1,left,['3'],4,0.43812980000006974,,,,,,,,4,20,Vrouw,Rechts,2,
,dotcolour,dotcolour,xotask,30,0,30,330,training,negativefb,73,easy,63,1.2331442999998217,['c'],1,left,['1'],6,0.11553719999983514,,,,,,,,4,20,Vrouw,Rechts,2,
,dotcolour,dotcolour,xotask,31,0,31,331,training,negativefb,69,average,27,0.6319860000000972,['n'],1,right,['1'],6,0.11015410000004522,,,,,,,,4,20,Vrouw,Rechts,2,
,dotcolour,dotcolour,xotask,32,0,32,332,training,negativefb,64,hard,41,1.3004225999998198,['c'],1,left,['3'],4,0.13393729999984316,,,,,,,,4,20,Vrouw,Rechts,2,
,dotcolour,dotcolour,xotask,33,0,33,333,training,negativefb,76,average,52,1.1672702000000754,['c'],1,left,['3'],4,0.19323290000011184,,,,,,,,4,20,Vrouw,Rechts,2,
,dotcolour,dotcolour,xotask,34,0,34,334,training,negativefb,64,average,26,0.7820819999999458,['n'],1,right,['1'],6,0.0667871999999079,,,,,,,,4,20,Vrouw,Rechts,2,
,dotcolour,dotcolour,xotask,35,0,35,335,training,negativefb,67,average,55,0.9161920999999893,['c'],1,left,['1'],6,0.08381479999980002,,,,,,,,4,20,Vrouw,Rechts,2,
,dotcolour,dotcolour,xotask,36,0,36,336,training,negativefb,56,hard,35,2.1342454000000544,['c'],0,right,['3'],4,0.20252069999992273,,,,,,,,4,20,Vrouw,Rechts,2,
,dotcolour,dotcolour,xotask,37,0,37,337,training,negativefb,59,hard,38,1.1348421000000144,['n'],1,right,['2'],5,0.16592549999995754,,,,,,,,4,20,Vrouw,Rechts,2,
,dotcolour,dotcolour,xotask,38,0,38,338,training,negativefb,57,hard,41,1.2671818000001167,['n'],0,left,['2'],5,0.09239159999992808,,,,,,,,4,20,Vrouw,Rechts,2,
,dotcolour,dotcolour,xotask,39,0,39,339,training,negativefb,77,hard,41,1.167179600000054,['c'],1,left,['2'],5,0.15396090000012919,,,,,,,,4,20,Vrouw,Rechts,2,
,dotcolour,dotcolour,xotask,40,0,40,340,training,negativefb,42,average,52,2.9826525000000856,['n'],0,left,['3'],4,0.8615611000000172,,,,,,,,4,20,Vrouw,Rechts,2,
,dotcolour,dotcolour,xotask,41,0,41,341,training,negativefb,54,average,29,1.084403199999997,['n'],1,right,['1'],6,0.10391390000017964,,,,,,,,4,20,Vrouw,Rechts,2,
,dotcolour,dotcolour,xotask,42,0,42,342,training,negativefb,30,average,53,1.1166802000000189,['c'],1,left,['2'],5,0.5758487999999033,,,,,,,,4,20,Vrouw,Rechts,2,
,dotcolour,dotcolour,xotask,43,0,43,343,training,negativefb,74,average,55,1.432707599999958,['c'],1,left,['2'],5,0.1356458999998722,,,,,,,,4,20,Vrouw,Rechts,2,
,dotcolour,dotcolour,xotask,44,0,44,344,training,negativefb,79,easy,15,0.6344965999999204,['n'],1,right,['1'],6,0.09706869999990886,,,,,,,,4,20,Vrouw,Rechts,2,
,dotcolour,dotcolour,xotask,45,0,45,345,training,negativefb,83,easy,65,0.600228799999968,['c'],1,left,['1'],6,0.12577029999988554,,,,,,,,4,20,Vrouw,Rechts,2,
,dotcolour,dotcolour,xotask,46,0,46,346,training,negativefb,80,easy,63,0.7845718000000943,['c'],1,left,['1'],6,0.12207629999988967,,,,,,,,4,20,Vrouw,Rechts,2,
,dotcolour,dotcolour,xotask,47,0,47,347,training,negativefb,51,easy,18,0.6167482999999265,['n'],1,right,['1'],6,0.10072420000005877,,,,,,,,4,20,Vrouw,Rechts,2,
,dotcolour,dotcolour,xotask,48,0,48,348,training,negativefb,40,hard,45,1.366061400000035,['n'],0,left,['2'],5,0.17834300000004077,,,,,,,,4,20,Vrouw,Rechts,2,
,dotcolour,dotcolour,xotask,49,0,49,349,training,negativefb,57,easy,64,0.6497008999999707,['c'],1,left,['1'],6,0.13792469999998502,,,,,,,,4,20,Vrouw,Rechts,2,
,dotcolour,dotcolour,xotask,50,0,50,350,training,negativefb,28,hard,44,0.9824668999999631,['n'],0,left,['3'],4,0.14858249999997497,,,,,,,,4,20,Vrouw,Rechts,2,
,dotcolour,dotcolour,xotask,51,0,51,351,training,negativefb,78,average,52,0.8655923999999686,['c'],1,left,['3'],4,0.2927114999999958,,,,,,,,4,20,Vrouw,Rechts,2,
,dotcolour,dotcolour,xotask,52,0,52,352,training,negativefb,50,easy,17,0.6334916999999223,['n'],1,right,['1'],6,0.1189527999999882,,,,,,,,4,20,Vrouw,Rechts,2,
,dotcolour,dotcolour,xotask,53,0,53,353,training,negativefb,85,easy,62,0.6167061000001013,['c'],1,left,['1'],6,0.15492719999997462,,,,,,,,4,20,Vrouw,Rechts,2,
,dotcolour,dotcolour,xotask,54,0,54,354,training,negativefb,67,hard,37,1.0164769000000433,['n'],1,right,['2'],5,0.236399800000072,,,,,,,,4,20,Vrouw,Rechts,2,
,dotcolour,dotcolour,xotask,55,0,55,355,training,negativefb,60,easy,19,1.1498004999998557,['n'],1,right,['1'],6,0.07688740000003236,,,,,,,,4,20,Vrouw,Rechts,2,
,dotcolour,dotcolour,xotask,56,0,56,356,training,negativefb,39,average,29,1.0172481999998126,['n'],1,right,['1'],6,0.1532060999998066,,,,,,,,4,20,Vrouw,Rechts,2,
,dotcolour,dotcolour,xotask,57,0,57,357,training,negativefb,65,average,29,0.6490910999998505,['n'],1,right,['1'],6,0.04979649999995672,,,,,,,,4,20,Vrouw,Rechts,2,
,dotcolour,dotcolour,xotask,58,0,58,358,training,negativefb,60,hard,36,1.049051499999905,['n'],1,right,['2'],5,0.10153990000003432,,,,,,,,4,20,Vrouw,Rechts,2,
,dotcolour,dotcolour,xotask,59,0,59,359,training,negativefb,42,hard,35,0.8830548000000817,['n'],1,right,['2'],5,0.09479880000003504,,,,,,,,4,20,Vrouw,Rechts,2,
,dotcolour,dotcolour,xotask,0,1,60,360,training,negativefb,78,average,27,0.7343461000000389,['n'],1,right,['1'],6,0.16550980000010895,,,,,,,,4,20,Vrouw,Rechts,2,
,dotcolour,dotcolour,xotask,1,1,61,361,training,negativefb,67,hard,36,0.750431400000025,['n'],1,right,['1'],6,0.0974314999998569,,,,,,,,4,20,Vrouw,Rechts,2,
,dotcolour,dotcolour,xotask,2,1,62,362,training,negativefb,77,easy,19,0.5339200000000801,['n'],1,right,['1'],6,0.1127776000000722,,,,,,,,4,20,Vrouw,Rechts,2,
,dotcolour,dotcolour,xotask,3,1,63,363,training,negativefb,42,easy,61,0.7496475000000373,['c'],1,left,['1'],6,0.10203470000010384,,,,,,,,4,20,Vrouw,Rechts,2,
,dotcolour,dotcolour,xotask,4,1,64,364,training,negativefb,81,easy,65,0.6166789999999764,['c'],1,left,['1'],6,0.15466029999993225,,,,,,,,4,20,Vrouw,Rechts,2,
,dotcolour,dotcolour,xotask,5,1,65,365,training,negativefb,37,easy,62,0.48262540000018816,['c'],1,left,['1'],6,0.16839709999999286,,,,,,,,4,20,Vrouw,Rechts,2,
,dotcolour,dotcolour,xotask,6,1,66,366,training,negativefb,51,average,27,0.666533900000104,['n'],1,right,['1'],6,0.0873728999999912,,,,,,,,4,20,Vrouw,Rechts,2,
,dotcolour,dotcolour,xotask,7,1,67,367,training,negativefb,67,hard,45,1.0668000000000575,['n'],0,left,['1'],6,0.06627019999996264,,,,,,,,4,20,Vrouw,Rechts,2,
,dotcolour,dotcolour,xotask,8,1,68,368,training,negativefb,49,average,53,1.1836322999999993,['n'],0,left,['2'],5,0.33515399999987494,,,,,,,,4,20,Vrouw,Rechts,2,
,dotcolour,dotcolour,xotask,9,1,69,369,training,negativefb,37,average,55,1.183621199999834,['c'],1,left,['2'],5,0.22659539999995104,,,,,,,,4,20,Vrouw,Rechts,2,
,dotcolour,dotcolour,xotask,10,1,70,370,training,negativefb,78,average,29,1.1172045999999227,['n'],1,right,['2'],5,0.10988229999998111,,,,,,,,4,20,Vrouw,Rechts,2,
,dotcolour,dotcolour,xotask,11,1,71,371,training,negativefb,34,average,53,1.3331287999999404,['c'],1,left,['3'],4,0.34120690000008835,,,,,,,,4,20,Vrouw,Rechts,2,
,dotcolour,dotcolour,xotask,12,1,72,372,training,negativefb,43,hard,39,1.283073800000011,['c'],0,right,['3'],4,0.14809179999997468,,,,,,,,4,20,Vrouw,Rechts,2,
,dotcolour,dotcolour,xotask,13,1,73,373,training,negativefb,42,hard,36,0.8825753000000987,['c'],0,right,['2'],5,0.24310239999999794,,,,,,,,4,20,Vrouw,Rechts,2,
,dotcolour,dotcolour,xotask,14,1,74,374,training,negativefb,48,hard,41,1.7324244000001272,['c'],1,left,['2'],5,0.36437630000000354,,,,,,,,4,20,Vrouw,Rechts,2,
,dotcolour,dotcolour,xotask,15,1,75,375,training,negativefb,70,easy,63,0.7326014000000214,['c'],1,left,['1'],6,0.0889902000001257,,,,,,,,4,20,Vrouw,Rechts,2,
,dotcolour,dotcolour,xotask,16,1,76,376,training,negativefb,57,hard,44,0.9994357999999011,['n'],0,left,['2'],5,0.09383189999994102,,,,,,,,4,20,Vrouw,Rechts,2,
,dotcolour,dotcolour,xotask,17,1,77,377,training,negativefb,52,easy,61,0.7012917000001835,['c'],1,left,['1'],6,0.07139040000015484,,,,,,,,4,20,Vrouw,Rechts,2,
,dotcolour,dotcolour,xotask,18,1,78,378,training,negativefb,55,average,53,1.0666530000000876,['c'],1,left,['1'],6,0.10589150000009795,,,,,,,,4,20,Vrouw,Rechts,2,
,dotcolour,dotcolour,xotask,19,1,79,379,training,negativefb,45,hard,41,0.8336153999998714,['n'],0,left,['3'],4,0.3079432000001816,,,,,,,,4,20,Vrouw,Rechts,2,
,dotcolour,dotcolour,xotask,20,1,80,380,training,negativefb,64,hard,43,1.2006450999999743,['n'],0,left,['3'],4,0.07964640000000145,,,,,,,,4,20,Vrouw,Rechts,2,
,dotcolour,dotcolour,xotask,21,1,81,381,training,negativefb,55,easy,15,0.7340088000000833,['n'],1,right,['1'],6,0.040355300000101124,,,,,,,,4,20,Vrouw,Rechts,2,
,dotcolour,dotcolour,xotask,22,1,82,382,training,negativefb,43,hard,37,1.9998582999999144,['n'],1,right,['2'],5,0.24705629999994017,,,,,,,,4,20,Vrouw,Rechts,2,
,dotcolour,dotcolour,xotask,23,1,83,383,training,negativefb,58,hard,43,2.017907100000002,['c'],1,left,['3'],4,0.3256488000001809,,,,,,,,4,20,Vrouw,Rechts,2,
,dotcolour,dotcolour,xotask,24,1,84,384,training,negativefb,62,hard,38,1.2658473000001322,['n'],1,right,['2'],5,0.13317069999993691,,,,,,,,4,20,Vrouw,Rechts,2,
,dotcolour,dotcolour,xotask,25,1,85,385,training,negativefb,54,average,25,0.6161561999999776,['n'],1,right,['1'],6,0.29598809999993136,,,,,,,,4,20,Vrouw,Rechts,2,
,dotcolour,dotcolour,xotask,26,1,86,386,training,negativefb,72,average,54,0.6992809999999281,['c'],1,left,['8'],3,1.136912200000097,,,,,,,,4,20,Vrouw,Rechts,2,
,dotcolour,dotcolour,xotask,27,1,87,387,training,negativefb,75,average,51,1.5337311999999201,['c'],1,left,['3'],4,0.18221489999996265,,,,,,,,4,20,Vrouw,Rechts,2,
,dotcolour,dotcolour,xotask,28,1,88,388,training,negativefb,23,hard,43,3.1669374999999036,['n'],0,left,['3'],4,0.4642316000001756,,,,,,,,4,20,Vrouw,Rechts,2,
,dotcolour,dotcolour,xotask,29,1,89,389,training,negativefb,80,easy,63,1.0843512999999803,['c'],1,left,['1'],6,0.1308249999999589,,,,,,,,4,20,Vrouw,Rechts,2,
,dotcolour,dotcolour,xotask,30,1,90,390,training,negativefb,72,easy,15,0.6673697999999604,['n'],1,right,['1'],6,0.13138209999988248,,,,,,,,4,20,Vrouw,Rechts,2,
,dotcolour,dotcolour,xotask,31,1,91,391,training,negativefb,65,easy,15,0.6336074999999255,['n'],1,right,['1'],6,0.06987320000007458,,,,,,,,4,20,Vrouw,Rechts,2,
,dotcolour,dotcolour,xotask,32,1,92,392,training,negativefb,76,easy,18,0.783798399999796,['n'],1,right,['1'],6,0.1400087000001804,,,,,,,,4,20,Vrouw,Rechts,2,
,dotcolour,dotcolour,xotask,33,1,93,393,training,negativefb,62,easy,18,0.6672281999999541,['n'],1,right,['1'],6,0.1079343000001245,,,,,,,,4,20,Vrouw,Rechts,2,
,dotcolour,dotcolour,xotask,34,1,94,394,training,negativefb,71,average,55,0.9669053999996322,['c'],1,left,['1'],6,0.08925429999999324,,,,,,,,4,20,Vrouw,Rechts,2,
,dotcolour,dotcolour,xotask,35,1,95,395,training,negativefb,53,hard,36,1.1170941000000312,['n'],1,right,['1'],6,0.08100930000000517,,,,,,,,4,20,Vrouw,Rechts,2,
,dotcolour,dotcolour,xotask,36,1,96,396,training,negativefb,71,average,51,1.4344662999997126,['n'],0,left,['3'],4,0.11740050000025803,,,,,,,,4,20,Vrouw,Rechts,2,
,dotcolour,dotcolour,xotask,37,1,97,397,training,negativefb,44,easy,65,0.632920600000034,['n'],0,left,['0'],1,0.8075880999999754,,,,,,,,4,20,Vrouw,Rechts,2,
,dotcolour,dotcolour,xotask,38,1,98,398,training,negativefb,65,easy,61,0.8834812999998576,['c'],1,left,['1'],6,0.18903369999998176,,,,,,,,4,20,Vrouw,Rechts,2,
,dotcolour,dotcolour,xotask,39,1,99,399,training,negativefb,55,average,28,0.7327359999999317,['n'],1,right,['1'],6,0.14329750000024433,,,,,,,,4,20,Vrouw,Rechts,2,
,dotcolour,dotcolour,xotask,40,1,100,400,training,negativefb,62,average,54,1.3997063000001617,['c'],1,left,['1'],6,0.1304709000000912,,,,,,,,4,20,Vrouw,Rechts,2,
,dotcolour,dotcolour,xotask,41,1,101,401,training,negativefb,75,average,27,0.7004864999998972,['n'],1,right,['1'],6,0.1064224000001559,,,,,,,,4,20,Vrouw,Rechts,2,
,dotcolour,dotcolour,xotask,42,1,102,402,training,negativefb,66,hard,39,1.2665772999998808,['n'],1,right,['2'],5,0.12345530000038707,,,,,,,,4,20,Vrouw,Rechts,2,
,dotcolour,dotcolour,xotask,43,1,103,403,training,negativefb,48,average,25,0.6494719000002078,['n'],1,right,['1'],6,0.08499910000000455,,,,,,,,4,20,Vrouw,Rechts,2,
,dotcolour,dotcolour,xotask,44,1,104,404,training,negativefb,47,easy,16,0.5171926999996685,['n'],1,right,['1'],6,0.08526260000007824,,,,,,,,4,20,Vrouw,Rechts,2,
,dotcolour,dotcolour,xotask,45,1,105,405,training,negativefb,80,average,25,0.5991752999998425,['n'],1,right,['1'],6,0.11377089999996315,,,,,,,,4,20,Vrouw,Rechts,2,
,dotcolour,dotcolour,xotask,46,1,106,406,training,negativefb,76,easy,61,0.58378010000024,['c'],1,left,['1'],6,0.15002000000004045,,,,,,,,4,20,Vrouw,Rechts,2,
,dotcolour,dotcolour,xotask,47,1,107,407,training,negativefb,80,easy,65,0.9831135000003997,['c'],1,left,['2'],5,0.13768909999998868,,,,,,,,4,20,Vrouw,Rechts,2,
,dotcolour,dotcolour,xotask,48,1,108,408,training,negativefb,72,average,27,0.6335527000001093,['n'],1,right,['2'],5,0.17942189999985203,,,,,,,,4,20,Vrouw,Rechts,2,
,dotcolour,dotcolour,xotask,49,1,109,409,training,negativefb,50,hard,42,2.76633000000038,['c'],1,left,['3'],4,0.16603369999984352,,,,,,,,4,20,Vrouw,Rechts,2,
,dotcolour,dotcolour,xotask,50,1,110,410,training,negativefb,71,easy,18,0.5831923000000643,['n'],1,right,['1'],6,0.13612000000011903,,,,,,,,4,20,Vrouw,Rechts,2,
,dotcolour,dotcolour,xotask,51,1,111,411,training,negativefb,69,average,29,1.5825274999997418,['n'],1,right,['2'],5,0.15562369999997827,,,,,,,,4,20,Vrouw,Rechts,2,
,dotcolour,dotcolour,xotask,52,1,112,412,training,negativefb,59,hard,35,3.1837172000000464,['n'],1,right,['3'],4,0.3584676999998919,,,,,,,,4,20,Vrouw,Rechts,2,
,dotcolour,dotcolour,xotask,53,1,113,413,training,negativefb,88,average,53,1.049579999999878,['c'],1,left,['3'],4,0.2138755000000856,,,,,,,,4,20,Vrouw,Rechts,2,
,dotcolour,dotcolour,xotask,54,1,114,414,training,negativefb,66,hard,41,1.0829008999999132,['n'],0,left,['2'],5,0.11464429999978165,,,,,,,,4,20,Vrouw,Rechts,2,
,dotcolour,dotcolour,xotask,55,1,115,415,training,negativefb,75,hard,38,1.3827123000000938,['c'],0,right,['3'],4,0.11902190000000701,,,,,,,,4,20,Vrouw,Rechts,2,
,dotcolour,dotcolour,xotask,56,1,116,416,training,negativefb,70,easy,19,0.7149182000002838,['n'],1,right,['1'],6,0.237511700000141,,,,,,,,4,20,Vrouw,Rechts,2,
,dotcolour,dotcolour,xotask,57,1,117,417,training,negativefb,66,hard,38,1.7991408999996565,['n'],1,right,['3'],4,0.061275400000340596,,,,,,,,4,20,Vrouw,Rechts,2,
,dotcolour,dotcolour,xotask,58,1,118,418,training,negativefb,78,hard,43,1.0171485999999277,['c'],1,left,['3'],4,0.08284409999987474,,,,,,,,4,20,Vrouw,Rechts,2,
,dotcolour,dotcolour,xotask,59,1,119,419,training,negativefb,54,easy,19,0.748844900000222,['n'],1,right,['1'],6,0.09763240000029327,,,,,,,,4,20,Vrouw,Rechts,2,
,dotcolour,dotcolour,xotask,0,2,120,420,main,negativefb,-99,hard,43,0.9504246000001331,['n'],0,left,['2'],5,0.42753270000002885,,,,,,,,4,20,Vrouw,Rechts,2,
,dotcolour,dotcolour,xotask,1,2,121,421,main,negativefb,-99,hard,39,1.2011571999996704,['c'],0,right,['2'],5,0.218971700000111,,,,,,,,4,20,Vrouw,Rechts,2,
,dotcolour,dotcolour,xotask,2,2,122,422,main,negativefb,-99,easy,15,0.7181315000002542,['n'],1,right,['1'],6,0.1263570000000982,,,,,,,,4,20,Vrouw,Rechts,2,
,dotcolour,dotcolour,xotask,3,2,123,423,main,negativefb,-99,easy,63,0.6512862000004134,['c'],1,left,['1'],6,0.12848630000007688,,,,,,,,4,20,Vrouw,Rechts,2,
,dotcolour,dotcolour,xotask,4,2,124,424,main,negativefb,-99,easy,65,0.6176242999999886,['c'],1,left,['1'],6,0.12410799999997835,,,,,,,,4,20,Vrouw,Rechts,2,
,dotcolour,dotcolour,xotask,5,2,125,425,main,negativefb,-99,average,28,0.8667134000002079,['n'],1,right,['1'],6,0.05376750000004904,,,,,,,,4,20,Vrouw,Rechts,2,
,dotcolour,dotcolour,xotask,6,2,126,426,main,negativefb,-99,easy,15,0.5004245000000083,['n'],1,right,['1'],6,0.08026900000004389,,,,,,,,4,20,Vrouw,Rechts,2,
,dotcolour,dotcolour,xotask,7,2,127,427,main,negativefb,-99,average,54,0.8015884999999798,['c'],1,left,['3'],4,0.6544268000002376,,,,,,,,4,20,Vrouw,Rechts,2,
,dotcolour,dotcolour,xotask,8,2,128,428,main,negativefb,-99,easy,17,1.4503054000001612,['n'],1,right,['1'],6,0.050717399999939516,,,,,,,,4,20,Vrouw,Rechts,2,
,dotcolour,dotcolour,xotask,9,2,129,429,main,negativefb,-99,hard,35,0.7498474000003625,['n'],1,right,['1'],6,0.0349381999999423,,,,,,,,4,20,Vrouw,Rechts,2,
,dotcolour,dotcolour,xotask,10,2,130,430,main,negativefb,-99,average,26,0.9002686999997422,['n'],1,right,['1'],6,0.11103339999999662,,,,,,,,4,20,Vrouw,Rechts,2,
,dotcolour,dotcolour,xotask,11,2,131,431,main,negativefb,-99,easy,65,0.9502470000002177,['c'],1,left,['2'],5,0.1736535999998523,,,,,,,,4,20,Vrouw,Rechts,2,
,dotcolour,dotcolour,xotask,12,2,132,432,main,negativefb,-99,easy,63,0.7013225000000602,['c'],1,left,['1'],6,0.34754350000002887,,,,,,,,4,20,Vrouw,Rechts,2,
,dotcolour,dotcolour,xotask,13,2,133,433,main,negativefb,-99,easy,65,0.5839022999998633,['c'],1,left,['1'],6,0.12822670000014114,,,,,,,,4,20,Vrouw,Rechts,2,
,dotcolour,dotcolour,xotask,14,2,134,434,main,negativefb,-99,hard,45,2.5343987999999626,['c'],1,left,['3'],4,0.09442549999994299,,,,,,,,4,20,Vrouw,Rechts,2,
,dotcolour,dotcolour,xotask,15,2,135,435,main,negativefb,-99,average,29,1.8843065999999453,['n'],1,right,['1'],6,0.2566847000002781,,,,,,,,4,20,Vrouw,Rechts,2,
,dotcolour,dotcolour,xotask,16,2,136,436,main,negativefb,-99,easy,18,0.6005049999998846,['n'],1,right,['1'],6,0.07910820000006424,,,,,,,,4,20,Vrouw,Rechts,2,
,dotcolour,dotcolour,xotask,17,2,137,437,main,negativefb,-99,average,27,0.6673550999998952,['n'],1,right,['1'],6,0.03453189999981987,,,,,,,,4,20,Vrouw,Rechts,2,
,dotcolour,dotcolour,xotask,18,2,138,438,main,negativefb,-99,average,25,0.6168444999998428,['n'],1,right,['1'],6,0.06577000000015687,,,,,,,,4,20,Vrouw,Rechts,2,
,dotcolour,dotcolour,xotask,19,2,139,439,main,negativefb,-99,average,27,0.6181030000002465,['n'],1,right,['1'],6,0.05489519999991899,,,,,,,,4,20,Vrouw,Rechts,2,
,dotcolour,dotcolour,xotask,20,2,140,440,main,negativefb,-99,easy,19,0.7841938999999911,['n'],1,right,['1'],6,0.11827820000007705,,,,,,,,4,20,Vrouw,Rechts,2,
,dotcolour,dotcolour,xotask,21,2,141,441,main,negativefb,-99,average,55,2.2678093999998055,['n'],0,left,['3'],4,0.5441214000002219,,,,,,,,4,20,Vrouw,Rechts,2,
,dotcolour,dotcolour,xotask,22,2,142,442,main,negativefb,-99,hard,41,1.9171787000000222,['n'],0,left,['3'],4,0.15854140000010375,,,,,,,,4,20,Vrouw,Rechts,2,
,dotcolour,dotcolour,xotask,23,2,143,443,main,negativefb,-99,easy,63,1.2682491999999002,['c'],1,left,['1'],6,0.11876679999977569,,,,,,,,4,20,Vrouw,Rechts,2,
,dotcolour,dotcolour,xotask,24,2,144,444,main,negativefb,-99,easy,65,0.5331770000002507,['c'],1,left,['1'],6,0.2372323999998116,,,,,,,,4,20,Vrouw,Rechts,2,
,dotcolour,dotcolour,xotask,25,2,145,445,main,negativefb,-99,average,53,0.7842262000003757,['c'],1,left,['1'],6,0.36546980000002804,,,,,,,,4,20,Vrouw,Rechts,2,
,dotcolour,dotcolour,xotask,26,2,146,446,main,negativefb,-99,hard,36,1.1985521999999946,['n'],1,right,['1'],6,0.11996799999997165,,,,,,,,4,20,Vrouw,Rechts,2,
,dotcolour,dotcolour,xotask,27,2,147,447,main,negativefb,-99,easy,18,1.0673502999998163,['n'],1,right,['1'],6,0.09754469999961657,,,,,,,,4,20,Vrouw,Rechts,2,
,dotcolour,dotcolour,xotask,28,2,148,448,main,negativefb,-99,easy,15,0.5512942000000294,['n'],1,right,['1'],6,0.12864790000003268,,,,,,,,4,20,Vrouw,Rechts,2,
,dotcolour,dotcolour,xotask,29,2,149,449,main,negativefb,-99,hard,43,0.9013615999997455,['n'],0,left,['1'],6,0.08818269999983386,,,,,,,,4,20,Vrouw,Rechts,2,
,dotcolour,dotcolour,xotask,30,2,150,450,main,negativefb,-99,hard,36,0.8010985000000801,['n'],1,right,['1'],6,0.11044319999973595,,,,,,,,4,20,Vrouw,Rechts,2,
,dotcolour,dotcolour,xotask,31,2,151,451,main,negativefb,-99,average,54,1.2846379000002344,['c'],1,left,['9'],2,1.7829194000000825,,,,,,,,4,20,Vrouw,Rechts,2,
,dotcolour,dotcolour,xotask,32,2,152,452,main,negativefb,-99,easy,18,0.684421200000088,['n'],1,right,['1'],6,0.0773775000002388,,,,,,,,4,20,Vrouw,Rechts,2,
,dotcolour,dotcolour,xotask,33,2,153,453,main,negativefb,-99,hard,45,1.5514444000000367,['n'],0,left,['3'],4,0.10968210000010004,,,,,,,,4,20,Vrouw,Rechts,2,
,dotcolour,dotcolour,xotask,34,2,154,454,main,negativefb,-99,average,53,1.4010521000000153,['c'],1,left,['2'],5,0.33021000000007916,,,,,,,,4,20,Vrouw,Rechts,2,
,dotcolour,dotcolour,xotask,35,2,155,455,main,negativefb,-99,easy,64,0.5994877999996788,['c'],1,left,['1'],6,0.15021830000023328,,,,,,,,4,20,Vrouw,Rechts,2,
,dotcolour,dotcolour,xotask,36,2,156,456,main,negativefb,-99,hard,43,1.5505865000000085,['n'],0,left,['1'],6,0.13090520000014294,,,,,,,,4,20,Vrouw,Rechts,2,
,dotcolour,dotcolour,xotask,37,2,157,457,main,negativefb,-99,hard,39,0.8334531999998944,['n'],1,right,['1'],6,0.09354839999969045,,,,,,,,4,20,Vrouw,Rechts,2,
,dotcolour,dotcolour,xotask,38,2,158,458,main,negativefb,-99,easy,64,1.3172873999997137,['c'],1,left,['2'],5,0.20671080000010988,,,,,,,,4,20,Vrouw,Rechts,2,
,dotcolour,dotcolour,xotask,39,2,159,459,main,negativefb,-99,average,28,1.5012618000000657,['n'],1,right,['2'],5,0.26695569999992586,,,,,,,,4,20,Vrouw,Rechts,2,
,dotcolour,dotcolour,xotask,40,2,160,460,main,negativefb,-99,easy,18,0.6344457000000148,['n'],1,right,['1'],6,0.0960416000002624,,,,,,,,4,20,Vrouw,Rechts,2,
,dotcolour,dotcolour,xotask,41,2,161,461,main,negativefb,-99,average,27,0.5512928999996802,['n'],1,right,['1'],6,0.0473413999998229,,,,,,,,4,20,Vrouw,Rechts,2,
,dotcolour,dotcolour,xotask,42,2,162,462,main,negativefb,-99,hard,42,3.10108850000006,['c'],1,left,['3'],4,0.11499849999972866,,,,,,,,4,20,Vrouw,Rechts,2,
,dotcolour,dotcolour,xotask,43,2,163,463,main,negativefb,-99,average,52,1.733451800000239,['n'],0,left,['3'],4,0.10628679999990709,,,,,,,,4,20,Vrouw,Rechts,2,
,dotcolour,dotcolour,xotask,44,2,164,464,main,negativefb,-99,average,53,1.2158793999997215,['c'],1,left,['3'],4,0.118426499999714,,,,,,,,4,20,Vrouw,Rechts,2,
,dotcolour,dotcolour,xotask,45,2,165,465,main,negativefb,-99,hard,42,0.9344793000000209,['n'],0,left,['3'],4,0.13310679999995045,,,,,,,,4,20,Vrouw,Rechts,2,
,dotcolour,dotcolour,xotask,46,2,166,466,main,negativefb,-99,easy,64,1.1175519000003078,['c'],1,left,['2'],5,0.13166709999995874,,,,,,,,4,20,Vrouw,Rechts,2,
,dotcolour,dotcolour,xotask,47,2,167,467,main,negativefb,-99,hard,39,1.551479599999766,['n'],1,right,['2'],5,0.4728300000001582,,,,,,,,4,20,Vrouw,Rechts,2,
,dotcolour,dotcolour,xotask,48,2,168,468,main,negativefb,-99,average,51,4.517474799999945,['n'],0,left,['3'],4,1.1622284000000036,,,,,,,,4,20,Vrouw,Rechts,2,
,dotcolour,dotcolour,xotask,49,2,169,469,main,negativefb,-99,hard,39,1.4010705999999118,['n'],1,right,['2'],5,0.13299770000003264,,,,,,,,4,20,Vrouw,Rechts,2,
,dotcolour,dotcolour,xotask,50,2,170,470,main,negativefb,-99,average,55,1.233687800000098,['c'],1,left,['2'],5,0.4471445999997741,,,,,,,,4,20,Vrouw,Rechts,2,
,dotcolour,dotcolour,xotask,51,2,171,471,main,negativefb,-99,average,53,3.717637299999751,['n'],0,left,['3'],4,0.12307249999958003,,,,,,,,4,20,Vrouw,Rechts,2,
,dotcolour,dotcolour,xotask,52,2,172,472,main,negativefb,-99,average,29,0.8162068999999974,['n'],1,right,['1'],6,0.07808149999982561,,,,,,,,4,20,Vrouw,Rechts,2,
,dotcolour,dotcolour,xotask,53,2,173,473,main,negativefb,-99,average,28,0.7501729999999043,['n'],1,right,['1'],6,0.08563550000008036,,,,,,,,4,20,Vrouw,Rechts,2,
,dotcolour,dotcolour,xotask,54,2,174,474,main,negativefb,-99,hard,35,1.734050600000046,['n'],1,right,['2'],5,0.12548049999986688,,,,,,,,4,20,Vrouw,Rechts,2,
,dotcolour,dotcolour,xotask,55,2,175,475,main,negativefb,-99,hard,45,1.8676462000003085,['n'],0,left,['3'],4,0.20681199999989985,,,,,,,,4,20,Vrouw,Rechts,2,
,dotcolour,dotcolour,xotask,56,2,176,476,main,negativefb,-99,hard,37,1.2671353999999155,['n'],1,right,['3'],4,0.10886449999998149,,,,,,,,4,20,Vrouw,Rechts,2,
,dotcolour,dotcolour,xotask,57,2,177,477,main,negativefb,-99,easy,16,0.6837666999999783,['n'],1,right,['1'],6,0.08691199999975652,,,,,,,,4,20,Vrouw,Rechts,2,
,dotcolour,dotcolour,xotask,58,2,178,478,main,negativefb,-99,hard,38,1.1331946000000244,['n'],1,right,['2'],5,0.13448419999986072,,,,,,,,4,20,Vrouw,Rechts,2,
,dotcolour,dotcolour,xotask,59,2,179,479,main,negativefb,-99,hard,44,1.3504064999997354,['c'],1,left,['3'],4,1.3082678999999189,,,,,,,,4,20,Vrouw,Rechts,2,
,dotcolour,dotcolour,xotask,0,3,180,480,main,negativefb,-99,hard,39,2.200506200000291,['n'],1,right,['2'],5,0.9390159999998104,,,,,,,,4,20,Vrouw,Rechts,2,
,dotcolour,dotcolour,xotask,1,3,181,481,main,negativefb,-99,hard,43,1.0669295000002421,['n'],0,left,['2'],5,0.15646250000008877,,,,,,,,4,20,Vrouw,Rechts,2,
,dotcolour,dotcolour,xotask,2,3,182,482,main,negativefb,-99,average,28,0.45108929999969405,['n'],1,right,['1'],6,0.099827600000026,,,,,,,,4,20,Vrouw,Rechts,2,
,dotcolour,dotcolour,xotask,3,3,183,483,main,negativefb,-99,hard,36,0.7837789000000157,['n'],1,right,['1'],6,0.06559250000009342,,,,,,,,4,20,Vrouw,Rechts,2,
,dotcolour,dotcolour,xotask,4,3,184,484,main,negativefb,-99,easy,17,0.434101599999849,['n'],1,right,['1'],6,0.06273170000031314,,,,,,,,4,20,Vrouw,Rechts,2,
,dotcolour,dotcolour,xotask,5,3,185,485,main,negativefb,-99,easy,65,0.7839460000000145,['c'],1,left,['1'],6,0.6145940999999766,,,,,,,,4,20,Vrouw,Rechts,2,
,dotcolour,dotcolour,xotask,6,3,186,486,main,negativefb,-99,easy,19,0.5334296000000904,['n'],1,right,['1'],6,0.12861620000012408,,,,,,,,4,20,Vrouw,Rechts,2,
,dotcolour,dotcolour,xotask,7,3,187,487,main,negativefb,-99,hard,35,0.6509059999998499,['n'],1,right,['1'],6,0.051325700000234065,,,,,,,,4,20,Vrouw,Rechts,2,
,dotcolour,dotcolour,xotask,8,3,188,488,main,negativefb,-99,easy,18,0.48270159999992757,['n'],1,right,['1'],6,0.04619860000002518,,,,,,,,4,20,Vrouw,Rechts,2,
,dotcolour,dotcolour,xotask,9,3,189,489,main,negativefb,-99,average,54,0.9993585000001985,['c'],1,left,['2'],5,0.2853403999997681,,,,,,,,4,20,Vrouw,Rechts,2,
,dotcolour,dotcolour,xotask,10,3,190,490,main,negativefb,-99,hard,44,1.3831848999998329,['n'],0,left,['3'],4,0.2837606999996751,,,,,,,,4,20,Vrouw,Rechts,2,
,dotcolour,dotcolour,xotask,11,3,191,491,main,negativefb,-99,easy,16,0.6349684000001616,['n'],1,right,['1'],6,0.06418570000005275,,,,,,,,4,20,Vrouw,Rechts,2,
,dotcolour,dotcolour,xotask,12,3,192,492,main,negativefb,-99,average,27,0.5342732999997679,['n'],1,right,['1'],6,0.05767549999973198,,,,,,,,4,20,Vrouw,Rechts,2,
,dotcolour,dotcolour,xotask,13,3,193,493,main,negativefb,-99,average,26,0.5011908999999832,['n'],1,right,['1'],6,0.06798619999972288,,,,,,,,4,20,Vrouw,Rechts,2,
,dotcolour,dotcolour,xotask,14,3,194,494,main,negativefb,-99,easy,63,0.8846841000004133,['c'],1,left,['2'],5,0.45503119999966657,,,,,,,,4,20,Vrouw,Rechts,2,
,dotcolour,dotcolour,xotask,15,3,195,495,main,negativefb,-99,easy,19,0.6684927000001153,['n'],1,right,['1'],6,0.11521189999984927,,,,,,,,4,20,Vrouw,Rechts,2,
,dotcolour,dotcolour,xotask,16,3,196,496,main,negativefb,-99,easy,19,0.49997960000018793,['n'],1,right,['1'],6,0.10710259999996197,,,,,,,,4,20,Vrouw,Rechts,2,
,dotcolour,dotcolour,xotask,17,3,197,497,main,negativefb,-99,average,51,1.433883600000172,['n'],0,left,['3'],4,0.17478429999982836,,,,,,,,4,20,Vrouw,Rechts,2,
,dotcolour,dotcolour,xotask,18,3,198,498,main,negativefb,-99,hard,39,1.1498139000000265,['n'],1,right,['3'],4,0.1318634999997812,,,,,,,,4,20,Vrouw,Rechts,2,
,dotcolour,dotcolour,xotask,19,3,199,499,main,negativefb,-99,easy,19,1.034594300000208,['n'],1,right,['2'],5,0.11838910000005853,,,,,,,,4,20,Vrouw,Rechts,2,
,dotcolour,dotcolour,xotask,20,3,200,500,main,negativefb,-99,hard,39,1.183546799999931,['n'],1,right,['2'],5,0.35539909999988595,,,,,,,,4,20,Vrouw,Rechts,2,
,dotcolour,dotcolour,xotask,21,3,201,501,main,negativefb,-99,average,54,1.617447699999957,['n'],0,left,['3'],4,0.12544829999978901,,,,,,,,4,20,Vrouw,Rechts,2,
,dotcolour,dotcolour,xotask,22,3,202,502,main,negativefb,-99,average,29,1.5174148999999488,['n'],1,right,['2'],5,0.140492500000164,,,,,,,,4,20,Vrouw,Rechts,2,
,dotcolour,dotcolour,xotask,23,3,203,503,main,negativefb,-99,easy,63,1.200256900000113,['c'],1,left,['3'],4,1.0877784999997857,,,,,,,,4,20,Vrouw,Rechts,2,
,dotcolour,dotcolour,xotask,24,3,204,504,main,negativefb,-99,average,53,2.250274900000022,['c'],1,left,['3'],4,0.20244580000007772,,,,,,,,4,20,Vrouw,Rechts,2,
,dotcolour,dotcolour,xotask,25,3,205,505,main,negativefb,-99,easy,62,1.0503548000001501,['c'],1,left,['2'],5,0.14629939999986163,,,,,,,,4,20,Vrouw,Rechts,2,
,dotcolour,dotcolour,xotask,26,3,206,506,main,negativefb,-99,average,27,1.084425700000338,['n'],1,right,['2'],5,0.2260220999996818,,,,,,,,4,20,Vrouw,Rechts,2,
,dotcolour,dotcolour,xotask,27,3,207,507,main,negativefb,-99,hard,41,2.583646700000372,['n'],0,left,['2'],5,0.11515379999991637,,,,,,,,4,20,Vrouw,Rechts,2,
,dotcolour,dotcolour,xotask,28,3,208,508,main,negativefb,-99,average,51,1.2174806000002718,['c'],1,left,['2'],5,0.24642760000006092,,,,,,,,4,20,Vrouw,Rechts,2,
,dotcolour,dotcolour,xotask,29,3,209,509,main,negativefb,-99,average,26,1.433569400000124,['n'],1,right,['1'],6,0.08510640000031344,,,,,,,,4,20,Vrouw,Rechts,2,
,dotcolour,dotcolour,xotask,30,3,210,510,main,negativefb,-99,hard,35,1.0330893000000287,['n'],1,right,['1'],6,0.08097159999988435,,,,,,,,4,20,Vrouw,Rechts,2,
,dotcolour,dotcolour,xotask,31,3,211,511,main,negativefb,-99,easy,62,1.8497913000001063,['c'],1,left,['2'],5,0.2284905000001345,,,,,,,,4,20,Vrouw,Rechts,2,
,dotcolour,dotcolour,xotask,32,3,212,512,main,negativefb,-99,easy,15,0.6004588999999214,['n'],1,right,['1'],6,0.09285460000000967,,,,,,,,4,20,Vrouw,Rechts,2,
,dotcolour,dotcolour,xotask,33,3,213,513,main,negativefb,-99,easy,64,0.7997707999998056,['c'],1,left,['1'],6,0.1306088000001182,,,,,,,,4,20,Vrouw,Rechts,2,
,dotcolour,dotcolour,xotask,34,3,214,514,main,negativefb,-99,average,55,1.249701300000197,['c'],1,left,['2'],5,0.20439679999981308,,,,,,,,4,20,Vrouw,Rechts,2,
,dotcolour,dotcolour,xotask,35,3,215,515,main,negativefb,-99,hard,43,1.6670254999999088,['c'],1,left,['3'],4,0.8108510000001843,,,,,,,,4,20,Vrouw,Rechts,2,
,dotcolour,dotcolour,xotask,36,3,216,516,main,negativefb,-99,easy,63,0.6841893999999229,['c'],1,left,['1'],6,0.10399169999982405,,,,,,,,4,20,Vrouw,Rechts,2,
,dotcolour,dotcolour,xotask,37,3,217,517,main,negativefb,-99,average,25,1.533920500000022,['n'],1,right,['1'],6,0.16643539999995483,,,,,,,,4,20,Vrouw,Rechts,2,
,dotcolour,dotcolour,xotask,38,3,218,518,main,negativefb,-99,average,54,1.4676659000001564,['c'],1,left,['2'],5,1.6940796999997474,,,,,,,,4,20,Vrouw,Rechts,2,
,dotcolour,dotcolour,xotask,39,3,219,519,main,negativefb,-99,hard,36,3.549657500000194,['n'],1,right,['3'],4,0.1653427000001102,,,,,,,,4,20,Vrouw,Rechts,2,
,dotcolour,dotcolour,xotask,40,3,220,520,main,negativefb,-99,hard,37,1.0498864999999569,['n'],1,right,['2'],5,0.11004929999990054,,,,,,,,4,20,Vrouw,Rechts,2,
,dotcolour,dotcolour,xotask,41,3,221,521,main,negativefb,-99,average,29,0.6674747000001844,['n'],1,right,['1'],6,0.07200659999989512,,,,,,,,4,20,Vrouw,Rechts,2,
,dotcolour,dotcolour,xotask,42,3,222,522,main,negativefb,-99,easy,15,0.5164625000002161,['n'],1,right,['1'],6,0.05767500000001746,,,,,,,,4,20,Vrouw,Rechts,2,
,dotcolour,dotcolour,xotask,43,3,223,523,main,negativefb,-99,easy,61,0.6170508000000154,['c'],1,left,['1'],6,0.11924610000005487,,,,,,,,4,20,Vrouw,Rechts,2,
,dotcolour,dotcolour,xotask,44,3,224,524,main,negativefb,-99,average,52,1.3661723999998685,['c'],1,left,['3'],4,0.3575553000000582,,,,,,,,4,20,Vrouw,Rechts,2,
,dotcolour,dotcolour,xotask,45,3,225,525,main,negativefb,-99,hard,45,1.06665780000003,['n'],0,left,['3'],4,0.25300890000016807,,,,,,,,4,20,Vrouw,Rechts,2,
,dotcolour,dotcolour,xotask,46,3,226,526,main,negativefb,-99,hard,42,0.9841212999999698,['n'],0,left,['3'],4,0.1319932000001245,,,,,,,,4,20,Vrouw,Rechts,2,
,dotcolour,dotcolour,xotask,47,3,227,527,main,negativefb,-99,hard,45,2.0165807999997014,['c'],1,left,['3'],4,0.19957260000001042,,,,,,,,4,20,Vrouw,Rechts,2,
,dotcolour,dotcolour,xotask,48,3,228,528,main,negativefb,-99,easy,15,0.6507854000001316,['n'],1,right,['1'],6,0.12593150000020614,,,,,,,,4,20,Vrouw,Rechts,2,
,dotcolour,dotcolour,xotask,49,3,229,529,main,negativefb,-99,average,28,0.8178124000000935,['n'],1,right,['1'],6,0.12982890000012048,,,,,,,,4,20,Vrouw,Rechts,2,
,dotcolour,dotcolour,xotask,50,3,230,530,main,negativefb,-99,easy,63,0.6999165000001994,['c'],1,left,['1'],6,0.11356709999972736,,,,,,,,4,20,Vrouw,Rechts,2,
,dotcolour,dotcolour,xotask,51,3,231,531,main,negativefb,-99,average,29,0.9176835999996911,['n'],1,right,['1'],6,0.08169459999999162,,,,,,,,4,20,Vrouw,Rechts,2,
,dotcolour,dotcolour,xotask,52,3,232,532,main,negativefb,-99,average,55,2.29898970000022,['n'],0,left,['3'],4,0.2681342000000768,,,,,,,,4,20,Vrouw,Rechts,2,
,dotcolour,dotcolour,xotask,53,3,233,533,main,negativefb,-99,average,54,1.3833225999997012,['c'],1,left,['3'],4,0.15460600000005797,,,,,,,,4,20,Vrouw,Rechts,2,
,dotcolour,dotcolour,xotask,54,3,234,534,main,negativefb,-99,easy,61,1.1502229000002444,['c'],1,left,['2'],5,0.10332659999994576,,,,,,,,4,20,Vrouw,Rechts,2,
,dotcolour,dotcolour,xotask,55,3,235,535,main,negativefb,-99,hard,45,1.1495929999996406,['n'],0,left,['3'],4,0.1018592999998873,,,,,,,,4,20,Vrouw,Rechts,2,
,dotcolour,dotcolour,xotask,56,3,236,536,main,negativefb,-99,hard,41,1.2831360000000132,['n'],0,left,['3'],4,0.10335100000020248,,,,,,,,4,20,Vrouw,Rechts,2,
,dotcolour,dotcolour,xotask,57,3,237,537,main,negativefb,-99,hard,44,2.0171046999998907,['c'],1,left,['3'],4,0.07493530000010651,,,,,,,,4,20,Vrouw,Rechts,2,
,dotcolour,dotcolour,xotask,58,3,238,538,main,negativefb,-99,hard,37,1.100637099999858,['n'],1,right,['2'],5,0.07669040000018867,,,,,,,,4,20,Vrouw,Rechts,2,
,dotcolour,dotcolour,xotask,59,3,239,539,main,negativefb,-99,hard,39,2.6665406999995866,['c'],0,right,['3'],4,0.23325000000022555,,,,,,,,4,20,Vrouw,Rechts,2,
,dotcolour,dotcolour,xotask,0,4,240,540,main,negativefb,-99,easy,63,1.634734700000081,['c'],1,left,['1'],6,0.13535680000040884,,,,,,,,4,20,Vrouw,Rechts,2,
,dotcolour,dotcolour,xotask,1,4,241,541,main,negativefb,-99,hard,43,2.2680757999996786,['n'],0,left,['3'],4,0.22423329999992347,,,,,,,,4,20,Vrouw,Rechts,2,
,dotcolour,dotcolour,xotask,2,4,242,542,main,negativefb,-99,easy,64,1.0174101000002338,['c'],1,left,['2'],5,0.07938270000022385,,,,,,,,4,20,Vrouw,Rechts,2,
,dotcolour,dotcolour,xotask,3,4,243,543,main,negativefb,-99,average,51,1.000735099999929,['c'],1,left,['2'],5,0.14961540000012974,,,,,,,,4,20,Vrouw,Rechts,2,
,dotcolour,dotcolour,xotask,4,4,244,544,main,negativefb,-99,average,54,0.7342188000002352,['c'],1,left,['2'],5,0.123481399999946,,,,,,,,4,20,Vrouw,Rechts,2,
,dotcolour,dotcolour,xotask,5,4,245,545,main,negativefb,-99,hard,37,1.3006471999997302,['n'],1,right,['1'],6,0.09897570000021005,,,,,,,,4,20,Vrouw,Rechts,2,
,dotcolour,dotcolour,xotask,6,4,246,546,main,negativefb,-99,easy,19,0.5840994000000137,['n'],1,right,['1'],6,0.09680299999990893,,,,,,,,4,20,Vrouw,Rechts,2,
,dotcolour,dotcolour,xotask,7,4,247,547,main,negativefb,-99,average,25,0.7662694999999076,['n'],1,right,['1'],6,0.0713912999999593,,,,,,,,4,20,Vrouw,Rechts,2,
,dotcolour,dotcolour,xotask,8,4,248,548,main,negativefb,-99,average,26,0.5175418999997419,['n'],1,right,['1'],6,0.08926979999978357,,,,,,,,4,20,Vrouw,Rechts,2,
,dotcolour,dotcolour,xotask,9,4,249,549,main,negativefb,-99,easy,19,0.5339647000000696,['n'],1,right,['1'],6,0.05680260000008275,,,,,,,,4,20,Vrouw,Rechts,2,
,dotcolour,dotcolour,xotask,10,4,250,550,main,negativefb,-99,easy,61,1.2829679000001306,['c'],1,left,['1'],6,0.07630759999983638,,,,,,,,4,20,Vrouw,Rechts,2,
,dotcolour,dotcolour,xotask,11,4,251,551,main,negativefb,-99,easy,63,0.5995178999996824,['c'],1,left,['1'],6,0.1065072000001237,,,,,,,,4,20,Vrouw,Rechts,2,
,dotcolour,dotcolour,xotask,12,4,252,552,main,negativefb,-99,average,55,2.1508662999999615,['c'],1,left,['2'],5,0.12114900000005946,,,,,,,,4,20,Vrouw,Rechts,2,
,dotcolour,dotcolour,xotask,13,4,253,553,main,negativefb,-99,hard,43,1.3509945000000698,['n'],0,left,['1'],6,0.0945848000001206,,,,,,,,4,20,Vrouw,Rechts,2,
,dotcolour,dotcolour,xotask,14,4,254,554,main,negativefb,-99,hard,35,0.8831009999998969,['n'],1,right,['1'],6,0.00911359999963679,,,,,,,,4,20,Vrouw,Rechts,2,
,dotcolour,dotcolour,xotask,15,4,255,555,main,negativefb,-99,hard,43,2.116713900000377,['n'],0,left,['3'],4,0.22901479999973162,,,,,,,,4,20,Vrouw,Rechts,2,
,dotcolour,dotcolour,xotask,16,4,256,556,main,negativefb,-99,easy,63,0.7175994999997783,['c'],1,left,['1'],6,0.10483720000001995,,,,,,,,4,20,Vrouw,Rechts,2,
,dotcolour,dotcolour,xotask,17,4,257,557,main,negativefb,-99,average,29,1.900864200000342,['n'],1,right,['2'],5,0.47360539999999673,,,,,,,,4,20,Vrouw,Rechts,2,
,dotcolour,dotcolour,xotask,18,4,258,558,main,negativefb,-99,easy,16,0.7490861000001132,['n'],1,right,['1'],6,0.04904289999967659,,,,,,,,4,20,Vrouw,Rechts,2,
,dotcolour,dotcolour,xotask,19,4,259,559,main,negativefb,-99,average,26,0.6675424000000021,['n'],1,right,['1'],6,0.10951109999996333,,,,,,,,4,20,Vrouw,Rechts,2,
,dotcolour,dotcolour,xotask,20,4,260,560,main,negativefb,-99,average,53,1.48432240000011,['n'],0,left,['3'],4,0.07038399999964895,,,,,,,,4,20,Vrouw,Rechts,2,
,dotcolour,dotcolour,xotask,21,4,261,561,main,negativefb,-99,average,54,2.6824764000002688,['n'],0,left,['3'],4,0.07357550000006086,,,,,,,,4,20,Vrouw,Rechts,2,
,dotcolour,dotcolour,xotask,22,4,262,562,main,negativefb,-99,hard,41,1.8511372999996638,['n'],0,left,['2'],5,0.11764679999987493,,,,,,,,4,20,Vrouw,Rechts,2,
,dotcolour,dotcolour,xotask,23,4,263,563,main,negativefb,-99,hard,43,0.867243099999996,['n'],0,left,['1'],6,0.10325700000021243,,,,,,,,4,20,Vrouw,Rechts,2,
,dotcolour,dotcolour,xotask,24,4,264,564,main,negativefb,-99,hard,37,1.517279099999996,['c'],0,right,['3'],4,0.2953015000002779,,,,,,,,4,20,Vrouw,Rechts,2,
,dotcolour,dotcolour,xotask,25,4,265,565,main,negativefb,-99,easy,15,0.8173824999998942,['n'],1,right,['1'],6,0.363667400000395,,,,,,,,4,20,Vrouw,Rechts,2,
,dotcolour,dotcolour,xotask,26,4,266,566,main,negativefb,-99,average,26,0.8010770999999295,['n'],1,right,['1'],6,0.094240500000069,,,,,,,,4,20,Vrouw,Rechts,2,
,dotcolour,dotcolour,xotask,27,4,267,567,main,negativefb,-99,easy,64,1.3502039999998487,['c'],1,left,['2'],5,0.6778292999997575,,,,,,,,4,20,Vrouw,Rechts,2,
,dotcolour,dotcolour,xotask,28,4,268,568,main,negativefb,-99,hard,39,2.73568669999986,['n'],1,right,['3'],4,0.14293039999984103,,,,,,,,4,20,Vrouw,Rechts,2,
,dotcolour,dotcolour,xotask,29,4,269,569,main,negativefb,-99,average,28,1.0504511999997703,['n'],1,right,['2'],5,0.08800909999990836,,,,,,,,4,20,Vrouw,Rechts,2,
,dotcolour,dotcolour,xotask,30,4,270,570,main,negativefb,-99,average,52,1.4329473000002508,['c'],1,left,['2'],5,0.14057249999996202,,,,,,,,4,20,Vrouw,Rechts,2,
,dotcolour,dotcolour,xotask,31,4,271,571,main,negativefb,-99,easy,63,0.6500851000000694,['c'],1,left,['1'],6,0.1259552999999869,,,,,,,,4,20,Vrouw,Rechts,2,
,dotcolour,dotcolour,xotask,32,4,272,572,main,negativefb,-99,hard,37,0.8339444999996886,['n'],1,right,['2'],5,0.11139689999981783,,,,,,,,4,20,Vrouw,Rechts,2,
,dotcolour,dotcolour,xotask,33,4,273,573,main,negativefb,-99,average,54,1.8833912000000055,['c'],1,left,['3'],4,0.29826569999977437,,,,,,,,4,20,Vrouw,Rechts,2,
,dotcolour,dotcolour,xotask,34,4,274,574,main,negativefb,-99,easy,17,0.5492139999996652,['n'],1,right,['1'],6,0.048384400000031746,,,,,,,,4,20,Vrouw,Rechts,2,
,dotcolour,dotcolour,xotask,35,4,275,575,main,negativefb,-99,hard,38,0.9168735999996898,['n'],1,right,['1'],6,0.050033499999699416,,,,,,,,4,20,Vrouw,Rechts,2,
,dotcolour,dotcolour,xotask,36,4,276,576,main,negativefb,-99,hard,39,0.7998430999996344,['n'],1,right,['1'],6,0.09850360000018554,,,,,,,,4,20,Vrouw,Rechts,2,
,dotcolour,dotcolour,xotask,37,4,277,577,main,negativefb,-99,average,29,0.599897399999918,['n'],1,right,['1'],6,0.11942779999981212,,,,,,,,4,20,Vrouw,Rechts,2,
,dotcolour,dotcolour,xotask,38,4,278,578,main,negativefb,-99,hard,45,1.8508921000002374,['n'],0,left,['2'],5,0.3844347999997808,,,,,,,,4,20,Vrouw,Rechts,2,
,dotcolour,dotcolour,xotask,39,4,279,579,main,negativefb,-99,hard,45,1.6343148000000838,['n'],0,left,['2'],5,0.14570129999992787,,,,,,,,4,20,Vrouw,Rechts,2,
,dotcolour,dotcolour,xotask,40,4,280,580,main,negativefb,-99,average,25,0.7836581000001388,['n'],1,right,['1'],6,0.0852417000000969,,,,,,,,4,20,Vrouw,Rechts,2,
,dotcolour,dotcolour,xotask,41,4,281,581,main,negativefb,-99,easy,19,0.5495765999999094,['n'],1,right,['1'],6,0.09264210000037565,,,,,,,,4,20,Vrouw,Rechts,2,
,dotcolour,dotcolour,xotask,42,4,282,582,main,negativefb,-99,hard,36,1.3836685999999645,['n'],1,right,['2'],5,0.28273510000008173,,,,,,,,4,20,Vrouw,Rechts,2,
,dotcolour,dotcolour,xotask,43,4,283,583,main,negativefb,-99,easy,16,0.5667430999997123,['n'],1,right,['1'],6,0.05750390000002881,,,,,,,,4,20,Vrouw,Rechts,2,
,dotcolour,dotcolour,xotask,44,4,284,584,main,negativefb,-99,hard,36,0.8675161999999546,['n'],1,right,['2'],5,0.4617293999999674,,,,,,,,4,20,Vrouw,Rechts,2,
,dotcolour,dotcolour,xotask,45,4,285,585,main,negativefb,-99,easy,18,0.6173927999998341,['n'],1,right,['1'],6,0.11534649999975954,,,,,,,,4,20,Vrouw,Rechts,2,
,dotcolour,dotcolour,xotask,46,4,286,586,main,negativefb,-99,average,55,4.650912499999777,['c'],1,left,['8'],3,1.574229800000012,,,,,,,,4,20,Vrouw,Rechts,2,
,dotcolour,dotcolour,xotask,47,4,287,587,main,negativefb,-99,average,26,1.3515803000000233,['n'],1,right,['2'],5,0.09793850000005477,,,,,,,,4,20,Vrouw,Rechts,2,
,dotcolour,dotcolour,xotask,48,4,288,588,main,negativefb,-99,hard,44,1.85092080000004,['n'],0,left,['3'],4,0.15695400000004156,,,,,,,,4,20,Vrouw,Rechts,2,
,dotcolour,dotcolour,xotask,49,4,289,589,main,negativefb,-99,easy,62,0.8675622000000658,['c'],1,left,['2'],5,0.7415722999999161,,,,,,,,4,20,Vrouw,Rechts,2,
,dotcolour,dotcolour,xotask,50,4,290,590,main,negativefb,-99,easy,19,0.8334153000000697,['n'],1,right,['2'],5,0.09516040000016801,,,,,,,,4,20,Vrouw,Rechts,2,
,dotcolour,dotcolour,xotask,51,4,291,591,main,negativefb,-99,average,52,1.6339903000002778,['n'],0,left,['3'],4,0.40329350000001796,,,,,,,,4,20,Vrouw,Rechts,2,
,dotcolour,dotcolour,xotask,52,4,292,592,main,negativefb,-99,hard,39,1.8850506999997378,['n'],1,right,['2'],5,0.09661849999974947,,,,,,,,4,20,Vrouw,Rechts,2,
,dotcolour,dotcolour,xotask,53,4,293,593,main,negativefb,-99,hard,41,1.0504738000004181,['n'],0,left,['3'],4,0.508671399999912,,,,,,,,4,20,Vrouw,Rechts,2,
,dotcolour,dotcolour,xotask,54,4,294,594,main,negativefb,-99,easy,61,0.8667569000003823,['c'],1,left,['2'],5,0.15833950000023833,,,,,,,,4,20,Vrouw,Rechts,2,
,dotcolour,dotcolour,xotask,55,4,295,595,main,negativefb,-99,hard,45,2.9669306999999208,['c'],1,left,['3'],4,0.2911178999997901,,,,,,,,4,20,Vrouw,Rechts,2,
,dotcolour,dotcolour,xotask,56,4,296,596,main,negativefb,-99,easy,62,0.6497631000002002,['c'],1,left,['2'],5,0.14221889999998893,,,,,,,,4,20,Vrouw,Rechts,2,
,dotcolour,dotcolour,xotask,57,4,297,597,main,negativefb,-99,average,29,1.0841694999999163,['n'],1,right,['1'],6,0.4305416000001969,,,,,,,,4,20,Vrouw,Rechts,2,
,dotcolour,dotcolour,xotask,58,4,298,598,main,negativefb,-99,average,51,1.5176241999997728,['c'],1,left,['2'],5,0.09654319999981453,,,,,,,,4,20,Vrouw,Rechts,2,
,dotcolour,dotcolour,xotask,59,4,299,599,main,negativefb,-99,easy,19,1.0509169000001748,['n'],1,right,['1'],6,0.12438800000018091,,,,,,,,4,20,Vrouw,Rechts,2,
,dotcolour,dotcolour,xotask,0,0,0,600,training,negativefb,46,hard,35,2.2161206999999195,['c'],0,right,['3'],4,0.7070960999999443,,,,,,,,4,20,Vrouw,Rechts,2,
,dotcolour,dotcolour,xotask,1,0,1,601,training,negativefb,71,easy,64,0.8325994000001629,['c'],1,left,['2'],5,0.15777590000016062,,,,,,,,4,20,Vrouw,Rechts,2,
,dotcolour,dotcolour,xotask,2,0,2,602,training,negativefb,57,average,28,0.8340260999998463,['n'],1,right,['2'],5,0.17455149999977948,,,,,,,,4,20,Vrouw,Rechts,2,
,dotcolour,dotcolour,xotask,3,0,3,603,training,negativefb,56,easy,18,0.8492469000002529,['n'],1,right,['1'],6,0.06231190000016795,,,,,,,,4,20,Vrouw,Rechts,2,
,dotcolour,dotcolour,xotask,4,0,4,604,training,negativefb,71,easy,64,0.6672286999996686,['c'],1,left,['1'],6,0.08081840000022567,,,,,,,,4,20,Vrouw,Rechts,2,
,dotcolour,dotcolour,xotask,5,0,5,605,training,negativefb,47,hard,36,1.6663508999999976,['n'],1,right,['3'],4,0.09255199999961405,,,,,,,,4,20,Vrouw,Rechts,2,
,dotcolour,dotcolour,xotask,6,0,6,606,training,negativefb,61,average,51,1.6676598999997623,['c'],1,left,['3'],4,0.13499140000021725,,,,,,,,4,20,Vrouw,Rechts,2,
,dotcolour,dotcolour,xotask,7,0,7,607,training,negativefb,66,easy,18,0.7163415999998506,['n'],1,right,['1'],6,0.12418600000000879,,,,,,,,4,20,Vrouw,Rechts,2,
,dotcolour,dotcolour,xotask,8,0,8,608,training,negativefb,57,easy,16,0.6839224000000286,['n'],1,right,['1'],6,0.044268600000123115,,,,,,,,4,20,Vrouw,Rechts,2,
,dotcolour,dotcolour,xotask,9,0,9,609,training,negativefb,64,hard,43,1.6671774000001278,['c'],1,left,['3'],4,0.04912140000033105,,,,,,,,4,20,Vrouw,Rechts,2,
,dotcolour,dotcolour,xotask,10,0,10,610,training,negativefb,81,easy,65,0.9995037999997294,['c'],1,left,['1'],6,0.07913119999966511,,,,,,,,4,20,Vrouw,Rechts,2,
,dotcolour,dotcolour,xotask,11,0,11,611,training,negativefb,87,average,51,1.8493208999998387,['c'],1,left,['2'],5,1.090231700000004,,,,,,,,4,20,Vrouw,Rechts,2,
,dotcolour,dotcolour,xotask,12,0,12,612,training,negativefb,55,hard,43,1.0160761000001912,['n'],0,left,['3'],4,0.06252580000000307,,,,,,,,4,20,Vrouw,Rechts,2,
,dotcolour,dotcolour,xotask,13,0,13,613,training,negativefb,80,average,25,0.7832244000001083,['n'],1,right,['2'],5,0.09297669999978098,,,,,,,,4,20,Vrouw,Rechts,2,
,dotcolour,dotcolour,xotask,14,0,14,614,training,negativefb,75,easy,64,0.6173945999998978,['c'],1,left,['1'],6,0.08189959999981511,,,,,,,,4,20,Vrouw,Rechts,2,
,dotcolour,dotcolour,xotask,15,0,15,615,training,negativefb,35,hard,39,1.3002104000001964,['n'],1,right,['3'],4,0.17918980000013107,,,,,,,,4,20,Vrouw,Rechts,2,
,dotcolour,dotcolour,xotask,16,0,16,616,training,negativefb,61,easy,61,1.1010401999997157,['c'],1,left,['3'],4,0.08029929999975138,,,,,,,,4,20,Vrouw,Rechts,2,
,dotcolour,dotcolour,xotask,17,0,17,617,training,negativefb,76,easy,63,0.783707399999912,['c'],1,left,['1'],6,0.12606270000014774,,,,,,,,4,20,Vrouw,Rechts,2,
,dotcolour,dotcolour,xotask,18,0,18,618,training,negativefb,70,hard,37,2.299935099999857,['n'],1,right,['3'],4,0.11781609999979992,,,,,,,,4,20,Vrouw,Rechts,2,
,dotcolour,dotcolour,xotask,19,0,19,619,training,negativefb,62,easy,19,0.7012037999998029,['n'],1,right,['1'],6,0.03724079999983587,,,,,,,,4,20,Vrouw,Rechts,2,
,dotcolour,dotcolour,xotask,20,0,20,620,training,negativefb,73,easy,63,0.6669007999998939,['c'],1,left,['1'],6,0.12120669999967504,,,,,,,,4,20,Vrouw,Rechts,2,
,dotcolour,dotcolour,xotask,21,0,21,621,training,negativefb,59,average,53,1.134088900000279,['c'],1,left,['1'],6,0.11837980000018433,,,,,,,,4,20,Vrouw,Rechts,2,
,dotcolour,dotcolour,xotask,22,0,22,622,training,negativefb,53,hard,45,1.9668391999998676,['c'],1,left,['3'],4,0.12451430000010077,,,,,,,,4,20,Vrouw,Rechts,2,
,dotcolour,dotcolour,xotask,23,0,23,623,training,negativefb,54,hard,39,2.6175866999997197,['c'],0,right,['3'],4,0.07057620000023235,,,,,,,,4,20,Vrouw,Rechts,2,
,dotcolour,dotcolour,xotask,24,0,24,624,training,negativefb,35,easy,16,0.6665662999998858,['n'],1,right,['1'],6,0.08953909999991083,,,,,,,,4,20,Vrouw,Rechts,2,
,dotcolour,dotcolour,xotask,25,0,25,625,training,negativefb,62,average,29,0.6999514000003728,['n'],1,right,['1'],6,0.09031740000000354,,,,,,,,4,20,Vrouw,Rechts,2,
,dotcolour,dotcolour,xotask,26,0,26,626,training,negativefb,63,easy,62,1.5004241000001457,['c'],1,left,['3'],4,0.16288859999986016,,,,,,,,4,20,Vrouw,Rechts,2,
,dotcolour,dotcolour,xotask,27,0,27,627,training,negativefb,44,hard,41,1.2342322999998032,['n'],0,left,['3'],4,0.06727950000004057,,,,,,,,4,20,Vrouw,Rechts,2,
,dotcolour,dotcolour,xotask,28,0,28,628,training,negativefb,51,average,52,1.2160930999998527,['c'],1,left,['3'],4,0.08899019999989832,,,,,,,,4,20,Vrouw,Rechts,2,
,dotcolour,dotcolour,xotask,29,0,29,629,training,negativefb,82,average,28,1.0154420000003483,['n'],1,right,['2'],5,0.08498409999992873,,,,,,,,4,20,Vrouw,Rechts,2,
,dotcolour,dotcolour,xotask,30,0,30,630,training,negativefb,44,average,53,1.2510545999998612,['n'],0,left,['2'],5,0.07074660000034783,,,,,,,,4,20,Vrouw,Rechts,2,
,dotcolour,dotcolour,xotask,31,0,31,631,training,negativefb,70,average,54,1.8337588999997934,['c'],1,left,['3'],4,0.5792644000002838,,,,,,,,4,20,Vrouw,Rechts,2,
,dotcolour,dotcolour,xotask,32,0,32,632,training,negativefb,56,hard,38,1.148390500000005,['n'],1,right,['2'],5,0.1186243000001923,,,,,,,,4,20,Vrouw,Rechts,2,
