starttime,task,fbtask,firsttask,withinblocktrial,block,withintasktrial,trial,running,feedback,fbscore,difflevel,n_xes,rt,resp,cor,cresp,conf_press,cj,RTconf,reddots,stoptime,sub,age,gender,handedness,session,
1715167952,xotask,xotask,dotcolour,0,0,0,0,training,negativefb,78,hard,29,1.4335673000000497,['n'],1,right,['8'],3,9.890804000000003,,,35,18,Man,Rechts,1,
,xotask,xotask,dotcolour,1,0,1,1,training,negativefb,99,easy,6,3.8001616999999897,['n'],1,right,['2'],5,3.9179037000000108,,,35,18,Man,Rechts,1,
,xotask,xotask,dotcolour,2,0,2,2,training,negativefb,87,easy,70,2.9658021999999846,['c'],1,left,['1'],6,1.8336560999999847,,,35,18,Man,Rechts,1,
,xotask,xotask,dotcolour,3,0,3,3,training,negativefb,81,easy,72,2.4658878999999843,['c'],1,left,['2'],5,1.7823126999999204,,,35,18,Man,Rechts,1,
,xotask,xotask,dotcolour,4,0,4,4,training,negativefb,21,hard,51,3.9168743000000177,['n'],0,left,['3'],4,7.555052299999943,,,35,18,Man,Rechts,1,
,xotask,xotask,dotcolour,5,0,5,5,training,negativefb,92,average,16,1.9676534000000174,['n'],1,right,['2'],5,7.637099399999897,,,35,18,Man,Rechts,1,
,xotask,xotask,dotcolour,6,0,6,6,training,negativefb,72,hard,52,1.8336765000001378,['c'],1,left,['2'],5,2.7614538000000266,,,35,18,Man,Rechts,1,
,xotask,xotask,dotcolour,7,0,7,7,training,negativefb,98,easy,71,1.5664616999999907,['c'],1,left,['2'],5,2.3250889999999345,,,35,18,Man,Rechts,1,
,xotask,xotask,dotcolour,8,0,8,8,training,negativefb,65,hard,54,1.7157932000000073,['c'],1,left,['2'],5,1.0186372999999094,,,35,18,Man,Rechts,1,
,xotask,xotask,dotcolour,9,0,9,9,training,negativefb,73,hard,53,2.934096899999986,['n'],0,left,['3'],4,2.5643890999999712,,,35,18,Man,Rechts,1,
,xotask,xotask,dotcolour,10,0,10,10,training,negativefb,76,average,63,1.5839763999999832,['c'],1,left,['2'],5,1.0303398000000925,,,35,18,Man,Rechts,1,
,xotask,xotask,dotcolour,11,0,11,11,training,negativefb,50,hard,28,1.7829229000001305,['n'],1,right,['3'],4,2.470754600000191,,,35,18,Man,Rechts,1,
,xotask,xotask,dotcolour,12,0,12,12,training,negativefb,55,easy,73,1.7998559000000114,['c'],1,left,['2'],5,0.8271856999999727,,,35,18,Man,Rechts,1,
,xotask,xotask,dotcolour,13,0,13,13,training,negativefb,85,average,19,3.417743499999915,['n'],1,right,['3'],4,1.122030999999879,,,35,18,Man,Rechts,1,
,xotask,xotask,dotcolour,14,0,14,14,training,negativefb,72,average,60,2.43362500000012,['c'],1,left,['3'],4,0.5726371000000654,,,35,18,Man,Rechts,1,
,xotask,xotask,dotcolour,15,0,15,15,training,negativefb,47,easy,8,1.7498034000000189,['n'],1,right,['3'],4,0.5843599999998332,,,35,18,Man,Rechts,1,
,xotask,xotask,dotcolour,16,0,16,16,training,negativefb,89,easy,6,2.1829402999999274,['n'],1,right,['2'],5,0.9693340999999691,,,35,18,Man,Rechts,1,
,xotask,xotask,dotcolour,17,0,17,17,training,negativefb,95,easy,9,1.1162234999999328,['n'],1,right,['2'],5,0.4302979999999934,,,35,18,Man,Rechts,1,
,xotask,xotask,dotcolour,18,0,18,18,training,negativefb,52,average,19,3.133338500000036,['n'],1,right,['3'],4,0.8484273999999914,,,35,18,Man,Rechts,1,
,xotask,xotask,dotcolour,19,0,19,19,training,negativefb,93,average,63,2.182418299999881,['c'],1,left,['3'],4,1.6328833000000031,,,35,18,Man,Rechts,1,
,xotask,xotask,dotcolour,20,0,20,20,training,negativefb,78,easy,9,2.2993108000000575,['n'],1,right,['2'],5,1.2513739999999416,,,35,18,Man,Rechts,1,
,xotask,xotask,dotcolour,21,0,21,21,training,negativefb,94,easy,5,1.0330235999999786,['n'],1,right,['1'],6,0.8317825000001449,,,35,18,Man,Rechts,1,
,xotask,xotask,dotcolour,22,0,22,22,training,negativefb,83,easy,70,2.067660200000091,['c'],1,left,['3'],4,0.46685820000016065,,,35,18,Man,Rechts,1,
,xotask,xotask,dotcolour,23,0,23,23,training,negativefb,85,hard,54,1.8003657000001567,['c'],1,left,['3'],4,0.17674979999992502,,,35,18,Man,Rechts,1,
,xotask,xotask,dotcolour,24,0,24,24,training,negativefb,96,easy,72,1.0834813999999824,['c'],1,left,['2'],5,0.4395574000000124,,,35,18,Man,Rechts,1,
,xotask,xotask,dotcolour,25,0,25,25,training,negativefb,58,average,15,1.6153810999999223,['n'],1,right,['2'],5,0.773463799999945,,,35,18,Man,Rechts,1,
,xotask,xotask,dotcolour,26,0,26,26,training,negativefb,22,hard,27,2.1673214999998436,['c'],0,right,['3'],4,0.504210300000068,,,35,18,Man,Rechts,1,
,xotask,xotask,dotcolour,27,0,27,27,training,negativefb,51,average,61,3.899588499999936,['c'],1,left,['2'],5,0.679706799999849,,,35,18,Man,Rechts,1,
,xotask,xotask,dotcolour,28,0,28,28,training,negativefb,75,easy,74,1.3183650999999372,['c'],1,left,['1'],6,0.2725695000001451,,,35,18,Man,Rechts,1,
,xotask,xotask,dotcolour,29,0,29,29,training,negativefb,66,average,63,1.9672187000001031,['n'],0,left,['3'],4,1.031745600000022,,,35,18,Man,Rechts,1,
,xotask,xotask,dotcolour,30,0,30,30,training,negativefb,47,average,18,3.217069899999842,['c'],0,right,['3'],4,1.006386200000179,,,35,18,Man,Rechts,1,
,xotask,xotask,dotcolour,31,0,31,31,training,negativefb,10,average,61,1.799276799999916,['n'],0,left,['3'],4,1.253972400000066,,,35,18,Man,Rechts,1,
,xotask,xotask,dotcolour,32,0,32,32,training,negativefb,41,hard,53,3.7502392000001237,['c'],1,left,['2'],5,2.0387920000000577,,,35,18,Man,Rechts,1,
,xotask,xotask,dotcolour,33,0,33,33,training,negativefb,57,easy,72,1.2176690000001145,['c'],1,left,['2'],5,0.6048772999999983,,,35,18,Man,Rechts,1,
,xotask,xotask,dotcolour,34,0,34,34,training,negativefb,87,hard,50,1.549828800000114,['c'],1,left,['1'],6,1.2949003000001085,,,35,18,Man,Rechts,1,
,xotask,xotask,dotcolour,35,0,35,35,training,negativefb,84,average,18,1.0159602999999606,['n'],1,right,['1'],6,0.346362900000031,,,35,18,Man,Rechts,1,
,xotask,xotask,dotcolour,36,0,36,36,training,negativefb,53,average,15,1.9502951000001758,['n'],1,right,['2'],5,0.3835136000000148,,,35,18,Man,Rechts,1,
,xotask,xotask,dotcolour,37,0,37,37,training,negativefb,22,easy,70,1.716640200000029,['n'],0,left,['2'],5,0.5797772999999324,,,35,18,Man,Rechts,1,
,xotask,xotask,dotcolour,38,0,38,38,training,negativefb,24,average,60,3.7506462000001193,['n'],0,left,['3'],4,0.7677679000000808,,,35,18,Man,Rechts,1,
,xotask,xotask,dotcolour,39,0,39,39,training,negativefb,66,average,15,5.833510800000113,['c'],0,right,['2'],5,0.8949600999999348,,,35,18,Man,Rechts,1,
,xotask,xotask,dotcolour,40,0,40,40,training,negativefb,87,hard,28,2.7324595000000045,['n'],1,right,['3'],4,2.647527500000024,,,35,18,Man,Rechts,1,
,xotask,xotask,dotcolour,41,0,41,41,training,negativefb,51,average,63,2.6668311000000813,['c'],1,left,['3'],4,0.5537756000001082,,,35,18,Man,Rechts,1,
,xotask,xotask,dotcolour,42,0,42,42,training,negativefb,59,easy,9,1.4332741999999143,['n'],1,right,['2'],5,0.7233687999998892,,,35,18,Man,Rechts,1,
,xotask,xotask,dotcolour,43,0,43,43,training,negativefb,57,easy,5,1.2156459999998788,['n'],1,right,['2'],5,0.31900709999990795,,,35,18,Man,Rechts,1,
,xotask,xotask,dotcolour,44,0,44,44,training,negativefb,99,hard,51,3.016802000000098,['c'],1,left,['8'],3,25.882396999999855,,,35,18,Man,Rechts,1,
,xotask,xotask,dotcolour,45,0,45,45,training,negativefb,94,hard,51,4.233985900000107,['c'],1,left,['8'],3,1.2887342999999873,,,35,18,Man,Rechts,1,
,xotask,xotask,dotcolour,46,0,46,46,training,negativefb,16,average,17,4.000090199999931,['c'],0,right,['3'],4,1.5098213000001124,,,35,18,Man,Rechts,1,
,xotask,xotask,dotcolour,47,0,47,47,training,negativefb,99,average,19,1.3996891000001597,['n'],1,right,['2'],5,1.9858692000000246,,,35,18,Man,Rechts,1,
,xotask,xotask,dotcolour,48,0,48,48,training,negativefb,23,hard,27,3.9989822000000004,['n'],1,right,['8'],3,2.1711700999999266,,,35,18,Man,Rechts,1,
,xotask,xotask,dotcolour,49,0,49,49,training,negativefb,16,easy,9,3.699278900000081,['c'],0,right,['3'],4,1.4957353999998304,,,35,18,Man,Rechts,1,
,xotask,xotask,dotcolour,50,0,50,50,training,negativefb,47,average,61,1.4993203000001358,['n'],0,left,['3'],4,1.296166600000106,,,35,18,Man,Rechts,1,
,xotask,xotask,dotcolour,51,0,51,51,training,negativefb,59,hard,27,1.4669693999999254,['n'],1,right,['2'],5,0.5455755000000408,,,35,18,Man,Rechts,1,
,xotask,xotask,dotcolour,52,0,52,52,training,negativefb,12,hard,25,1.0325385999999526,['n'],1,right,['2'],5,0.668274300000121,,,35,18,Man,Rechts,1,
,xotask,xotask,dotcolour,53,0,53,53,training,negativefb,99,hard,29,1.2003320000001168,['n'],1,right,['9'],2,4.648672099999885,,,35,18,Man,Rechts,1,
,xotask,xotask,dotcolour,54,0,54,54,training,negativefb,62,hard,26,1.2844748000002255,['n'],1,right,['3'],4,1.6599028999999064,,,35,18,Man,Rechts,1,
,xotask,xotask,dotcolour,55,0,55,55,training,negativefb,34,average,60,4.466167900000073,['c'],1,left,['2'],5,0.7112618000001021,,,35,18,Man,Rechts,1,
,xotask,xotask,dotcolour,56,0,56,56,training,negativefb,96,easy,9,1.7174254999999903,['n'],1,right,['1'],6,0.6544730999999047,,,35,18,Man,Rechts,1,
,xotask,xotask,dotcolour,57,0,57,57,training,negativefb,26,hard,27,3.3674473999999464,['c'],0,right,['8'],3,0.8615560999999161,,,35,18,Man,Rechts,1,
,xotask,xotask,dotcolour,58,0,58,58,training,negativefb,68,easy,74,1.4169010000000526,['c'],1,left,['1'],6,0.29942319999986466,,,35,18,Man,Rechts,1,
,xotask,xotask,dotcolour,59,0,59,59,training,negativefb,67,hard,53,6.000037399999883,['c'],1,left,['8'],3,4.880009100000052,,,35,18,Man,Rechts,1,
,xotask,xotask,dotcolour,0,1,60,60,training,negativefb,65,hard,25,1.4344117000000551,['n'],1,right,['3'],4,1.0703267999999753,,,35,18,Man,Rechts,1,
,xotask,xotask,dotcolour,1,1,61,61,training,negativefb,49,hard,50,1.4507367000001068,['c'],1,left,['2'],5,1.57888939999998,,,35,18,Man,Rechts,1,
,xotask,xotask,dotcolour,2,1,62,62,training,negativefb,25,hard,50,2.901200900000049,['n'],0,left,['8'],3,1.5277370999999675,,,35,18,Man,Rechts,1,
,xotask,xotask,dotcolour,3,1,63,63,training,negativefb,83,average,17,1.2999260999999933,['n'],1,right,['1'],6,0.25463280000008126,,,35,18,Man,Rechts,1,
,xotask,xotask,dotcolour,4,1,64,64,training,negativefb,79,average,61,1.2178252999999586,['n'],0,left,['1'],6,0.11588849999998274,,,35,18,Man,Rechts,1,
,xotask,xotask,dotcolour,5,1,65,65,training,negativefb,43,hard,25,1.283773500000052,['n'],1,right,['2'],5,0.3322821000001568,,,35,18,Man,Rechts,1,
,xotask,xotask,dotcolour,6,1,66,66,training,negativefb,64,hard,54,1.3834761000000526,['n'],0,left,['1'],6,0.16784980000011274,,,35,18,Man,Rechts,1,
,xotask,xotask,dotcolour,7,1,67,67,training,negativefb,89,easy,6,1.0164336999998795,['n'],1,right,['2'],5,1.1048981999999796,,,35,18,Man,Rechts,1,
,xotask,xotask,dotcolour,8,1,68,68,training,negativefb,81,average,61,1.7830807000000277,['c'],1,left,['3'],4,0.7012789000000339,,,35,18,Man,Rechts,1,
,xotask,xotask,dotcolour,9,1,69,69,training,negativefb,80,easy,9,0.8486972000000605,['n'],1,right,['2'],5,0.2551495000000159,,,35,18,Man,Rechts,1,
,xotask,xotask,dotcolour,10,1,70,70,training,negativefb,47,hard,27,0.9157733999998072,['n'],1,right,['2'],5,0.08809010000004491,,,35,18,Man,Rechts,1,
,xotask,xotask,dotcolour,11,1,71,71,training,negativefb,73,hard,54,1.0338932000001932,['n'],0,left,['2'],5,0.22897899999998117,,,35,18,Man,Rechts,1,
,xotask,xotask,dotcolour,12,1,72,72,training,negativefb,47,hard,50,3.7182920000000195,['c'],1,left,['3'],4,1.3190841000000546,,,35,18,Man,Rechts,1,
,xotask,xotask,dotcolour,13,1,73,73,training,negativefb,44,average,62,1.5833239999999478,['c'],1,left,['3'],4,0.738799699999845,,,35,18,Man,Rechts,1,
,xotask,xotask,dotcolour,14,1,74,74,training,negativefb,43,hard,25,1.1832079999999223,['n'],1,right,['1'],6,0.16736420000006547,,,35,18,Man,Rechts,1,
,xotask,xotask,dotcolour,15,1,75,75,training,negativefb,52,average,17,1.1660463999999138,['n'],1,right,['2'],5,0.47313819999999396,,,35,18,Man,Rechts,1,
,xotask,xotask,dotcolour,16,1,76,76,training,negativefb,68,hard,52,1.6327989999999772,['n'],0,left,['8'],3,0.7811449000000721,,,35,18,Man,Rechts,1,
,xotask,xotask,dotcolour,17,1,77,77,training,negativefb,82,easy,7,1.333813599999985,['n'],1,right,['1'],6,2.0497639000000163,,,35,18,Man,Rechts,1,
,xotask,xotask,dotcolour,18,1,78,78,training,negativefb,64,easy,73,1.9339016999999785,['c'],1,left,['1'],6,0.3377602000000479,,,35,18,Man,Rechts,1,
,xotask,xotask,dotcolour,19,1,79,79,training,negativefb,91,easy,7,1.6501228999998148,['n'],1,right,['2'],5,0.6030597999999827,,,35,18,Man,Rechts,1,
,xotask,xotask,dotcolour,20,1,80,80,training,negativefb,53,average,19,1.8326609999999164,['n'],1,right,['2'],5,0.290200299999924,,,35,18,Man,Rechts,1,
,xotask,xotask,dotcolour,21,1,81,81,training,negativefb,86,easy,72,1.2655491999998958,['c'],1,left,['1'],6,0.25935630000003584,,,35,18,Man,Rechts,1,
,xotask,xotask,dotcolour,22,1,82,82,training,negativefb,76,average,63,1.0342407000000549,['c'],1,left,['1'],6,0.336716000000024,,,35,18,Man,Rechts,1,
,xotask,xotask,dotcolour,23,1,83,83,training,negativefb,65,easy,72,0.799461699999938,['c'],1,left,['1'],6,0.2835741000001235,,,35,18,Man,Rechts,1,
,xotask,xotask,dotcolour,24,1,84,84,training,negativefb,61,average,62,0.6342075000000023,['c'],1,left,['2'],5,0.20673899999997047,,,35,18,Man,Rechts,1,
,xotask,xotask,dotcolour,25,1,85,85,training,negativefb,85,hard,27,1.2664758000000802,['n'],1,right,['9'],2,0.9963496000000305,,,35,18,Man,Rechts,1,
,xotask,xotask,dotcolour,26,1,86,86,training,negativefb,42,average,16,3.1156277000000046,['c'],0,right,['2'],5,0.7758232999999564,,,35,18,Man,Rechts,1,
,xotask,xotask,dotcolour,27,1,87,87,training,negativefb,88,hard,28,0.8993998000000829,['n'],1,right,['8'],3,2.8695507999998426,,,35,18,Man,Rechts,1,
,xotask,xotask,dotcolour,28,1,88,88,training,negativefb,66,easy,7,1.166926500000045,['n'],1,right,['1'],6,0.23554769999987002,,,35,18,Man,Rechts,1,
,xotask,xotask,dotcolour,29,1,89,89,training,negativefb,57,average,61,4.749642199999926,['c'],1,left,['3'],4,1.2442126999999346,,,35,18,Man,Rechts,1,
,xotask,xotask,dotcolour,30,1,90,90,training,negativefb,74,easy,72,1.5165051999999832,['c'],1,left,['1'],6,0.14311209999982566,,,35,18,Man,Rechts,1,
,xotask,xotask,dotcolour,31,1,91,91,training,negativefb,43,easy,71,1.1011496999999508,['c'],1,left,['1'],6,0.4620438000001741,,,35,18,Man,Rechts,1,
,xotask,xotask,dotcolour,32,1,92,92,training,negativefb,64,hard,29,2.3492211000000225,['c'],0,right,['3'],4,0.5902163999999175,,,35,18,Man,Rechts,1,
,xotask,xotask,dotcolour,33,1,93,93,training,negativefb,60,average,62,1.0160677999999734,['c'],1,left,['2'],5,0.2625293999999485,,,35,18,Man,Rechts,1,
,xotask,xotask,dotcolour,34,1,94,94,training,negativefb,66,hard,26,1.2005944,['n'],1,right,['1'],6,0.3793473000000631,,,35,18,Man,Rechts,1,
,xotask,xotask,dotcolour,35,1,95,95,training,negativefb,91,easy,8,1.0669227000000774,['n'],1,right,['2'],5,0.506912100000136,,,35,18,Man,Rechts,1,
,xotask,xotask,dotcolour,36,1,96,96,training,negativefb,60,easy,9,1.0326219999999466,['n'],1,right,['2'],5,0.22999209999989034,,,35,18,Man,Rechts,1,
,xotask,xotask,dotcolour,37,1,97,97,training,negativefb,44,easy,5,0.6330322000001161,['n'],1,right,['1'],6,0.4276664999999866,,,35,18,Man,Rechts,1,
,xotask,xotask,dotcolour,38,1,98,98,training,negativefb,87,average,63,1.5665903999999955,['c'],1,left,['2'],5,0.7484465,,,35,18,Man,Rechts,1,
,xotask,xotask,dotcolour,39,1,99,99,training,negativefb,96,easy,7,0.817839499999991,['n'],1,right,['2'],5,1.190617599999996,,,35,18,Man,Rechts,1,
,xotask,xotask,dotcolour,40,1,100,100,training,negativefb,53,hard,52,0.8513298999998824,['n'],0,left,['9'],2,1.6774818999999752,,,35,18,Man,Rechts,1,
,xotask,xotask,dotcolour,41,1,101,101,training,negativefb,88,average,61,1.132018300000027,['c'],1,left,['1'],6,3.9090982999998687,,,35,18,Man,Rechts,1,
,xotask,xotask,dotcolour,42,1,102,102,training,negativefb,91,easy,72,1.1672095999999783,['c'],1,left,['1'],6,1.2587002000000211,,,35,18,Man,Rechts,1,
,xotask,xotask,dotcolour,43,1,103,103,training,negativefb,98,easy,73,0.6669970999998895,['c'],1,left,['1'],6,2.118079699999953,,,35,18,Man,Rechts,1,
,xotask,xotask,dotcolour,44,1,104,104,training,negativefb,83,easy,73,0.5004865000000791,['c'],1,left,['1'],6,0.3806238999998186,,,35,18,Man,Rechts,1,
,xotask,xotask,dotcolour,45,1,105,105,training,negativefb,55,hard,52,0.6327727000000323,['c'],1,left,['1'],6,0.18863390000001345,,,35,18,Man,Rechts,1,
,xotask,xotask,dotcolour,46,1,106,106,training,negativefb,51,easy,5,1.100410699999884,['n'],1,right,['2'],5,1.498612699999967,,,35,18,Man,Rechts,1,
,xotask,xotask,dotcolour,47,1,107,107,training,negativefb,87,hard,50,0.6504070000000866,['c'],1,left,['2'],5,4.668602199999896,,,35,18,Man,Rechts,1,
,xotask,xotask,dotcolour,48,1,108,108,training,negativefb,97,easy,72,0.5835429999999633,['c'],1,left,['2'],5,2.33882339999991,,,35,18,Man,Rechts,1,
,xotask,xotask,dotcolour,49,1,109,109,training,negativefb,30,average,16,0.5835465000000113,['n'],1,right,['2'],5,0.8928522999999586,,,35,18,Man,Rechts,1,
,xotask,xotask,dotcolour,50,1,110,110,training,negativefb,95,average,16,0.6328361000000768,['n'],1,right,['1'],6,1.969126499999902,,,35,18,Man,Rechts,1,
,xotask,xotask,dotcolour,51,1,111,111,training,negativefb,70,average,15,0.6664603000001534,['n'],1,right,['1'],6,0.31951570000001084,,,35,18,Man,Rechts,1,
,xotask,xotask,dotcolour,52,1,112,112,training,negativefb,1,easy,70,1.5836534000000029,['n'],0,left,['3'],4,4.811961200000042,,,35,18,Man,Rechts,1,
,xotask,xotask,dotcolour,53,1,113,113,training,negativefb,29,hard,50,0.9162861999998313,['n'],0,left,['2'],5,0.5183054999999968,,,35,18,Man,Rechts,1,
,xotask,xotask,dotcolour,54,1,114,114,training,negativefb,94,average,16,0.883235200000172,['n'],1,right,['1'],6,0.5908088999999563,,,35,18,Man,Rechts,1,
,xotask,xotask,dotcolour,55,1,115,115,training,negativefb,29,average,19,0.6497088999999505,['n'],1,right,['2'],5,0.1251386999999795,,,35,18,Man,Rechts,1,
,xotask,xotask,dotcolour,56,1,116,116,training,negativefb,67,average,63,1.8154961000000185,['c'],1,left,['2'],5,0.2237484999998287,,,35,18,Man,Rechts,1,
,xotask,xotask,dotcolour,57,1,117,117,training,negativefb,13,average,17,4.38378049999983,['c'],0,right,['8'],3,1.3359715999999935,,,35,18,Man,Rechts,1,
,xotask,xotask,dotcolour,58,1,118,118,training,negativefb,24,hard,26,0.8328055000001768,['n'],1,right,['2'],5,0.6337383000000045,,,35,18,Man,Rechts,1,
,xotask,xotask,dotcolour,59,1,119,119,training,negativefb,93,hard,27,0.7824849999999515,['n'],1,right,['3'],4,0.8244674000000032,,,35,18,Man,Rechts,1,
,dotcolour,xotask,dotcolour,0,2,120,120,main,negativefb,-99,average,,2.7845644000001357,['c'],1,left,['2'],5,1.3968919000001279,55,,35,18,Man,Rechts,1,
,dotcolour,xotask,dotcolour,1,2,121,121,main,negativefb,-99,average,,6.083521499999961,['n'],1,right,['3'],4,1.291354100000035,29,,35,18,Man,Rechts,1,
,dotcolour,xotask,dotcolour,2,2,122,122,main,negativefb,-99,easy,,1.9684457999999267,['n'],1,right,['1'],6,0.6826138999999785,19,,35,18,Man,Rechts,1,
,dotcolour,xotask,dotcolour,3,2,123,123,main,negativefb,-99,hard,,3.251243299999942,['n'],0,left,['2'],5,0.6941388000000188,42,,35,18,Man,Rechts,1,
,dotcolour,xotask,dotcolour,4,2,124,124,main,negativefb,-99,easy,,2.334667500000023,['c'],1,left,['1'],6,0.5904069000000618,64,,35,18,Man,Rechts,1,
,dotcolour,xotask,dotcolour,5,2,125,125,main,negativefb,-99,hard,,1.818155200000092,['n'],1,right,['2'],5,0.7028027000001202,36,,35,18,Man,Rechts,1,
,dotcolour,xotask,dotcolour,6,2,126,126,main,negativefb,-99,average,,3.000096600000006,['c'],1,left,['2'],5,1.8758614000000762,51,,35,18,Man,Rechts,1,
,dotcolour,xotask,dotcolour,7,2,127,127,main,negativefb,-99,average,,1.1512325999999575,['n'],1,right,['1'],6,0.5794247999999698,29,,35,18,Man,Rechts,1,
,dotcolour,xotask,dotcolour,8,2,128,128,main,negativefb,-99,average,,1.2502924999998868,['c'],1,left,['1'],6,0.7156755999999405,55,,35,18,Man,Rechts,1,
,dotcolour,xotask,dotcolour,9,2,129,129,main,negativefb,-99,hard,,2.183894799999962,['n'],0,left,['2'],5,0.633468799999946,43,,35,18,Man,Rechts,1,
,dotcolour,xotask,dotcolour,10,2,130,130,main,negativefb,-99,average,,1.1167553000000225,['c'],1,left,['1'],6,0.41904700000009143,52,,35,18,Man,Rechts,1,
,dotcolour,xotask,dotcolour,11,2,131,131,main,negativefb,-99,easy,,0.9499795000001541,['n'],1,right,['1'],6,0.3415042999999969,19,,35,18,Man,Rechts,1,
,dotcolour,xotask,dotcolour,12,2,132,132,main,negativefb,-99,average,,0.8174254000000474,['n'],1,right,['1'],6,0.21554250000008324,29,,35,18,Man,Rechts,1,
,dotcolour,xotask,dotcolour,13,2,133,133,main,negativefb,-99,average,,0.7006902999999056,['n'],1,right,['1'],6,0.228492899999992,26,,35,18,Man,Rechts,1,
,dotcolour,xotask,dotcolour,14,2,134,134,main,negativefb,-99,hard,,1.3019317999999203,['c'],1,left,['2'],5,0.5449902000000293,45,,35,18,Man,Rechts,1,
,dotcolour,xotask,dotcolour,15,2,135,135,main,negativefb,-99,hard,,1.534318600000006,['n'],1,right,['3'],4,0.7029666000000816,37,,35,18,Man,Rechts,1,
,dotcolour,xotask,dotcolour,16,2,136,136,main,negativefb,-99,hard,,1.7845057999998062,['c'],0,right,['8'],3,10.188702999999805,38,,35,18,Man,Rechts,1,
,dotcolour,xotask,dotcolour,17,2,137,137,main,negativefb,-99,average,,1.7503414000000248,['n'],1,right,['2'],5,0.3426429000001008,28,,35,18,Man,Rechts,1,
,dotcolour,xotask,dotcolour,18,2,138,138,main,negativefb,-99,hard,,1.2187770000000455,['n'],1,right,['2'],5,0.3139483999998447,35,,35,18,Man,Rechts,1,
,dotcolour,xotask,dotcolour,19,2,139,139,main,negativefb,-99,easy,,0.6674373999999261,['n'],1,right,['1'],6,0.22822340000016084,18,,35,18,Man,Rechts,1,
,dotcolour,xotask,dotcolour,20,2,140,140,main,negativefb,-99,hard,,1.2021583999999166,['c'],1,left,['1'],6,0.4445846999999503,41,,35,18,Man,Rechts,1,
,dotcolour,xotask,dotcolour,21,2,141,141,main,negativefb,-99,easy,,0.7514252999999371,['n'],1,right,['1'],6,0.22988290000012057,16,,35,18,Man,Rechts,1,
,dotcolour,xotask,dotcolour,22,2,142,142,main,negativefb,-99,hard,,1.0842976999999792,['n'],0,left,['2'],5,0.32274729999994634,41,,35,18,Man,Rechts,1,
,dotcolour,xotask,dotcolour,23,2,143,143,main,negativefb,-99,hard,,1.3176907999998093,['n'],0,left,['3'],4,0.40941620000012335,41,,35,18,Man,Rechts,1,
,dotcolour,xotask,dotcolour,24,2,144,144,main,negativefb,-99,average,,0.7510605999998461,['n'],1,right,['2'],5,0.30001659999993535,29,,35,18,Man,Rechts,1,
,dotcolour,xotask,dotcolour,25,2,145,145,main,negativefb,-99,hard,,7.349816899999951,['n'],1,right,['3'],4,1.0828389000000698,38,,35,18,Man,Rechts,1,
,dotcolour,xotask,dotcolour,26,2,146,146,main,negativefb,-99,easy,,18.551689600000145,['n'],0,left,['3'],4,1.364531199999874,63,,35,18,Man,Rechts,1,
,dotcolour,xotask,dotcolour,27,2,147,147,main,negativefb,-99,hard,,1.4178541000001132,['c'],1,left,['3'],4,0.8456215000001066,42,,35,18,Man,Rechts,1,
,dotcolour,xotask,dotcolour,28,2,148,148,main,negativefb,-99,easy,,1.050276599999961,['c'],1,left,['1'],6,0.3144181000000117,64,,35,18,Man,Rechts,1,
,dotcolour,xotask,dotcolour,29,2,149,149,main,negativefb,-99,hard,,1.3832150999999158,['n'],1,right,['2'],5,0.6406951999999819,35,,35,18,Man,Rechts,1,
,dotcolour,xotask,dotcolour,30,2,150,150,main,negativefb,-99,hard,,1.0334605000000465,['n'],1,right,['2'],5,0.27031319999991865,35,,35,18,Man,Rechts,1,
,dotcolour,xotask,dotcolour,31,2,151,151,main,negativefb,-99,hard,,1.5337253000000146,['c'],0,right,['3'],4,2.7427584000001843,35,,35,18,Man,Rechts,1,
,dotcolour,xotask,dotcolour,32,2,152,152,main,negativefb,-99,hard,,1.2673354999999447,['n'],0,left,['3'],4,0.18370929999991858,43,,35,18,Man,Rechts,1,
,dotcolour,xotask,dotcolour,33,2,153,153,main,negativefb,-99,easy,,0.9340850999999475,['c'],1,left,['1'],6,0.2437568000000283,65,,35,18,Man,Rechts,1,
,dotcolour,xotask,dotcolour,34,2,154,154,main,negativefb,-99,average,,0.9668005999999423,['c'],1,left,['1'],6,0.2761450000000423,51,,35,18,Man,Rechts,1,
,dotcolour,xotask,dotcolour,35,2,155,155,main,negativefb,-99,easy,,0.8838190000001305,['n'],1,right,['1'],6,0.3514740000000529,17,,35,18,Man,Rechts,1,
,dotcolour,xotask,dotcolour,36,2,156,156,main,negativefb,-99,easy,,0.9172828000000663,['c'],1,left,['1'],6,0.2700789000000441,65,,35,18,Man,Rechts,1,
,dotcolour,xotask,dotcolour,37,2,157,157,main,negativefb,-99,easy,,0.7509368000000904,['c'],1,left,['1'],6,0.23020930000006956,64,,35,18,Man,Rechts,1,
,dotcolour,xotask,dotcolour,38,2,158,158,main,negativefb,-99,average,,1.0007267999999385,['c'],1,left,['2'],5,0.3015235999998822,51,,35,18,Man,Rechts,1,
,dotcolour,xotask,dotcolour,39,2,159,159,main,negativefb,-99,average,,0.7846915000000081,['c'],1,left,['2'],5,0.2514216999998098,54,,35,18,Man,Rechts,1,
,dotcolour,xotask,dotcolour,40,2,160,160,main,negativefb,-99,easy,,0.8840232999998534,['n'],1,right,['1'],6,0.18203189999985625,15,,35,18,Man,Rechts,1,
,dotcolour,xotask,dotcolour,41,2,161,161,main,negativefb,-99,hard,,0.8843366999999489,['n'],1,right,['1'],6,0.21259620000000723,39,,35,18,Man,Rechts,1,
,dotcolour,xotask,dotcolour,42,2,162,162,main,negativefb,-99,easy,,0.9009705999999369,['c'],1,left,['1'],6,0.2973766000000069,65,,35,18,Man,Rechts,1,
,dotcolour,xotask,dotcolour,43,2,163,163,main,negativefb,-99,average,,0.8341808000000128,['n'],1,right,['1'],6,0.28568239999981415,28,,35,18,Man,Rechts,1,
,dotcolour,xotask,dotcolour,44,2,164,164,main,negativefb,-99,average,,0.9669761999998627,['c'],1,left,['1'],6,0.39561170000001766,54,,35,18,Man,Rechts,1,
,dotcolour,xotask,dotcolour,45,2,165,165,main,negativefb,-99,hard,,1.0510143999999855,['n'],1,right,['2'],5,0.24285430000009,36,,35,18,Man,Rechts,1,
,dotcolour,xotask,dotcolour,46,2,166,166,main,negativefb,-99,average,,0.7843058000000838,['n'],1,right,['2'],5,0.17941190000010465,29,,35,18,Man,Rechts,1,
,dotcolour,xotask,dotcolour,47,2,167,167,main,negativefb,-99,hard,,1.017902499999991,['n'],0,left,['2'],5,0.18073290000006637,43,,35,18,Man,Rechts,1,
,dotcolour,xotask,dotcolour,48,2,168,168,main,negativefb,-99,easy,,0.6676899999999932,['n'],1,right,['1'],6,0.22760859999993954,15,,35,18,Man,Rechts,1,
,dotcolour,xotask,dotcolour,49,2,169,169,main,negativefb,-99,hard,,1.1835077000000638,['n'],0,left,['2'],5,0.21294699999998556,42,,35,18,Man,Rechts,1,
,dotcolour,xotask,dotcolour,50,2,170,170,main,negativefb,-99,easy,,1.067557699999952,['c'],1,left,['1'],6,0.2827480999999352,63,,35,18,Man,Rechts,1,
,dotcolour,xotask,dotcolour,51,2,171,171,main,negativefb,-99,easy,,0.9673645000000306,['c'],1,left,['1'],6,0.21790299999997842,63,,35,18,Man,Rechts,1,
,dotcolour,xotask,dotcolour,52,2,172,172,main,negativefb,-99,average,,1.4330967000000783,['c'],1,left,['2'],5,1.1840414999999211,53,,35,18,Man,Rechts,1,
,dotcolour,xotask,dotcolour,53,2,173,173,main,negativefb,-99,easy,,0.7352572999998301,['c'],1,left,['1'],6,0.38806829999998627,63,,35,18,Man,Rechts,1,
,dotcolour,xotask,dotcolour,54,2,174,174,main,negativefb,-99,average,,0.8002656999999544,['n'],1,right,['1'],6,0.20527609999999186,28,,35,18,Man,Rechts,1,
,dotcolour,xotask,dotcolour,55,2,175,175,main,negativefb,-99,easy,,0.6177460999999766,['n'],1,right,['1'],6,0.11771360000011555,15,,35,18,Man,Rechts,1,
,dotcolour,xotask,dotcolour,56,2,176,176,main,negativefb,-99,average,,0.5505369999998493,['n'],1,right,['1'],6,0.15523269999994227,27,,35,18,Man,Rechts,1,
,dotcolour,xotask,dotcolour,57,2,177,177,main,negativefb,-99,easy,,1.7172149000000445,['n'],1,right,['1'],6,0.13720439999997325,15,,35,18,Man,Rechts,1,
,dotcolour,xotask,dotcolour,58,2,178,178,main,negativefb,-99,average,,1.2501867999999376,['c'],1,left,['1'],6,0.26726750000011634,51,,35,18,Man,Rechts,1,
,dotcolour,xotask,dotcolour,59,2,179,179,main,negativefb,-99,easy,,0.6672885999998925,['n'],1,right,['1'],6,0.2307421999998951,19,,35,18,Man,Rechts,1,
,dotcolour,xotask,dotcolour,0,3,180,180,main,negativefb,-99,average,,1.0162571999999273,['c'],1,left,['1'],6,0.2602211000000807,55,,35,18,Man,Rechts,1,
,dotcolour,xotask,dotcolour,1,3,181,181,main,negativefb,-99,hard,,0.7990512999999737,['n'],1,right,['1'],6,0.6750167000000147,35,,35,18,Man,Rechts,1,
,dotcolour,xotask,dotcolour,2,3,182,182,main,negativefb,-99,average,,0.5503369999998995,['n'],1,right,['2'],5,0.23378200000001925,27,,35,18,Man,Rechts,1,
,dotcolour,xotask,dotcolour,3,3,183,183,main,negativefb,-99,easy,,0.46818310000003294,['n'],1,right,['1'],6,0.24698689999991075,16,,35,18,Man,Rechts,1,
,dotcolour,xotask,dotcolour,4,3,184,184,main,negativefb,-99,average,,0.5499601999999868,['n'],1,right,['1'],6,0.2970766000000822,26,,35,18,Man,Rechts,1,
,dotcolour,xotask,dotcolour,5,3,185,185,main,negativefb,-99,easy,,0.6682018999999855,['n'],1,right,['2'],5,1.1465588999999454,18,,35,18,Man,Rechts,1,
,dotcolour,xotask,dotcolour,6,3,186,186,main,negativefb,-99,easy,,0.6843013000000155,['n'],1,right,['1'],6,0.2834064999999555,16,,35,18,Man,Rechts,1,
,dotcolour,xotask,dotcolour,7,3,187,187,main,negativefb,-99,hard,,1.9837204999998903,['n'],1,right,['3'],4,0.8260256000000936,35,,35,18,Man,Rechts,1,
,dotcolour,xotask,dotcolour,8,3,188,188,main,negativefb,-99,hard,,1.4672571000000971,['c'],1,left,['2'],5,0.7265733000001546,42,,35,18,Man,Rechts,1,
,dotcolour,xotask,dotcolour,9,3,189,189,main,negativefb,-99,average,,0.8836361000001034,['c'],1,left,['2'],5,0.22387689999982285,55,,35,18,Man,Rechts,1,
,dotcolour,xotask,dotcolour,10,3,190,190,main,negativefb,-99,hard,,0.9505022999999255,['n'],0,left,['3'],4,0.7697271999998065,42,,35,18,Man,Rechts,1,
,dotcolour,xotask,dotcolour,11,3,191,191,main,negativefb,-99,average,,0.9340022000001227,['c'],1,left,['2'],5,0.3108973999999307,53,,35,18,Man,Rechts,1,
,dotcolour,xotask,dotcolour,12,3,192,192,main,negativefb,-99,easy,,0.666664899999887,['n'],1,right,['1'],6,0.5533887000001414,15,,35,18,Man,Rechts,1,
,dotcolour,xotask,dotcolour,13,3,193,193,main,negativefb,-99,easy,,0.9332075999998324,['c'],1,left,['1'],6,0.34235929999999826,62,,35,18,Man,Rechts,1,
,dotcolour,xotask,dotcolour,14,3,194,194,main,negativefb,-99,hard,,0.9335470000000896,['n'],1,right,['2'],5,0.28436439999995855,36,,35,18,Man,Rechts,1,
,dotcolour,xotask,dotcolour,15,3,195,195,main,negativefb,-99,average,,0.6331268999999793,['n'],1,right,['2'],5,0.19235219999995934,25,,35,18,Man,Rechts,1,
,dotcolour,xotask,dotcolour,16,3,196,196,main,negativefb,-99,average,,3.3008552000001146,['c'],1,left,['2'],5,0.33387360000006083,54,,35,18,Man,Rechts,1,
,dotcolour,xotask,dotcolour,17,3,197,197,main,negativefb,-99,average,,0.916986199999883,['n'],1,right,['2'],5,0.388062600000012,25,,35,18,Man,Rechts,1,
,dotcolour,xotask,dotcolour,18,3,198,198,main,negativefb,-99,hard,,1.1993873999999778,['c'],0,right,['3'],4,0.3259490000000369,39,,35,18,Man,Rechts,1,
,dotcolour,xotask,dotcolour,19,3,199,199,main,negativefb,-99,hard,,1.5168026000001191,['c'],1,left,['3'],4,1.2453888000000006,45,,35,18,Man,Rechts,1,
,dotcolour,xotask,dotcolour,20,3,200,200,main,negativefb,-99,average,,1.1175786999999673,['c'],1,left,['3'],4,0.39214880000008634,51,,35,18,Man,Rechts,1,
,dotcolour,xotask,dotcolour,21,3,201,201,main,negativefb,-99,hard,,1.6010566999998446,['c'],0,right,['3'],4,0.19310509999991154,39,,35,18,Man,Rechts,1,
,dotcolour,xotask,dotcolour,22,3,202,202,main,negativefb,-99,easy,,1.0002437999999074,['n'],1,right,['2'],5,0.17880230000014308,19,,35,18,Man,Rechts,1,
,dotcolour,xotask,dotcolour,23,3,203,203,main,negativefb,-99,average,,0.766569299999901,['n'],0,left,['9'],2,3.74956740000016,55,,35,18,Man,Rechts,1,
,dotcolour,xotask,dotcolour,24,3,204,204,main,negativefb,-99,easy,,1.2508308999999826,['n'],1,right,['1'],6,0.24637840000013966,18,,35,18,Man,Rechts,1,
,dotcolour,xotask,dotcolour,25,3,205,205,main,negativefb,-99,easy,,1.2511704000000918,['c'],1,left,['1'],6,0.30774589999987256,65,,35,18,Man,Rechts,1,
,dotcolour,xotask,dotcolour,26,3,206,206,main,negativefb,-99,average,,1.801217299999962,['c'],0,right,['2'],5,0.3682879000000412,26,,35,18,Man,Rechts,1,
,dotcolour,xotask,dotcolour,27,3,207,207,main,negativefb,-99,hard,,2.167802100000017,['n'],1,right,['2'],5,1.1559664999999768,35,,35,18,Man,Rechts,1,
,dotcolour,xotask,dotcolour,28,3,208,208,main,negativefb,-99,easy,,0.8841450999998415,['n'],1,right,['1'],6,0.18035469999995257,18,,35,18,Man,Rechts,1,
,dotcolour,xotask,dotcolour,29,3,209,209,main,negativefb,-99,average,,2.0839445999999953,['c'],1,left,['1'],6,0.24169160000019474,51,,35,18,Man,Rechts,1,
,dotcolour,xotask,dotcolour,30,3,210,210,main,negativefb,-99,hard,,1.2342909999999847,['n'],1,right,['2'],5,0.16775670000015452,35,,35,18,Man,Rechts,1,
,dotcolour,xotask,dotcolour,31,3,211,211,main,negativefb,-99,average,,0.7670555000001968,['n'],1,right,['2'],5,0.19603030000007493,25,,35,18,Man,Rechts,1,
,dotcolour,xotask,dotcolour,32,3,212,212,main,negativefb,-99,hard,,4.533836500000007,['n'],1,right,['2'],5,0.14462249999996857,36,,35,18,Man,Rechts,1,
,dotcolour,xotask,dotcolour,33,3,213,213,main,negativefb,-99,easy,,0.9182278000000679,['c'],1,left,['1'],6,0.2782291000000896,61,,35,18,Man,Rechts,1,
,dotcolour,xotask,dotcolour,34,3,214,214,main,negativefb,-99,average,,0.8012169999999514,['n'],1,right,['1'],6,0.14884559999995872,29,,35,18,Man,Rechts,1,
,dotcolour,xotask,dotcolour,35,3,215,215,main,negativefb,-99,easy,,0.7672236999999313,['n'],1,right,['1'],6,0.16871040000000903,17,,35,18,Man,Rechts,1,
,dotcolour,xotask,dotcolour,36,3,216,216,main,negativefb,-99,easy,,0.8004195999999411,['c'],1,left,['1'],6,0.23448710000002393,65,,35,18,Man,Rechts,1,
,dotcolour,xotask,dotcolour,37,3,217,217,main,negativefb,-99,hard,,0.8007737000000361,['n'],1,right,['2'],5,0.21797960000003513,37,,35,18,Man,Rechts,1,
,dotcolour,xotask,dotcolour,38,3,218,218,main,negativefb,-99,easy,,1.1002591999999822,['c'],1,left,['1'],6,0.26243479999993724,61,,35,18,Man,Rechts,1,
,dotcolour,xotask,dotcolour,39,3,219,219,main,negativefb,-99,hard,,0.9844726999999693,['n'],0,left,['3'],4,0.4534360000000106,43,,35,18,Man,Rechts,1,
,dotcolour,xotask,dotcolour,40,3,220,220,main,negativefb,-99,hard,,1.1679419999998117,['n'],0,left,['2'],5,0.2773912999998629,41,,35,18,Man,Rechts,1,
,dotcolour,xotask,dotcolour,41,3,221,221,main,negativefb,-99,hard,,2.784032899999829,['n'],0,left,['8'],3,3.412801500000114,42,,35,18,Man,Rechts,1,
,dotcolour,xotask,dotcolour,42,3,222,222,main,negativefb,-99,easy,,1.3337569000000258,['c'],1,left,['2'],5,0.25598619999982475,62,,35,18,Man,Rechts,1,
,dotcolour,xotask,dotcolour,43,3,223,223,main,negativefb,-99,average,,1.6510212000000593,['c'],1,left,['3'],4,0.932642499999929,51,,35,18,Man,Rechts,1,
,dotcolour,xotask,dotcolour,44,3,224,224,main,negativefb,-99,easy,,0.8176516999999421,['c'],1,left,['1'],6,0.2308947999999873,65,,35,18,Man,Rechts,1,
,dotcolour,xotask,dotcolour,45,3,225,225,main,negativefb,-99,average,,1.100781999999981,['n'],1,right,['1'],6,0.35565189999988434,28,,35,18,Man,Rechts,1,
,dotcolour,xotask,dotcolour,46,3,226,226,main,negativefb,-99,average,,1.2672566000001098,['c'],1,left,['1'],6,0.30778609999993023,53,,35,18,Man,Rechts,1,
,dotcolour,xotask,dotcolour,47,3,227,227,main,negativefb,-99,hard,,1.234460499999841,['c'],1,left,['3'],4,1.0237207000000126,42,,35,18,Man,Rechts,1,
,dotcolour,xotask,dotcolour,48,3,228,228,main,negativefb,-99,easy,,0.8345569000000523,['c'],0,right,['2'],5,0.18159039999977722,17,,35,18,Man,Rechts,1,
,dotcolour,xotask,dotcolour,49,3,229,229,main,negativefb,-99,easy,,4.066272400000116,['c'],1,left,['2'],5,1.6051387999998497,61,,35,18,Man,Rechts,1,
,dotcolour,xotask,dotcolour,50,3,230,230,main,negativefb,-99,easy,,0.9833562000001166,['c'],1,left,['1'],6,0.34331090000000586,62,,35,18,Man,Rechts,1,
,dotcolour,xotask,dotcolour,51,3,231,231,main,negativefb,-99,easy,,1.5998541000001296,['n'],1,right,['1'],6,1.466798400000016,15,,35,18,Man,Rechts,1,
,dotcolour,xotask,dotcolour,52,3,232,232,main,negativefb,-99,average,,1.3501756000000569,['n'],1,right,['2'],5,0.2980113999999503,28,,35,18,Man,Rechts,1,
,dotcolour,xotask,dotcolour,53,3,233,233,main,negativefb,-99,hard,,1.1337166000000707,['n'],0,left,['2'],5,0.2736853000001247,42,,35,18,Man,Rechts,1,
,dotcolour,xotask,dotcolour,54,3,234,234,main,negativefb,-99,hard,,1.4019361999999091,['c'],1,left,['3'],4,0.46450240000012855,42,,35,18,Man,Rechts,1,
,dotcolour,xotask,dotcolour,55,3,235,235,main,negativefb,-99,average,,1.1506658999999217,['n'],1,right,['2'],5,0.40061569999988933,27,,35,18,Man,Rechts,1,
,dotcolour,xotask,dotcolour,56,3,236,236,main,negativefb,-99,hard,,0.8677293999999165,['n'],0,left,['8'],3,0.7033186000001024,41,,35,18,Man,Rechts,1,
,dotcolour,xotask,dotcolour,57,3,237,237,main,negativefb,-99,easy,,3.067822700000079,['c'],1,left,['2'],5,0.4172160000000531,64,,35,18,Man,Rechts,1,
,dotcolour,xotask,dotcolour,58,3,238,238,main,negativefb,-99,average,,0.8999546000000009,['c'],1,left,['2'],5,0.3981453999999758,55,,35,18,Man,Rechts,1,
,dotcolour,xotask,dotcolour,59,3,239,239,main,negativefb,-99,hard,,0.8187001000001146,['n'],1,right,['2'],5,0.21394529999997758,36,,35,18,Man,Rechts,1,
,dotcolour,xotask,dotcolour,0,4,240,240,main,negativefb,-99,average,,0.9009601000000202,['c'],1,left,['2'],5,0.18709390000003623,55,,35,18,Man,Rechts,1,
,dotcolour,xotask,dotcolour,1,4,241,241,main,negativefb,-99,easy,,0.7336341000000175,['c'],1,left,['2'],5,0.1680805999999393,62,,35,18,Man,Rechts,1,
,dotcolour,xotask,dotcolour,2,4,242,242,main,negativefb,-99,hard,,2.334402799999907,['c'],1,left,['3'],4,0.5632338999998865,41,,35,18,Man,Rechts,1,
,dotcolour,xotask,dotcolour,3,4,243,243,main,negativefb,-99,easy,,0.683428000000049,['n'],1,right,['2'],5,0.2121541999999863,15,,35,18,Man,Rechts,1,
,dotcolour,xotask,dotcolour,4,4,244,244,main,negativefb,-99,average,,1.0997449999999844,['n'],1,right,['2'],5,0.1919500000001335,29,,35,18,Man,Rechts,1,
,dotcolour,xotask,dotcolour,5,4,245,245,main,negativefb,-99,hard,,1.0517318000001978,['n'],1,right,['2'],5,0.20798730000001342,36,,35,18,Man,Rechts,1,
,dotcolour,xotask,dotcolour,6,4,246,246,main,negativefb,-99,average,,0.7167934999999943,['n'],1,right,['2'],5,0.22686239999984537,26,,35,18,Man,Rechts,1,
,dotcolour,xotask,dotcolour,7,4,247,247,main,negativefb,-99,average,,1.0342997000000196,['c'],1,left,['2'],5,0.24274979999995594,53,,35,18,Man,Rechts,1,
,dotcolour,xotask,dotcolour,8,4,248,248,main,negativefb,-99,average,,2.701397199999974,['n'],0,left,['3'],4,0.22940749999997934,53,,35,18,Man,Rechts,1,
,dotcolour,xotask,dotcolour,9,4,249,249,main,negativefb,-99,hard,,1.0506485000000794,['n'],1,right,['3'],4,0.19621060000008583,38,,35,18,Man,Rechts,1,
,dotcolour,xotask,dotcolour,10,4,250,250,main,negativefb,-99,average,,1.68487459999983,['c'],1,left,['2'],5,0.23426659999995536,55,,35,18,Man,Rechts,1,
,dotcolour,xotask,dotcolour,11,4,251,251,main,negativefb,-99,average,,1.068210800000088,['c'],1,left,['2'],5,0.2390090000001237,53,,35,18,Man,Rechts,1,
,dotcolour,xotask,dotcolour,12,4,252,252,main,negativefb,-99,easy,,1.017741899999919,['n'],1,right,['1'],6,0.2052829000001566,18,,35,18,Man,Rechts,1,
,dotcolour,xotask,dotcolour,13,4,253,253,main,negativefb,-99,average,,1.0172064999999293,['n'],1,right,['2'],5,0.4942282999998042,26,,35,18,Man,Rechts,1,
,dotcolour,xotask,dotcolour,14,4,254,254,main,negativefb,-99,hard,,1.1843951999999263,['n'],0,left,['2'],5,0.39551030000006904,44,,35,18,Man,Rechts,1,
,dotcolour,xotask,dotcolour,15,4,255,255,main,negativefb,-99,easy,,0.9183987999999772,['c'],1,left,['1'],6,0.2729291999999077,65,,35,18,Man,Rechts,1,
,dotcolour,xotask,dotcolour,16,4,256,256,main,negativefb,-99,average,,0.6509524000000511,['n'],1,right,['1'],6,0.19713609999985238,27,,35,18,Man,Rechts,1,
,dotcolour,xotask,dotcolour,17,4,257,257,main,negativefb,-99,average,,0.8333881999999448,['n'],1,right,['2'],5,0.26885379999998804,27,,35,18,Man,Rechts,1,
,dotcolour,xotask,dotcolour,18,4,258,258,main,negativefb,-99,easy,,0.8012216999998145,['c'],1,left,['1'],6,0.26694659999998294,65,,35,18,Man,Rechts,1,
,dotcolour,xotask,dotcolour,19,4,259,259,main,negativefb,-99,easy,,0.8993153999999777,['n'],1,right,['1'],6,0.26026230000002215,18,,35,18,Man,Rechts,1,
,dotcolour,xotask,dotcolour,20,4,260,260,main,negativefb,-99,easy,,0.6838633999998365,['n'],1,right,['1'],6,0.26427300000000287,18,,35,18,Man,Rechts,1,
,dotcolour,xotask,dotcolour,21,4,261,261,main,negativefb,-99,hard,,0.8990178999999898,['c'],1,left,['2'],5,0.6427286999999069,44,,35,18,Man,Rechts,1,
,dotcolour,xotask,dotcolour,22,4,262,262,main,negativefb,-99,hard,,0.9667838999998821,['c'],1,left,['2'],5,0.23516210000002502,43,,35,18,Man,Rechts,1,
,dotcolour,xotask,dotcolour,23,4,263,263,main,negativefb,-99,hard,,0.9328568000000814,['n'],1,right,['2'],5,0.22924209999996492,38,,35,18,Man,Rechts,1,
,dotcolour,xotask,dotcolour,24,4,264,264,main,negativefb,-99,average,,0.7664899999999761,['n'],1,right,['2'],5,0.22344090000001415,27,,35,18,Man,Rechts,1,
,dotcolour,xotask,dotcolour,25,4,265,265,main,negativefb,-99,average,,1.0176436000001559,['c'],1,left,['2'],5,0.23813449999988734,54,,35,18,Man,Rechts,1,
,dotcolour,xotask,dotcolour,26,4,266,266,main,negativefb,-99,easy,,0.7839912999997978,['c'],1,left,['2'],5,0.2308247000000847,64,,35,18,Man,Rechts,1,
,dotcolour,xotask,dotcolour,27,4,267,267,main,negativefb,-99,average,,0.783861399999978,['c'],1,left,['2'],5,0.19931159999987358,54,,35,18,Man,Rechts,1,
,dotcolour,xotask,dotcolour,28,4,268,268,main,negativefb,-99,easy,,0.9673567000002095,['n'],1,right,['1'],6,0.24125249999997322,17,,35,18,Man,Rechts,1,
,dotcolour,xotask,dotcolour,29,4,269,269,main,negativefb,-99,hard,,1.0500130000000354,['n'],1,right,['3'],4,0.23842969999986963,39,,35,18,Man,Rechts,1,
,dotcolour,xotask,dotcolour,30,4,270,270,main,negativefb,-99,hard,,1.050792999999885,['c'],1,left,['2'],5,0.26742429999990236,43,,35,18,Man,Rechts,1,
,dotcolour,xotask,dotcolour,31,4,271,271,main,negativefb,-99,easy,,1.0174587000001338,['c'],1,left,['2'],5,0.23318139999992127,64,,35,18,Man,Rechts,1,
,dotcolour,xotask,dotcolour,32,4,272,272,main,negativefb,-99,average,,0.9165011999998569,['c'],1,left,['1'],6,1.7086693999999625,51,,35,18,Man,Rechts,1,
,dotcolour,xotask,dotcolour,33,4,273,273,main,negativefb,-99,average,,1.1007633000001533,['n'],1,right,['2'],5,0.7488151000000016,28,,35,18,Man,Rechts,1,
,dotcolour,xotask,dotcolour,34,4,274,274,main,negativefb,-99,hard,,2.86636650000014,['n'],1,right,['2'],5,0.2369372000000567,37,,35,18,Man,Rechts,1,
,dotcolour,xotask,dotcolour,35,4,275,275,main,negativefb,-99,hard,,1.4849713000000975,['n'],1,right,['2'],5,0.2251355999999305,35,,35,18,Man,Rechts,1,
,dotcolour,xotask,dotcolour,36,4,276,276,main,negativefb,-99,hard,,1.818560400000024,['c'],1,left,['2'],5,0.20830799999998817,42,,35,18,Man,Rechts,1,
,dotcolour,xotask,dotcolour,37,4,277,277,main,negativefb,-99,easy,,1.0184112000001733,['c'],1,left,['1'],6,0.24839590000010503,65,,35,18,Man,Rechts,1,
,dotcolour,xotask,dotcolour,38,4,278,278,main,negativefb,-99,hard,,0.9668503000000328,['n'],1,right,['2'],5,0.22489249999989624,35,,35,18,Man,Rechts,1,
,dotcolour,xotask,dotcolour,39,4,279,279,main,negativefb,-99,easy,,0.7168173000000024,['n'],1,right,['1'],6,0.19591349999996055,16,,35,18,Man,Rechts,1,
,dotcolour,xotask,dotcolour,40,4,280,280,main,negativefb,-99,easy,,0.9175723000000744,['c'],1,left,['1'],6,0.22530649999998786,64,,35,18,Man,Rechts,1,
,dotcolour,xotask,dotcolour,41,4,281,281,main,negativefb,-99,hard,,1.2006824000000051,['c'],1,left,['2'],5,0.43322760000000926,45,,35,18,Man,Rechts,1,
,dotcolour,xotask,dotcolour,42,4,282,282,main,negativefb,-99,easy,,0.8508127999998578,['c'],1,left,['2'],5,0.25492910000002666,64,,35,18,Man,Rechts,1,
,dotcolour,xotask,dotcolour,43,4,283,283,main,negativefb,-99,hard,,0.8507591000000048,['n'],0,left,['2'],5,0.2509310000000369,45,,35,18,Man,Rechts,1,
,dotcolour,xotask,dotcolour,44,4,284,284,main,negativefb,-99,easy,,0.8676898999999594,['c'],1,left,['2'],5,0.2950797999999395,64,,35,18,Man,Rechts,1,
,dotcolour,xotask,dotcolour,45,4,285,285,main,negativefb,-99,average,,0.7997948999998243,['c'],1,left,['1'],6,0.20465790000002926,52,,35,18,Man,Rechts,1,
,dotcolour,xotask,dotcolour,46,4,286,286,main,negativefb,-99,hard,,0.9004600000000664,['n'],1,right,['2'],5,0.28122979999989184,35,,35,18,Man,Rechts,1,
,dotcolour,xotask,dotcolour,47,4,287,287,main,negativefb,-99,average,,1.6165971000000354,['n'],1,right,['3'],4,0.3909329999999045,29,,35,18,Man,Rechts,1,
,dotcolour,xotask,dotcolour,48,4,288,288,main,negativefb,-99,easy,,0.8174579999999878,['n'],1,right,['1'],6,1.1031576000000314,18,,35,18,Man,Rechts,1,
,dotcolour,xotask,dotcolour,49,4,289,289,main,negativefb,-99,average,,1.2668252999999368,['n'],1,right,['1'],6,0.6010050999998384,27,,35,18,Man,Rechts,1,
,dotcolour,xotask,dotcolour,50,4,290,290,main,negativefb,-99,easy,,0.6338786999999684,['n'],1,right,['1'],6,0.16815040000005865,16,,35,18,Man,Rechts,1,
,dotcolour,xotask,dotcolour,51,4,291,291,main,negativefb,-99,hard,,0.966950400000087,['c'],0,right,['3'],4,0.34045000000014625,37,,35,18,Man,Rechts,1,
,dotcolour,xotask,dotcolour,52,4,292,292,main,negativefb,-99,easy,,3.5005135000001246,['n'],0,left,['8'],3,1.396122699999978,64,,35,18,Man,Rechts,1,
,dotcolour,xotask,dotcolour,53,4,293,293,main,negativefb,-99,average,,0.9168405000000348,['c'],1,left,['3'],4,0.26395479999996496,55,,35,18,Man,Rechts,1,
,dotcolour,xotask,dotcolour,54,4,294,294,main,negativefb,-99,average,,3.982776999999942,['n'],1,right,['8'],3,0.8152569999999741,28,,35,18,Man,Rechts,1,
,dotcolour,xotask,dotcolour,55,4,295,295,main,negativefb,-99,hard,,1.1837379999999484,['c'],1,left,['3'],4,0.5363507000001846,44,,35,18,Man,Rechts,1,
,dotcolour,xotask,dotcolour,56,4,296,296,main,negativefb,-99,hard,,4.749917699999969,['n'],0,left,['3'],4,0.8547991000002639,42,,35,18,Man,Rechts,1,
,dotcolour,xotask,dotcolour,57,4,297,297,main,negativefb,-99,easy,,1.0507958000002873,['n'],1,right,['1'],6,0.22692389999974694,16,,35,18,Man,Rechts,1,
,dotcolour,xotask,dotcolour,58,4,298,298,main,negativefb,-99,hard,,1.0349919999998747,['c'],0,right,['3'],4,0.5461115000002792,39,,35,18,Man,Rechts,1,
,dotcolour,xotask,dotcolour,59,4,299,299,main,negativefb,-99,easy,,0.7170597999997881,['n'],1,right,['1'],6,0.1999931000000288,18,,35,18,Man,Rechts,1,
,xotask,xotask,dotcolour,0,0,0,300,training,negativefb,47,hard,50,3.134646800000155,['n'],0,left,['2'],5,0.7648478999999497,,,35,18,Man,Rechts,1,
,xotask,xotask,dotcolour,1,0,1,301,training,negativefb,71,average,16,0.832490400000097,['n'],1,right,['2'],5,0.10146889999987252,,,35,18,Man,Rechts,1,
,xotask,xotask,dotcolour,2,0,2,302,training,negativefb,30,hard,26,0.7009060000000318,['n'],1,right,['2'],5,0.17313729999978023,,,35,18,Man,Rechts,1,
,xotask,xotask,dotcolour,3,0,3,303,training,negativefb,55,average,19,0.7670800000000781,['n'],1,right,['2'],5,0.561328599999797,,,35,18,Man,Rechts,1,
,xotask,xotask,dotcolour,4,0,4,304,training,negativefb,62,average,61,1.734117200000128,['c'],1,left,['2'],5,0.32447739999997793,,,35,18,Man,Rechts,1,
,xotask,xotask,dotcolour,5,0,5,305,training,negativefb,73,average,61,1.4342873999999028,['c'],1,left,['3'],4,0.29539260000001377,,,35,18,Man,Rechts,1,
,xotask,xotask,dotcolour,6,0,6,306,training,negativefb,84,easy,74,0.83361640000021,['c'],1,left,['1'],6,0.41855729999997493,,,35,18,Man,Rechts,1,
,xotask,xotask,dotcolour,7,0,7,307,training,negativefb,51,easy,74,0.7331052999998064,['c'],1,left,['1'],6,0.31700720000026195,,,35,18,Man,Rechts,1,
,xotask,xotask,dotcolour,8,0,8,308,training,negativefb,77,easy,74,1.232131499999923,['c'],1,left,['2'],5,0.21518090000017764,,,35,18,Man,Rechts,1,
,xotask,xotask,dotcolour,9,0,9,309,training,negativefb,89,easy,70,0.7005646000002343,['c'],1,left,['2'],5,0.30676999999968757,,,35,18,Man,Rechts,1,
,xotask,xotask,dotcolour,10,0,10,310,training,negativefb,70,easy,5,1.1836973000004036,['n'],1,right,['1'],6,0.34320759999991424,,,35,18,Man,Rechts,1,
,xotask,xotask,dotcolour,11,0,11,311,training,negativefb,46,average,64,0.9172334999998384,['c'],1,left,['2'],5,0.2215732000004209,,,35,18,Man,Rechts,1,
,xotask,xotask,dotcolour,12,0,12,312,training,negativefb,36,average,19,0.8499154000000999,['n'],1,right,['2'],5,0.2192776000001686,,,35,18,Man,Rechts,1,
,xotask,xotask,dotcolour,13,0,13,313,training,negativefb,73,easy,73,1.0338804999996682,['c'],1,left,['1'],6,0.265632000000096,,,35,18,Man,Rechts,1,
,xotask,xotask,dotcolour,14,0,14,314,training,negativefb,60,hard,54,0.865877200000341,['c'],1,left,['2'],5,0.3555234999998902,,,35,18,Man,Rechts,1,
,xotask,xotask,dotcolour,15,0,15,315,training,negativefb,51,easy,8,1.0664407000003848,['n'],1,right,['1'],6,0.2028722000000016,,,35,18,Man,Rechts,1,
,xotask,xotask,dotcolour,16,0,16,316,training,negativefb,41,easy,6,0.7492799000001469,['n'],1,right,['2'],5,0.23773529999971288,,,35,18,Man,Rechts,1,
,xotask,xotask,dotcolour,17,0,17,317,training,negativefb,41,hard,51,1.2664279000000533,['n'],0,left,['2'],5,0.28939989999980753,,,35,18,Man,Rechts,1,
,xotask,xotask,dotcolour,18,0,18,318,training,negativefb,79,average,16,0.8006617000000915,['n'],1,right,['2'],5,0.27030939999986003,,,35,18,Man,Rechts,1,
,xotask,xotask,dotcolour,19,0,19,319,training,negativefb,69,easy,74,1.068196700000044,['c'],1,left,['2'],5,0.22487989999990532,,,35,18,Man,Rechts,1,
,xotask,xotask,dotcolour,20,0,20,320,training,negativefb,19,hard,50,0.95004629999994,['n'],0,left,['2'],5,0.7464797000002363,,,35,18,Man,Rechts,1,
,xotask,xotask,dotcolour,21,0,21,321,training,negativefb,43,average,61,1.016981400000077,['c'],1,left,['1'],6,0.24433589999989636,,,35,18,Man,Rechts,1,
,xotask,xotask,dotcolour,22,0,22,322,training,negativefb,85,easy,7,0.8176012999997511,['n'],1,right,['2'],5,0.4033531000000039,,,35,18,Man,Rechts,1,
,xotask,xotask,dotcolour,23,0,23,323,training,negativefb,75,hard,25,0.9500203999996302,['n'],1,right,['2'],5,0.7737401999997928,,,35,18,Man,Rechts,1,
,xotask,xotask,dotcolour,24,0,24,324,training,negativefb,79,easy,71,1.2171100999998998,['c'],1,left,['2'],5,0.22962749999987864,,,35,18,Man,Rechts,1,
,xotask,xotask,dotcolour,25,0,25,325,training,negativefb,43,average,60,0.8007651999996597,['n'],0,left,['3'],4,0.7735619999998562,,,35,18,Man,Rechts,1,
,xotask,xotask,dotcolour,26,0,26,326,training,negativefb,86,average,15,1.0172365000003083,['n'],1,right,['2'],5,0.766239300000052,,,35,18,Man,Rechts,1,
,xotask,xotask,dotcolour,27,0,27,327,training,negativefb,54,average,62,0.8831774999998743,['c'],1,left,['2'],5,0.22820580000006885,,,35,18,Man,Rechts,1,
,xotask,xotask,dotcolour,28,0,28,328,training,negativefb,59,hard,26,1.0170312000000195,['n'],1,right,['2'],5,0.21907510000028196,,,35,18,Man,Rechts,1,
,xotask,xotask,dotcolour,29,0,29,329,training,negativefb,64,hard,53,1.8495670000002065,['c'],1,left,['2'],5,0.19195180000042456,,,35,18,Man,Rechts,1,
,xotask,xotask,dotcolour,30,0,30,330,training,negativefb,27,hard,26,0.8828787000002194,['n'],1,right,['2'],5,0.7021361999995861,,,35,18,Man,Rechts,1,
,xotask,xotask,dotcolour,31,0,31,331,training,negativefb,66,hard,27,1.1164472999998907,['n'],1,right,['2'],5,0.20557270000017525,,,35,18,Man,Rechts,1,
,xotask,xotask,dotcolour,32,0,32,332,training,negativefb,84,easy,71,1.0174020999997992,['c'],1,left,['2'],5,0.2283889000000272,,,35,18,Man,Rechts,1,
,xotask,xotask,dotcolour,33,0,33,333,training,negativefb,60,hard,27,0.8336504999997487,['n'],1,right,['2'],5,0.23499820000006366,,,35,18,Man,Rechts,1,
,xotask,xotask,dotcolour,34,0,34,334,training,negativefb,71,easy,70,1.1004493999998886,['c'],1,left,['1'],6,0.23776300000008632,,,35,18,Man,Rechts,1,
,xotask,xotask,dotcolour,35,0,35,335,training,negativefb,78,easy,8,0.7327381999998579,['n'],1,right,['1'],6,0.43867260000024544,,,35,18,Man,Rechts,1,
,xotask,xotask,dotcolour,36,0,36,336,training,negativefb,22,hard,52,1.6172359999995933,['n'],0,left,['3'],4,0.47662880000007135,,,35,18,Man,Rechts,1,
,xotask,xotask,dotcolour,37,0,37,337,training,negativefb,69,hard,50,1.6514604999997573,['c'],1,left,['2'],5,0.26356870000017807,,,35,18,Man,Rechts,1,
,xotask,xotask,dotcolour,38,0,38,338,training,negativefb,70,hard,27,1.0515323999998145,['n'],1,right,['2'],5,0.21189419999973325,,,35,18,Man,Rechts,1,
,xotask,xotask,dotcolour,39,0,39,339,training,negativefb,59,average,16,0.7492919000001166,['n'],1,right,['2'],5,0.2068248999999014,,,35,18,Man,Rechts,1,
,xotask,xotask,dotcolour,40,0,40,340,training,negativefb,34,average,62,1.0177145000002383,['n'],0,left,['2'],5,0.22970020000002478,,,35,18,Man,Rechts,1,
,xotask,xotask,dotcolour,41,0,41,341,training,negativefb,88,hard,53,1.3989061000002039,['c'],1,left,['9'],2,1.8376929000000928,,,35,18,Man,Rechts,1,
,xotask,xotask,dotcolour,42,0,42,342,training,negativefb,53,average,62,0.9002817999999024,['n'],0,left,['2'],5,0.35263620000023366,,,35,18,Man,Rechts,1,
,xotask,xotask,dotcolour,43,0,43,343,training,negativefb,97,average,17,0.88233450000007,['n'],1,right,['3'],4,1.9504824000000553,,,35,18,Man,Rechts,1,
,xotask,xotask,dotcolour,44,0,44,344,training,negativefb,21,hard,52,0.8003635999998551,['n'],0,left,['8'],3,0.2407125999998243,,,35,18,Man,Rechts,1,
,xotask,xotask,dotcolour,45,0,45,345,training,negativefb,56,average,16,0.9659590000001117,['n'],1,right,['3'],4,0.8655440999996244,,,35,18,Man,Rechts,1,
,xotask,xotask,dotcolour,46,0,46,346,training,negativefb,44,average,61,0.8166456999997536,['n'],0,left,['3'],4,0.22210210000002917,,,35,18,Man,Rechts,1,
,xotask,xotask,dotcolour,47,0,47,347,training,negativefb,85,easy,9,0.9991893000001255,['n'],1,right,['8'],3,0.9969462999997631,,,35,18,Man,Rechts,1,
,xotask,xotask,dotcolour,48,0,48,348,training,negativefb,94,easy,6,0.7994555000000219,['n'],1,right,['1'],6,0.24586339999996198,,,35,18,Man,Rechts,1,
,xotask,xotask,dotcolour,49,0,49,349,training,negativefb,45,easy,7,0.7661691000002975,['n'],1,right,['1'],6,0.22187620000022434,,,35,18,Man,Rechts,1,
,xotask,xotask,dotcolour,50,0,50,350,training,negativefb,89,average,17,0.6830708999996205,['n'],1,right,['1'],6,1.1382708999999522,,,35,18,Man,Rechts,1,
,xotask,xotask,dotcolour,51,0,51,351,training,negativefb,75,average,19,0.6004190000003291,['n'],1,right,['1'],6,0.437491300000147,,,35,18,Man,Rechts,1,
,xotask,xotask,dotcolour,52,0,52,352,training,negativefb,80,hard,29,0.5832598000001781,['n'],1,right,['1'],6,0.21238249999987602,,,35,18,Man,Rechts,1,
,xotask,xotask,dotcolour,53,0,53,353,training,negativefb,38,hard,54,0.44894139999996696,['n'],0,left,['1'],6,0.20264399999996385,,,35,18,Man,Rechts,1,
,xotask,xotask,dotcolour,54,0,54,354,training,negativefb,81,hard,29,0.783093700000336,['n'],1,right,['2'],5,0.18703910000022006,,,35,18,Man,Rechts,1,
,xotask,xotask,dotcolour,55,0,55,355,training,negativefb,89,easy,8,0.45087499999999636,['n'],1,right,['2'],5,0.16188170000032187,,,35,18,Man,Rechts,1,
,xotask,xotask,dotcolour,56,0,56,356,training,negativefb,60,average,63,0.43415279999999257,['n'],0,left,['8'],3,1.1705329999999776,,,35,18,Man,Rechts,1,
,xotask,xotask,dotcolour,57,0,57,357,training,negativefb,97,easy,9,0.699166299999888,['n'],1,right,['2'],5,1.0962334999999257,,,35,18,Man,Rechts,1,
,xotask,xotask,dotcolour,58,0,58,358,training,negativefb,70,hard,26,1.0179087000001346,['n'],1,right,['2'],5,0.2835718999999699,,,35,18,Man,Rechts,1,
,xotask,xotask,dotcolour,59,0,59,359,training,negativefb,19,easy,73,1.4165892000000895,['c'],1,left,['2'],5,0.21562850000009348,,,35,18,Man,Rechts,1,
,xotask,xotask,dotcolour,0,1,60,360,training,negativefb,58,hard,50,1.517101399999774,['n'],0,left,['1'],6,0.826681500000177,,,35,18,Man,Rechts,1,
,xotask,xotask,dotcolour,1,1,61,361,training,negativefb,76,hard,50,0.9171034000000873,['c'],1,left,['2'],5,0.2618158999998741,,,35,18,Man,Rechts,1,
,xotask,xotask,dotcolour,2,1,62,362,training,negativefb,51,average,64,0.7163878999999724,['c'],1,left,['2'],5,0.18218839999963166,,,35,18,Man,Rechts,1,
,xotask,xotask,dotcolour,3,1,63,363,training,negativefb,19,hard,52,0.549341099999765,['c'],1,left,['2'],5,0.20150580000017726,,,35,18,Man,Rechts,1,
,xotask,xotask,dotcolour,4,1,64,364,training,negativefb,51,average,16,0.7664153999999144,['c'],0,right,['8'],3,0.683481799999754,,,35,18,Man,Rechts,1,
,xotask,xotask,dotcolour,5,1,65,365,training,negativefb,96,easy,73,0.651086999999734,['c'],1,left,['1'],6,0.2528842000001532,,,35,18,Man,Rechts,1,
,xotask,xotask,dotcolour,6,1,66,366,training,negativefb,90,average,63,0.7345576000002438,['c'],1,left,['1'],6,0.2145042000001922,,,35,18,Man,Rechts,1,
,xotask,xotask,dotcolour,7,1,67,367,training,negativefb,50,average,62,0.8328529000000344,['c'],1,left,['2'],5,0.2688151000002108,,,35,18,Man,Rechts,1,
,xotask,xotask,dotcolour,8,1,68,368,training,negativefb,75,average,15,0.7836204999998699,['c'],0,right,['8'],3,0.3151824999999917,,,35,18,Man,Rechts,1,
,xotask,xotask,dotcolour,9,1,69,369,training,negativefb,83,easy,74,0.6665969000000587,['c'],1,left,['2'],5,0.211668699999791,,,35,18,Man,Rechts,1,
,xotask,xotask,dotcolour,10,1,70,370,training,negativefb,52,easy,9,0.4842398000000685,['c'],0,right,['2'],5,0.240726800000175,,,35,18,Man,Rechts,1,
,xotask,xotask,dotcolour,11,1,71,371,training,negativefb,53,hard,29,0.9670885000000453,['n'],1,right,['2'],5,0.257250600000134,,,35,18,Man,Rechts,1,
,xotask,xotask,dotcolour,12,1,72,372,training,negativefb,84,easy,7,0.7161267999999836,['n'],1,right,['1'],6,0.22591349999993326,,,35,18,Man,Rechts,1,
,xotask,xotask,dotcolour,13,1,73,373,training,negativefb,89,hard,25,0.6333529999997154,['n'],1,right,['1'],6,0.16827860000012151,,,35,18,Man,Rechts,1,
,xotask,xotask,dotcolour,14,1,74,374,training,negativefb,29,hard,50,0.5673815000000104,['n'],0,left,['2'],5,0.2184997999997904,,,35,18,Man,Rechts,1,
,xotask,xotask,dotcolour,15,1,75,375,training,negativefb,16,easy,73,0.7487292000000707,['n'],0,left,['3'],4,0.2844064000000799,,,35,18,Man,Rechts,1,
,xotask,xotask,dotcolour,16,1,76,376,training,negativefb,85,average,18,0.7838778000000275,['n'],1,right,['2'],5,0.417371699999876,,,35,18,Man,Rechts,1,
,xotask,xotask,dotcolour,17,1,77,377,training,negativefb,42,average,63,1.399570699999913,['n'],0,left,['8'],3,0.25673309999956473,,,35,18,Man,Rechts,1,
,xotask,xotask,dotcolour,18,1,78,378,training,negativefb,52,hard,54,1.3502917999999227,['c'],1,left,['2'],5,0.3368116999999984,,,35,18,Man,Rechts,1,
,xotask,xotask,dotcolour,19,1,79,379,training,negativefb,29,easy,8,0.5508703000000423,['n'],1,right,['2'],5,0.23814130000027944,,,35,18,Man,Rechts,1,
,xotask,xotask,dotcolour,20,1,80,380,training,negativefb,40,average,64,0.8003008000000591,['n'],0,left,['1'],6,0.23680199999989782,,,35,18,Man,Rechts,1,
,xotask,xotask,dotcolour,21,1,81,381,training,negativefb,50,hard,28,0.6162484999999833,['n'],1,right,['1'],6,0.32245330000023387,,,35,18,Man,Rechts,1,
,xotask,xotask,dotcolour,22,1,82,382,training,negativefb,94,hard,29,0.533643100000063,['n'],1,right,['2'],5,0.28930439999976443,,,35,18,Man,Rechts,1,
,xotask,xotask,dotcolour,23,1,83,383,training,negativefb,51,easy,7,0.5997934000001806,['n'],1,right,['2'],5,0.2936621999997442,,,35,18,Man,Rechts,1,
,xotask,xotask,dotcolour,24,1,84,384,training,negativefb,70,average,62,0.8002439000001687,['n'],0,left,['8'],3,0.30680789999996705,,,35,18,Man,Rechts,1,
,xotask,xotask,dotcolour,25,1,85,385,training,negativefb,89,easy,72,0.7495174000000588,['c'],1,left,['2'],5,0.25682069999993473,,,35,18,Man,Rechts,1,
,xotask,xotask,dotcolour,26,1,86,386,training,negativefb,88,average,62,0.7009385999999722,['c'],1,left,['2'],5,0.2660617000001366,,,35,18,Man,Rechts,1,
,xotask,xotask,dotcolour,27,1,87,387,training,negativefb,41,average,18,0.8505386000001636,['c'],0,right,['8'],3,0.2782975999998598,,,35,18,Man,Rechts,1,
,xotask,xotask,dotcolour,28,1,88,388,training,negativefb,94,average,18,0.7330009000002065,['n'],1,right,['2'],5,0.8459343000004083,,,35,18,Man,Rechts,1,
,xotask,xotask,dotcolour,29,1,89,389,training,negativefb,90,easy,5,0.9003959000001487,['n'],1,right,['1'],6,0.28888089999963995,,,35,18,Man,Rechts,1,
,xotask,xotask,dotcolour,30,1,90,390,training,negativefb,92,easy,8,0.5836733999999524,['n'],1,right,['1'],6,0.16639390000000276,,,35,18,Man,Rechts,1,
,xotask,xotask,dotcolour,31,1,91,391,training,negativefb,41,hard,26,0.8834575000000768,['n'],1,right,['1'],6,0.22100880000016332,,,35,18,Man,Rechts,1,
,xotask,xotask,dotcolour,32,1,92,392,training,negativefb,46,hard,54,0.9168093000002955,['n'],0,left,['2'],5,0.22257660000013857,,,35,18,Man,Rechts,1,
,xotask,xotask,dotcolour,33,1,93,393,training,negativefb,69,average,18,0.6166579999999158,['n'],1,right,['2'],5,0.1898458999999093,,,35,18,Man,Rechts,1,
,xotask,xotask,dotcolour,34,1,94,394,training,negativefb,62,hard,26,0.6329823999999462,['n'],1,right,['2'],5,0.23766539999996894,,,35,18,Man,Rechts,1,
,xotask,xotask,dotcolour,35,1,95,395,training,negativefb,72,easy,71,1.2659730000000309,['c'],1,left,['3'],4,0.5381211999997504,,,35,18,Man,Rechts,1,
,xotask,xotask,dotcolour,36,1,96,396,training,negativefb,78,hard,50,1.1488098999998329,['c'],1,left,['3'],4,0.24670760000026348,,,35,18,Man,Rechts,1,
,xotask,xotask,dotcolour,37,1,97,397,training,negativefb,50,hard,26,1.0001414000003024,['n'],1,right,['8'],3,0.2528262000000723,,,35,18,Man,Rechts,1,
,xotask,xotask,dotcolour,38,1,98,398,training,negativefb,47,easy,9,0.7163717999997061,['n'],1,right,['2'],5,0.28663430000005974,,,35,18,Man,Rechts,1,
,xotask,xotask,dotcolour,39,1,99,399,training,negativefb,63,average,16,0.6007635999999366,['n'],1,right,['1'],6,0.1946167000000969,,,35,18,Man,Rechts,1,
,xotask,xotask,dotcolour,40,1,100,400,training,negativefb,70,hard,53,0.9004015999998956,['c'],1,left,['3'],4,0.35997219999990193,,,35,18,Man,Rechts,1,
,xotask,xotask,dotcolour,41,1,101,401,training,negativefb,49,average,60,0.6162114000003385,['n'],0,left,['8'],3,1.386144599999625,,,35,18,Man,Rechts,1,
,xotask,xotask,dotcolour,42,1,102,402,training,negativefb,79,easy,71,1.0325149000000238,['c'],1,left,['1'],6,0.23291259999996328,,,35,18,Man,Rechts,1,
,xotask,xotask,dotcolour,43,1,103,403,training,negativefb,75,average,64,0.8665387000000919,['c'],1,left,['1'],6,0.17340469999999186,,,35,18,Man,Rechts,1,
,xotask,xotask,dotcolour,44,1,104,404,training,negativefb,66,easy,74,0.46684989999994286,['c'],1,left,['1'],6,0.09101169999985359,,,35,18,Man,Rechts,1,
,xotask,xotask,dotcolour,45,1,105,405,training,negativefb,65,average,15,0.7171508999999787,['n'],1,right,['1'],6,0.11597680000022592,,,35,18,Man,Rechts,1,
,xotask,xotask,dotcolour,46,1,106,406,training,negativefb,53,average,64,0.7166101000002527,['c'],1,left,['1'],6,0.19451130000015837,,,35,18,Man,Rechts,1,
,xotask,xotask,dotcolour,47,1,107,407,training,negativefb,87,hard,51,0.9503380999999536,['c'],1,left,['2'],5,0.2851488999999674,,,35,18,Man,Rechts,1,
,xotask,xotask,dotcolour,48,1,108,408,training,negativefb,67,easy,74,0.5334734999996726,['c'],1,left,['2'],5,0.2999974999997903,,,35,18,Man,Rechts,1,
,xotask,xotask,dotcolour,49,1,109,409,training,negativefb,39,hard,28,0.6995692999998937,['n'],1,right,['2'],5,0.2685252000001128,,,35,18,Man,Rechts,1,
,xotask,xotask,dotcolour,50,1,110,410,training,negativefb,45,hard,51,1.3670473000001948,['c'],1,left,['2'],5,0.26772610000034547,,,35,18,Man,Rechts,1,
,xotask,xotask,dotcolour,51,1,111,411,training,negativefb,79,easy,71,0.9836009999999078,['c'],1,left,['1'],6,0.14535029999979088,,,35,18,Man,Rechts,1,
,xotask,xotask,dotcolour,52,1,112,412,training,negativefb,54,hard,28,0.8329217999998946,['n'],1,right,['2'],5,0.186992200000077,,,35,18,Man,Rechts,1,
,xotask,xotask,dotcolour,53,1,113,413,training,negativefb,81,easy,8,0.8501688000001195,['n'],1,right,['2'],5,0.1769854999997733,,,35,18,Man,Rechts,1,
,xotask,xotask,dotcolour,54,1,114,414,training,negativefb,87,easy,70,0.9339483000003383,['c'],1,left,['2'],5,0.18153440000014598,,,35,18,Man,Rechts,1,
,xotask,xotask,dotcolour,55,1,115,415,training,negativefb,67,easy,7,1.048178800000187,['n'],1,right,['2'],5,0.1810792000001129,,,35,18,Man,Rechts,1,
,xotask,xotask,dotcolour,56,1,116,416,training,negativefb,66,easy,8,0.4832078999997975,['n'],1,right,['2'],5,0.13912789999994857,,,35,18,Man,Rechts,1,
,xotask,xotask,dotcolour,57,1,117,417,training,negativefb,89,average,16,0.48334169999998267,['n'],1,right,['2'],5,0.15388789999997243,,,35,18,Man,Rechts,1,
,xotask,xotask,dotcolour,58,1,118,418,training,negativefb,39,average,15,0.4504081000000042,['n'],1,right,['2'],5,0.17061699999976554,,,35,18,Man,Rechts,1,
,xotask,xotask,dotcolour,59,1,119,419,training,negativefb,59,hard,26,0.44936649999999645,['n'],1,right,['2'],5,0.17781090000016775,,,35,18,Man,Rechts,1,
,xotask,xotask,dotcolour,0,2,120,420,main,negativefb,-99,average,18,0.7835997000001953,['n'],1,right,['2'],5,0.6220003999997061,,,35,18,Man,Rechts,1,
,xotask,xotask,dotcolour,1,2,121,421,main,negativefb,-99,easy,72,0.9346027999999933,['c'],1,left,['2'],5,0.12856920000012906,,,35,18,Man,Rechts,1,
,xotask,xotask,dotcolour,2,2,122,422,main,negativefb,-99,hard,28,1.4837517000000844,['c'],0,right,['2'],5,0.16867999999976746,,,35,18,Man,Rechts,1,
,xotask,xotask,dotcolour,3,2,123,423,main,negativefb,-99,average,62,0.9336824000001798,['c'],1,left,['2'],5,0.1580050000002302,,,35,18,Man,Rechts,1,
,xotask,xotask,dotcolour,4,2,124,424,main,negativefb,-99,average,63,0.7674796000001152,['c'],1,left,['2'],5,0.20955759999969814,,,35,18,Man,Rechts,1,
,xotask,xotask,dotcolour,5,2,125,425,main,negativefb,-99,easy,5,0.7679940000002716,['c'],0,right,['0'],1,1.3081523999999263,,,35,18,Man,Rechts,1,
,xotask,xotask,dotcolour,6,2,126,426,main,negativefb,-99,hard,29,1.6180601999999453,['c'],0,right,['2'],5,0.24845330000016475,,,35,18,Man,Rechts,1,
,xotask,xotask,dotcolour,7,2,127,427,main,negativefb,-99,hard,50,1.5512722000003123,['n'],0,left,['3'],4,1.0011055999998462,,,35,18,Man,Rechts,1,
,xotask,xotask,dotcolour,8,2,128,428,main,negativefb,-99,easy,72,0.6832119999999122,['c'],1,left,['1'],6,0.45469069999990097,,,35,18,Man,Rechts,1,
,xotask,xotask,dotcolour,9,2,129,429,main,negativefb,-99,average,15,0.8002372000000832,['n'],1,right,['1'],6,0.22081740000021455,,,35,18,Man,Rechts,1,
,xotask,xotask,dotcolour,10,2,130,430,main,negativefb,-99,hard,51,1.1664294000001973,['c'],1,left,['3'],4,0.6861360999996577,,,35,18,Man,Rechts,1,
,xotask,xotask,dotcolour,11,2,131,431,main,negativefb,-99,easy,7,1.0343134999998256,['n'],1,right,['1'],6,0.21069640000041545,,,35,18,Man,Rechts,1,
,xotask,xotask,dotcolour,12,2,132,432,main,negativefb,-99,average,61,0.9340790000001107,['c'],1,left,['1'],6,0.2534119000001738,,,35,18,Man,Rechts,1,
,xotask,xotask,dotcolour,13,2,133,433,main,negativefb,-99,easy,71,0.767810499999996,['c'],1,left,['1'],6,0.2380647999998473,,,35,18,Man,Rechts,1,
,xotask,xotask,dotcolour,14,2,134,434,main,negativefb,-99,hard,50,2.9842978000001494,['n'],0,left,['8'],3,0.9745378000002347,,,35,18,Man,Rechts,1,
,xotask,xotask,dotcolour,15,2,135,435,main,negativefb,-99,easy,7,0.7505942000002506,['n'],1,right,['1'],6,0.19394610000017565,,,35,18,Man,Rechts,1,
,xotask,xotask,dotcolour,16,2,136,436,main,negativefb,-99,hard,27,1.2003290999996352,['c'],0,right,['2'],5,0.5245052000000214,,,35,18,Man,Rechts,1,
,xotask,xotask,dotcolour,17,2,137,437,main,negativefb,-99,hard,27,1.151602500000081,['c'],0,right,['2'],5,0.26536899999973684,,,35,18,Man,Rechts,1,
,xotask,xotask,dotcolour,18,2,138,438,main,negativefb,-99,average,64,0.7840719999999237,['c'],1,left,['2'],5,0.47212109999964014,,,35,18,Man,Rechts,1,
,xotask,xotask,dotcolour,19,2,139,439,main,negativefb,-99,easy,72,0.7335597999999663,['c'],1,left,['2'],5,0.24876180000001114,,,35,18,Man,Rechts,1,
,xotask,xotask,dotcolour,20,2,140,440,main,negativefb,-99,hard,52,0.6010344000001169,['c'],1,left,['2'],5,0.20756780000010622,,,35,18,Man,Rechts,1,
,xotask,xotask,dotcolour,21,2,141,441,main,negativefb,-99,easy,74,0.6840511000000333,['c'],1,left,['2'],5,0.2364911999998185,,,35,18,Man,Rechts,1,
,xotask,xotask,dotcolour,22,2,142,442,main,negativefb,-99,hard,27,1.6518527000002905,['c'],0,right,['2'],5,0.5789849000002505,,,35,18,Man,Rechts,1,
,xotask,xotask,dotcolour,23,2,143,443,main,negativefb,-99,average,62,0.768883299999743,['c'],1,left,['2'],5,0.24577589999989868,,,35,18,Man,Rechts,1,
,xotask,xotask,dotcolour,24,2,144,444,main,negativefb,-99,hard,53,2.850990799999636,['c'],1,left,['1'],6,0.2594927000000098,,,35,18,Man,Rechts,1,
,xotask,xotask,dotcolour,25,2,145,445,main,negativefb,-99,hard,51,0.8843799000001127,['c'],1,left,['2'],5,0.20731419999992795,,,35,18,Man,Rechts,1,
,xotask,xotask,dotcolour,26,2,146,446,main,negativefb,-99,easy,74,0.9662705999999162,['c'],1,left,['2'],5,0.2400766000000658,,,35,18,Man,Rechts,1,
,xotask,xotask,dotcolour,27,2,147,447,main,negativefb,-99,hard,52,0.7170284000003448,['c'],1,left,['2'],5,0.23641630000020086,,,35,18,Man,Rechts,1,
,xotask,xotask,dotcolour,28,2,148,448,main,negativefb,-99,easy,7,1.5348314000002574,['n'],1,right,['1'],6,0.1895340999999462,,,35,18,Man,Rechts,1,
,xotask,xotask,dotcolour,29,2,149,449,main,negativefb,-99,easy,72,1.05113080000001,['c'],1,left,['1'],6,0.46155499999986205,,,35,18,Man,Rechts,1,
,xotask,xotask,dotcolour,30,2,150,450,main,negativefb,-99,hard,29,1.133582700000261,['n'],1,right,['3'],4,0.7988556999998764,,,35,18,Man,Rechts,1,
,xotask,xotask,dotcolour,31,2,151,451,main,negativefb,-99,easy,9,1.8336881999998695,['n'],1,right,['3'],4,0.21342719999984183,,,35,18,Man,Rechts,1,
,xotask,xotask,dotcolour,32,2,152,452,main,negativefb,-99,easy,73,1.1681075999999848,['c'],1,left,['1'],6,0.2555084999999053,,,35,18,Man,Rechts,1,
,xotask,xotask,dotcolour,33,2,153,453,main,negativefb,-99,easy,8,0.7673252999998113,['n'],1,right,['1'],6,0.24741979999998875,,,35,18,Man,Rechts,1,
,xotask,xotask,dotcolour,34,2,154,454,main,negativefb,-99,easy,6,0.6836590999996588,['n'],1,right,['1'],6,0.2042423999996572,,,35,18,Man,Rechts,1,
,xotask,xotask,dotcolour,35,2,155,455,main,negativefb,-99,average,18,1.550952900000084,['n'],1,right,['2'],5,0.23860610000019733,,,35,18,Man,Rechts,1,
,xotask,xotask,dotcolour,36,2,156,456,main,negativefb,-99,average,17,0.6516335999999683,['n'],1,right,['2'],5,0.2123916000000463,,,35,18,Man,Rechts,1,
,xotask,xotask,dotcolour,37,2,157,457,main,negativefb,-99,easy,5,0.6512199999997392,['n'],1,right,['2'],5,0.2584299000000101,,,35,18,Man,Rechts,1,
,xotask,xotask,dotcolour,38,2,158,458,main,negativefb,-99,average,60,1.0170779000000039,['c'],1,left,['2'],5,0.39323600000034276,,,35,18,Man,Rechts,1,
,xotask,xotask,dotcolour,39,2,159,459,main,negativefb,-99,easy,70,0.7671859000001859,['c'],1,left,['1'],6,0.2997267999999167,,,35,18,Man,Rechts,1,
,xotask,xotask,dotcolour,40,2,160,460,main,negativefb,-99,hard,25,1.7339447999997901,['n'],1,right,['3'],4,0.3625141000002259,,,35,18,Man,Rechts,1,
,xotask,xotask,dotcolour,41,2,161,461,main,negativefb,-99,hard,50,1.0340323999998873,['c'],1,left,['3'],4,0.7725227999999333,,,35,18,Man,Rechts,1,
,xotask,xotask,dotcolour,42,2,162,462,main,negativefb,-99,average,15,0.6496324999998251,['n'],1,right,['2'],5,0.26056080000034854,,,35,18,Man,Rechts,1,
,xotask,xotask,dotcolour,43,2,163,463,main,negativefb,-99,easy,5,0.7506634999999733,['n'],1,right,['1'],6,0.35789169999998194,,,35,18,Man,Rechts,1,
,xotask,xotask,dotcolour,44,2,164,464,main,negativefb,-99,hard,53,0.9016664999999193,['n'],0,left,['2'],5,0.27585910000016156,,,35,18,Man,Rechts,1,
,xotask,xotask,dotcolour,45,2,165,465,main,negativefb,-99,average,15,1.0341200000002573,['n'],1,right,['2'],5,0.5292054000001372,,,35,18,Man,Rechts,1,
,xotask,xotask,dotcolour,46,2,166,466,main,negativefb,-99,average,62,0.9833835999997973,['c'],1,left,['2'],5,0.2213968000000932,,,35,18,Man,Rechts,1,
,xotask,xotask,dotcolour,47,2,167,467,main,negativefb,-99,average,19,0.8007849999999053,['n'],1,right,['3'],4,0.7098284000003332,,,35,18,Man,Rechts,1,
,xotask,xotask,dotcolour,48,2,168,468,main,negativefb,-99,average,62,1.0347194999999374,['c'],1,left,['3'],4,0.2489967000001343,,,35,18,Man,Rechts,1,
,xotask,xotask,dotcolour,49,2,169,469,main,negativefb,-99,easy,7,0.8848816999998235,['c'],0,right,['3'],4,0.28358699999989767,,,35,18,Man,Rechts,1,
,xotask,xotask,dotcolour,50,2,170,470,main,negativefb,-99,average,64,1.100998299999901,['c'],1,left,['3'],4,0.24548760000016046,,,35,18,Man,Rechts,1,
,xotask,xotask,dotcolour,51,2,171,471,main,negativefb,-99,easy,71,1.4338562999996611,['c'],1,left,['2'],5,0.4521530000001803,,,35,18,Man,Rechts,1,
,xotask,xotask,dotcolour,52,2,172,472,main,negativefb,-99,hard,26,1.867618300000231,['n'],1,right,['8'],3,0.8077908000000207,,,35,18,Man,Rechts,1,
,xotask,xotask,dotcolour,53,2,173,473,main,negativefb,-99,average,15,0.9681194999998297,['c'],0,right,['3'],4,0.2736248000001069,,,35,18,Man,Rechts,1,
,xotask,xotask,dotcolour,54,2,174,474,main,negativefb,-99,average,64,0.8844206999997368,['c'],1,left,['8'],3,1.196855300000152,,,35,18,Man,Rechts,1,
,xotask,xotask,dotcolour,55,2,175,475,main,negativefb,-99,hard,26,1.0176354999998694,['c'],0,right,['8'],3,0.6934077000000798,,,35,18,Man,Rechts,1,
,xotask,xotask,dotcolour,56,2,176,476,main,negativefb,-99,average,15,1.9842201000001296,['n'],1,right,['8'],3,0.7715250000001106,,,35,18,Man,Rechts,1,
,xotask,xotask,dotcolour,57,2,177,477,main,negativefb,-99,average,16,1.668098099999952,['n'],1,right,['8'],3,0.7066264999998566,,,35,18,Man,Rechts,1,
,xotask,xotask,dotcolour,58,2,178,478,main,negativefb,-99,hard,26,0.7168805000001157,['n'],1,right,['8'],3,0.13051540000014938,,,35,18,Man,Rechts,1,
,xotask,xotask,dotcolour,59,2,179,479,main,negativefb,-99,hard,54,0.6833959000000505,['n'],0,left,['8'],3,0.2034075000001394,,,35,18,Man,Rechts,1,
,xotask,xotask,dotcolour,0,3,180,480,main,negativefb,-99,easy,5,1.3510857000001124,['n'],1,right,['2'],5,0.7743084999997336,,,35,18,Man,Rechts,1,
,xotask,xotask,dotcolour,1,3,181,481,main,negativefb,-99,average,16,0.7339843999998266,['n'],1,right,['2'],5,0.25008649999972477,,,35,18,Man,Rechts,1,
,xotask,xotask,dotcolour,2,3,182,482,main,negativefb,-99,easy,74,1.0677857999999105,['c'],1,left,['2'],5,0.23796029999994062,,,35,18,Man,Rechts,1,
,xotask,xotask,dotcolour,3,3,183,483,main,negativefb,-99,hard,51,1.184380499999861,['c'],1,left,['2'],5,0.19036229999983334,,,35,18,Man,Rechts,1,
,xotask,xotask,dotcolour,4,3,184,484,main,negativefb,-99,easy,6,0.5340824999998404,['n'],1,right,['2'],5,0.17822979999982635,,,35,18,Man,Rechts,1,
,xotask,xotask,dotcolour,5,3,185,485,main,negativefb,-99,average,15,0.5833844999997382,['n'],1,right,['2'],5,0.21279089999961798,,,35,18,Man,Rechts,1,
,xotask,xotask,dotcolour,6,3,186,486,main,negativefb,-99,hard,52,0.5669044999999642,['n'],0,left,['2'],5,0.35963670000001,,,35,18,Man,Rechts,1,
,xotask,xotask,dotcolour,7,3,187,487,main,negativefb,-99,average,62,0.833663400000205,['c'],1,left,['2'],5,0.20051039999998466,,,35,18,Man,Rechts,1,
,xotask,xotask,dotcolour,8,3,188,488,main,negativefb,-99,hard,52,0.9500588999999309,['c'],1,left,['2'],5,0.18739949999962846,,,35,18,Man,Rechts,1,
,xotask,xotask,dotcolour,9,3,189,489,main,negativefb,-99,easy,8,0.7839037999997345,['c'],0,right,['2'],5,0.22187809999968522,,,35,18,Man,Rechts,1,
,xotask,xotask,dotcolour,10,3,190,490,main,negativefb,-99,average,18,0.6679052999998021,['n'],1,right,['2'],5,0.18685940000023038,,,35,18,Man,Rechts,1,
,xotask,xotask,dotcolour,11,3,191,491,main,negativefb,-99,average,61,0.6343987999998717,['n'],0,left,['2'],5,0.2510026999998445,,,35,18,Man,Rechts,1,
,xotask,xotask,dotcolour,12,3,192,492,main,negativefb,-99,average,60,0.7341819000002943,['n'],0,left,['2'],5,0.24476389999972525,,,35,18,Man,Rechts,1,
,xotask,xotask,dotcolour,13,3,193,493,main,negativefb,-99,hard,26,2.2009148000001915,['n'],1,right,['2'],5,0.17920360000016444,,,35,18,Man,Rechts,1,
,xotask,xotask,dotcolour,14,3,194,494,main,negativefb,-99,hard,26,0.9827592999999979,['n'],1,right,['3'],4,0.22325439999985974,,,35,18,Man,Rechts,1,
,xotask,xotask,dotcolour,15,3,195,495,main,negativefb,-99,easy,5,0.9673043000002508,['n'],1,right,['1'],6,0.2321615999999267,,,35,18,Man,Rechts,1,
,xotask,xotask,dotcolour,16,3,196,496,main,negativefb,-99,average,62,1.0837486000000354,['c'],1,left,['2'],5,0.20431439999993017,,,35,18,Man,Rechts,1,
,xotask,xotask,dotcolour,17,3,197,497,main,negativefb,-99,average,64,0.9510408000001007,['c'],1,left,['2'],5,0.2469607999996697,,,35,18,Man,Rechts,1,
,xotask,xotask,dotcolour,18,3,198,498,main,negativefb,-99,easy,72,0.9003536999998687,['n'],0,left,['2'],5,0.2178343999999015,,,35,18,Man,Rechts,1,
,xotask,xotask,dotcolour,19,3,199,499,main,negativefb,-99,hard,51,1.1508787999996457,['c'],1,left,['2'],5,0.3076739000002817,,,35,18,Man,Rechts,1,
,xotask,xotask,dotcolour,20,3,200,500,main,negativefb,-99,hard,54,0.8172583999999006,['c'],1,left,['2'],5,0.2555709999996907,,,35,18,Man,Rechts,1,
,xotask,xotask,dotcolour,21,3,201,501,main,negativefb,-99,average,63,2.018220399999791,['c'],1,left,['3'],4,0.5741203000002315,,,35,18,Man,Rechts,1,
,xotask,xotask,dotcolour,22,3,202,502,main,negativefb,-99,easy,5,0.851173000000017,['n'],1,right,['2'],5,0.35849559999996927,,,35,18,Man,Rechts,1,
,xotask,xotask,dotcolour,23,3,203,503,main,negativefb,-99,easy,71,1.2676879000000554,['c'],1,left,['2'],5,0.3501016999998683,,,35,18,Man,Rechts,1,
,xotask,xotask,dotcolour,24,3,204,504,main,negativefb,-99,easy,7,1.0843454000000747,['n'],1,right,['1'],6,0.23779480000030162,,,35,18,Man,Rechts,1,
,xotask,xotask,dotcolour,25,3,205,505,main,negativefb,-99,hard,26,2.0171767000001637,['n'],1,right,['8'],3,0.8686698999999862,,,35,18,Man,Rechts,1,
,xotask,xotask,dotcolour,26,3,206,506,main,negativefb,-99,easy,74,0.9340792999996665,['c'],1,left,['2'],5,0.18920289999960005,,,35,18,Man,Rechts,1,
,xotask,xotask,dotcolour,27,3,207,507,main,negativefb,-99,easy,74,0.7676225000000159,['c'],1,left,['2'],5,0.8644561000000976,,,35,18,Man,Rechts,1,
,xotask,xotask,dotcolour,28,3,208,508,main,negativefb,-99,average,63,0.9186436999998477,['n'],0,left,['2'],5,0.20958139999993364,,,35,18,Man,Rechts,1,
,xotask,xotask,dotcolour,29,3,209,509,main,negativefb,-99,average,16,0.7338067000000592,['n'],1,right,['2'],5,0.22160920000033002,,,35,18,Man,Rechts,1,
,xotask,xotask,dotcolour,30,3,210,510,main,negativefb,-99,average,18,1.3172835000000305,['n'],1,right,['8'],3,0.23269359999994776,,,35,18,Man,Rechts,1,
,xotask,xotask,dotcolour,31,3,211,511,main,negativefb,-99,average,15,0.8672072999997908,['n'],1,right,['2'],5,0.2701848000001519,,,35,18,Man,Rechts,1,
,xotask,xotask,dotcolour,32,3,212,512,main,negativefb,-99,easy,8,0.8345660999998472,['n'],1,right,['2'],5,0.24974539999993794,,,35,18,Man,Rechts,1,
,xotask,xotask,dotcolour,33,3,213,513,main,negativefb,-99,hard,52,1.1507864000000154,['c'],1,left,['2'],5,0.2587679999996908,,,35,18,Man,Rechts,1,
,xotask,xotask,dotcolour,34,3,214,514,main,negativefb,-99,easy,8,0.7506951999998819,['n'],1,right,['1'],6,0.2197174000002633,,,35,18,Man,Rechts,1,
,xotask,xotask,dotcolour,35,3,215,515,main,negativefb,-99,average,64,2.3171149999998306,['c'],1,left,['2'],5,0.23102460000018255,,,35,18,Man,Rechts,1,
,xotask,xotask,dotcolour,36,3,216,516,main,negativefb,-99,average,63,1.1502878999999666,['n'],0,left,['2'],5,0.2569762000002811,,,35,18,Man,Rechts,1,
,xotask,xotask,dotcolour,37,3,217,517,main,negativefb,-99,hard,51,0.7678566999998111,['c'],1,left,['1'],6,0.3371231999999509,,,35,18,Man,Rechts,1,
,xotask,xotask,dotcolour,38,3,218,518,main,negativefb,-99,easy,71,1.4176536999998461,['c'],1,left,['2'],5,0.31626230000028954,,,35,18,Man,Rechts,1,
,xotask,xotask,dotcolour,39,3,219,519,main,negativefb,-99,hard,27,6.61765749999995,['c'],0,right,['8'],3,0.5512708000001112,,,35,18,Man,Rechts,1,
,xotask,xotask,dotcolour,40,3,220,520,main,negativefb,-99,hard,25,1.4671418999996604,['n'],1,right,['2'],5,0.2396309000000656,,,35,18,Man,Rechts,1,
,xotask,xotask,dotcolour,41,3,221,521,main,negativefb,-99,average,18,0.7514310999999907,['n'],1,right,['2'],5,0.44057340000017575,,,35,18,Man,Rechts,1,
,xotask,xotask,dotcolour,42,3,222,522,main,negativefb,-99,hard,54,1.5352190000003247,['c'],1,left,['2'],5,0.23499020000008386,,,35,18,Man,Rechts,1,
,xotask,xotask,dotcolour,43,3,223,523,main,negativefb,-99,average,62,0.8498883000002024,['c'],1,left,['1'],6,0.22427719999996043,,,35,18,Man,Rechts,1,
,xotask,xotask,dotcolour,44,3,224,524,main,negativefb,-99,hard,26,1.0506880000002639,['c'],0,right,['0'],1,1.2472319000003154,,,35,18,Man,Rechts,1,
,xotask,xotask,dotcolour,45,3,225,525,main,negativefb,-99,hard,53,1.5182562999998481,['c'],1,left,['8'],3,0.4729360999999699,,,35,18,Man,Rechts,1,
,xotask,xotask,dotcolour,46,3,226,526,main,negativefb,-99,easy,72,0.9179791999999907,['c'],1,left,['2'],5,0.33861990000013975,,,35,18,Man,Rechts,1,
,xotask,xotask,dotcolour,47,3,227,527,main,negativefb,-99,hard,50,0.7504653999999391,['c'],1,left,['2'],5,0.2393582999998216,,,35,18,Man,Rechts,1,
,xotask,xotask,dotcolour,48,3,228,528,main,negativefb,-99,average,17,0.7508731000002626,['c'],0,right,['2'],5,0.20095639999999548,,,35,18,Man,Rechts,1,
,xotask,xotask,dotcolour,49,3,229,529,main,negativefb,-99,hard,29,0.7513450999999804,['n'],1,right,['2'],5,0.19614520000004632,,,35,18,Man,Rechts,1,
,xotask,xotask,dotcolour,50,3,230,530,main,negativefb,-99,hard,27,2.3508562000001803,['n'],1,right,['3'],4,0.4548854999998184,,,35,18,Man,Rechts,1,
,xotask,xotask,dotcolour,51,3,231,531,main,negativefb,-99,easy,72,1.0506542999996782,['c'],1,left,['3'],4,0.30827680000038526,,,35,18,Man,Rechts,1,
,xotask,xotask,dotcolour,52,3,232,532,main,negativefb,-99,hard,25,0.6667686999999205,['c'],0,right,['3'],4,0.3983301999996911,,,35,18,Man,Rechts,1,
,xotask,xotask,dotcolour,53,3,233,533,main,negativefb,-99,hard,27,1.467744699999912,['n'],1,right,['2'],5,0.2766831999997521,,,35,18,Man,Rechts,1,
,xotask,xotask,dotcolour,54,3,234,534,main,negativefb,-99,easy,9,0.5838370000001305,['n'],1,right,['2'],5,0.23560029999998733,,,35,18,Man,Rechts,1,
,xotask,xotask,dotcolour,55,3,235,535,main,negativefb,-99,average,16,0.5515374999999949,['n'],1,right,['1'],6,0.2039862000001449,,,35,18,Man,Rechts,1,
,xotask,xotask,dotcolour,56,3,236,536,main,negativefb,-99,average,19,0.7670255999996698,['n'],1,right,['2'],5,0.2065981999999167,,,35,18,Man,Rechts,1,
,xotask,xotask,dotcolour,57,3,237,537,main,negativefb,-99,easy,72,1.032899499999985,['c'],1,left,['3'],4,0.7813829000001533,,,35,18,Man,Rechts,1,
,xotask,xotask,dotcolour,58,3,238,538,main,negativefb,-99,easy,70,0.7665742999997747,['c'],1,left,['1'],6,0.2483767999997326,,,35,18,Man,Rechts,1,
,xotask,xotask,dotcolour,59,3,239,539,main,negativefb,-99,easy,5,1.018193799999608,['n'],1,right,['2'],5,0.8866770999998153,,,35,18,Man,Rechts,1,
,xotask,xotask,dotcolour,0,4,240,540,main,negativefb,-99,average,62,1.0339883999999984,['c'],1,left,['2'],5,0.24480290000019522,,,35,18,Man,Rechts,1,
,xotask,xotask,dotcolour,1,4,241,541,main,negativefb,-99,easy,70,0.7169881999998324,['c'],1,left,['2'],5,0.20008499999994456,,,35,18,Man,Rechts,1,
,xotask,xotask,dotcolour,2,4,242,542,main,negativefb,-99,easy,70,0.5843490000002021,['c'],1,left,['2'],5,0.20888440000044284,,,35,18,Man,Rechts,1,
,xotask,xotask,dotcolour,3,4,243,543,main,negativefb,-99,hard,50,0.5847631999999976,['c'],1,left,['2'],5,0.20272020000038538,,,35,18,Man,Rechts,1,
,xotask,xotask,dotcolour,4,4,244,544,main,negativefb,-99,hard,28,0.6170223999997688,['c'],0,right,['2'],5,0.22700850000001083,,,35,18,Man,Rechts,1,
,xotask,xotask,dotcolour,5,4,245,545,main,negativefb,-99,easy,7,0.7009717999999339,['n'],1,right,['3'],4,0.2866686000002119,,,35,18,Man,Rechts,1,
,xotask,xotask,dotcolour,6,4,246,546,main,negativefb,-99,average,19,0.7503512999996929,['n'],1,right,['2'],5,0.2379521000002569,,,35,18,Man,Rechts,1,
,xotask,xotask,dotcolour,7,4,247,547,main,negativefb,-99,hard,25,0.6341312999998081,['n'],1,right,['2'],5,0.24442880000015066,,,35,18,Man,Rechts,1,
,xotask,xotask,dotcolour,8,4,248,548,main,negativefb,-99,average,64,0.6679662999999891,['n'],0,left,['2'],5,0.2808823999998822,,,35,18,Man,Rechts,1,
,xotask,xotask,dotcolour,9,4,249,549,main,negativefb,-99,hard,28,0.6843798999998398,['n'],1,right,['2'],5,0.2676638999996612,,,35,18,Man,Rechts,1,
,xotask,xotask,dotcolour,10,4,250,550,main,negativefb,-99,average,60,1.517784600000141,['c'],1,left,['2'],5,0.27738070000032167,,,35,18,Man,Rechts,1,
,xotask,xotask,dotcolour,11,4,251,551,main,negativefb,-99,easy,71,0.8833369999997558,['c'],1,left,['2'],5,0.24699379999992743,,,35,18,Man,Rechts,1,
,xotask,xotask,dotcolour,12,4,252,552,main,negativefb,-99,hard,54,0.9012097999998332,['c'],1,left,['2'],5,0.2507297000001927,,,35,18,Man,Rechts,1,
,xotask,xotask,dotcolour,13,4,253,553,main,negativefb,-99,hard,25,0.8343624000003729,['c'],0,right,['2'],5,0.28006609999965804,,,35,18,Man,Rechts,1,
,xotask,xotask,dotcolour,14,4,254,554,main,negativefb,-99,easy,8,1.4673140999998395,['c'],0,right,['3'],4,0.5162159000001338,,,35,18,Man,Rechts,1,
,xotask,xotask,dotcolour,15,4,255,555,main,negativefb,-99,average,18,0.8336347999997997,['c'],0,right,['3'],4,0.3017871000001833,,,35,18,Man,Rechts,1,
,xotask,xotask,dotcolour,16,4,256,556,main,negativefb,-99,average,62,3.417786999999862,['n'],0,left,['3'],4,0.4179129999997713,,,35,18,Man,Rechts,1,
,xotask,xotask,dotcolour,17,4,257,557,main,negativefb,-99,hard,51,0.9332448000000113,['c'],1,left,['3'],4,0.38967330000014044,,,35,18,Man,Rechts,1,
,xotask,xotask,dotcolour,18,4,258,558,main,negativefb,-99,average,17,0.8844110000000001,['n'],1,right,['3'],4,0.2838689999998678,,,35,18,Man,Rechts,1,
,xotask,xotask,dotcolour,19,4,259,559,main,negativefb,-99,average,61,6.050681499999882,['c'],1,left,['8'],3,1.911138899999969,,,35,18,Man,Rechts,1,
,xotask,xotask,dotcolour,20,4,260,560,main,negativefb,-99,easy,5,1.3335191999999552,['n'],1,right,['2'],5,0.28693189999967217,,,35,18,Man,Rechts,1,
,xotask,xotask,dotcolour,21,4,261,561,main,negativefb,-99,easy,73,1.0665917000001173,['c'],1,left,['2'],5,0.2646900999998252,,,35,18,Man,Rechts,1,
,xotask,xotask,dotcolour,22,4,262,562,main,negativefb,-99,average,61,0.6341020999998364,['n'],0,left,['2'],5,0.20546669999976075,,,35,18,Man,Rechts,1,
,xotask,xotask,dotcolour,23,4,263,563,main,negativefb,-99,easy,7,0.7174184999998943,['n'],1,right,['1'],6,0.33835750000025655,,,35,18,Man,Rechts,1,
,xotask,xotask,dotcolour,24,4,264,564,main,negativefb,-99,average,63,1.0668418000000202,['c'],1,left,['2'],5,0.3863424999999552,,,35,18,Man,Rechts,1,
,xotask,xotask,dotcolour,25,4,265,565,main,negativefb,-99,easy,70,0.8688038999998753,['c'],1,left,['2'],5,0.26620839999986856,,,35,18,Man,Rechts,1,
,xotask,xotask,dotcolour,26,4,266,566,main,negativefb,-99,easy,6,0.699754700000085,['n'],1,right,['2'],5,0.2596564999998918,,,35,18,Man,Rechts,1,
,xotask,xotask,dotcolour,27,4,267,567,main,negativefb,-99,easy,71,1.2662241999996695,['c'],1,left,['2'],5,0.21543320000000676,,,35,18,Man,Rechts,1,
,xotask,xotask,dotcolour,28,4,268,568,main,negativefb,-99,easy,6,0.617913199999748,['n'],1,right,['2'],5,0.239133000000038,,,35,18,Man,Rechts,1,
,xotask,xotask,dotcolour,29,4,269,569,main,negativefb,-99,hard,29,0.834010699999908,['n'],1,right,['2'],5,0.22082430000000386,,,35,18,Man,Rechts,1,
,xotask,xotask,dotcolour,30,4,270,570,main,negativefb,-99,hard,53,0.5008784000001469,['n'],0,left,['2'],5,0.23339789999999994,,,35,18,Man,Rechts,1,
,xotask,xotask,dotcolour,31,4,271,571,main,negativefb,-99,easy,7,0.5180309000002126,['n'],1,right,['2'],5,0.23519319999968502,,,35,18,Man,Rechts,1,
,xotask,xotask,dotcolour,32,4,272,572,main,negativefb,-99,easy,70,0.7342512999998689,['c'],1,left,['2'],5,0.2051472000002832,,,35,18,Man,Rechts,1,
,xotask,xotask,dotcolour,33,4,273,573,main,negativefb,-99,average,15,0.6001283000000512,['n'],1,right,['2'],5,0.22191820000034568,,,35,18,Man,Rechts,1,
,xotask,xotask,dotcolour,34,4,274,574,main,negativefb,-99,average,64,0.8016837000000123,['c'],1,left,['2'],5,0.23807440000018687,,,35,18,Man,Rechts,1,
,xotask,xotask,dotcolour,35,4,275,575,main,negativefb,-99,easy,74,1.0344169999998485,['c'],1,left,['2'],5,0.21223420000023907,,,35,18,Man,Rechts,1,
,xotask,xotask,dotcolour,36,4,276,576,main,negativefb,-99,average,62,0.8004034000000502,['c'],1,left,['2'],5,0.2612467999997534,,,35,18,Man,Rechts,1,
,xotask,xotask,dotcolour,37,4,277,577,main,negativefb,-99,average,15,0.783229399999982,['n'],1,right,['2'],5,0.28416050000032556,,,35,18,Man,Rechts,1,
,xotask,xotask,dotcolour,38,4,278,578,main,negativefb,-99,average,17,0.7339339999998629,['n'],1,right,['2'],5,0.26046509999969203,,,35,18,Man,Rechts,1,
,xotask,xotask,dotcolour,39,4,279,579,main,negativefb,-99,hard,52,0.7184198999998443,['n'],0,left,['3'],4,0.22259100000019316,,,35,18,Man,Rechts,1,
,xotask,xotask,dotcolour,40,4,280,580,main,negativefb,-99,average,16,0.7844767999999931,['n'],1,right,['3'],4,0.25562760000002527,,,35,18,Man,Rechts,1,
,xotask,xotask,dotcolour,41,4,281,581,main,negativefb,-99,average,16,0.8343950999997105,['n'],1,right,['2'],5,0.2519391999999243,,,35,18,Man,Rechts,1,
,xotask,xotask,dotcolour,42,4,282,582,main,negativefb,-99,easy,71,0.6834451999998237,['n'],0,left,['0'],1,1.6969459000001734,,,35,18,Man,Rechts,1,
,xotask,xotask,dotcolour,43,4,283,583,main,negativefb,-99,easy,5,0.9169801000002735,['n'],1,right,['1'],6,0.176299900000231,,,35,18,Man,Rechts,1,
,xotask,xotask,dotcolour,44,4,284,584,main,negativefb,-99,average,19,0.7178090000002157,['n'],1,right,['1'],6,0.1823351999996703,,,35,18,Man,Rechts,1,
,xotask,xotask,dotcolour,45,4,285,585,main,negativefb,-99,hard,27,1.1336316000001716,['c'],0,right,['3'],4,0.27413360000036846,,,35,18,Man,Rechts,1,
,xotask,xotask,dotcolour,46,4,286,586,main,negativefb,-99,hard,54,0.9162789000001794,['c'],1,left,['3'],4,0.23563199999989592,,,35,18,Man,Rechts,1,
,xotask,xotask,dotcolour,47,4,287,587,main,negativefb,-99,average,60,0.7838661000000684,['c'],1,left,['3'],4,0.2598220999998375,,,35,18,Man,Rechts,1,
,xotask,xotask,dotcolour,48,4,288,588,main,negativefb,-99,hard,54,0.7670259999999871,['c'],1,left,['3'],4,0.28404509999973016,,,35,18,Man,Rechts,1,
,xotask,xotask,dotcolour,49,4,289,589,main,negativefb,-99,hard,28,0.7509476000000177,['c'],0,right,['3'],4,0.23516200000040044,,,35,18,Man,Rechts,1,
,xotask,xotask,dotcolour,50,4,290,590,main,negativefb,-99,hard,52,0.751139499999681,['c'],1,left,['3'],4,0.8446080999997321,,,35,18,Man,Rechts,1,
,xotask,xotask,dotcolour,51,4,291,591,main,negativefb,-99,hard,25,0.866705699999784,['c'],0,right,['3'],4,0.24072390000037558,,,35,18,Man,Rechts,1,
,xotask,xotask,dotcolour,52,4,292,592,main,negativefb,-99,average,17,0.7681586999997307,['c'],0,right,['3'],4,0.17775110000002314,,,35,18,Man,Rechts,1,
,xotask,xotask,dotcolour,53,4,293,593,main,negativefb,-99,easy,71,0.85018029999992,['c'],1,left,['2'],5,2.1469867999999224,,,35,18,Man,Rechts,1,
,xotask,xotask,dotcolour,54,4,294,594,main,negativefb,-99,easy,7,0.8337791999997535,['n'],1,right,['1'],6,0.2841551999999865,,,35,18,Man,Rechts,1,
,xotask,xotask,dotcolour,55,4,295,595,main,negativefb,-99,hard,53,1.1166284000000815,['c'],1,left,['3'],4,0.8848060999998779,,,35,18,Man,Rechts,1,
,xotask,xotask,dotcolour,56,4,296,596,main,negativefb,-99,hard,28,1.0840143999998872,['c'],0,right,['2'],5,0.4386174999999639,,,35,18,Man,Rechts,1,
,xotask,xotask,dotcolour,57,4,297,597,main,negativefb,-99,hard,53,1.2848951999999372,['c'],1,left,['3'],4,0.48384729999997944,,,35,18,Man,Rechts,1,
,xotask,xotask,dotcolour,58,4,298,598,main,negativefb,-99,easy,9,0.9334383000000344,['n'],1,right,['1'],6,0.18687850000014805,,,35,18,Man,Rechts,1,
,xotask,xotask,dotcolour,59,4,299,599,main,negativefb,-99,hard,29,1.0004493000001276,['c'],0,right,['2'],5,0.3167142000002059,,,35,18,Man,Rechts,1,
,xotask,xotask,dotcolour,0,0,0,600,training,negativefb,75,hard,50,0.9513925999999628,['c'],1,left,['3'],4,0.09502310000016223,,,35,18,Man,Rechts,1,
,xotask,xotask,dotcolour,1,0,1,601,training,negativefb,41,easy,70,0.23272189999988768,['n'],0,left,['3'],4,0.058298699999795645,,,35,18,Man,Rechts,1,
,xotask,xotask,dotcolour,2,0,2,602,training,negativefb,45,easy,72,0.5492976999998973,['c'],1,left,['3'],4,0.06631370000013703,,,35,18,Man,Rechts,1,
,xotask,xotask,dotcolour,3,0,3,603,training,negativefb,50,average,15,0.6498778999998649,['n'],1,right,['2'],5,0.18178620000026058,,,35,18,Man,Rechts,1,
,xotask,xotask,dotcolour,4,0,4,604,training,negativefb,49,hard,52,0.7663170999999238,['c'],1,left,['2'],5,0.1522955999998885,,,35,18,Man,Rechts,1,
,xotask,xotask,dotcolour,5,0,5,605,training,negativefb,55,easy,9,0.4509468999999626,['n'],1,right,['2'],5,0.15234129999998913,,,35,18,Man,Rechts,1,
,xotask,xotask,dotcolour,6,0,6,606,training,negativefb,63,hard,54,0.3998842999999397,['c'],1,left,['2'],5,0.10638760000028924,,,35,18,Man,Rechts,1,
,xotask,xotask,dotcolour,7,0,7,607,training,negativefb,84,hard,51,0.2664644000001317,['c'],1,left,['2'],5,0.052081599999837636,,,35,18,Man,Rechts,1,
,xotask,xotask,dotcolour,8,0,8,608,training,negativefb,69,average,17,0.3165846000001693,['n'],1,right,['2'],5,0.06953770000018267,,,35,18,Man,Rechts,1,
,xotask,xotask,dotcolour,9,0,9,609,training,negativefb,50,average,17,0.3670240000001286,['c'],0,right,['2'],5,0.12392989999989368,,,35,18,Man,Rechts,1,
,xotask,xotask,dotcolour,10,0,10,610,training,negativefb,78,average,61,0.5335586999999578,['c'],1,left,['2'],5,0.130286900000101,,,35,18,Man,Rechts,1,
,xotask,xotask,dotcolour,11,0,11,611,training,negativefb,65,easy,5,0.43357289999994464,['n'],1,right,['2'],5,0.13975459999983286,,,35,18,Man,Rechts,1,
,xotask,xotask,dotcolour,12,0,12,612,training,negativefb,64,average,61,0.5840845000002446,['c'],1,left,['2'],5,0.04702930000030392,,,35,18,Man,Rechts,1,
,xotask,xotask,dotcolour,13,0,13,613,training,negativefb,54,average,62,0.6842059000000518,['c'],1,left,['2'],5,0.12318259999983638,,,35,18,Man,Rechts,1,
,xotask,xotask,dotcolour,14,0,14,614,training,negativefb,71,easy,71,0.6832730999999512,['c'],1,left,['2'],5,0.123205599999892,,,35,18,Man,Rechts,1,
,xotask,xotask,dotcolour,15,0,15,615,training,negativefb,89,easy,5,0.5669225999999981,['n'],1,right,['2'],5,0.1356871000002684,,,35,18,Man,Rechts,1,
,xotask,xotask,dotcolour,16,0,16,616,training,negativefb,58,hard,28,0.883545299999696,['c'],0,right,['2'],5,0.1749777999998514,,,35,18,Man,Rechts,1,
,xotask,xotask,dotcolour,17,0,17,617,training,negativefb,64,average,16,0.266277799999898,['c'],0,right,['2'],5,0.029369100000167236,,,35,18,Man,Rechts,1,
,xotask,xotask,dotcolour,18,0,18,618,training,negativefb,18,average,62,1.650463899999977,['n'],0,left,['2'],5,0.6671664999998939,,,35,18,Man,Rechts,1,
,xotask,xotask,dotcolour,19,0,19,619,training,negativefb,90,easy,71,0.5680910999999469,['c'],1,left,['2'],5,0.13784820000000764,,,35,18,Man,Rechts,1,
,xotask,xotask,dotcolour,20,0,20,620,training,negativefb,65,hard,28,0.6005079999999907,['n'],1,right,['2'],5,0.21248900000000503,,,35,18,Man,Rechts,1,
,xotask,xotask,dotcolour,21,0,21,621,training,negativefb,89,easy,72,0.583433100000093,['c'],1,left,['2'],5,0.12557070000002568,,,35,18,Man,Rechts,1,
,xotask,xotask,dotcolour,22,0,22,622,training,negativefb,42,average,61,0.7827450999998291,['n'],0,left,['2'],5,0.20949209999980667,,,35,18,Man,Rechts,1,
,xotask,xotask,dotcolour,23,0,23,623,training,negativefb,40,hard,28,0.53333369999973,['n'],1,right,['2'],5,0.15538270000024568,,,35,18,Man,Rechts,1,
,xotask,xotask,dotcolour,24,0,24,624,training,negativefb,77,hard,28,0.5675600999998096,['n'],1,right,['1'],6,0.19160250000004453,,,35,18,Man,Rechts,1,
,xotask,xotask,dotcolour,25,0,25,625,training,negativefb,47,average,61,1.2003129999998237,['c'],1,left,['2'],5,0.2077994999999646,,,35,18,Man,Rechts,1,
,xotask,xotask,dotcolour,26,0,26,626,training,negativefb,87,average,17,0.36654889999999796,['c'],0,right,['2'],5,0.2415035000003627,,,35,18,Man,Rechts,1,
,xotask,xotask,dotcolour,27,0,27,627,training,negativefb,25,easy,70,0.7160751999999775,['n'],0,left,['2'],5,0.21172680000017863,,,35,18,Man,Rechts,1,
,xotask,xotask,dotcolour,28,0,28,628,training,negativefb,85,hard,54,0.4843218999999408,['c'],1,left,['2'],5,0.2157922999999755,,,35,18,Man,Rechts,1,
,xotask,xotask,dotcolour,29,0,29,629,training,negativefb,57,easy,71,0.4666559000002053,['c'],1,left,['2'],5,0.2606028000000151,,,35,18,Man,Rechts,1,
,xotask,xotask,dotcolour,30,0,30,630,training,negativefb,45,average,17,1.3008449000003566,['c'],0,right,['9'],2,0.19876310000017838,,,35,18,Man,Rechts,1,
,xotask,xotask,dotcolour,31,0,31,631,training,negativefb,81,easy,73,1.732936299999892,['c'],1,left,['2'],5,0.45005700000001525,,,35,18,Man,Rechts,1,
,xotask,xotask,dotcolour,32,0,32,632,training,negativefb,20,hard,52,0.716163399999914,['n'],0,left,['2'],5,0.23575739999978396,,,35,18,Man,Rechts,1,
,xotask,xotask,dotcolour,33,0,33,633,training,negativefb,64,hard,29,0.4502493999998478,['n'],1,right,['2'],5,0.24860129999979108,,,35,18,Man,Rechts,1,
,xotask,xotask,dotcolour,34,0,34,634,training,negativefb,82,average,18,0.2839403000002676,['n'],1,right,['2'],5,0.26771710000002713,,,35,18,Man,Rechts,1,
,xotask,xotask,dotcolour,35,0,35,635,training,negativefb,61,hard,26,0.5003360999999131,['n'],1,right,['3'],4,0.5493544999999358,,,35,18,Man,Rechts,1,
,xotask,xotask,dotcolour,36,0,36,636,training,negativefb,11,average,62,0.3487893999999869,['n'],0,left,['2'],5,0.2811326999999437,,,35,18,Man,Rechts,1,
,xotask,xotask,dotcolour,37,0,37,637,training,negativefb,21,easy,70,0.4496396999998069,['n'],0,left,['2'],5,0.4527364000000489,,,35,18,Man,Rechts,1,
,xotask,xotask,dotcolour,38,0,38,638,training,negativefb,81,easy,7,0.7834648999996716,['n'],1,right,['2'],5,2.619160799999918,,,35,18,Man,Rechts,1,
,xotask,xotask,dotcolour,39,0,39,639,training,negativefb,20,hard,29,0.5831278000000566,['n'],1,right,['2'],5,0.24358059999985926,,,35,18,Man,Rechts,1,
,xotask,xotask,dotcolour,40,0,40,640,training,negativefb,78,average,18,0.5662080000001879,['n'],1,right,['2'],5,0.21901160000015807,,,35,18,Man,Rechts,1,
,xotask,xotask,dotcolour,41,0,41,641,training,negativefb,87,easy,8,0.5997557000000597,['n'],1,right,['2'],5,0.19412320000037653,,,35,18,Man,Rechts,1,
,xotask,xotask,dotcolour,42,0,42,642,training,negativefb,56,easy,8,0.5333515999996052,['n'],1,right,['1'],6,0.2935722000001988,,,35,18,Man,Rechts,1,
,xotask,xotask,dotcolour,43,0,43,643,training,negativefb,60,hard,50,0.4983692000000701,['n'],0,left,['2'],5,0.28621720000001005,,,35,18,Man,Rechts,1,
,xotask,xotask,dotcolour,44,0,44,644,training,negativefb,81,average,16,0.16479209999988598,['n'],1,right,['2'],5,0.10783289999972112,,,35,18,Man,Rechts,1,
,xotask,xotask,dotcolour,45,0,45,645,training,negativefb,86,easy,5,0.33292819999996937,['n'],1,right,['2'],5,0.19431319999966945,,,35,18,Man,Rechts,1,
,xotask,xotask,dotcolour,46,0,46,646,training,negativefb,47,easy,6,0.40071160000024975,['n'],1,right,['2'],5,0.20325540000021647,,,35,18,Man,Rechts,1,
,xotask,xotask,dotcolour,47,0,47,647,training,negativefb,32,average,63,0.4335782999996809,['n'],0,left,['2'],5,0.13721850000001723,,,35,18,Man,Rechts,1,
,xotask,xotask,dotcolour,48,0,48,648,training,negativefb,79,easy,6,0.26599860000033004,['n'],1,right,['2'],5,0.23382979999996678,,,35,18,Man,Rechts,1,
,xotask,xotask,dotcolour,49,0,49,649,training,negativefb,60,hard,52,0.31620790000033594,['n'],0,left,['2'],5,0.17958709999993516,,,35,18,Man,Rechts,1,
,xotask,xotask,dotcolour,50,0,50,650,training,negativefb,50,hard,54,0.7818898999998964,['n'],0,left,['2'],5,0.2692935000000034,,,35,18,Man,Rechts,1,
,xotask,xotask,dotcolour,51,0,51,651,training,negativefb,41,easy,74,0.29860939999980474,['n'],0,left,['2'],5,0.15884390000019266,,,35,18,Man,Rechts,1,
,xotask,xotask,dotcolour,52,0,52,652,training,negativefb,41,hard,29,0.8508969999998044,['n'],1,right,['1'],6,0.27896270000019285,,,35,18,Man,Rechts,1,
,xotask,xotask,dotcolour,53,0,53,653,training,negativefb,47,hard,51,0.5005707999998776,['n'],0,left,['3'],4,0.21651799999972354,,,35,18,Man,Rechts,1,
,xotask,xotask,dotcolour,54,0,54,654,training,negativefb,35,hard,25,0.4502735000000939,['c'],0,right,['3'],4,0.14134169999988444,,,35,18,Man,Rechts,1,
,xotask,xotask,dotcolour,55,0,55,655,training,negativefb,17,average,63,0.416893600000094,['n'],0,left,['3'],4,0.2159934000001158,,,35,18,Man,Rechts,1,
,xotask,xotask,dotcolour,56,0,56,656,training,negativefb,60,average,17,0.7500371000000996,['n'],1,right,['3'],4,0.3290277999999489,,,35,18,Man,Rechts,1,
,xotask,xotask,dotcolour,57,0,57,657,training,negativefb,90,hard,29,0.51676660000021,['n'],1,right,['3'],4,0.27158390000022337,,,35,18,Man,Rechts,1,
,xotask,xotask,dotcolour,58,0,58,658,training,negativefb,31,easy,5,0.8658359000000928,['n'],1,right,['1'],6,0.23504639999964638,,,35,18,Man,Rechts,1,
,xotask,xotask,dotcolour,59,0,59,659,training,negativefb,75,average,62,1.9657379999998739,['n'],0,left,['2'],5,0.31483990000015183,,,35,18,Man,Rechts,1,
,xotask,xotask,dotcolour,0,1,60,660,training,negativefb,68,easy,72,1.033974500000113,['c'],1,left,['2'],5,0.12260999999989508,,,35,18,Man,Rechts,1,
,xotask,xotask,dotcolour,1,1,61,661,training,negativefb,83,hard,50,0.6829171999997925,['c'],1,left,['1'],6,0.12256090000028053,,,35,18,Man,Rechts,1,
,xotask,xotask,dotcolour,2,1,62,662,training,negativefb,75,easy,72,0.24975769999991826,['c'],1,left,['2'],5,0.17987089999996897,,,35,18,Man,Rechts,1,
,xotask,xotask,dotcolour,3,1,63,663,training,negativefb,84,average,60,0.33489730000019335,['c'],1,left,['2'],5,0.1928179999999884,,,35,18,Man,Rechts,1,
,xotask,xotask,dotcolour,4,1,64,664,training,negativefb,21,hard,28,0.35049739999976737,['c'],0,right,['2'],5,0.17981849999978294,,,35,18,Man,Rechts,1,
