starttime,task,fbtask,firsttask,withinblocktrial,block,withintasktrial,trial,running,feedback,fbscore,difflevel,n_xes,rt,resp,cor,cresp,conf_press,cj,RTconf,reddots,stoptime,sub,age,gender,handedness,session,
1714719896,xotask,xotask,dotcolour,0,0,0,0,training,negativefb,3,easy,72,2.0011544000001322,['n'],0,left,['8'],3,4.948367599999983,,,3,19,Man,Rechts,1,
,xotask,xotask,dotcolour,1,0,1,1,training,negativefb,91,hard,27,3.8508974999999737,['n'],1,right,['3'],4,3.7552976000001763,,,3,19,Man,Rechts,1,
,xotask,xotask,dotcolour,2,0,2,2,training,negativefb,82,average,60,3.9672998999999436,['c'],1,left,['2'],5,2.4532182000000375,,,3,19,Man,Rechts,1,
,xotask,xotask,dotcolour,3,0,3,3,training,negativefb,73,hard,52,5.818874600000072,['n'],0,left,['9'],2,1.1690249999999196,,,3,19,Man,Rechts,1,
,xotask,xotask,dotcolour,4,0,4,4,training,negativefb,41,average,18,1.9666340999999647,['n'],1,right,['2'],5,1.2524842000000262,,,3,19,Man,Rechts,1,
,xotask,xotask,dotcolour,5,0,5,5,training,negativefb,92,easy,72,1.600715399999899,['c'],1,left,['3'],4,1.5622319999999945,,,3,19,Man,Rechts,1,
,xotask,xotask,dotcolour,6,0,6,6,training,negativefb,99,average,19,1.8501648999999816,['n'],1,right,['3'],4,3.161148199999843,,,3,19,Man,Rechts,1,
,xotask,xotask,dotcolour,7,0,7,7,training,negativefb,83,average,61,2.100858300000027,['c'],1,left,['2'],5,1.1905515000000833,,,3,19,Man,Rechts,1,
,xotask,xotask,dotcolour,8,0,8,8,training,negativefb,39,average,64,1.6000769999998283,['c'],1,left,['2'],5,1.0880264999998417,,,3,19,Man,Rechts,1,
,xotask,xotask,dotcolour,9,0,9,9,training,negativefb,60,hard,26,1.1324516999998195,['n'],1,right,['9'],2,1.0315625999999156,,,3,19,Man,Rechts,1,
,xotask,xotask,dotcolour,10,0,10,10,training,negativefb,93,hard,26,1.9158617999999024,['n'],1,right,['8'],3,4.234086499999876,,,3,19,Man,Rechts,1,
,xotask,xotask,dotcolour,11,0,11,11,training,negativefb,98,average,62,3.600831999999855,['c'],1,left,['2'],5,3.086560899999995,,,3,19,Man,Rechts,1,
,xotask,xotask,dotcolour,12,0,12,12,training,negativefb,79,hard,52,1.882307899999887,['c'],1,left,['2'],5,1.2801838999998836,,,3,19,Man,Rechts,1,
,xotask,xotask,dotcolour,13,0,13,13,training,negativefb,97,average,16,0.7832194999998592,['n'],1,right,['1'],6,3.5340221999999812,,,3,19,Man,Rechts,1,
,xotask,xotask,dotcolour,14,0,14,14,training,negativefb,67,easy,9,1.1987652000000253,['n'],1,right,['1'],6,0.6961315999999442,,,3,19,Man,Rechts,1,
,xotask,xotask,dotcolour,15,0,15,15,training,negativefb,96,easy,9,0.9498226000000614,['n'],1,right,['1'],6,0.6699142999998458,,,3,19,Man,Rechts,1,
,xotask,xotask,dotcolour,16,0,16,16,training,negativefb,87,hard,54,1.2675292000001264,['c'],1,left,['3'],4,1.424788400000125,,,3,19,Man,Rechts,1,
,xotask,xotask,dotcolour,17,0,17,17,training,negativefb,83,hard,52,1.1005244999998922,['c'],1,left,['3'],4,0.7802656999999726,,,3,19,Man,Rechts,1,
,xotask,xotask,dotcolour,18,0,18,18,training,negativefb,87,average,60,3.3507928999999876,['c'],1,left,['3'],4,0.9996768999999404,,,3,19,Man,Rechts,1,
,xotask,xotask,dotcolour,19,0,19,19,training,negativefb,60,average,60,0.9164957999998933,['c'],1,left,['2'],5,0.8267581000000064,,,3,19,Man,Rechts,1,
,xotask,xotask,dotcolour,20,0,20,20,training,negativefb,47,hard,54,1.2342866999999842,['n'],0,left,['3'],4,1.0090649999999641,,,3,19,Man,Rechts,1,
,xotask,xotask,dotcolour,21,0,21,21,training,negativefb,89,average,62,1.4007845000000998,['c'],1,left,['2'],5,1.145229400000062,,,3,19,Man,Rechts,1,
,xotask,xotask,dotcolour,22,0,22,22,training,negativefb,88,hard,25,2.117036999999982,['n'],1,right,['3'],4,3.6154716999999437,,,3,19,Man,Rechts,1,
,xotask,xotask,dotcolour,23,0,23,23,training,negativefb,92,easy,7,1.2674126000001706,['n'],1,right,['2'],5,0.6112166000000343,,,3,19,Man,Rechts,1,
,xotask,xotask,dotcolour,24,0,24,24,training,negativefb,53,easy,71,0.8840276999999332,['c'],1,left,['2'],5,0.52826529999993,,,3,19,Man,Rechts,1,
,xotask,xotask,dotcolour,25,0,25,25,training,negativefb,95,easy,74,0.8499333999998271,['c'],1,left,['1'],6,0.7931467999999313,,,3,19,Man,Rechts,1,
,xotask,xotask,dotcolour,26,0,26,26,training,negativefb,32,hard,29,0.9842565999999806,['n'],1,right,['3'],4,0.9308183000000554,,,3,19,Man,Rechts,1,
,xotask,xotask,dotcolour,27,0,27,27,training,negativefb,24,average,19,2.200245700000096,['c'],0,right,['2'],5,0.7654639000002135,,,3,19,Man,Rechts,1,
,xotask,xotask,dotcolour,28,0,28,28,training,negativefb,90,average,17,2.5333701999998084,['n'],1,right,['1'],6,0.8502183000000514,,,3,19,Man,Rechts,1,
,xotask,xotask,dotcolour,29,0,29,29,training,negativefb,3,easy,7,1.0332700999999815,['c'],0,right,['0'],1,3.7185612000000674,,,3,19,Man,Rechts,1,
,xotask,xotask,dotcolour,30,0,30,30,training,negativefb,85,average,16,3.151550499999985,['n'],1,right,['2'],5,1.211227400000098,,,3,19,Man,Rechts,1,
,xotask,xotask,dotcolour,31,0,31,31,training,negativefb,34,hard,28,1.234391100000039,['c'],0,right,['2'],5,1.2575274999999237,,,3,19,Man,Rechts,1,
,xotask,xotask,dotcolour,32,0,32,32,training,negativefb,88,easy,72,2.367471400000113,['c'],1,left,['2'],5,1.2971101999999064,,,3,19,Man,Rechts,1,
,xotask,xotask,dotcolour,33,0,33,33,training,negativefb,84,easy,8,0.7670109999999113,['n'],1,right,['1'],6,0.6312640000001011,,,3,19,Man,Rechts,1,
,xotask,xotask,dotcolour,34,0,34,34,training,negativefb,70,average,63,1.067404500000066,['c'],1,left,['3'],4,0.6271487999999863,,,3,19,Man,Rechts,1,
,xotask,xotask,dotcolour,35,0,35,35,training,negativefb,63,easy,5,1.1500872999999956,['n'],1,right,['1'],6,0.7084003999998458,,,3,19,Man,Rechts,1,
,xotask,xotask,dotcolour,36,0,36,36,training,negativefb,73,average,64,1.2847219999998742,['c'],1,left,['2'],5,1.8686110999999528,,,3,19,Man,Rechts,1,
,xotask,xotask,dotcolour,37,0,37,37,training,negativefb,85,average,18,1.4337256999999681,['n'],1,right,['1'],6,2.6004679000000124,,,3,19,Man,Rechts,1,
,xotask,xotask,dotcolour,38,0,38,38,training,negativefb,90,easy,8,0.9680353999999625,['n'],1,right,['1'],6,0.31277829999999085,,,3,19,Man,Rechts,1,
,xotask,xotask,dotcolour,39,0,39,39,training,negativefb,63,easy,71,0.7670855999999731,['c'],1,left,['1'],6,0.3182889999998224,,,3,19,Man,Rechts,1,
,xotask,xotask,dotcolour,40,0,40,40,training,negativefb,82,hard,25,2.1003928000000087,['n'],1,right,['3'],4,1.1578163000001496,,,3,19,Man,Rechts,1,
,xotask,xotask,dotcolour,41,0,41,41,training,negativefb,83,average,62,1.033035899999959,['c'],1,left,['2'],5,0.7590859000001728,,,3,19,Man,Rechts,1,
,xotask,xotask,dotcolour,42,0,42,42,training,negativefb,94,easy,71,1.1494027000001097,['c'],1,left,['2'],5,0.6669335000001411,,,3,19,Man,Rechts,1,
,xotask,xotask,dotcolour,43,0,43,43,training,negativefb,70,easy,8,1.083944499999916,['n'],1,right,['1'],6,0.7731536999999662,,,3,19,Man,Rechts,1,
,xotask,xotask,dotcolour,44,0,44,44,training,negativefb,77,easy,74,0.884337799999912,['c'],1,left,['1'],6,0.40326840000011543,,,3,19,Man,Rechts,1,
,xotask,xotask,dotcolour,45,0,45,45,training,negativefb,73,average,15,1.1334825000001274,['n'],1,right,['2'],5,0.38182959999994637,,,3,19,Man,Rechts,1,
,xotask,xotask,dotcolour,46,0,46,46,training,negativefb,81,easy,7,4.100531499999988,['n'],1,right,['1'],6,1.2585293999998157,,,3,19,Man,Rechts,1,
,xotask,xotask,dotcolour,47,0,47,47,training,negativefb,17,hard,25,1.6334102000000712,['c'],0,right,['3'],4,1.04789750000009,,,3,19,Man,Rechts,1,
,xotask,xotask,dotcolour,48,0,48,48,training,negativefb,71,hard,29,1.850453000000016,['n'],1,right,['2'],5,0.7559499999999844,,,3,19,Man,Rechts,1,
,xotask,xotask,dotcolour,49,0,49,49,training,negativefb,45,hard,53,1.8175102000000152,['c'],1,left,['1'],6,0.8215776000001824,,,3,19,Man,Rechts,1,
,xotask,xotask,dotcolour,50,0,50,50,training,negativefb,94,average,17,1.2167950000000474,['n'],1,right,['2'],5,2.388432899999998,,,3,19,Man,Rechts,1,
,xotask,xotask,dotcolour,51,0,51,51,training,negativefb,61,hard,50,3.1008160000001226,['c'],1,left,['8'],3,1.3349055000001044,,,3,19,Man,Rechts,1,
,xotask,xotask,dotcolour,52,0,52,52,training,negativefb,97,hard,53,1.966313899999932,['c'],1,left,['3'],4,2.8199388999998973,,,3,19,Man,Rechts,1,
,xotask,xotask,dotcolour,53,0,53,53,training,negativefb,50,easy,7,3.0336035999998785,['n'],1,right,['1'],6,1.0409498999999869,,,3,19,Man,Rechts,1,
,xotask,xotask,dotcolour,54,0,54,54,training,negativefb,96,easy,74,1.617037900000014,['c'],1,left,['3'],4,4.375408599999901,,,3,19,Man,Rechts,1,
,xotask,xotask,dotcolour,55,0,55,55,training,negativefb,87,easy,70,0.8172296000000188,['c'],1,left,['1'],6,0.6780284999999822,,,3,19,Man,Rechts,1,
,xotask,xotask,dotcolour,56,0,56,56,training,negativefb,62,average,17,1.0656013000000257,['n'],1,right,['3'],4,1.6489445000001979,,,3,19,Man,Rechts,1,
,xotask,xotask,dotcolour,57,0,57,57,training,negativefb,37,hard,51,2.8337455999999293,['c'],1,left,['3'],4,2.0853762000001552,,,3,19,Man,Rechts,1,
,xotask,xotask,dotcolour,58,0,58,58,training,negativefb,29,hard,53,2.2001046999998835,['n'],0,left,['8'],3,1.169296900000063,,,3,19,Man,Rechts,1,
,xotask,xotask,dotcolour,59,0,59,59,training,negativefb,12,hard,27,1.7839787999998862,['c'],0,right,['9'],2,3.3234878000000663,,,3,19,Man,Rechts,1,
,xotask,xotask,dotcolour,0,1,60,60,training,negativefb,93,hard,29,1.9671464999998989,['n'],1,right,['2'],5,2.2936349999999948,,,3,19,Man,Rechts,1,
,xotask,xotask,dotcolour,1,1,61,61,training,negativefb,48,hard,51,1.1492855000001327,['n'],0,left,['0'],1,1.2279970000001867,,,3,19,Man,Rechts,1,
,xotask,xotask,dotcolour,2,1,62,62,training,negativefb,62,hard,25,2.9673741999999947,['c'],0,right,['2'],5,1.740890299999819,,,3,19,Man,Rechts,1,
,xotask,xotask,dotcolour,3,1,63,63,training,negativefb,54,hard,52,2.567832800000133,['c'],1,left,['9'],2,0.8642583000000741,,,3,19,Man,Rechts,1,
,xotask,xotask,dotcolour,4,1,64,64,training,negativefb,50,easy,73,2.733649499999956,['n'],0,left,['8'],3,1.3043539000000237,,,3,19,Man,Rechts,1,
,xotask,xotask,dotcolour,5,1,65,65,training,negativefb,63,hard,54,1.6663112999999612,['c'],1,left,['3'],4,0.6736208999998325,,,3,19,Man,Rechts,1,
,xotask,xotask,dotcolour,6,1,66,66,training,negativefb,67,average,19,3.033509100000174,['n'],1,right,['3'],4,0.9420950999999604,,,3,19,Man,Rechts,1,
,xotask,xotask,dotcolour,7,1,67,67,training,negativefb,67,average,15,3.6670172999999977,['n'],1,right,['3'],4,0.3983932000001005,,,3,19,Man,Rechts,1,
,xotask,xotask,dotcolour,8,1,68,68,training,negativefb,91,easy,8,1.0495498000000225,['n'],1,right,['1'],6,0.5800853999999163,,,3,19,Man,Rechts,1,
,xotask,xotask,dotcolour,9,1,69,69,training,negativefb,73,hard,26,1.3334411000000728,['n'],1,right,['2'],5,1.4404440999999224,,,3,19,Man,Rechts,1,
,xotask,xotask,dotcolour,10,1,70,70,training,negativefb,91,easy,72,2.6002167999999983,['c'],1,left,['3'],4,1.8949302999999418,,,3,19,Man,Rechts,1,
,xotask,xotask,dotcolour,11,1,71,71,training,negativefb,79,easy,72,1.4673159999999825,['c'],1,left,['1'],6,0.5918915999998262,,,3,19,Man,Rechts,1,
,xotask,xotask,dotcolour,12,1,72,72,training,negativefb,98,easy,7,4.566333900000018,['n'],1,right,['9'],2,1.6748881999999412,,,3,19,Man,Rechts,1,
,xotask,xotask,dotcolour,13,1,73,73,training,negativefb,91,easy,7,1.8500728999999865,['n'],1,right,['1'],6,1.4048032999999123,,,3,19,Man,Rechts,1,
,xotask,xotask,dotcolour,14,1,74,74,training,negativefb,85,hard,25,1.199606700000004,['n'],1,right,['2'],5,0.6767155000000002,,,3,19,Man,Rechts,1,
,xotask,xotask,dotcolour,15,1,75,75,training,negativefb,74,hard,50,2.649839800000109,['n'],0,left,['2'],5,0.9836049999998977,,,3,19,Man,Rechts,1,
,xotask,xotask,dotcolour,16,1,76,76,training,negativefb,50,average,15,1.216084500000079,['n'],1,right,['1'],6,0.12830950000011399,,,3,19,Man,Rechts,1,
,xotask,xotask,dotcolour,17,1,77,77,training,negativefb,90,hard,51,4.100737900000013,['n'],0,left,['3'],4,1.5358194000000367,,,3,19,Man,Rechts,1,
,xotask,xotask,dotcolour,18,1,78,78,training,negativefb,98,average,61,1.616627200000039,['c'],1,left,['2'],5,2.5133740999999645,,,3,19,Man,Rechts,1,
,xotask,xotask,dotcolour,19,1,79,79,training,negativefb,58,average,64,1.133444099999906,['c'],1,left,['1'],6,0.4628384999998616,,,3,19,Man,Rechts,1,
,xotask,xotask,dotcolour,20,1,80,80,training,negativefb,85,hard,52,1.2341189999999642,['c'],1,left,['2'],5,0.5954369000000952,,,3,19,Man,Rechts,1,
,xotask,xotask,dotcolour,21,1,81,81,training,negativefb,53,average,16,0.9507484999999178,['n'],1,right,['8'],3,1.1186154000001807,,,3,19,Man,Rechts,1,
,xotask,xotask,dotcolour,22,1,82,82,training,negativefb,77,easy,6,1.3995135999998638,['n'],1,right,['1'],6,0.34554529999991246,,,3,19,Man,Rechts,1,
,xotask,xotask,dotcolour,23,1,83,83,training,negativefb,90,easy,9,0.8675107999999909,['n'],1,right,['1'],6,0.32996659999980693,,,3,19,Man,Rechts,1,
,xotask,xotask,dotcolour,24,1,84,84,training,negativefb,62,average,18,1.4505693999999494,['n'],1,right,['1'],6,0.17126230000008036,,,3,19,Man,Rechts,1,
,xotask,xotask,dotcolour,25,1,85,85,training,negativefb,79,average,62,1.1328006999999616,['c'],1,left,['2'],5,1.215034100000139,,,3,19,Man,Rechts,1,
,xotask,xotask,dotcolour,26,1,86,86,training,negativefb,69,easy,8,0.9341517999998814,['n'],1,right,['1'],6,0.057257899999967776,,,3,19,Man,Rechts,1,
,xotask,xotask,dotcolour,27,1,87,87,training,negativefb,51,hard,26,1.3494531999999708,['n'],1,right,['1'],6,0.049093099999936385,,,3,19,Man,Rechts,1,
,xotask,xotask,dotcolour,28,1,88,88,training,negativefb,49,average,62,3.31642480000005,['c'],1,left,['8'],3,0.018801899999971283,,,3,19,Man,Rechts,1,
,xotask,xotask,dotcolour,29,1,89,89,training,negativefb,83,hard,52,4.217873300000065,['n'],0,left,['2'],5,0.8258832000001348,,,3,19,Man,Rechts,1,
,xotask,xotask,dotcolour,30,1,90,90,training,negativefb,60,hard,54,1.400639799999908,['c'],1,left,['3'],4,0.5765374999998585,,,3,19,Man,Rechts,1,
,xotask,xotask,dotcolour,31,1,91,91,training,negativefb,66,average,15,1.4504326999999648,['n'],1,right,['3'],4,1.5038050000000567,,,3,19,Man,Rechts,1,
,xotask,xotask,dotcolour,32,1,92,92,training,negativefb,58,average,16,1.5509758999999121,['n'],1,right,['2'],5,0.9099290000001474,,,3,19,Man,Rechts,1,
,xotask,xotask,dotcolour,33,1,93,93,training,negativefb,62,hard,27,0.9835665000000517,['c'],0,right,['8'],3,1.2270175000001018,,,3,19,Man,Rechts,1,
,xotask,xotask,dotcolour,34,1,94,94,training,negativefb,48,average,16,1.5336038000000372,['c'],0,right,['9'],2,2.124789899999996,,,3,19,Man,Rechts,1,
,xotask,xotask,dotcolour,35,1,95,95,training,negativefb,48,hard,51,1.3325761999999486,['c'],1,left,['2'],5,0.3948436999999103,,,3,19,Man,Rechts,1,
,xotask,xotask,dotcolour,36,1,96,96,training,negativefb,92,easy,8,1.18396759999996,['n'],1,right,['1'],6,0.8281277999999475,,,3,19,Man,Rechts,1,
,xotask,xotask,dotcolour,37,1,97,97,training,negativefb,18,easy,71,2.1995950999998968,['n'],0,left,['3'],4,0.8829669000001559,,,3,19,Man,Rechts,1,
,xotask,xotask,dotcolour,38,1,98,98,training,negativefb,93,easy,8,0.949862899999971,['n'],1,right,['1'],6,1.1459365999999136,,,3,19,Man,Rechts,1,
,xotask,xotask,dotcolour,39,1,99,99,training,negativefb,45,hard,27,1.9994168000000627,['n'],1,right,['2'],5,0.876091100000167,,,3,19,Man,Rechts,1,
,xotask,xotask,dotcolour,40,1,100,100,training,negativefb,88,easy,74,1.000787199999877,['c'],1,left,['2'],5,0.9134428999998363,,,3,19,Man,Rechts,1,
,xotask,xotask,dotcolour,41,1,101,101,training,negativefb,92,average,61,4.483600300000035,['c'],1,left,['8'],3,1.6264591999999993,,,3,19,Man,Rechts,1,
,xotask,xotask,dotcolour,42,1,102,102,training,negativefb,42,hard,54,3.099002599999949,['c'],1,left,['8'],3,4.325424800000064,,,3,19,Man,Rechts,1,
,xotask,xotask,dotcolour,43,1,103,103,training,negativefb,40,easy,8,1.4170076000000336,['n'],1,right,['1'],6,0.1747295000000122,,,3,19,Man,Rechts,1,
,xotask,xotask,dotcolour,44,1,104,104,training,negativefb,75,average,63,1.434253500000068,['c'],1,left,['1'],6,0.27040069999998195,,,3,19,Man,Rechts,1,
,xotask,xotask,dotcolour,45,1,105,105,training,negativefb,63,easy,72,2.6166430000000673,['c'],1,left,['2'],5,0.3947592999998051,,,3,19,Man,Rechts,1,
,xotask,xotask,dotcolour,46,1,106,106,training,negativefb,75,average,63,1.3497784999999567,['c'],1,left,['3'],4,0.5493101999998089,,,3,19,Man,Rechts,1,
,xotask,xotask,dotcolour,47,1,107,107,training,negativefb,80,average,19,1.4331037000001743,['n'],1,right,['2'],5,1.00694969999995,,,3,19,Man,Rechts,1,
,xotask,xotask,dotcolour,48,1,108,108,training,negativefb,93,average,64,1.9664414000001216,['c'],1,left,['3'],4,0.9118277000000035,,,3,19,Man,Rechts,1,
,xotask,xotask,dotcolour,49,1,109,109,training,negativefb,63,easy,70,0.9330124000000524,['c'],1,left,['3'],4,0.35085589999994227,,,3,19,Man,Rechts,1,
,xotask,xotask,dotcolour,50,1,110,110,training,negativefb,79,average,63,1.8163621999999577,['c'],1,left,['2'],5,0.400114799999983,,,3,19,Man,Rechts,1,
,xotask,xotask,dotcolour,51,1,111,111,training,negativefb,72,easy,74,1.0666822000000593,['c'],1,left,['2'],5,0.32525299999997515,,,3,19,Man,Rechts,1,
,xotask,xotask,dotcolour,52,1,112,112,training,negativefb,59,hard,26,0.9168426000001091,['c'],0,right,['2'],5,0.5485705000000962,,,3,19,Man,Rechts,1,
,xotask,xotask,dotcolour,53,1,113,113,training,negativefb,13,hard,26,1.300601800000095,['n'],1,right,['8'],3,0.602269299999989,,,3,19,Man,Rechts,1,
,xotask,xotask,dotcolour,54,1,114,114,training,negativefb,86,easy,71,1.5494257999998808,['c'],1,left,['2'],5,2.291842699999961,,,3,19,Man,Rechts,1,
,xotask,xotask,dotcolour,55,1,115,115,training,negativefb,64,average,62,2.4496268000000327,['n'],0,left,['8'],3,0.7099555000002056,,,3,19,Man,Rechts,1,
,xotask,xotask,dotcolour,56,1,116,116,training,negativefb,33,easy,9,3.450951000000032,['c'],0,right,['3'],4,1.3203078999999889,,,3,19,Man,Rechts,1,
,xotask,xotask,dotcolour,57,1,117,117,training,negativefb,78,easy,73,1.4666032999998606,['c'],1,left,['2'],5,1.1691604000000098,,,3,19,Man,Rechts,1,
,xotask,xotask,dotcolour,58,1,118,118,training,negativefb,64,hard,27,3.9006678000000647,['n'],1,right,['8'],3,2.782594999999901,,,3,19,Man,Rechts,1,
,xotask,xotask,dotcolour,59,1,119,119,training,negativefb,51,average,17,1.200553900000159,['n'],1,right,['1'],6,0.33447400000000016,,,3,19,Man,Rechts,1,
,dotcolour,xotask,dotcolour,0,2,120,120,main,negativefb,-99,average,,0.9832300000000487,['n'],1,right,['2'],5,1.0908693999999741,26,,3,19,Man,Rechts,1,
,dotcolour,xotask,dotcolour,1,2,121,121,main,negativefb,-99,easy,,0.9353021999997964,['n'],1,right,['1'],6,0.3134242000000995,18,,3,19,Man,Rechts,1,
,dotcolour,xotask,dotcolour,2,2,122,122,main,negativefb,-99,average,,1.1838740000000598,['c'],1,left,['1'],6,0.43169620000003306,53,,3,19,Man,Rechts,1,
,dotcolour,xotask,dotcolour,3,2,123,123,main,negativefb,-99,easy,,0.9338511999999355,['c'],1,left,['1'],6,0.2577573000000939,63,,3,19,Man,Rechts,1,
,dotcolour,xotask,dotcolour,4,2,124,124,main,negativefb,-99,hard,,2.3167060999999194,['n'],0,left,['3'],4,0.7473373000000265,41,,3,19,Man,Rechts,1,
,dotcolour,xotask,dotcolour,5,2,125,125,main,negativefb,-99,hard,,1.7190193999999792,['n'],0,left,['3'],4,0.4335792000001675,41,,3,19,Man,Rechts,1,
,dotcolour,xotask,dotcolour,6,2,126,126,main,negativefb,-99,hard,,0.8003085999998802,['n'],1,right,['2'],5,0.45788779999975304,39,,3,19,Man,Rechts,1,
,dotcolour,xotask,dotcolour,7,2,127,127,main,negativefb,-99,hard,,1.6501046000003043,['n'],1,right,['3'],4,0.23867250000012064,37,,3,19,Man,Rechts,1,
,dotcolour,xotask,dotcolour,8,2,128,128,main,negativefb,-99,average,,0.9011281000002782,['n'],1,right,['1'],6,0.13007000000015978,26,,3,19,Man,Rechts,1,
,dotcolour,xotask,dotcolour,9,2,129,129,main,negativefb,-99,average,,1.1506163000003653,['n'],1,right,['1'],6,0.07081030000017563,27,,3,19,Man,Rechts,1,
,dotcolour,xotask,dotcolour,10,2,130,130,main,negativefb,-99,easy,,1.101050799999939,['c'],1,left,['3'],4,0.6656199999997625,64,,3,19,Man,Rechts,1,
,dotcolour,xotask,dotcolour,11,2,131,131,main,negativefb,-99,hard,,1.2009588999999323,['n'],1,right,['1'],6,0.20715610000024753,36,,3,19,Man,Rechts,1,
,dotcolour,xotask,dotcolour,12,2,132,132,main,negativefb,-99,easy,,0.8513879999995879,['c'],1,left,['1'],6,0.1657943999998679,61,,3,19,Man,Rechts,1,
,dotcolour,xotask,dotcolour,13,2,133,133,main,negativefb,-99,easy,,0.8842749999998887,['n'],1,right,['1'],6,0.17261910000024727,19,,3,19,Man,Rechts,1,
,dotcolour,xotask,dotcolour,14,2,134,134,main,negativefb,-99,average,,0.9852043000000776,['c'],1,left,['1'],6,0.08683709999968414,54,,3,19,Man,Rechts,1,
,dotcolour,xotask,dotcolour,15,2,135,135,main,negativefb,-99,hard,,2.417745400000058,['n'],0,left,['3'],4,0.42808899999999994,43,,3,19,Man,Rechts,1,
,dotcolour,xotask,dotcolour,16,2,136,136,main,negativefb,-99,hard,,1.4328776000002108,['c'],1,left,['3'],4,0.4034842999999455,42,,3,19,Man,Rechts,1,
,dotcolour,xotask,dotcolour,17,2,137,137,main,negativefb,-99,easy,,0.9837022000001525,['n'],1,right,['1'],6,0.3083868999997321,18,,3,19,Man,Rechts,1,
,dotcolour,xotask,dotcolour,18,2,138,138,main,negativefb,-99,easy,,0.7846238000001904,['n'],1,right,['1'],6,0.2658725000001141,19,,3,19,Man,Rechts,1,
,dotcolour,xotask,dotcolour,19,2,139,139,main,negativefb,-99,average,,1.41718979999996,['c'],1,left,['1'],6,1.2950575999998364,52,,3,19,Man,Rechts,1,
,dotcolour,xotask,dotcolour,20,2,140,140,main,negativefb,-99,average,,0.9337855999997373,['c'],1,left,['1'],6,0.11078069999985019,51,,3,19,Man,Rechts,1,
,dotcolour,xotask,dotcolour,21,2,141,141,main,negativefb,-99,easy,,0.8009503000002951,['n'],1,right,['1'],6,0.14782140000033905,18,,3,19,Man,Rechts,1,
,dotcolour,xotask,dotcolour,22,2,142,142,main,negativefb,-99,hard,,1.185051200000089,['c'],0,right,['1'],6,0.08647599999994782,36,,3,19,Man,Rechts,1,
,dotcolour,xotask,dotcolour,23,2,143,143,main,negativefb,-99,hard,,0.8506819999997788,['n'],1,right,['1'],6,0.1463223000000653,35,,3,19,Man,Rechts,1,
,dotcolour,xotask,dotcolour,24,2,144,144,main,negativefb,-99,hard,,1.9017155000001367,['c'],0,right,['2'],5,0.8979499000001852,36,,3,19,Man,Rechts,1,
,dotcolour,xotask,dotcolour,25,2,145,145,main,negativefb,-99,hard,,2.601034900000286,['c'],0,right,['3'],4,0.5744448000000375,37,,3,19,Man,Rechts,1,
,dotcolour,xotask,dotcolour,26,2,146,146,main,negativefb,-99,average,,1.5837087999998403,['n'],1,right,['3'],4,0.13699629999973695,27,,3,19,Man,Rechts,1,
,dotcolour,xotask,dotcolour,27,2,147,147,main,negativefb,-99,easy,,0.8840901999997186,['n'],1,right,['1'],6,0.041606899999806046,15,,3,19,Man,Rechts,1,
,dotcolour,xotask,dotcolour,28,2,148,148,main,negativefb,-99,average,,0.81723379999994,['n'],1,right,['1'],6,0.12747510000008333,28,,3,19,Man,Rechts,1,
,dotcolour,xotask,dotcolour,29,2,149,149,main,negativefb,-99,easy,,0.8005640999999741,['c'],1,left,['1'],6,0.1717595000000074,64,,3,19,Man,Rechts,1,
,dotcolour,xotask,dotcolour,30,2,150,150,main,negativefb,-99,average,,1.0838454999998248,['n'],1,right,['1'],6,0.3701891999999134,29,,3,19,Man,Rechts,1,
,dotcolour,xotask,dotcolour,31,2,151,151,main,negativefb,-99,hard,,1.9177973000000748,['c'],1,left,['2'],5,0.31162319999975807,43,,3,19,Man,Rechts,1,
,dotcolour,xotask,dotcolour,32,2,152,152,main,negativefb,-99,easy,,1.0505370000000767,['c'],1,left,['2'],5,0.2985713000002761,62,,3,19,Man,Rechts,1,
,dotcolour,xotask,dotcolour,33,2,153,153,main,negativefb,-99,easy,,0.9186392999999953,['c'],1,left,['1'],6,0.19451749999961976,62,,3,19,Man,Rechts,1,
,dotcolour,xotask,dotcolour,34,2,154,154,main,negativefb,-99,hard,,1.7189246999996612,['c'],1,left,['3'],4,0.6314742999998089,44,,3,19,Man,Rechts,1,
,dotcolour,xotask,dotcolour,35,2,155,155,main,negativefb,-99,easy,,1.1005417999999736,['n'],1,right,['1'],6,0.4106139999998959,15,,3,19,Man,Rechts,1,
,dotcolour,xotask,dotcolour,36,2,156,156,main,negativefb,-99,hard,,3.0008357000001524,['c'],0,right,['3'],4,1.8516552999999476,38,,3,19,Man,Rechts,1,
,dotcolour,xotask,dotcolour,37,2,157,157,main,negativefb,-99,average,,1.6345648000001347,['n'],1,right,['2'],5,0.568540899999789,26,,3,19,Man,Rechts,1,
,dotcolour,xotask,dotcolour,38,2,158,158,main,negativefb,-99,easy,,1.0328240000003461,['n'],1,right,['1'],6,0.6091527999997197,19,,3,19,Man,Rechts,1,
,dotcolour,xotask,dotcolour,39,2,159,159,main,negativefb,-99,hard,,0.9005820000002132,['n'],1,right,['3'],4,0.6375696000000062,39,,3,19,Man,Rechts,1,
,dotcolour,xotask,dotcolour,40,2,160,160,main,negativefb,-99,average,,0.6853422999997747,['n'],1,right,['3'],4,0.7935960999998315,25,,3,19,Man,Rechts,1,
,dotcolour,xotask,dotcolour,41,2,161,161,main,negativefb,-99,average,,1.4515402000001814,['n'],1,right,['3'],4,0.6812506999999641,25,,3,19,Man,Rechts,1,
,dotcolour,xotask,dotcolour,42,2,162,162,main,negativefb,-99,hard,,4.151638399999683,['n'],1,right,['3'],4,0.7281586000003699,36,,3,19,Man,Rechts,1,
,dotcolour,xotask,dotcolour,43,2,163,163,main,negativefb,-99,easy,,0.9663060000002588,['n'],1,right,['1'],6,0.5336200000001554,15,,3,19,Man,Rechts,1,
,dotcolour,xotask,dotcolour,44,2,164,164,main,negativefb,-99,easy,,0.5674933000000237,['n'],1,right,['1'],6,0.25887239999974554,16,,3,19,Man,Rechts,1,
,dotcolour,xotask,dotcolour,45,2,165,165,main,negativefb,-99,hard,,1.251180000000204,['c'],1,left,['3'],4,0.3912308999997549,44,,3,19,Man,Rechts,1,
,dotcolour,xotask,dotcolour,46,2,166,166,main,negativefb,-99,average,,0.9666145999999571,['c'],1,left,['1'],6,0.17823969999972178,52,,3,19,Man,Rechts,1,
,dotcolour,xotask,dotcolour,47,2,167,167,main,negativefb,-99,average,,2.0678094999998393,['c'],1,left,['2'],5,0.5057692000000316,52,,3,19,Man,Rechts,1,
,dotcolour,xotask,dotcolour,48,2,168,168,main,negativefb,-99,average,,1.0844350999996095,['c'],1,left,['2'],5,0.4671608999997261,52,,3,19,Man,Rechts,1,
,dotcolour,xotask,dotcolour,49,2,169,169,main,negativefb,-99,hard,,1.8670156999996834,['n'],0,left,['1'],6,0.44579079999994065,44,,3,19,Man,Rechts,1,
,dotcolour,xotask,dotcolour,50,2,170,170,main,negativefb,-99,average,,3.3515582999998514,['c'],1,left,['1'],6,0.5031846000001678,51,,3,19,Man,Rechts,1,
,dotcolour,xotask,dotcolour,51,2,171,171,main,negativefb,-99,hard,,2.16776979999986,['c'],1,left,['3'],4,0.5500753999999688,42,,3,19,Man,Rechts,1,
,dotcolour,xotask,dotcolour,52,2,172,172,main,negativefb,-99,hard,,1.4838661000003412,['c'],1,left,['3'],4,0.4122889000000214,42,,3,19,Man,Rechts,1,
,dotcolour,xotask,dotcolour,53,2,173,173,main,negativefb,-99,average,,0.6849912000002405,['c'],1,left,['2'],5,0.6577087000000574,52,,3,19,Man,Rechts,1,
,dotcolour,xotask,dotcolour,54,2,174,174,main,negativefb,-99,average,,0.7679176999999981,['c'],1,left,['1'],6,0.4662301000003026,55,,3,19,Man,Rechts,1,
,dotcolour,xotask,dotcolour,55,2,175,175,main,negativefb,-99,easy,,0.6674051999998483,['c'],1,left,['1'],6,0.3655404000000999,63,,3,19,Man,Rechts,1,
,dotcolour,xotask,dotcolour,56,2,176,176,main,negativefb,-99,easy,,0.8843777000001865,['c'],1,left,['1'],6,0.30818719999979294,63,,3,19,Man,Rechts,1,
,dotcolour,xotask,dotcolour,57,2,177,177,main,negativefb,-99,easy,,0.6836373999999523,['c'],1,left,['1'],6,0.2695829999997841,65,,3,19,Man,Rechts,1,
,dotcolour,xotask,dotcolour,58,2,178,178,main,negativefb,-99,easy,,0.6169182999997247,['c'],1,left,['1'],6,0.1555235000000721,62,,3,19,Man,Rechts,1,
,dotcolour,xotask,dotcolour,59,2,179,179,main,negativefb,-99,average,,0.7515192999999272,['n'],1,right,['1'],6,0.19981790000019828,27,,3,19,Man,Rechts,1,
,dotcolour,xotask,dotcolour,0,3,180,180,main,negativefb,-99,easy,,0.8677462999999079,['c'],1,left,['1'],6,0.49756129999968834,64,,3,19,Man,Rechts,1,
,dotcolour,xotask,dotcolour,1,3,181,181,main,negativefb,-99,hard,,3.317686500000036,['c'],1,left,['2'],5,0.7542065000002367,43,,3,19,Man,Rechts,1,
,dotcolour,xotask,dotcolour,2,3,182,182,main,negativefb,-99,hard,,1.0350274000002173,['n'],1,right,['2'],5,1.3153717999998662,37,,3,19,Man,Rechts,1,
,dotcolour,xotask,dotcolour,3,3,183,183,main,negativefb,-99,hard,,1.3000239000002694,['c'],1,left,['2'],5,0.6592286999998578,45,,3,19,Man,Rechts,1,
,dotcolour,xotask,dotcolour,4,3,184,184,main,negativefb,-99,easy,,0.7676908000003095,['c'],1,left,['1'],6,0.25074240000003556,64,,3,19,Man,Rechts,1,
,dotcolour,xotask,dotcolour,5,3,185,185,main,negativefb,-99,easy,,0.8516909999998461,['n'],1,right,['1'],6,0.23144719999982044,18,,3,19,Man,Rechts,1,
,dotcolour,xotask,dotcolour,6,3,186,186,main,negativefb,-99,average,,2.2337585000000217,['n'],0,left,['2'],5,0.2857411999998476,52,,3,19,Man,Rechts,1,
,dotcolour,xotask,dotcolour,7,3,187,187,main,negativefb,-99,easy,,0.8345069000001786,['c'],1,left,['1'],6,0.24126849999993283,64,,3,19,Man,Rechts,1,
,dotcolour,xotask,dotcolour,8,3,188,188,main,negativefb,-99,average,,0.8844273999998222,['c'],1,left,['1'],6,0.15776710000000094,54,,3,19,Man,Rechts,1,
,dotcolour,xotask,dotcolour,9,3,189,189,main,negativefb,-99,average,,0.9847728000004281,['n'],1,right,['1'],6,0.14519239999981437,27,,3,19,Man,Rechts,1,
,dotcolour,xotask,dotcolour,10,3,190,190,main,negativefb,-99,hard,,2.2673672999999326,['n'],0,left,['3'],4,0.6493672000001425,41,,3,19,Man,Rechts,1,
,dotcolour,xotask,dotcolour,11,3,191,191,main,negativefb,-99,hard,,1.2845197999999982,['c'],1,left,['3'],4,0.7972296999996615,41,,3,19,Man,Rechts,1,
,dotcolour,xotask,dotcolour,12,3,192,192,main,negativefb,-99,average,,1.0677365000001373,['n'],1,right,['2'],5,0.5875045999996473,28,,3,19,Man,Rechts,1,
,dotcolour,xotask,dotcolour,13,3,193,193,main,negativefb,-99,hard,,1.3004500000001826,['n'],0,left,['3'],4,3.5697534000000815,42,,3,19,Man,Rechts,1,
,dotcolour,xotask,dotcolour,14,3,194,194,main,negativefb,-99,hard,,3.250818999999865,['c'],0,right,['8'],3,0.4095572999999604,37,,3,19,Man,Rechts,1,
,dotcolour,xotask,dotcolour,15,3,195,195,main,negativefb,-99,easy,,3.650857300000098,['c'],1,left,['2'],5,0.6234841000000415,65,,3,19,Man,Rechts,1,
,dotcolour,xotask,dotcolour,16,3,196,196,main,negativefb,-99,average,,0.9673600999999508,['c'],1,left,['2'],5,0.3373671999997896,53,,3,19,Man,Rechts,1,
,dotcolour,xotask,dotcolour,17,3,197,197,main,negativefb,-99,hard,,0.8836068999999043,['n'],1,right,['1'],6,0.2892409000000953,36,,3,19,Man,Rechts,1,
,dotcolour,xotask,dotcolour,18,3,198,198,main,negativefb,-99,easy,,0.9178971000001184,['c'],1,left,['1'],6,0.20192390000011073,62,,3,19,Man,Rechts,1,
,dotcolour,xotask,dotcolour,19,3,199,199,main,negativefb,-99,easy,,1.384367099999963,['n'],1,right,['1'],6,0.12380890000031286,18,,3,19,Man,Rechts,1,
,dotcolour,xotask,dotcolour,20,3,200,200,main,negativefb,-99,hard,,1.500677099999848,['c'],0,right,['2'],5,0.08301540000002205,39,,3,19,Man,Rechts,1,
,dotcolour,xotask,dotcolour,21,3,201,201,main,negativefb,-99,hard,,2.4840643000002274,['n'],1,right,['2'],5,0.8294875999999931,36,,3,19,Man,Rechts,1,
,dotcolour,xotask,dotcolour,22,3,202,202,main,negativefb,-99,hard,,1.0014644999996563,['n'],1,right,['3'],4,0.3888572999999269,35,,3,19,Man,Rechts,1,
,dotcolour,xotask,dotcolour,23,3,203,203,main,negativefb,-99,easy,,0.7180499999999483,['c'],1,left,['1'],6,0.10623429999986911,64,,3,19,Man,Rechts,1,
,dotcolour,xotask,dotcolour,24,3,204,204,main,negativefb,-99,average,,0.8517509999996946,['n'],1,right,['1'],6,0.05307260000017777,29,,3,19,Man,Rechts,1,
,dotcolour,xotask,dotcolour,25,3,205,205,main,negativefb,-99,easy,,0.6345316000001731,['n'],1,right,['1'],6,0.050548000000162574,16,,3,19,Man,Rechts,1,
,dotcolour,xotask,dotcolour,26,3,206,206,main,negativefb,-99,average,,0.8837226000000555,['c'],1,left,['1'],6,0.09292379999988043,52,,3,19,Man,Rechts,1,
,dotcolour,xotask,dotcolour,27,3,207,207,main,negativefb,-99,easy,,0.6507901999998467,['c'],1,left,['1'],6,0.06560290000015812,63,,3,19,Man,Rechts,1,
,dotcolour,xotask,dotcolour,28,3,208,208,main,negativefb,-99,average,,0.6186007000001155,['n'],1,right,['1'],6,0.04614919999994527,26,,3,19,Man,Rechts,1,
,dotcolour,xotask,dotcolour,29,3,209,209,main,negativefb,-99,hard,,4.2835463000001255,['n'],0,left,['8'],3,1.2901056999999128,42,,3,19,Man,Rechts,1,
,dotcolour,xotask,dotcolour,30,3,210,210,main,negativefb,-99,average,,1.7508772000001045,['c'],1,left,['3'],4,0.48148810000020603,53,,3,19,Man,Rechts,1,
,dotcolour,xotask,dotcolour,31,3,211,211,main,negativefb,-99,easy,,1.2679167999999663,['n'],1,right,['2'],5,0.12362239999993108,16,,3,19,Man,Rechts,1,
,dotcolour,xotask,dotcolour,32,3,212,212,main,negativefb,-99,hard,,1.1174952000001213,['n'],0,left,['8'],3,2.611307599999691,45,,3,19,Man,Rechts,1,
,dotcolour,xotask,dotcolour,33,3,213,213,main,negativefb,-99,average,,1.1350543999997171,['c'],1,left,['2'],5,1.0466974999999366,53,,3,19,Man,Rechts,1,
,dotcolour,xotask,dotcolour,34,3,214,214,main,negativefb,-99,easy,,0.7345186999996258,['n'],1,right,['1'],6,0.08023640000010346,15,,3,19,Man,Rechts,1,
,dotcolour,xotask,dotcolour,35,3,215,215,main,negativefb,-99,easy,,0.6517378999997163,['c'],1,left,['1'],6,0.07692589999987831,62,,3,19,Man,Rechts,1,
,dotcolour,xotask,dotcolour,36,3,216,216,main,negativefb,-99,average,,0.7168068000000858,['c'],1,left,['1'],6,0.07787430000007589,51,,3,19,Man,Rechts,1,
,dotcolour,xotask,dotcolour,37,3,217,217,main,negativefb,-99,hard,,2.4335580000001755,['c'],0,right,['1'],6,0.3150332000000162,37,,3,19,Man,Rechts,1,
,dotcolour,xotask,dotcolour,38,3,218,218,main,negativefb,-99,hard,,1.8166685999999572,['c'],1,left,['3'],4,2.5820558999998866,45,,3,19,Man,Rechts,1,
,dotcolour,xotask,dotcolour,39,3,219,219,main,negativefb,-99,easy,,0.884496499999841,['c'],1,left,['1'],6,0.10851780000029976,61,,3,19,Man,Rechts,1,
,dotcolour,xotask,dotcolour,40,3,220,220,main,negativefb,-99,hard,,2.6836950000001707,['n'],1,right,['3'],4,0.9974166000001787,39,,3,19,Man,Rechts,1,
,dotcolour,xotask,dotcolour,41,3,221,221,main,negativefb,-99,average,,1.5000675000001138,['c'],1,left,['2'],5,0.1465210000001207,52,,3,19,Man,Rechts,1,
,dotcolour,xotask,dotcolour,42,3,222,222,main,negativefb,-99,easy,,1.5997605000002295,['n'],1,right,['1'],6,0.10918469999978697,18,,3,19,Man,Rechts,1,
,dotcolour,xotask,dotcolour,43,3,223,223,main,negativefb,-99,average,,0.7841706999997768,['c'],1,left,['1'],6,0.0751893999999993,52,,3,19,Man,Rechts,1,
,dotcolour,xotask,dotcolour,44,3,224,224,main,negativefb,-99,average,,0.71796809999978,['n'],1,right,['1'],6,0.10850080000000162,27,,3,19,Man,Rechts,1,
,dotcolour,xotask,dotcolour,45,3,225,225,main,negativefb,-99,average,,1.1998619000000872,['n'],1,right,['1'],6,0.20929459999979372,29,,3,19,Man,Rechts,1,
,dotcolour,xotask,dotcolour,46,3,226,226,main,negativefb,-99,hard,,1.5511988999996902,['c'],0,right,['3'],4,1.4516308000002027,38,,3,19,Man,Rechts,1,
,dotcolour,xotask,dotcolour,47,3,227,227,main,negativefb,-99,average,,0.8175838000001932,['n'],1,right,['1'],6,0.06543340000007447,26,,3,19,Man,Rechts,1,
,dotcolour,xotask,dotcolour,48,3,228,228,main,negativefb,-99,average,,0.7164089999996577,['n'],1,right,['1'],6,0.058771600000000035,27,,3,19,Man,Rechts,1,
,dotcolour,xotask,dotcolour,49,3,229,229,main,negativefb,-99,easy,,0.6177798000003349,['n'],1,right,['1'],6,0.06526560000020254,18,,3,19,Man,Rechts,1,
,dotcolour,xotask,dotcolour,50,3,230,230,main,negativefb,-99,easy,,1.417149000000336,['c'],1,left,['1'],6,0.12621869999975388,62,,3,19,Man,Rechts,1,
,dotcolour,xotask,dotcolour,51,3,231,231,main,negativefb,-99,easy,,0.7510832000002665,['n'],1,right,['1'],6,0.18802019999975528,15,,3,19,Man,Rechts,1,
,dotcolour,xotask,dotcolour,52,3,232,232,main,negativefb,-99,hard,,2.6005991000001814,['n'],1,right,['3'],4,0.8694242999999915,36,,3,19,Man,Rechts,1,
,dotcolour,xotask,dotcolour,53,3,233,233,main,negativefb,-99,easy,,0.7846490000001722,['n'],1,right,['2'],5,1.1082330999997794,19,,3,19,Man,Rechts,1,
,dotcolour,xotask,dotcolour,54,3,234,234,main,negativefb,-99,average,,0.8839694999996937,['c'],1,left,['2'],5,2.517686500000309,53,,3,19,Man,Rechts,1,
,dotcolour,xotask,dotcolour,55,3,235,235,main,negativefb,-99,hard,,2.001033600000028,['c'],1,left,['2'],5,0.11361639999995532,41,,3,19,Man,Rechts,1,
,dotcolour,xotask,dotcolour,56,3,236,236,main,negativefb,-99,average,,2.301151000000118,['n'],1,right,['3'],4,0.12299160000020493,27,,3,19,Man,Rechts,1,
,dotcolour,xotask,dotcolour,57,3,237,237,main,negativefb,-99,average,,1.350663700000041,['n'],1,right,['3'],4,0.07233069999983854,27,,3,19,Man,Rechts,1,
,dotcolour,xotask,dotcolour,58,3,238,238,main,negativefb,-99,hard,,1.4174032999999326,['n'],0,left,['1'],6,0.10249389999989944,45,,3,19,Man,Rechts,1,
,dotcolour,xotask,dotcolour,59,3,239,239,main,negativefb,-99,easy,,0.7837930000000597,['c'],0,right,['1'],6,0.11541630000010628,19,,3,19,Man,Rechts,1,
,dotcolour,xotask,dotcolour,0,4,240,240,main,negativefb,-99,hard,,1.0843253000002733,['c'],0,right,['2'],5,1.0836688999997932,38,,3,19,Man,Rechts,1,
,dotcolour,xotask,dotcolour,1,4,241,241,main,negativefb,-99,hard,,1.6669034999999894,['n'],1,right,['3'],4,0.6389342000002216,37,,3,19,Man,Rechts,1,
,dotcolour,xotask,dotcolour,2,4,242,242,main,negativefb,-99,hard,,2.0672340000000986,['n'],1,right,['2'],5,0.35565809999980047,35,,3,19,Man,Rechts,1,
,dotcolour,xotask,dotcolour,3,4,243,243,main,negativefb,-99,easy,,0.9689425999999912,['c'],1,left,['1'],6,0.21578360000012253,63,,3,19,Man,Rechts,1,
,dotcolour,xotask,dotcolour,4,4,244,244,main,negativefb,-99,average,,2.084609300000011,['n'],1,right,['3'],4,0.8204932999997254,25,,3,19,Man,Rechts,1,
,dotcolour,xotask,dotcolour,5,4,245,245,main,negativefb,-99,easy,,2.0846322000002147,['n'],1,right,['1'],6,0.6490068000002793,15,,3,19,Man,Rechts,1,
,dotcolour,xotask,dotcolour,6,4,246,246,main,negativefb,-99,hard,,3.552309199999854,['c'],1,left,['3'],4,0.28965770000013435,44,,3,19,Man,Rechts,1,
,dotcolour,xotask,dotcolour,7,4,247,247,main,negativefb,-99,hard,,1.4165931000002274,['c'],0,right,['2'],5,0.197883499999989,37,,3,19,Man,Rechts,1,
,dotcolour,xotask,dotcolour,8,4,248,248,main,negativefb,-99,average,,0.81790060000003,['n'],1,right,['1'],6,0.15767289999985223,26,,3,19,Man,Rechts,1,
,dotcolour,xotask,dotcolour,9,4,249,249,main,negativefb,-99,average,,0.7009107999997468,['n'],1,right,['1'],6,0.1010348999998314,26,,3,19,Man,Rechts,1,
,dotcolour,xotask,dotcolour,10,4,250,250,main,negativefb,-99,easy,,0.8681990999998561,['c'],1,left,['1'],6,0.07107260000020688,63,,3,19,Man,Rechts,1,
,dotcolour,xotask,dotcolour,11,4,251,251,main,negativefb,-99,average,,0.7833047999997689,['n'],1,right,['1'],6,0.06154289999994944,28,,3,19,Man,Rechts,1,
,dotcolour,xotask,dotcolour,12,4,252,252,main,negativefb,-99,hard,,2.716273900000033,['c'],1,left,['3'],4,2.367623099999946,42,,3,19,Man,Rechts,1,
,dotcolour,xotask,dotcolour,13,4,253,253,main,negativefb,-99,hard,,2.1856754999998884,['c'],0,right,['1'],6,0.5540587000000414,36,,3,19,Man,Rechts,1,
,dotcolour,xotask,dotcolour,14,4,254,254,main,negativefb,-99,average,,1.4177911000001586,['c'],1,left,['2'],5,0.7002526000001126,51,,3,19,Man,Rechts,1,
,dotcolour,xotask,dotcolour,15,4,255,255,main,negativefb,-99,hard,,1.551510600000256,['c'],1,left,['2'],5,0.7707529000003888,45,,3,19,Man,Rechts,1,
,dotcolour,xotask,dotcolour,16,4,256,256,main,negativefb,-99,average,,1.2842172999999093,['c'],1,left,['2'],5,0.465487899999971,52,,3,19,Man,Rechts,1,
,dotcolour,xotask,dotcolour,17,4,257,257,main,negativefb,-99,easy,,1.0173503999999411,['n'],1,right,['1'],6,0.11962640000001556,15,,3,19,Man,Rechts,1,
,dotcolour,xotask,dotcolour,18,4,258,258,main,negativefb,-99,easy,,0.7336443000003783,['c'],1,left,['1'],6,0.07722259999991365,62,,3,19,Man,Rechts,1,
,dotcolour,xotask,dotcolour,19,4,259,259,main,negativefb,-99,easy,,0.7674932999998418,['c'],1,left,['1'],6,0.08486210000000938,65,,3,19,Man,Rechts,1,
,dotcolour,xotask,dotcolour,20,4,260,260,main,negativefb,-99,hard,,3.2830385000002025,['c'],1,left,['3'],4,0.3430590000002667,45,,3,19,Man,Rechts,1,
,dotcolour,xotask,dotcolour,21,4,261,261,main,negativefb,-99,hard,,1.5341303999998672,['c'],1,left,['2'],5,0.20507510000015827,43,,3,19,Man,Rechts,1,
,dotcolour,xotask,dotcolour,22,4,262,262,main,negativefb,-99,hard,,1.0180030999999872,['n'],1,right,['1'],6,0.8133104000003186,36,,3,19,Man,Rechts,1,
,dotcolour,xotask,dotcolour,23,4,263,263,main,negativefb,-99,hard,,0.6502494999999726,['n'],0,left,['2'],5,2.5478479999997035,41,,3,19,Man,Rechts,1,
,dotcolour,xotask,dotcolour,24,4,264,264,main,negativefb,-99,hard,,1.3507988000001205,['n'],0,left,['3'],4,2.0882785999997395,42,,3,19,Man,Rechts,1,
,dotcolour,xotask,dotcolour,25,4,265,265,main,negativefb,-99,hard,,3.734397700000045,['n'],1,right,['8'],3,0.4725205999998252,38,,3,19,Man,Rechts,1,
,dotcolour,xotask,dotcolour,26,4,266,266,main,negativefb,-99,easy,,2.4011884000001373,['n'],1,right,['1'],6,0.08652949999986959,15,,3,19,Man,Rechts,1,
,dotcolour,xotask,dotcolour,27,4,267,267,main,negativefb,-99,average,,0.6174631000003501,['n'],1,right,['1'],6,0.1234865000001264,28,,3,19,Man,Rechts,1,
,dotcolour,xotask,dotcolour,28,4,268,268,main,negativefb,-99,average,,0.8511252000002969,['n'],1,right,['1'],6,0.10923899999988862,28,,3,19,Man,Rechts,1,
,dotcolour,xotask,dotcolour,29,4,269,269,main,negativefb,-99,easy,,0.7839116999998623,['c'],1,left,['1'],6,0.09816959999989194,62,,3,19,Man,Rechts,1,
,dotcolour,xotask,dotcolour,30,4,270,270,main,negativefb,-99,hard,,0.7989371999997275,['n'],0,left,['1'],6,0.18272399999978006,41,,3,19,Man,Rechts,1,
,dotcolour,xotask,dotcolour,31,4,271,271,main,negativefb,-99,easy,,0.8183767999998963,['n'],1,right,['1'],6,0.3196661000001768,16,,3,19,Man,Rechts,1,
,dotcolour,xotask,dotcolour,32,4,272,272,main,negativefb,-99,hard,,2.1335879999996905,['c'],0,right,['8'],3,2.04673240000011,35,,3,19,Man,Rechts,1,
,dotcolour,xotask,dotcolour,33,4,273,273,main,negativefb,-99,average,,2.5012856999996984,['c'],1,left,['3'],4,0.6499719000003097,51,,3,19,Man,Rechts,1,
,dotcolour,xotask,dotcolour,34,4,274,274,main,negativefb,-99,average,,1.900923000000148,['c'],1,left,['2'],5,0.12491899999986344,52,,3,19,Man,Rechts,1,
,dotcolour,xotask,dotcolour,35,4,275,275,main,negativefb,-99,average,,0.751598599999852,['n'],1,right,['2'],5,0.5305957999999009,26,,3,19,Man,Rechts,1,
,dotcolour,xotask,dotcolour,36,4,276,276,main,negativefb,-99,average,,2.7008907999997973,['c'],1,left,['2'],5,0.11449270000002798,51,,3,19,Man,Rechts,1,
,dotcolour,xotask,dotcolour,37,4,277,277,main,negativefb,-99,easy,,0.8676408000001175,['n'],1,right,['1'],6,0.3560704999999871,16,,3,19,Man,Rechts,1,
,dotcolour,xotask,dotcolour,38,4,278,278,main,negativefb,-99,easy,,0.7522591000001739,['n'],1,right,['1'],6,0.09687159999975847,19,,3,19,Man,Rechts,1,
,dotcolour,xotask,dotcolour,39,4,279,279,main,negativefb,-99,easy,,0.6829154000001836,['n'],1,right,['1'],6,0.10645760000033988,16,,3,19,Man,Rechts,1,
,dotcolour,xotask,dotcolour,40,4,280,280,main,negativefb,-99,average,,1.5016172000000552,['c'],1,left,['2'],5,2.603360000000066,51,,3,19,Man,Rechts,1,
,dotcolour,xotask,dotcolour,41,4,281,281,main,negativefb,-99,average,,1.167519899999661,['c'],1,left,['2'],5,0.10958090000031007,55,,3,19,Man,Rechts,1,
,dotcolour,xotask,dotcolour,42,4,282,282,main,negativefb,-99,easy,,0.7183078999996724,['c'],1,left,['1'],6,0.04604430000017601,63,,3,19,Man,Rechts,1,
,dotcolour,xotask,dotcolour,43,4,283,283,main,negativefb,-99,easy,,0.6515626000000339,['n'],1,right,['1'],6,0.07486150000022462,15,,3,19,Man,Rechts,1,
,dotcolour,xotask,dotcolour,44,4,284,284,main,negativefb,-99,hard,,2.067790099999911,['c'],0,right,['9'],2,1.7017922999998518,36,,3,19,Man,Rechts,1,
,dotcolour,xotask,dotcolour,45,4,285,285,main,negativefb,-99,average,,2.967699999999695,['n'],1,right,['3'],4,0.5322485000001507,29,,3,19,Man,Rechts,1,
,dotcolour,xotask,dotcolour,46,4,286,286,main,negativefb,-99,average,,1.3836590999999316,['c'],1,left,['3'],4,1.0079571999999644,52,,3,19,Man,Rechts,1,
,dotcolour,xotask,dotcolour,47,4,287,287,main,negativefb,-99,easy,,0.8185232999999243,['c'],1,left,['1'],6,0.3598091000003478,65,,3,19,Man,Rechts,1,
,dotcolour,xotask,dotcolour,48,4,288,288,main,negativefb,-99,easy,,0.5844093999999131,['c'],1,left,['1'],6,0.10743669999965277,63,,3,19,Man,Rechts,1,
,dotcolour,xotask,dotcolour,49,4,289,289,main,negativefb,-99,average,,0.7680843000002824,['n'],1,right,['1'],6,0.12113589999989927,26,,3,19,Man,Rechts,1,
,dotcolour,xotask,dotcolour,50,4,290,290,main,negativefb,-99,easy,,0.6671047999998336,['c'],1,left,['1'],6,0.11473540000042703,62,,3,19,Man,Rechts,1,
,dotcolour,xotask,dotcolour,51,4,291,291,main,negativefb,-99,easy,,0.8176437000001897,['n'],1,right,['1'],6,0.10224519999974291,19,,3,19,Man,Rechts,1,
,dotcolour,xotask,dotcolour,52,4,292,292,main,negativefb,-99,average,,1.1011639999996987,['c'],1,left,['1'],6,0.08721299999979237,51,,3,19,Man,Rechts,1,
,dotcolour,xotask,dotcolour,53,4,293,293,main,negativefb,-99,easy,,0.8667536999996628,['c'],1,left,['1'],6,0.12926100000004226,65,,3,19,Man,Rechts,1,
,dotcolour,xotask,dotcolour,54,4,294,294,main,negativefb,-99,average,,1.2179826000001412,['c'],1,left,['1'],6,0.10902890000033949,54,,3,19,Man,Rechts,1,
,dotcolour,xotask,dotcolour,55,4,295,295,main,negativefb,-99,easy,,0.8161560999997164,['n'],1,right,['1'],6,0.13667880000002697,16,,3,19,Man,Rechts,1,
,dotcolour,xotask,dotcolour,56,4,296,296,main,negativefb,-99,hard,,2.4341308000002755,['n'],0,left,['3'],4,0.22680829999990237,42,,3,19,Man,Rechts,1,
,dotcolour,xotask,dotcolour,57,4,297,297,main,negativefb,-99,hard,,1.5179355000000214,['c'],1,left,['1'],6,0.08623010000019349,43,,3,19,Man,Rechts,1,
,dotcolour,xotask,dotcolour,58,4,298,298,main,negativefb,-99,average,,0.8837620999997853,['n'],1,right,['1'],6,0.12843820000034611,28,,3,19,Man,Rechts,1,
,dotcolour,xotask,dotcolour,59,4,299,299,main,negativefb,-99,hard,,1.9004681999999775,['n'],1,right,['2'],5,0.14460559999997713,39,,3,19,Man,Rechts,1,
,xotask,xotask,dotcolour,0,0,0,300,training,negativefb,90,average,64,2.284321899999668,['c'],1,left,['3'],4,1.3115523000001303,,,3,19,Man,Rechts,1,
,xotask,xotask,dotcolour,1,0,1,301,training,negativefb,89,easy,5,1.0505245000003924,['n'],1,right,['2'],5,1.056913099999747,,,3,19,Man,Rechts,1,
,xotask,xotask,dotcolour,2,0,2,302,training,negativefb,73,easy,74,1.500762399999985,['c'],1,left,['2'],5,0.786777599999823,,,3,19,Man,Rechts,1,
,xotask,xotask,dotcolour,3,0,3,303,training,negativefb,91,average,60,0.8350513000000319,['c'],1,left,['2'],5,0.6181437000000187,,,3,19,Man,Rechts,1,
,xotask,xotask,dotcolour,4,0,4,304,training,negativefb,64,hard,52,0.8165641000000505,['c'],1,left,['2'],5,0.44885789999989356,,,3,19,Man,Rechts,1,
,xotask,xotask,dotcolour,5,0,5,305,training,negativefb,56,hard,52,0.6836140999998861,['c'],1,left,['2'],5,0.532344500000363,,,3,19,Man,Rechts,1,
,xotask,xotask,dotcolour,6,0,6,306,training,negativefb,42,hard,51,0.7507609000003868,['c'],1,left,['2'],5,0.38410730000032345,,,3,19,Man,Rechts,1,
,xotask,xotask,dotcolour,7,0,7,307,training,negativefb,90,easy,7,0.8178164000000834,['n'],1,right,['2'],5,0.3203131999998732,,,3,19,Man,Rechts,1,
,xotask,xotask,dotcolour,8,0,8,308,training,negativefb,87,hard,26,0.9500070999997661,['n'],1,right,['3'],4,0.4932227000003877,,,3,19,Man,Rechts,1,
,xotask,xotask,dotcolour,9,0,9,309,training,negativefb,89,hard,50,0.7828577000000223,['c'],1,left,['3'],4,0.3783581000002414,,,3,19,Man,Rechts,1,
,xotask,xotask,dotcolour,10,0,10,310,training,negativefb,53,average,62,0.9666197999999895,['c'],1,left,['2'],5,0.9018415000000459,,,3,19,Man,Rechts,1,
,xotask,xotask,dotcolour,11,0,11,311,training,negativefb,22,average,61,0.6673477999997885,['c'],1,left,['2'],5,1.1989582000001064,,,3,19,Man,Rechts,1,
,xotask,xotask,dotcolour,12,0,12,312,training,negativefb,57,hard,29,1.783747299999959,['n'],1,right,['2'],5,0.49608999999964,,,3,19,Man,Rechts,1,
,xotask,xotask,dotcolour,13,0,13,313,training,negativefb,90,easy,8,1.0511971000000813,['n'],1,right,['1'],6,0.2819900000004054,,,3,19,Man,Rechts,1,
,xotask,xotask,dotcolour,14,0,14,314,training,negativefb,59,easy,6,0.833895499999926,['n'],1,right,['1'],6,0.12569239999993442,,,3,19,Man,Rechts,1,
,xotask,xotask,dotcolour,15,0,15,315,training,negativefb,83,easy,74,1.1502439999999297,['c'],1,left,['2'],5,0.39450780000015584,,,3,19,Man,Rechts,1,
,xotask,xotask,dotcolour,16,0,16,316,training,negativefb,98,easy,5,1.5667681999998422,['n'],1,right,['2'],5,1.260689100000036,,,3,19,Man,Rechts,1,
,xotask,xotask,dotcolour,17,0,17,317,training,negativefb,84,average,18,1.1333197999997537,['n'],1,right,['2'],5,0.7579083000000537,,,3,19,Man,Rechts,1,
,xotask,xotask,dotcolour,18,0,18,318,training,negativefb,83,easy,73,2.2498568000000887,['c'],1,left,['2'],5,0.8542087999999239,,,3,19,Man,Rechts,1,
,xotask,xotask,dotcolour,19,0,19,319,training,negativefb,38,easy,73,0.8168448999999782,['c'],1,left,['2'],5,0.11534130000018195,,,3,19,Man,Rechts,1,
,xotask,xotask,dotcolour,20,0,20,320,training,negativefb,76,average,19,0.949293900000157,['n'],1,right,['2'],5,0.12107629999991332,,,3,19,Man,Rechts,1,
,xotask,xotask,dotcolour,21,0,21,321,training,negativefb,94,easy,7,1.2674511999998685,['n'],1,right,['2'],5,0.8575247999997373,,,3,19,Man,Rechts,1,
,xotask,xotask,dotcolour,22,0,22,322,training,negativefb,62,hard,53,0.9830953000000591,['c'],1,left,['2'],5,0.6560236000000259,,,3,19,Man,Rechts,1,
,xotask,xotask,dotcolour,23,0,23,323,training,negativefb,87,easy,8,1.0002551000002313,['n'],1,right,['1'],6,0.638072999999622,,,3,19,Man,Rechts,1,
,xotask,xotask,dotcolour,24,0,24,324,training,negativefb,48,hard,28,1.6176457999999911,['n'],1,right,['3'],4,0.3716748000001644,,,3,19,Man,Rechts,1,
,xotask,xotask,dotcolour,25,0,25,325,training,negativefb,82,hard,50,1.1171373999995922,['n'],0,left,['3'],4,0.44104060000017853,,,3,19,Man,Rechts,1,
,xotask,xotask,dotcolour,26,0,26,326,training,negativefb,93,easy,74,1.1491001000003962,['c'],1,left,['2'],5,0.9291336999999658,,,3,19,Man,Rechts,1,
,xotask,xotask,dotcolour,27,0,27,327,training,negativefb,98,average,18,0.850143399999979,['n'],1,right,['1'],6,1.7788403999998081,,,3,19,Man,Rechts,1,
,xotask,xotask,dotcolour,28,0,28,328,training,negativefb,78,hard,50,2.732300000000123,['c'],1,left,['3'],4,0.5182267000000138,,,3,19,Man,Rechts,1,
,xotask,xotask,dotcolour,29,0,29,329,training,negativefb,88,easy,72,3.3003380999998626,['c'],1,left,['2'],5,0.7894114999999147,,,3,19,Man,Rechts,1,
,xotask,xotask,dotcolour,30,0,30,330,training,negativefb,53,hard,50,2.466711299999588,['c'],1,left,['3'],4,0.4272188999998434,,,3,19,Man,Rechts,1,
,xotask,xotask,dotcolour,31,0,31,331,training,negativefb,83,average,16,0.9155750999998418,['n'],1,right,['1'],6,0.7815842999998495,,,3,19,Man,Rechts,1,
,xotask,xotask,dotcolour,32,0,32,332,training,negativefb,43,hard,54,1.8016250000000582,['n'],0,left,['2'],5,0.455135700000028,,,3,19,Man,Rechts,1,
,xotask,xotask,dotcolour,33,0,33,333,training,negativefb,90,average,62,1.0505334999998013,['c'],1,left,['2'],5,0.9143629999998666,,,3,19,Man,Rechts,1,
,xotask,xotask,dotcolour,34,0,34,334,training,negativefb,78,hard,27,2.3001020000001517,['n'],1,right,['2'],5,0.658091400000103,,,3,19,Man,Rechts,1,
,xotask,xotask,dotcolour,35,0,35,335,training,negativefb,57,easy,71,1.0001256000000467,['c'],1,left,['2'],5,1.2642368000001625,,,3,19,Man,Rechts,1,
,xotask,xotask,dotcolour,36,0,36,336,training,negativefb,66,easy,72,0.9346123999998781,['c'],1,left,['1'],6,0.8719924000001811,,,3,19,Man,Rechts,1,
,xotask,xotask,dotcolour,37,0,37,337,training,negativefb,75,easy,7,1.3342987999999423,['n'],1,right,['1'],6,1.1924043999997593,,,3,19,Man,Rechts,1,
,xotask,xotask,dotcolour,38,0,38,338,training,negativefb,80,easy,71,1.1333807000000888,['c'],1,left,['1'],6,0.9477253999998538,,,3,19,Man,Rechts,1,
,xotask,xotask,dotcolour,39,0,39,339,training,negativefb,88,easy,5,0.8998627999999371,['n'],1,right,['3'],4,1.0657403999998678,,,3,19,Man,Rechts,1,
,xotask,xotask,dotcolour,40,0,40,340,training,negativefb,62,average,18,6.450839900000119,['n'],1,right,['2'],5,0.2532843999997567,,,3,19,Man,Rechts,1,
,xotask,xotask,dotcolour,41,0,41,341,training,negativefb,26,average,17,1.0331779000002825,['n'],1,right,['1'],6,0.13760000000002037,,,3,19,Man,Rechts,1,
,xotask,xotask,dotcolour,42,0,42,342,training,negativefb,51,hard,27,3.3828542999999627,['n'],1,right,['2'],5,0.9248573999998371,,,3,19,Man,Rechts,1,
,xotask,xotask,dotcolour,43,0,43,343,training,negativefb,83,average,19,1.2509459000002607,['n'],1,right,['2'],5,0.6541528999996444,,,3,19,Man,Rechts,1,
,xotask,xotask,dotcolour,44,0,44,344,training,negativefb,46,hard,53,1.7345728999998755,['c'],1,left,['3'],4,0.782965399999739,,,3,19,Man,Rechts,1,
,xotask,xotask,dotcolour,45,0,45,345,training,negativefb,64,average,64,3.6017658999999185,['c'],1,left,['2'],5,1.0960086000000047,,,3,19,Man,Rechts,1,
,xotask,xotask,dotcolour,46,0,46,346,training,negativefb,67,hard,29,1.4836204000002908,['n'],1,right,['2'],5,0.34538590000011027,,,3,19,Man,Rechts,1,
,xotask,xotask,dotcolour,47,0,47,347,training,negativefb,35,average,61,1.3837471000001642,['c'],1,left,['2'],5,1.0446823000002041,,,3,19,Man,Rechts,1,
,xotask,xotask,dotcolour,48,0,48,348,training,negativefb,79,average,61,1.884496399999989,['c'],1,left,['2'],5,0.35238540000000285,,,3,19,Man,Rechts,1,
,xotask,xotask,dotcolour,49,0,49,349,training,negativefb,90,hard,28,1.0999166999999943,['n'],1,right,['2'],5,0.8220104000001811,,,3,19,Man,Rechts,1,
,xotask,xotask,dotcolour,50,0,50,350,training,negativefb,25,hard,28,1.2514688999999635,['n'],1,right,['2'],5,0.8514385999997103,,,3,19,Man,Rechts,1,
,xotask,xotask,dotcolour,51,0,51,351,training,negativefb,62,hard,26,0.8336016000002928,['n'],1,right,['2'],5,0.7282141999999112,,,3,19,Man,Rechts,1,
,xotask,xotask,dotcolour,52,0,52,352,training,negativefb,41,average,19,1.1176030000001447,['n'],1,right,['2'],5,0.5025147000001198,,,3,19,Man,Rechts,1,
,xotask,xotask,dotcolour,53,0,53,353,training,negativefb,54,easy,71,0.9488733999996839,['c'],1,left,['2'],5,0.6126103999999941,,,3,19,Man,Rechts,1,
,xotask,xotask,dotcolour,54,0,54,354,training,negativefb,72,hard,25,1.683240399999704,['n'],1,right,['2'],5,0.6334212000001571,,,3,19,Man,Rechts,1,
,xotask,xotask,dotcolour,55,0,55,355,training,negativefb,89,easy,6,0.882997400000022,['n'],1,right,['2'],5,0.4211417999999867,,,3,19,Man,Rechts,1,
,xotask,xotask,dotcolour,56,0,56,356,training,negativefb,26,average,19,0.7839912999997978,['n'],1,right,['2'],5,0.19706700000006094,,,3,19,Man,Rechts,1,
,xotask,xotask,dotcolour,57,0,57,357,training,negativefb,72,average,62,1.6167175999999017,['c'],1,left,['3'],4,0.8449179999997796,,,3,19,Man,Rechts,1,
,xotask,xotask,dotcolour,58,0,58,358,training,negativefb,58,average,62,0.8335068000001229,['n'],0,left,['2'],5,0.458132299999761,,,3,19,Man,Rechts,1,
,xotask,xotask,dotcolour,59,0,59,359,training,negativefb,82,average,16,1.1339624000002004,['n'],1,right,['1'],6,0.2826962999997704,,,3,19,Man,Rechts,1,
,xotask,xotask,dotcolour,0,1,60,360,training,negativefb,54,easy,5,1.6337648999997327,['n'],1,right,['1'],6,0.6218932000001587,,,3,19,Man,Rechts,1,
,xotask,xotask,dotcolour,1,1,61,361,training,negativefb,66,hard,52,0.7501130000000558,['n'],0,left,['1'],6,0.12747710000030565,,,3,19,Man,Rechts,1,
,xotask,xotask,dotcolour,2,1,62,362,training,negativefb,78,easy,7,0.6672665000000961,['n'],1,right,['1'],6,0.13565720000042347,,,3,19,Man,Rechts,1,
,xotask,xotask,dotcolour,3,1,63,363,training,negativefb,96,average,61,3.250723499999822,['c'],1,left,['3'],4,2.017209300000104,,,3,19,Man,Rechts,1,
,xotask,xotask,dotcolour,4,1,64,364,training,negativefb,76,hard,25,1.2008347999999387,['n'],1,right,['3'],4,0.45607020000034026,,,3,19,Man,Rechts,1,
,xotask,xotask,dotcolour,5,1,65,365,training,negativefb,79,average,15,1.2171058999997513,['n'],1,right,['1'],6,0.10853499999984706,,,3,19,Man,Rechts,1,
,xotask,xotask,dotcolour,6,1,66,366,training,negativefb,66,average,15,0.8669437999997172,['n'],1,right,['2'],5,0.19920159999992393,,,3,19,Man,Rechts,1,
,xotask,xotask,dotcolour,7,1,67,367,training,negativefb,80,easy,71,1.0670641000001524,['c'],1,left,['1'],6,0.15582530000028783,,,3,19,Man,Rechts,1,
,xotask,xotask,dotcolour,8,1,68,368,training,negativefb,60,easy,6,0.8162357000001066,['n'],1,right,['1'],6,0.1409785999999258,,,3,19,Man,Rechts,1,
,xotask,xotask,dotcolour,9,1,69,369,training,negativefb,84,easy,9,0.9344258000000991,['n'],1,right,['2'],5,0.610663299999942,,,3,19,Man,Rechts,1,
,xotask,xotask,dotcolour,10,1,70,370,training,negativefb,83,average,16,0.6839724000001297,['n'],1,right,['2'],5,0.1986299999998664,,,3,19,Man,Rechts,1,
,xotask,xotask,dotcolour,11,1,71,371,training,negativefb,47,hard,52,1.8001454000000194,['c'],1,left,['3'],4,0.43104730000004565,,,3,19,Man,Rechts,1,
,xotask,xotask,dotcolour,12,1,72,372,training,negativefb,73,average,16,1.1504619000002094,['n'],1,right,['2'],5,0.15196229999992283,,,3,19,Man,Rechts,1,
,xotask,xotask,dotcolour,13,1,73,373,training,negativefb,87,easy,72,0.8839355000000069,['c'],1,left,['2'],5,0.9981778000001214,,,3,19,Man,Rechts,1,
,xotask,xotask,dotcolour,14,1,74,374,training,negativefb,58,average,62,1.1169442000000345,['c'],1,left,['3'],4,0.34643590000041513,,,3,19,Man,Rechts,1,
,xotask,xotask,dotcolour,15,1,75,375,training,negativefb,39,hard,50,2.5663564999999835,['c'],1,left,['3'],4,0.7659113999998226,,,3,19,Man,Rechts,1,
,xotask,xotask,dotcolour,16,1,76,376,training,negativefb,41,hard,25,3.9339435000001686,['c'],0,right,['3'],4,1.0580049999998664,,,3,19,Man,Rechts,1,
,xotask,xotask,dotcolour,17,1,77,377,training,negativefb,88,easy,6,1.1515471999996407,['n'],1,right,['1'],6,2.2743202999999994,,,3,19,Man,Rechts,1,
,xotask,xotask,dotcolour,18,1,78,378,training,negativefb,84,average,64,1.817457899999681,['c'],1,left,['3'],4,0.5263409999997748,,,3,19,Man,Rechts,1,
,xotask,xotask,dotcolour,19,1,79,379,training,negativefb,79,easy,73,1.0331804999996166,['c'],1,left,['2'],5,0.584186900000077,,,3,19,Man,Rechts,1,
,xotask,xotask,dotcolour,20,1,80,380,training,negativefb,72,hard,50,0.9848197999999684,['c'],1,left,['2'],5,0.39340409999977055,,,3,19,Man,Rechts,1,
,xotask,xotask,dotcolour,21,1,81,381,training,negativefb,59,hard,28,1.4155257000002166,['c'],0,right,['2'],5,0.33738549999998213,,,3,19,Man,Rechts,1,
,xotask,xotask,dotcolour,22,1,82,382,training,negativefb,72,hard,50,2.1660391999998865,['c'],1,left,['2'],5,0.5494473999997354,,,3,19,Man,Rechts,1,
,xotask,xotask,dotcolour,23,1,83,383,training,negativefb,17,easy,72,0.7668142000002263,['c'],1,left,['1'],6,0.36071259999971517,,,3,19,Man,Rechts,1,
,xotask,xotask,dotcolour,24,1,84,384,training,negativefb,70,hard,27,0.8172984000002543,['n'],1,right,['1'],6,0.1464467999999215,,,3,19,Man,Rechts,1,
,xotask,xotask,dotcolour,25,1,85,385,training,negativefb,31,hard,27,1.7841212000002997,['c'],0,right,['2'],5,0.4775814999998147,,,3,19,Man,Rechts,1,
,xotask,xotask,dotcolour,26,1,86,386,training,negativefb,60,hard,54,2.032945500000096,['c'],1,left,['1'],6,0.13728350000019418,,,3,19,Man,Rechts,1,
,xotask,xotask,dotcolour,27,1,87,387,training,negativefb,81,easy,5,1.250869800000146,['n'],1,right,['1'],6,0.4661193000001731,,,3,19,Man,Rechts,1,
,xotask,xotask,dotcolour,28,1,88,388,training,negativefb,39,average,19,0.7667981999998119,['n'],1,right,['1'],6,0.09736320000001797,,,3,19,Man,Rechts,1,
,xotask,xotask,dotcolour,29,1,89,389,training,negativefb,68,hard,27,0.9502967999997054,['n'],1,right,['1'],6,0.1682292000000416,,,3,19,Man,Rechts,1,
,xotask,xotask,dotcolour,30,1,90,390,training,negativefb,81,easy,74,0.8167628999999579,['c'],1,left,['2'],5,0.3283241000003727,,,3,19,Man,Rechts,1,
,xotask,xotask,dotcolour,31,1,91,391,training,negativefb,88,average,15,1.066480799999681,['n'],1,right,['1'],6,0.8251503999999841,,,3,19,Man,Rechts,1,
,xotask,xotask,dotcolour,32,1,92,392,training,negativefb,42,average,60,1.6503265999999712,['c'],1,left,['2'],5,0.5424551999999494,,,3,19,Man,Rechts,1,
,xotask,xotask,dotcolour,33,1,93,393,training,negativefb,61,average,63,1.932989500000076,['c'],1,left,['2'],5,0.14805520000027173,,,3,19,Man,Rechts,1,
,xotask,xotask,dotcolour,34,1,94,394,training,negativefb,79,average,60,1.1672651000003498,['n'],0,left,['2'],5,0.5513099999998303,,,3,19,Man,Rechts,1,
,xotask,xotask,dotcolour,35,1,95,395,training,negativefb,79,hard,27,1.0673228000000563,['n'],1,right,['1'],6,0.39889520000042467,,,3,19,Man,Rechts,1,
,xotask,xotask,dotcolour,36,1,96,396,training,negativefb,40,hard,29,1.3663345999998455,['n'],1,right,['1'],6,0.952112500000112,,,3,19,Man,Rechts,1,
,xotask,xotask,dotcolour,37,1,97,397,training,negativefb,39,average,62,1.3666297999998278,['n'],0,left,['3'],4,0.46788710000009814,,,3,19,Man,Rechts,1,
,xotask,xotask,dotcolour,38,1,98,398,training,negativefb,87,easy,6,0.8661544999999933,['n'],1,right,['1'],6,0.32635590000018055,,,3,19,Man,Rechts,1,
,xotask,xotask,dotcolour,39,1,99,399,training,negativefb,69,hard,26,1.0172342000000754,['n'],1,right,['1'],6,0.0807795000000624,,,3,19,Man,Rechts,1,
,xotask,xotask,dotcolour,40,1,100,400,training,negativefb,72,easy,8,0.6335453000001507,['n'],1,right,['1'],6,0.12425630000007004,,,3,19,Man,Rechts,1,
,xotask,xotask,dotcolour,41,1,101,401,training,negativefb,70,average,61,1.7838979000002837,['c'],1,left,['2'],5,0.18441200000006575,,,3,19,Man,Rechts,1,
,xotask,xotask,dotcolour,42,1,102,402,training,negativefb,66,average,62,0.8993344000000434,['c'],1,left,['2'],5,0.2287535000000389,,,3,19,Man,Rechts,1,
,xotask,xotask,dotcolour,43,1,103,403,training,negativefb,46,easy,71,0.8330186000002868,['c'],1,left,['2'],5,0.2028677000002972,,,3,19,Man,Rechts,1,
,xotask,xotask,dotcolour,44,1,104,404,training,negativefb,81,easy,71,1.4827322000001004,['c'],1,left,['2'],5,0.7921460000002298,,,3,19,Man,Rechts,1,
,xotask,xotask,dotcolour,45,1,105,405,training,negativefb,66,hard,53,2.4012433999996574,['c'],1,left,['1'],6,0.11241449999988617,,,3,19,Man,Rechts,1,
,xotask,xotask,dotcolour,46,1,106,406,training,negativefb,62,average,18,1.0172974000001886,['n'],1,right,['1'],6,0.09152930000027482,,,3,19,Man,Rechts,1,
,xotask,xotask,dotcolour,47,1,107,407,training,negativefb,53,average,60,0.7827524999997877,['c'],1,left,['1'],6,0.08895050000000992,,,3,19,Man,Rechts,1,
,xotask,xotask,dotcolour,48,1,108,408,training,negativefb,43,easy,9,0.7831138999999894,['n'],1,right,['1'],6,0.11033230000020922,,,3,19,Man,Rechts,1,
,xotask,xotask,dotcolour,49,1,109,409,training,negativefb,52,average,17,1.216779200000019,['n'],1,right,['2'],5,0.12956919999987804,,,3,19,Man,Rechts,1,
,xotask,xotask,dotcolour,50,1,110,410,training,negativefb,47,easy,73,0.901270299999851,['c'],1,left,['2'],5,0.2897562999996808,,,3,19,Man,Rechts,1,
,xotask,xotask,dotcolour,51,1,111,411,training,negativefb,40,average,17,1.1671916000000238,['n'],1,right,['2'],5,0.22320680000029824,,,3,19,Man,Rechts,1,
,xotask,xotask,dotcolour,52,1,112,412,training,negativefb,69,hard,26,0.8500957999999628,['n'],1,right,['1'],6,0.5969421999998303,,,3,19,Man,Rechts,1,
,xotask,xotask,dotcolour,53,1,113,413,training,negativefb,28,hard,52,0.8010559999997895,['c'],1,left,['2'],5,0.6452064999998584,,,3,19,Man,Rechts,1,
,xotask,xotask,dotcolour,54,1,114,414,training,negativefb,73,easy,71,0.6674568000003092,['c'],1,left,['2'],5,0.25021419999984573,,,3,19,Man,Rechts,1,
,xotask,xotask,dotcolour,55,1,115,415,training,negativefb,20,hard,54,0.801240499999949,['c'],1,left,['1'],6,0.15144379999992452,,,3,19,Man,Rechts,1,
,xotask,xotask,dotcolour,56,1,116,416,training,negativefb,57,average,19,0.949684900000193,['n'],1,right,['1'],6,0.09925730000031763,,,3,19,Man,Rechts,1,
,xotask,xotask,dotcolour,57,1,117,417,training,negativefb,62,hard,50,1.4500247999999374,['n'],0,left,['3'],4,0.5414058999999725,,,3,19,Man,Rechts,1,
,xotask,xotask,dotcolour,58,1,118,418,training,negativefb,60,easy,7,1.2661221000003025,['n'],1,right,['2'],5,0.22161450000021432,,,3,19,Man,Rechts,1,
,xotask,xotask,dotcolour,59,1,119,419,training,negativefb,52,easy,70,0.7338849000002483,['c'],1,left,['1'],6,0.1281208999998853,,,3,19,Man,Rechts,1,
,xotask,xotask,dotcolour,0,2,120,420,main,negativefb,-99,hard,25,1.9334303999999065,['n'],1,right,['2'],5,2.230782199999794,,,3,19,Man,Rechts,1,
,xotask,xotask,dotcolour,1,2,121,421,main,negativefb,-99,hard,28,0.9847105999997439,['n'],1,right,['2'],5,0.08728199999995923,,,3,19,Man,Rechts,1,
,xotask,xotask,dotcolour,2,2,122,422,main,negativefb,-99,hard,53,2.151832799999738,['n'],0,left,['3'],4,1.8309794000001602,,,3,19,Man,Rechts,1,
,xotask,xotask,dotcolour,3,2,123,423,main,negativefb,-99,easy,73,1.41765149999992,['c'],1,left,['3'],4,0.19714840000006006,,,3,19,Man,Rechts,1,
,xotask,xotask,dotcolour,4,2,124,424,main,negativefb,-99,hard,53,2.718253900000036,['n'],0,left,['2'],5,1.0258156999998391,,,3,19,Man,Rechts,1,
,xotask,xotask,dotcolour,5,2,125,425,main,negativefb,-99,easy,6,0.6839811999998346,['n'],1,right,['1'],6,0.0868412999998327,,,3,19,Man,Rechts,1,
,xotask,xotask,dotcolour,6,2,126,426,main,negativefb,-99,hard,53,7.751259699999991,['c'],1,left,['8'],3,1.285997800000132,,,3,19,Man,Rechts,1,
,xotask,xotask,dotcolour,7,2,127,427,main,negativefb,-99,easy,72,0.9840339000002132,['c'],1,left,['2'],5,0.09168190000036702,,,3,19,Man,Rechts,1,
,xotask,xotask,dotcolour,8,2,128,428,main,negativefb,-99,easy,9,0.8671425000002273,['n'],1,right,['1'],6,0.062163000000055035,,,3,19,Man,Rechts,1,
,xotask,xotask,dotcolour,9,2,129,429,main,negativefb,-99,hard,50,1.25074369999993,['c'],1,left,['1'],6,0.07520230000000083,,,3,19,Man,Rechts,1,
,xotask,xotask,dotcolour,10,2,130,430,main,negativefb,-99,easy,6,0.7330753000001096,['n'],1,right,['1'],6,0.07645219999994879,,,3,19,Man,Rechts,1,
,xotask,xotask,dotcolour,11,2,131,431,main,negativefb,-99,easy,71,0.9178173999998762,['c'],1,left,['1'],6,0.14947730000039883,,,3,19,Man,Rechts,1,
,xotask,xotask,dotcolour,12,2,132,432,main,negativefb,-99,hard,29,9.217935699999998,['n'],1,right,['9'],2,1.463073699999768,,,3,19,Man,Rechts,1,
,xotask,xotask,dotcolour,13,2,133,433,main,negativefb,-99,average,16,1.0180488000000878,['n'],1,right,['2'],5,0.8614838000003147,,,3,19,Man,Rechts,1,
,xotask,xotask,dotcolour,14,2,134,434,main,negativefb,-99,easy,71,0.9847233999998934,['c'],1,left,['1'],6,0.3328765999999632,,,3,19,Man,Rechts,1,
,xotask,xotask,dotcolour,15,2,135,435,main,negativefb,-99,easy,6,0.7171231000002081,['n'],1,right,['1'],6,0.2919339999998556,,,3,19,Man,Rechts,1,
,xotask,xotask,dotcolour,16,2,136,436,main,negativefb,-99,hard,28,0.7667940000001181,['c'],0,right,['1'],6,0.3544514000000163,,,3,19,Man,Rechts,1,
,xotask,xotask,dotcolour,17,2,137,437,main,negativefb,-99,hard,26,1.6851026000003912,['n'],1,right,['3'],4,3.241688300000078,,,3,19,Man,Rechts,1,
,xotask,xotask,dotcolour,18,2,138,438,main,negativefb,-99,average,18,1.001364399999602,['n'],1,right,['3'],4,0.9295797999998285,,,3,19,Man,Rechts,1,
,xotask,xotask,dotcolour,19,2,139,439,main,negativefb,-99,hard,28,1.151553100000001,['n'],1,right,['8'],3,1.2071553999999196,,,3,19,Man,Rechts,1,
,xotask,xotask,dotcolour,20,2,140,440,main,negativefb,-99,hard,52,1.1004157000002124,['c'],1,left,['3'],4,3.259808400000111,,,3,19,Man,Rechts,1,
,xotask,xotask,dotcolour,21,2,141,441,main,negativefb,-99,hard,53,1.1007128999999622,['c'],1,left,['1'],6,0.10216769999988173,,,3,19,Man,Rechts,1,
,xotask,xotask,dotcolour,22,2,142,442,main,negativefb,-99,hard,52,0.8501178999999865,['c'],1,left,['1'],6,0.19305369999983668,,,3,19,Man,Rechts,1,
,xotask,xotask,dotcolour,23,2,143,443,main,negativefb,-99,hard,29,1.2672934000001987,['n'],1,right,['3'],4,0.823314400000072,,,3,19,Man,Rechts,1,
,xotask,xotask,dotcolour,24,2,144,444,main,negativefb,-99,average,18,1.2336393000000498,['n'],1,right,['2'],5,0.15025650000006863,,,3,19,Man,Rechts,1,
,xotask,xotask,dotcolour,25,2,145,445,main,negativefb,-99,average,61,1.6173714000001382,['c'],1,left,['2'],5,0.24022250000007261,,,3,19,Man,Rechts,1,
,xotask,xotask,dotcolour,26,2,146,446,main,negativefb,-99,hard,25,0.9848685000001751,['n'],1,right,['1'],6,0.12085209999986546,,,3,19,Man,Rechts,1,
,xotask,xotask,dotcolour,27,2,147,447,main,negativefb,-99,hard,28,1.4343872999997984,['n'],1,right,['3'],4,0.6665235999998913,,,3,19,Man,Rechts,1,
,xotask,xotask,dotcolour,28,2,148,448,main,negativefb,-99,average,19,0.8175791999997273,['n'],1,right,['2'],5,0.20065840000006574,,,3,19,Man,Rechts,1,
,xotask,xotask,dotcolour,29,2,149,449,main,negativefb,-99,average,64,1.20052110000006,['n'],0,left,['2'],5,0.20093210000004547,,,3,19,Man,Rechts,1,
,xotask,xotask,dotcolour,30,2,150,450,main,negativefb,-99,average,19,0.9174916000001758,['n'],1,right,['2'],5,0.2124340000000302,,,3,19,Man,Rechts,1,
,xotask,xotask,dotcolour,31,2,151,451,main,negativefb,-99,easy,6,0.7002133999999387,['n'],1,right,['1'],6,0.18568379999987883,,,3,19,Man,Rechts,1,
,xotask,xotask,dotcolour,32,2,152,452,main,negativefb,-99,easy,74,1.150874599999952,['c'],1,left,['3'],4,0.32569039999998495,,,3,19,Man,Rechts,1,
,xotask,xotask,dotcolour,33,2,153,453,main,negativefb,-99,average,61,1.1172795000002225,['c'],1,left,['2'],5,0.5959914000000026,,,3,19,Man,Rechts,1,
,xotask,xotask,dotcolour,34,2,154,454,main,negativefb,-99,average,60,0.8173563999998805,['c'],1,left,['2'],5,0.38100440000016533,,,3,19,Man,Rechts,1,
,xotask,xotask,dotcolour,35,2,155,455,main,negativefb,-99,easy,71,1.2845527999998012,['c'],1,left,['2'],5,0.20311899999978777,,,3,19,Man,Rechts,1,
,xotask,xotask,dotcolour,36,2,156,456,main,negativefb,-99,hard,52,1.7836653000003935,['c'],1,left,['1'],6,0.10013710000021092,,,3,19,Man,Rechts,1,
,xotask,xotask,dotcolour,37,2,157,457,main,negativefb,-99,easy,8,1.017940699999599,['n'],1,right,['2'],5,0.464824800000315,,,3,19,Man,Rechts,1,
,xotask,xotask,dotcolour,38,2,158,458,main,negativefb,-99,hard,28,0.8175269999996999,['n'],1,right,['2'],5,0.14964550000013332,,,3,19,Man,Rechts,1,
,xotask,xotask,dotcolour,39,2,159,459,main,negativefb,-99,easy,74,1.1182636999997158,['n'],0,left,['1'],6,0.0439157000000705,,,3,19,Man,Rechts,1,
,xotask,xotask,dotcolour,40,2,160,460,main,negativefb,-99,easy,8,3.434443099999953,['n'],1,right,['3'],4,0.4904079000002639,,,3,19,Man,Rechts,1,
,xotask,xotask,dotcolour,41,2,161,461,main,negativefb,-99,average,61,0.8340720000001056,['c'],1,left,['1'],6,0.14238280000017767,,,3,19,Man,Rechts,1,
,xotask,xotask,dotcolour,42,2,162,462,main,negativefb,-99,easy,5,0.8181944999996631,['n'],1,right,['1'],6,0.12103799999977127,,,3,19,Man,Rechts,1,
,xotask,xotask,dotcolour,43,2,163,463,main,negativefb,-99,easy,5,0.7664709000000585,['n'],1,right,['1'],6,0.07844680000016524,,,3,19,Man,Rechts,1,
,xotask,xotask,dotcolour,44,2,164,464,main,negativefb,-99,easy,72,0.8338119000000006,['c'],1,left,['1'],6,0.11510769999995318,,,3,19,Man,Rechts,1,
,xotask,xotask,dotcolour,45,2,165,465,main,negativefb,-99,average,19,1.8505593999998382,['c'],0,right,['3'],4,0.7011815999999271,,,3,19,Man,Rechts,1,
,xotask,xotask,dotcolour,46,2,166,466,main,negativefb,-99,average,15,0.7999700999998822,['n'],1,right,['1'],6,0.09784489999992729,,,3,19,Man,Rechts,1,
,xotask,xotask,dotcolour,47,2,167,467,main,negativefb,-99,average,61,0.9505591000001914,['c'],1,left,['1'],6,0.11308439999993425,,,3,19,Man,Rechts,1,
,xotask,xotask,dotcolour,48,2,168,468,main,negativefb,-99,hard,50,1.383660499999678,['c'],1,left,['2'],5,0.11056689999986702,,,3,19,Man,Rechts,1,
,xotask,xotask,dotcolour,49,2,169,469,main,negativefb,-99,hard,51,1.43413849999979,['n'],0,left,['3'],4,0.42562980000002426,,,3,19,Man,Rechts,1,
,xotask,xotask,dotcolour,50,2,170,470,main,negativefb,-99,average,62,0.8519228000000112,['c'],1,left,['2'],5,0.6474441999998817,,,3,19,Man,Rechts,1,
,xotask,xotask,dotcolour,51,2,171,471,main,negativefb,-99,easy,5,0.8011157999999341,['n'],1,right,['2'],5,0.22314589999996315,,,3,19,Man,Rechts,1,
,xotask,xotask,dotcolour,52,2,172,472,main,negativefb,-99,average,18,0.834382099999857,['n'],1,right,['2'],5,0.11019859999987602,,,3,19,Man,Rechts,1,
,xotask,xotask,dotcolour,53,2,173,473,main,negativefb,-99,average,60,0.950232799999867,['c'],1,left,['2'],5,0.10863770000014483,,,3,19,Man,Rechts,1,
,xotask,xotask,dotcolour,54,2,174,474,main,negativefb,-99,average,64,0.8510922000000392,['c'],1,left,['1'],6,0.3193583000002036,,,3,19,Man,Rechts,1,
,xotask,xotask,dotcolour,55,2,175,475,main,negativefb,-99,easy,74,1.8836694000001444,['c'],1,left,['1'],6,0.16784569999981613,,,3,19,Man,Rechts,1,
,xotask,xotask,dotcolour,56,2,176,476,main,negativefb,-99,average,60,1.100180100000216,['c'],1,left,['2'],5,0.3342044999999416,,,3,19,Man,Rechts,1,
,xotask,xotask,dotcolour,57,2,177,477,main,negativefb,-99,easy,74,1.0842205999997532,['c'],1,left,['1'],6,0.1577419000000191,,,3,19,Man,Rechts,1,
,xotask,xotask,dotcolour,58,2,178,478,main,negativefb,-99,average,15,0.7838854999999967,['n'],1,right,['1'],6,0.08922949999987395,,,3,19,Man,Rechts,1,
,xotask,xotask,dotcolour,59,2,179,479,main,negativefb,-99,average,17,0.6005826000000525,['n'],1,right,['1'],6,0.11860810000007405,,,3,19,Man,Rechts,1,
,xotask,xotask,dotcolour,0,3,180,480,main,negativefb,-99,average,64,5.402100600000267,['c'],1,left,['2'],5,0.6385433000000376,,,3,19,Man,Rechts,1,
,xotask,xotask,dotcolour,1,3,181,481,main,negativefb,-99,hard,53,1.335109999999986,['c'],1,left,['3'],4,0.6334302000000207,,,3,19,Man,Rechts,1,
,xotask,xotask,dotcolour,2,3,182,482,main,negativefb,-99,easy,70,0.817276899999797,['c'],1,left,['2'],5,0.18355560000009064,,,3,19,Man,Rechts,1,
,xotask,xotask,dotcolour,3,3,183,483,main,negativefb,-99,hard,25,0.7520862999999736,['n'],1,right,['1'],6,0.10685860000012326,,,3,19,Man,Rechts,1,
,xotask,xotask,dotcolour,4,3,184,484,main,negativefb,-99,average,15,0.6172694000001684,['n'],1,right,['1'],6,0.07898190000014438,,,3,19,Man,Rechts,1,
,xotask,xotask,dotcolour,5,3,185,485,main,negativefb,-99,average,62,0.7170716999999058,['c'],1,left,['8'],3,1.8083784999998898,,,3,19,Man,Rechts,1,
,xotask,xotask,dotcolour,6,3,186,486,main,negativefb,-99,hard,50,1.6346467999997003,['c'],1,left,['3'],4,0.3439533000000665,,,3,19,Man,Rechts,1,
,xotask,xotask,dotcolour,7,3,187,487,main,negativefb,-99,hard,50,2.634771600000022,['c'],1,left,['8'],3,0.9059040000001914,,,3,19,Man,Rechts,1,
,xotask,xotask,dotcolour,8,3,188,488,main,negativefb,-99,easy,6,0.9341638000000785,['n'],1,right,['1'],6,0.04838549999976749,,,3,19,Man,Rechts,1,
,xotask,xotask,dotcolour,9,3,189,489,main,negativefb,-99,easy,8,0.5515267000000676,['n'],1,right,['1'],6,0.03339850000020306,,,3,19,Man,Rechts,1,
,xotask,xotask,dotcolour,10,3,190,490,main,negativefb,-99,easy,6,0.6001361999997243,['n'],1,right,['1'],6,0.06482390000019222,,,3,19,Man,Rechts,1,
,xotask,xotask,dotcolour,11,3,191,491,main,negativefb,-99,average,19,0.5836021000000073,['n'],1,right,['1'],6,0.055795799999941664,,,3,19,Man,Rechts,1,
,xotask,xotask,dotcolour,12,3,192,492,main,negativefb,-99,hard,27,0.7353474999999889,['n'],1,right,['2'],5,0.42468159999998534,,,3,19,Man,Rechts,1,
,xotask,xotask,dotcolour,13,3,193,493,main,negativefb,-99,easy,71,0.6347289999998793,['n'],0,left,['9'],2,1.2081367999999202,,,3,19,Man,Rechts,1,
,xotask,xotask,dotcolour,14,3,194,494,main,negativefb,-99,average,62,1.1838285999997424,['c'],1,left,['2'],5,0.8169849999999315,,,3,19,Man,Rechts,1,
,xotask,xotask,dotcolour,15,3,195,495,main,negativefb,-99,easy,9,1.0009681999999884,['n'],1,right,['1'],6,0.08851700000013807,,,3,19,Man,Rechts,1,
,xotask,xotask,dotcolour,16,3,196,496,main,negativefb,-99,hard,53,2.068024300000161,['c'],1,left,['3'],4,0.2994693000000552,,,3,19,Man,Rechts,1,
,xotask,xotask,dotcolour,17,3,197,497,main,negativefb,-99,average,15,0.8515955000002577,['n'],1,right,['1'],6,0.10240060000023732,,,3,19,Man,Rechts,1,
,xotask,xotask,dotcolour,18,3,198,498,main,negativefb,-99,hard,27,1.0510337999999138,['n'],1,right,['2'],5,1.6572109000003366,,,3,19,Man,Rechts,1,
,xotask,xotask,dotcolour,19,3,199,499,main,negativefb,-99,easy,9,0.7843864999999823,['n'],1,right,['2'],5,0.2646027000000686,,,3,19,Man,Rechts,1,
,xotask,xotask,dotcolour,20,3,200,500,main,negativefb,-99,easy,71,0.8672124999998232,['c'],1,left,['3'],4,0.9638909999998759,,,3,19,Man,Rechts,1,
,xotask,xotask,dotcolour,21,3,201,501,main,negativefb,-99,easy,74,1.1010170999998081,['c'],1,left,['2'],5,0.22612949999984266,,,3,19,Man,Rechts,1,
,xotask,xotask,dotcolour,22,3,202,502,main,negativefb,-99,average,18,0.9507878999997956,['c'],0,right,['3'],4,0.24443920000021535,,,3,19,Man,Rechts,1,
,xotask,xotask,dotcolour,23,3,203,503,main,negativefb,-99,hard,52,1.3834185000000616,['c'],1,left,['8'],3,0.8289584999997714,,,3,19,Man,Rechts,1,
,xotask,xotask,dotcolour,24,3,204,504,main,negativefb,-99,easy,6,0.9518938999999591,['n'],1,right,['1'],6,0.3028036999999131,,,3,19,Man,Rechts,1,
,xotask,xotask,dotcolour,25,3,205,505,main,negativefb,-99,average,16,0.8331271000001834,['n'],1,right,['3'],4,1.4095472999997583,,,3,19,Man,Rechts,1,
,xotask,xotask,dotcolour,26,3,206,506,main,negativefb,-99,hard,27,1.6343897000001562,['c'],0,right,['3'],4,0.5449888000002829,,,3,19,Man,Rechts,1,
,xotask,xotask,dotcolour,27,3,207,507,main,negativefb,-99,average,63,0.935087399999702,['c'],1,left,['3'],4,0.36707220000016605,,,3,19,Man,Rechts,1,
,xotask,xotask,dotcolour,28,3,208,508,main,negativefb,-99,hard,28,1.5002781999996841,['n'],1,right,['8'],3,0.7093978000002608,,,3,19,Man,Rechts,1,
,xotask,xotask,dotcolour,29,3,209,509,main,negativefb,-99,easy,72,1.9340014999997948,['c'],1,left,['1'],6,0.044972799999868585,,,3,19,Man,Rechts,1,
,xotask,xotask,dotcolour,30,3,210,510,main,negativefb,-99,hard,54,2.2508842999995977,['c'],1,left,['2'],5,0.09826280000015686,,,3,19,Man,Rechts,1,
,xotask,xotask,dotcolour,31,3,211,511,main,negativefb,-99,hard,29,1.234511399999974,['n'],1,right,['8'],3,1.0690463999999338,,,3,19,Man,Rechts,1,
,xotask,xotask,dotcolour,32,3,212,512,main,negativefb,-99,average,19,1.1506097999999838,['n'],1,right,['1'],6,0.14089570000032836,,,3,19,Man,Rechts,1,
,xotask,xotask,dotcolour,33,3,213,513,main,negativefb,-99,hard,28,1.2334859000002325,['c'],0,right,['3'],4,0.4638591000002634,,,3,19,Man,Rechts,1,
,xotask,xotask,dotcolour,34,3,214,514,main,negativefb,-99,hard,25,1.051416899999822,['c'],0,right,['2'],5,0.15674470000021756,,,3,19,Man,Rechts,1,
,xotask,xotask,dotcolour,35,3,215,515,main,negativefb,-99,hard,52,1.116305900000043,['c'],1,left,['2'],5,0.7781501999998,,,3,19,Man,Rechts,1,
,xotask,xotask,dotcolour,36,3,216,516,main,negativefb,-99,average,60,1.1506117000003542,['c'],1,left,['3'],4,0.2545626999999513,,,3,19,Man,Rechts,1,
,xotask,xotask,dotcolour,37,3,217,517,main,negativefb,-99,hard,27,0.8168108999998367,['c'],0,right,['3'],4,0.7966820999999982,,,3,19,Man,Rechts,1,
,xotask,xotask,dotcolour,38,3,218,518,main,negativefb,-99,average,63,1.3673180000000684,['c'],1,left,['2'],5,0.20644300000003568,,,3,19,Man,Rechts,1,
,xotask,xotask,dotcolour,39,3,219,519,main,negativefb,-99,easy,6,1.7012352000001556,['n'],1,right,['2'],5,1.299708400000327,,,3,19,Man,Rechts,1,
,xotask,xotask,dotcolour,40,3,220,520,main,negativefb,-99,easy,71,0.8157142000000022,['c'],1,left,['2'],5,0.16804940000019997,,,3,19,Man,Rechts,1,
,xotask,xotask,dotcolour,41,3,221,521,main,negativefb,-99,easy,6,0.7844473000000107,['n'],1,right,['1'],6,0.08254840000017793,,,3,19,Man,Rechts,1,
,xotask,xotask,dotcolour,42,3,222,522,main,negativefb,-99,easy,7,0.8006666000001132,['n'],1,right,['1'],6,0.11214339999969525,,,3,19,Man,Rechts,1,
,xotask,xotask,dotcolour,43,3,223,523,main,negativefb,-99,average,63,1.917742999999973,['c'],1,left,['3'],4,0.10352949999969496,,,3,19,Man,Rechts,1,
,xotask,xotask,dotcolour,44,3,224,524,main,negativefb,-99,hard,52,0.8668271999999888,['c'],1,left,['2'],5,0.17013649999989866,,,3,19,Man,Rechts,1,
,xotask,xotask,dotcolour,45,3,225,525,main,negativefb,-99,average,63,0.7668929000001299,['c'],1,left,['9'],2,0.07712519999995493,,,3,19,Man,Rechts,1,
,xotask,xotask,dotcolour,46,3,226,526,main,negativefb,-99,hard,26,2.7499901999999565,['n'],1,right,['3'],4,0.42144699999971635,,,3,19,Man,Rechts,1,
,xotask,xotask,dotcolour,47,3,227,527,main,negativefb,-99,average,16,0.9333110999996279,['n'],1,right,['1'],6,0.10348030000022845,,,3,19,Man,Rechts,1,
,xotask,xotask,dotcolour,48,3,228,528,main,negativefb,-99,easy,74,0.9843831000002865,['c'],1,left,['2'],5,0.7333935999999994,,,3,19,Man,Rechts,1,
,xotask,xotask,dotcolour,49,3,229,529,main,negativefb,-99,average,16,0.8336325000000215,['n'],1,right,['1'],6,0.11145019999958095,,,3,19,Man,Rechts,1,
,xotask,xotask,dotcolour,50,3,230,530,main,negativefb,-99,average,15,1.2005260000000817,['n'],1,right,['3'],4,0.35631310000007943,,,3,19,Man,Rechts,1,
,xotask,xotask,dotcolour,51,3,231,531,main,negativefb,-99,easy,72,0.8342487999998411,['c'],1,left,['1'],6,0.11633709999978237,,,3,19,Man,Rechts,1,
,xotask,xotask,dotcolour,52,3,232,532,main,negativefb,-99,hard,54,1.2338289000003897,['c'],1,left,['1'],6,0.07942020000018601,,,3,19,Man,Rechts,1,
,xotask,xotask,dotcolour,53,3,233,533,main,negativefb,-99,average,64,1.532719199999974,['c'],1,left,['2'],5,0.16051549999974668,,,3,19,Man,Rechts,1,
,xotask,xotask,dotcolour,54,3,234,534,main,negativefb,-99,easy,71,0.8011619999997492,['c'],1,left,['1'],6,0.1386904000000868,,,3,19,Man,Rechts,1,
,xotask,xotask,dotcolour,55,3,235,535,main,negativefb,-99,average,15,0.8160938000000897,['n'],1,right,['1'],6,0.10141740000017307,,,3,19,Man,Rechts,1,
,xotask,xotask,dotcolour,56,3,236,536,main,negativefb,-99,average,61,2.6501170999999886,['n'],0,left,['2'],5,0.14390869999988354,,,3,19,Man,Rechts,1,
,xotask,xotask,dotcolour,57,3,237,537,main,negativefb,-99,easy,6,1.5344802999998137,['n'],1,right,['1'],6,0.06190049999986513,,,3,19,Man,Rechts,1,
,xotask,xotask,dotcolour,58,3,238,538,main,negativefb,-99,easy,70,0.6824685000001409,['c'],1,left,['1'],6,0.08164589999978489,,,3,19,Man,Rechts,1,
,xotask,xotask,dotcolour,59,3,239,539,main,negativefb,-99,hard,53,0.7014901000002283,['c'],1,left,['1'],6,0.16254209999988234,,,3,19,Man,Rechts,1,
,xotask,xotask,dotcolour,0,4,240,540,main,negativefb,-99,easy,7,1.7828577000000223,['n'],1,right,['1'],6,0.07705429999987246,,,3,19,Man,Rechts,1,
,xotask,xotask,dotcolour,1,4,241,541,main,negativefb,-99,easy,70,0.9166353999999046,['c'],1,left,['2'],5,0.09430610000026718,,,3,19,Man,Rechts,1,
,xotask,xotask,dotcolour,2,4,242,542,main,negativefb,-99,easy,8,1.1676431000000775,['n'],1,right,['1'],6,0.052898500000083004,,,3,19,Man,Rechts,1,
,xotask,xotask,dotcolour,3,4,243,543,main,negativefb,-99,average,63,1.8512923999996929,['n'],0,left,['3'],4,0.12975850000020728,,,3,19,Man,Rechts,1,
,xotask,xotask,dotcolour,4,4,244,544,main,negativefb,-99,easy,8,0.7836738000000878,['n'],1,right,['1'],6,0.07837390000031519,,,3,19,Man,Rechts,1,
,xotask,xotask,dotcolour,5,4,245,545,main,negativefb,-99,easy,7,0.6167169000000285,['n'],1,right,['1'],6,0.059802999999647,,,3,19,Man,Rechts,1,
,xotask,xotask,dotcolour,6,4,246,546,main,negativefb,-99,average,62,1.0501490000001468,['c'],1,left,['2'],5,0.1039639000000534,,,3,19,Man,Rechts,1,
,xotask,xotask,dotcolour,7,4,247,547,main,negativefb,-99,average,15,0.6162079000000631,['n'],1,right,['1'],6,0.06842899999992369,,,3,19,Man,Rechts,1,
,xotask,xotask,dotcolour,8,4,248,548,main,negativefb,-99,hard,54,0.8828785000000607,['c'],1,left,['3'],4,1.0151491999999962,,,3,19,Man,Rechts,1,
,xotask,xotask,dotcolour,9,4,249,549,main,negativefb,-99,easy,73,0.8332894999998643,['c'],1,left,['2'],5,0.13377470000023095,,,3,19,Man,Rechts,1,
,xotask,xotask,dotcolour,10,4,250,550,main,negativefb,-99,easy,7,0.7500171000001501,['n'],1,right,['1'],6,0.09116199999971286,,,3,19,Man,Rechts,1,
,xotask,xotask,dotcolour,11,4,251,551,main,negativefb,-99,easy,73,0.8674770999996326,['c'],1,left,['1'],6,0.12579420000020036,,,3,19,Man,Rechts,1,
,xotask,xotask,dotcolour,12,4,252,552,main,negativefb,-99,hard,26,0.6827390000003106,['n'],1,right,['1'],6,0.08649070000001302,,,3,19,Man,Rechts,1,
,xotask,xotask,dotcolour,13,4,253,553,main,negativefb,-99,easy,71,1.1005902000001697,['c'],1,left,['1'],6,0.08734860000004119,,,3,19,Man,Rechts,1,
,xotask,xotask,dotcolour,14,4,254,554,main,negativefb,-99,average,19,0.6339143999998669,['n'],1,right,['1'],6,0.13118960000019797,,,3,19,Man,Rechts,1,
,xotask,xotask,dotcolour,15,4,255,555,main,negativefb,-99,average,15,1.4334902000000511,['n'],1,right,['2'],5,0.18940140000040628,,,3,19,Man,Rechts,1,
,xotask,xotask,dotcolour,16,4,256,556,main,negativefb,-99,average,19,0.6843614999997953,['n'],1,right,['3'],4,0.19495210000013685,,,3,19,Man,Rechts,1,
,xotask,xotask,dotcolour,17,4,257,557,main,negativefb,-99,average,64,2.40013080000017,['c'],1,left,['3'],4,0.373394400000052,,,3,19,Man,Rechts,1,
,xotask,xotask,dotcolour,18,4,258,558,main,negativefb,-99,hard,26,0.7674510000001646,['n'],1,right,['2'],5,0.16808769999988726,,,3,19,Man,Rechts,1,
,xotask,xotask,dotcolour,19,4,259,559,main,negativefb,-99,easy,70,1.1844780000001265,['c'],1,left,['1'],6,0.090429999999742,,,3,19,Man,Rechts,1,
,xotask,xotask,dotcolour,20,4,260,560,main,negativefb,-99,easy,6,0.7658337000002575,['n'],1,right,['1'],6,0.10493889999997918,,,3,19,Man,Rechts,1,
,xotask,xotask,dotcolour,21,4,261,561,main,negativefb,-99,hard,26,0.7016011000000617,['n'],1,right,['1'],6,0.0980202000000645,,,3,19,Man,Rechts,1,
,xotask,xotask,dotcolour,22,4,262,562,main,negativefb,-99,average,18,1.717535400000088,['n'],1,right,['2'],5,0.08960519999982353,,,3,19,Man,Rechts,1,
,xotask,xotask,dotcolour,23,4,263,563,main,negativefb,-99,hard,50,1.4335089999999582,['c'],1,left,['2'],5,0.07800380000026053,,,3,19,Man,Rechts,1,
,xotask,xotask,dotcolour,24,4,264,564,main,negativefb,-99,easy,7,0.7180842000002485,['n'],1,right,['1'],6,0.10315500000024258,,,3,19,Man,Rechts,1,
,xotask,xotask,dotcolour,25,4,265,565,main,negativefb,-99,hard,50,1.200291400000424,['c'],1,left,['2'],5,0.11561429999983375,,,3,19,Man,Rechts,1,
,xotask,xotask,dotcolour,26,4,266,566,main,negativefb,-99,hard,53,0.9679067999995823,['c'],1,left,['3'],4,0.6250711999996383,,,3,19,Man,Rechts,1,
,xotask,xotask,dotcolour,27,4,267,567,main,negativefb,-99,easy,71,1.1008396000001994,['c'],1,left,['2'],5,0.12591909999991913,,,3,19,Man,Rechts,1,
,xotask,xotask,dotcolour,28,4,268,568,main,negativefb,-99,hard,27,1.2179724000002352,['c'],0,right,['2'],5,1.1922468000002482,,,3,19,Man,Rechts,1,
,xotask,xotask,dotcolour,29,4,269,569,main,negativefb,-99,average,61,2.100963800000045,['c'],1,left,['2'],5,0.14220249999971202,,,3,19,Man,Rechts,1,
,xotask,xotask,dotcolour,30,4,270,570,main,negativefb,-99,hard,25,0.567228299999897,['n'],1,right,['1'],6,0.07518389999995634,,,3,19,Man,Rechts,1,
,xotask,xotask,dotcolour,31,4,271,571,main,negativefb,-99,average,61,0.7849352999996881,['c'],1,left,['1'],6,0.12113159999989875,,,3,19,Man,Rechts,1,
,xotask,xotask,dotcolour,32,4,272,572,main,negativefb,-99,easy,5,0.5507013999999799,['n'],1,right,['1'],6,0.06329229999982999,,,3,19,Man,Rechts,1,
,xotask,xotask,dotcolour,33,4,273,573,main,negativefb,-99,hard,29,2.667695300000105,['c'],0,right,['3'],4,0.1318476000001283,,,3,19,Man,Rechts,1,
,xotask,xotask,dotcolour,34,4,274,574,main,negativefb,-99,hard,50,2.967594199999894,['n'],0,left,['3'],4,0.7605837000000975,,,3,19,Man,Rechts,1,
,xotask,xotask,dotcolour,35,4,275,575,main,negativefb,-99,average,19,1.9513019999999415,['n'],1,right,['2'],5,0.08496160000004238,,,3,19,Man,Rechts,1,
,xotask,xotask,dotcolour,36,4,276,576,main,negativefb,-99,easy,71,0.9344229000002997,['c'],1,left,['1'],6,0.09246760000041832,,,3,19,Man,Rechts,1,
,xotask,xotask,dotcolour,37,4,277,577,main,negativefb,-99,easy,71,0.5177968999996665,['c'],1,left,['1'],6,0.10922329999993963,,,3,19,Man,Rechts,1,
,xotask,xotask,dotcolour,38,4,278,578,main,negativefb,-99,easy,5,0.651069600000028,['n'],1,right,['1'],6,0.008361400000012509,,,3,19,Man,Rechts,1,
,xotask,xotask,dotcolour,39,4,279,579,main,negativefb,-99,average,62,1.099837799999932,['c'],1,left,['1'],6,0.060888299999987794,,,3,19,Man,Rechts,1,
,xotask,xotask,dotcolour,40,4,280,580,main,negativefb,-99,easy,8,1.4518078999999489,['n'],1,right,['1'],6,0.05780749999985346,,,3,19,Man,Rechts,1,
,xotask,xotask,dotcolour,41,4,281,581,main,negativefb,-99,average,60,0.767951499999981,['c'],1,left,['1'],6,0.00136579999980313,,,3,19,Man,Rechts,1,
,xotask,xotask,dotcolour,42,4,282,582,main,negativefb,-99,hard,29,1.6169638999999734,['c'],0,right,['2'],5,0.06516420000025391,,,3,19,Man,Rechts,1,
,xotask,xotask,dotcolour,43,4,283,583,main,negativefb,-99,average,61,0.7337732999999389,['c'],1,left,['2'],5,0.07466710000016974,,,3,19,Man,Rechts,1,
,xotask,xotask,dotcolour,44,4,284,584,main,negativefb,-99,hard,51,0.8513631000000714,['c'],1,left,['2'],5,0.13447439999981725,,,3,19,Man,Rechts,1,
,xotask,xotask,dotcolour,45,4,285,585,main,negativefb,-99,average,15,0.8337251999996624,['n'],1,right,['1'],6,0.10436460000028092,,,3,19,Man,Rechts,1,
,xotask,xotask,dotcolour,46,4,286,586,main,negativefb,-99,easy,71,0.6002723999999944,['c'],1,left,['1'],6,0.09256120000009105,,,3,19,Man,Rechts,1,
,xotask,xotask,dotcolour,47,4,287,587,main,negativefb,-99,hard,52,1.5675229000003128,['c'],1,left,['1'],6,0.0994645999999193,,,3,19,Man,Rechts,1,
,xotask,xotask,dotcolour,48,4,288,588,main,negativefb,-99,hard,26,2.251589800000147,['n'],1,right,['2'],5,0.0544371000000865,,,3,19,Man,Rechts,1,
,xotask,xotask,dotcolour,49,4,289,589,main,negativefb,-99,average,62,1.6507983000001332,['c'],1,left,['2'],5,0.08319919999985359,,,3,19,Man,Rechts,1,
,xotask,xotask,dotcolour,50,4,290,590,main,negativefb,-99,average,15,0.8018793000001097,['n'],1,right,['1'],6,0.024411700000200653,,,3,19,Man,Rechts,1,
,xotask,xotask,dotcolour,51,4,291,591,main,negativefb,-99,average,61,1.2322831000001315,['c'],1,left,['1'],6,0.031433799999831535,,,3,19,Man,Rechts,1,
,xotask,xotask,dotcolour,52,4,292,592,main,negativefb,-99,hard,29,2.0670515000001615,['c'],0,right,['2'],5,0.07628660000000309,,,3,19,Man,Rechts,1,
,xotask,xotask,dotcolour,53,4,293,593,main,negativefb,-99,hard,52,1.9348730000001524,['c'],1,left,['3'],4,0.1086011000002145,,,3,19,Man,Rechts,1,
,xotask,xotask,dotcolour,54,4,294,594,main,negativefb,-99,hard,50,1.4185185999999703,['n'],0,left,['8'],3,1.632799200000136,,,3,19,Man,Rechts,1,
,xotask,xotask,dotcolour,55,4,295,595,main,negativefb,-99,hard,52,4.667633399999886,['n'],0,left,['3'],4,0.060991699999704,,,3,19,Man,Rechts,1,
,xotask,xotask,dotcolour,56,4,296,596,main,negativefb,-99,average,16,0.9008385000001908,['n'],1,right,['1'],6,0.07158569999955944,,,3,19,Man,Rechts,1,
,xotask,xotask,dotcolour,57,4,297,597,main,negativefb,-99,average,16,0.6002492000002349,['n'],1,right,['1'],6,0.06993920000013532,,,3,19,Man,Rechts,1,
,xotask,xotask,dotcolour,58,4,298,598,main,negativefb,-99,easy,72,0.6678899999997157,['c'],1,left,['1'],6,0.04145550000021103,,,3,19,Man,Rechts,1,
,xotask,xotask,dotcolour,59,4,299,599,main,negativefb,-99,hard,26,0.6012470000000576,['n'],1,right,['1'],6,0.041118899999673886,,,3,19,Man,Rechts,1,
,xotask,xotask,dotcolour,0,0,0,600,training,negativefb,48,hard,26,6.551127700000052,['c'],0,right,['2'],5,0.16167790000008608,,,3,19,Man,Rechts,1,
,xotask,xotask,dotcolour,1,0,1,601,training,negativefb,57,hard,54,0.7337743999996746,['c'],1,left,['2'],5,0.11835590000009688,,,3,19,Man,Rechts,1,
,xotask,xotask,dotcolour,2,0,2,602,training,negativefb,38,hard,50,1.4178452000001016,['c'],1,left,['2'],5,0.40168679999987944,,,3,19,Man,Rechts,1,
,xotask,xotask,dotcolour,3,0,3,603,training,negativefb,92,easy,7,0.8821915000003173,['n'],1,right,['1'],6,0.28549599999996644,,,3,19,Man,Rechts,1,
,xotask,xotask,dotcolour,4,0,4,604,training,negativefb,65,hard,27,1.3174473999997645,['n'],1,right,['2'],5,0.349947599999723,,,3,19,Man,Rechts,1,
,xotask,xotask,dotcolour,5,0,5,605,training,negativefb,52,average,16,0.8838525999999547,['n'],1,right,['2'],5,0.7246089000000211,,,3,19,Man,Rechts,1,
,xotask,xotask,dotcolour,6,0,6,606,training,negativefb,48,average,64,0.7837266999999883,['c'],1,left,['2'],5,0.273144400000092,,,3,19,Man,Rechts,1,
,xotask,xotask,dotcolour,7,0,7,607,training,negativefb,95,easy,6,0.9503340000001117,['n'],1,right,['1'],6,0.5195434000002024,,,3,19,Man,Rechts,1,
,xotask,xotask,dotcolour,8,0,8,608,training,negativefb,58,easy,5,0.6678797000004124,['n'],1,right,['1'],6,0.10477170000012848,,,3,19,Man,Rechts,1,
,xotask,xotask,dotcolour,9,0,9,609,training,negativefb,42,hard,53,2.7175436999996236,['n'],0,left,['2'],5,0.13603510000029928,,,3,19,Man,Rechts,1,
,xotask,xotask,dotcolour,10,0,10,610,training,negativefb,64,easy,70,0.6996380000000499,['c'],1,left,['2'],5,0.12664820000009058,,,3,19,Man,Rechts,1,
,xotask,xotask,dotcolour,11,0,11,611,training,negativefb,60,easy,6,3.2491735000003246,['c'],0,right,['3'],4,0.3596823000002587,,,3,19,Man,Rechts,1,
,xotask,xotask,dotcolour,12,0,12,612,training,negativefb,58,average,64,1.0665955999998005,['c'],1,left,['2'],5,0.1039586000001691,,,3,19,Man,Rechts,1,
,xotask,xotask,dotcolour,13,0,13,613,training,negativefb,55,hard,51,0.7172881999999845,['c'],1,left,['1'],6,0.08661080000001675,,,3,19,Man,Rechts,1,
,xotask,xotask,dotcolour,14,0,14,614,training,negativefb,77,easy,72,0.9332386000000952,['c'],1,left,['1'],6,0.23859420000007958,,,3,19,Man,Rechts,1,
,xotask,xotask,dotcolour,15,0,15,615,training,negativefb,43,easy,70,0.8001830999996855,['c'],1,left,['1'],6,0.26110319999997955,,,3,19,Man,Rechts,1,
,xotask,xotask,dotcolour,16,0,16,616,training,negativefb,41,easy,7,0.7662859000001845,['n'],1,right,['2'],5,0.18890940000028422,,,3,19,Man,Rechts,1,
,xotask,xotask,dotcolour,17,0,17,617,training,negativefb,43,easy,6,1.0501675999998952,['n'],1,right,['2'],5,0.306413799999973,,,3,19,Man,Rechts,1,
,xotask,xotask,dotcolour,18,0,18,618,training,negativefb,48,hard,28,1.217093499999919,['n'],1,right,['3'],4,0.3265371000002233,,,3,19,Man,Rechts,1,
,xotask,xotask,dotcolour,19,0,19,619,training,negativefb,50,hard,29,0.8005115000000842,['n'],1,right,['3'],4,0.14573020000034376,,,3,19,Man,Rechts,1,
,xotask,xotask,dotcolour,20,0,20,620,training,negativefb,53,average,64,1.516503499999999,['c'],1,left,['2'],5,0.3995895000002747,,,3,19,Man,Rechts,1,
,xotask,xotask,dotcolour,21,0,21,621,training,negativefb,70,average,62,1.5511357999998836,['c'],1,left,['2'],5,0.5380254000001514,,,3,19,Man,Rechts,1,
,xotask,xotask,dotcolour,22,0,22,622,training,negativefb,87,easy,71,0.7668477000001985,['c'],1,left,['1'],6,0.32499879999977566,,,3,19,Man,Rechts,1,
,xotask,xotask,dotcolour,23,0,23,623,training,negativefb,89,easy,9,0.8167689000001701,['n'],1,right,['1'],6,0.7918862999999874,,,3,19,Man,Rechts,1,
,xotask,xotask,dotcolour,24,0,24,624,training,negativefb,78,hard,25,1.1166549999998097,['n'],1,right,['2'],5,0.29204359999994267,,,3,19,Man,Rechts,1,
,xotask,xotask,dotcolour,25,0,25,625,training,negativefb,43,hard,25,1.23327560000007,['n'],1,right,['1'],6,1.0397686000001158,,,3,19,Man,Rechts,1,
,xotask,xotask,dotcolour,26,0,26,626,training,negativefb,70,hard,50,1.2672859999997854,['c'],1,left,['2'],5,0.07621869999957198,,,3,19,Man,Rechts,1,
,xotask,xotask,dotcolour,27,0,27,627,training,negativefb,69,easy,72,2.366601300000184,['c'],1,left,['2'],5,0.07488399999965623,,,3,19,Man,Rechts,1,
,xotask,xotask,dotcolour,28,0,28,628,training,negativefb,70,hard,25,0.7343243999998776,['n'],1,right,['1'],6,0.12301280000019688,,,3,19,Man,Rechts,1,
,xotask,xotask,dotcolour,29,0,29,629,training,negativefb,53,easy,70,0.6844907999998213,['c'],1,left,['1'],6,0.059007800000017596,,,3,19,Man,Rechts,1,
,xotask,xotask,dotcolour,30,0,30,630,training,negativefb,59,easy,74,0.6662204999997812,['c'],1,left,['1'],6,0.0462307999996483,,,3,19,Man,Rechts,1,
,xotask,xotask,dotcolour,31,0,31,631,training,negativefb,65,hard,26,0.6995484999997643,['n'],1,right,['1'],6,0.12099369999987175,,,3,19,Man,Rechts,1,
,xotask,xotask,dotcolour,32,0,32,632,training,negativefb,65,average,64,1.2159354999998868,['c'],1,left,['1'],6,0.12341040000001158,,,3,19,Man,Rechts,1,
,xotask,xotask,dotcolour,33,0,33,633,training,negativefb,85,average,18,0.8831445000000713,['n'],1,right,['1'],6,0.443708499999957,,,3,19,Man,Rechts,1,
,xotask,xotask,dotcolour,34,0,34,634,training,negativefb,56,average,17,2.43370270000014,['n'],1,right,['2'],5,0.19305190000022776,,,3,19,Man,Rechts,1,
,xotask,xotask,dotcolour,35,0,35,635,training,negativefb,66,hard,26,1.0011775000002672,['n'],1,right,['1'],6,0.38573660000020027,,,3,19,Man,Rechts,1,
,xotask,xotask,dotcolour,36,0,36,636,training,negativefb,56,hard,51,0.833946300000207,['c'],1,left,['1'],6,0.1048823999999513,,,3,19,Man,Rechts,1,
,xotask,xotask,dotcolour,37,0,37,637,training,negativefb,44,hard,50,0.9500460999997813,['c'],1,left,['1'],6,0.08703220000006695,,,3,19,Man,Rechts,1,
,xotask,xotask,dotcolour,38,0,38,638,training,negativefb,94,easy,72,0.7843229000000065,['c'],1,left,['2'],5,0.1404523999999583,,,3,19,Man,Rechts,1,
,xotask,xotask,dotcolour,39,0,39,639,training,negativefb,78,average,62,1.0851925000001756,['c'],1,left,['1'],6,0.10665650000009919,,,3,19,Man,Rechts,1,
,xotask,xotask,dotcolour,40,0,40,640,training,negativefb,62,hard,54,0.6495780999998715,['c'],1,left,['1'],6,0.03674909999972442,,,3,19,Man,Rechts,1,
,xotask,xotask,dotcolour,41,0,41,641,training,negativefb,82,average,62,0.8169478999998319,['c'],1,left,['1'],6,0.06690170000001672,,,3,19,Man,Rechts,1,
,xotask,xotask,dotcolour,42,0,42,642,training,negativefb,56,easy,72,0.7341741000000184,['c'],1,left,['1'],6,0.04348130000016681,,,3,19,Man,Rechts,1,
,xotask,xotask,dotcolour,43,0,43,643,training,negativefb,36,average,17,0.8168405999999777,['n'],1,right,['1'],6,0.11329690000002302,,,3,19,Man,Rechts,1,
,xotask,xotask,dotcolour,44,0,44,644,training,negativefb,31,hard,28,0.6838023999998768,['n'],1,right,['1'],6,0.7862099000003582,,,3,19,Man,Rechts,1,
,xotask,xotask,dotcolour,45,0,45,645,training,negativefb,75,hard,54,0.6836838999997781,['c'],1,left,['1'],6,0.08792439999979251,,,3,19,Man,Rechts,1,
,xotask,xotask,dotcolour,46,0,46,646,training,negativefb,74,average,15,0.9494439000000057,['n'],1,right,['1'],6,0.15818400000034671,,,3,19,Man,Rechts,1,
,xotask,xotask,dotcolour,47,0,47,647,training,negativefb,41,average,64,0.6004347999996753,['c'],1,left,['1'],6,0.08003180000014254,,,3,19,Man,Rechts,1,
,xotask,xotask,dotcolour,48,0,48,648,training,negativefb,65,hard,50,0.8002043000001322,['c'],1,left,['2'],5,0.10124450000012075,,,3,19,Man,Rechts,1,
,xotask,xotask,dotcolour,49,0,49,649,training,negativefb,40,easy,74,1.0499860999998418,['c'],1,left,['2'],5,0.11925639999981286,,,3,19,Man,Rechts,1,
,xotask,xotask,dotcolour,50,0,50,650,training,negativefb,67,average,16,0.8987306000003628,['n'],1,right,['2'],5,0.07912590000023556,,,3,19,Man,Rechts,1,
,xotask,xotask,dotcolour,51,0,51,651,training,negativefb,63,easy,7,1.0011198000001968,['n'],1,right,['1'],6,0.08397950000016863,,,3,19,Man,Rechts,1,
,xotask,xotask,dotcolour,52,0,52,652,training,negativefb,75,easy,7,1.3331995999997162,['n'],1,right,['1'],6,1.0751138000000537,,,3,19,Man,Rechts,1,
,xotask,xotask,dotcolour,53,0,53,653,training,negativefb,62,average,16,1.867200099999991,['n'],1,right,['1'],6,0.1176580000001195,,,3,19,Man,Rechts,1,
,xotask,xotask,dotcolour,54,0,54,654,training,negativefb,72,average,18,2.2343156000001727,['n'],1,right,['2'],5,0.6402782000000116,,,3,19,Man,Rechts,1,
,xotask,xotask,dotcolour,55,0,55,655,training,negativefb,82,average,16,0.8345448999998553,['n'],1,right,['1'],6,0.17357589999983247,,,3,19,Man,Rechts,1,
,xotask,xotask,dotcolour,56,0,56,656,training,negativefb,56,average,15,1.1161917999997968,['n'],1,right,['1'],6,0.09827429999995729,,,3,19,Man,Rechts,1,
,xotask,xotask,dotcolour,57,0,57,657,training,negativefb,61,average,62,0.7829959000000599,['c'],1,left,['1'],6,0.13482129999965764,,,3,19,Man,Rechts,1,
,xotask,xotask,dotcolour,58,0,58,658,training,negativefb,63,easy,7,0.8001829999998336,['n'],1,right,['1'],6,0.16163679999999658,,,3,19,Man,Rechts,1,
,xotask,xotask,dotcolour,59,0,59,659,training,negativefb,81,average,64,1.3507442000000083,['c'],1,left,['3'],4,0.10920099999975719,,,3,19,Man,Rechts,1,
,xotask,xotask,dotcolour,0,1,60,660,training,negativefb,67,easy,9,0.934168000000227,['n'],1,right,['1'],6,0.11717120000002978,,,3,19,Man,Rechts,1,
,xotask,xotask,dotcolour,1,1,61,661,training,negativefb,59,average,19,0.7826792000000751,['n'],1,right,['1'],6,0.08927489999996396,,,3,19,Man,Rechts,1,
,xotask,xotask,dotcolour,2,1,62,662,training,negativefb,37,hard,29,0.6998960000000807,['n'],1,right,['1'],6,0.09760370000003604,,,3,19,Man,Rechts,1,
,xotask,xotask,dotcolour,3,1,63,663,training,negativefb,66,hard,27,0.6658664999999928,['n'],1,right,['1'],6,0.1069230999996762,,,3,19,Man,Rechts,1,
,xotask,xotask,dotcolour,4,1,64,664,training,negativefb,54,average,62,1.4997430000003078,['c'],1,left,['2'],5,0.10703549999971074,,,3,19,Man,Rechts,1,
,xotask,xotask,dotcolour,5,1,65,665,training,negativefb,46,easy,73,1.000518600000305,['c'],1,left,['1'],6,0.11971540000013192,,,3,19,Man,Rechts,1,
,xotask,xotask,dotcolour,6,1,66,666,training,negativefb,51,hard,53,0.916636799999651,['c'],1,left,['1'],6,0.061842000000069675,,,3,19,Man,Rechts,1,
,xotask,xotask,dotcolour,7,1,67,667,training,negativefb,32,average,16,0.6000871999999617,['n'],1,right,['1'],6,0.16367170000012266,,,3,19,Man,Rechts,1,
,xotask,xotask,dotcolour,8,1,68,668,training,negativefb,87,average,62,0.6332948999997825,['c'],1,left,['2'],5,0.28483630000027915,,,3,19,Man,Rechts,1,
