starttime,task,fbtask,firsttask,withinblocktrial,block,withintasktrial,trial,running,feedback,fbscore,difflevel,n_xes,rt,resp,cor,cresp,conf_press,cj,RTconf,reddots,stoptime,sub,age,gender,handedness,session,
1714739642,xotask,xotask,xotask,0,0,0,0,training,positivefb,100,easy,6,1.9341703000000052,['n'],1,right,['8'],4,12.45817390000002,,,8,20,Vrouw,Rechts,1,
,xotask,xotask,xotask,1,0,1,1,training,positivefb,93,hard,54,3.2338009000000056,['c'],1,left,['8'],4,2.88214569999991,,,8,20,Vrouw,Rechts,1,
,xotask,xotask,xotask,2,0,2,2,training,positivefb,51,hard,50,6.28418529999999,['c'],1,left,['8'],4,4.54609309999978,,,8,20,Vrouw,Rechts,1,
,xotask,xotask,xotask,3,0,3,3,training,positivefb,95,easy,5,1.6169576000002053,['n'],1,right,['8'],4,1.2901352000001225,,,8,20,Vrouw,Rechts,1,
,xotask,xotask,xotask,4,0,4,4,training,positivefb,83,average,19,1.4502313999998933,['n'],1,right,['8'],4,0.7960083000000395,,,8,20,Vrouw,Rechts,1,
,xotask,xotask,xotask,5,0,5,5,training,positivefb,94,easy,5,1.6334947000000284,['n'],1,right,['8'],4,1.0193272999999863,,,8,20,Vrouw,Rechts,1,
,xotask,xotask,xotask,6,0,6,6,training,positivefb,87,hard,26,4.966524400000026,['n'],1,right,['8'],4,7.891796699999986,,,8,20,Vrouw,Rechts,1,
,xotask,xotask,xotask,7,0,7,7,training,positivefb,94,easy,73,0.9671289999998862,['c'],1,left,['8'],4,0.7181551999999556,,,8,20,Vrouw,Rechts,1,
,xotask,xotask,xotask,8,0,8,8,training,positivefb,90,average,16,0.967062199999873,['n'],1,right,['8'],4,0.6913689000000431,,,8,20,Vrouw,Rechts,1,
,xotask,xotask,xotask,9,0,9,9,training,positivefb,89,average,64,1.017268999999942,['n'],0,left,['8'],4,0.6790639999999257,,,8,20,Vrouw,Rechts,1,
,xotask,xotask,xotask,10,0,10,10,training,positivefb,97,easy,9,1.0009688000000097,['n'],1,right,['8'],4,0.7002577999999176,,,8,20,Vrouw,Rechts,1,
,xotask,xotask,xotask,11,0,11,11,training,positivefb,96,easy,74,1.0002488000000085,['c'],1,left,['8'],4,0.6723221999998259,,,8,20,Vrouw,Rechts,1,
,xotask,xotask,xotask,12,0,12,12,training,positivefb,99,average,17,0.8156827000000249,['n'],1,right,['8'],4,0.6130067999999937,,,8,20,Vrouw,Rechts,1,
,xotask,xotask,xotask,13,0,13,13,training,positivefb,92,hard,50,1.0669484000000011,['c'],1,left,['8'],4,0.4824993000001996,,,8,20,Vrouw,Rechts,1,
,xotask,xotask,xotask,14,0,14,14,training,positivefb,74,hard,50,0.9844728000000487,['c'],1,left,['8'],4,0.471791999999823,,,8,20,Vrouw,Rechts,1,
,xotask,xotask,xotask,15,0,15,15,training,positivefb,93,hard,27,1.2679330999999365,['c'],0,right,['8'],4,0.3784689999999955,,,8,20,Vrouw,Rechts,1,
,xotask,xotask,xotask,16,0,16,16,training,positivefb,91,average,64,0.93382059999999,['c'],1,left,['8'],4,0.6147167999999965,,,8,20,Vrouw,Rechts,1,
,xotask,xotask,xotask,17,0,17,17,training,positivefb,56,hard,52,0.8508475000000999,['c'],1,left,['8'],4,0.46873409999989235,,,8,20,Vrouw,Rechts,1,
,xotask,xotask,xotask,18,0,18,18,training,positivefb,25,average,16,1.032777299999907,['c'],0,right,['9'],5,1.2882887999999184,,,8,20,Vrouw,Rechts,1,
,xotask,xotask,xotask,19,0,19,19,training,positivefb,99,easy,74,1.234092000000146,['c'],1,left,['8'],4,1.6993149999998423,,,8,20,Vrouw,Rechts,1,
,xotask,xotask,xotask,20,0,20,20,training,positivefb,98,hard,52,1.2002992000000177,['n'],0,left,['8'],4,0.7349421000001257,,,8,20,Vrouw,Rechts,1,
,xotask,xotask,xotask,21,0,21,21,training,positivefb,76,hard,25,0.9337782999998581,['c'],0,right,['8'],4,0.7560609999998178,,,8,20,Vrouw,Rechts,1,
,xotask,xotask,xotask,22,0,22,22,training,positivefb,99,easy,5,1.1998842000000423,['n'],1,right,['8'],4,0.5342461000000185,,,8,20,Vrouw,Rechts,1,
,xotask,xotask,xotask,23,0,23,23,training,positivefb,59,hard,26,0.9995314000000235,['n'],1,right,['8'],4,0.46498929999984284,,,8,20,Vrouw,Rechts,1,
,xotask,xotask,xotask,24,0,24,24,training,positivefb,98,average,61,1.0843810999999732,['c'],1,left,['8'],4,0.5467796000000362,,,8,20,Vrouw,Rechts,1,
,xotask,xotask,xotask,25,0,25,25,training,positivefb,83,average,15,1.301001800000222,['c'],0,right,['8'],4,0.45762070000000676,,,8,20,Vrouw,Rechts,1,
,xotask,xotask,xotask,26,0,26,26,training,positivefb,80,average,18,1.3178033000001506,['n'],1,right,['8'],4,0.5307712999999694,,,8,20,Vrouw,Rechts,1,
,xotask,xotask,xotask,27,0,27,27,training,positivefb,77,hard,27,1.1662903999999799,['c'],0,right,['8'],4,0.4312436999998681,,,8,20,Vrouw,Rechts,1,
,xotask,xotask,xotask,28,0,28,28,training,positivefb,93,average,60,1.2838842999999542,['c'],1,left,['8'],4,0.5706127000000834,,,8,20,Vrouw,Rechts,1,
,xotask,xotask,xotask,29,0,29,29,training,positivefb,46,easy,9,1.4496126999999888,['c'],0,right,['8'],4,0.4265810000001693,,,8,20,Vrouw,Rechts,1,
,xotask,xotask,xotask,30,0,30,30,training,positivefb,95,average,62,1.1838035000000673,['c'],1,left,['8'],4,0.35437660000002325,,,8,20,Vrouw,Rechts,1,
,xotask,xotask,xotask,31,0,31,31,training,positivefb,97,easy,72,0.9669943999999759,['c'],1,left,['9'],5,0.541635000000042,,,8,20,Vrouw,Rechts,1,
,xotask,xotask,xotask,32,0,32,32,training,positivefb,86,average,17,1.3338836000000356,['n'],1,right,['0'],6,0.6673162000001867,,,8,20,Vrouw,Rechts,1,
,xotask,xotask,xotask,33,0,33,33,training,positivefb,54,easy,7,1.0005352999999104,['c'],0,right,['8'],4,0.9605462000001808,,,8,20,Vrouw,Rechts,1,
,xotask,xotask,xotask,34,0,34,34,training,positivefb,90,hard,50,0.9838767999999618,['c'],1,left,['9'],5,0.8110220999999456,,,8,20,Vrouw,Rechts,1,
,xotask,xotask,xotask,35,0,35,35,training,positivefb,98,hard,26,1.150094000000081,['n'],1,right,['9'],5,0.7169048999999177,,,8,20,Vrouw,Rechts,1,
,xotask,xotask,xotask,36,0,36,36,training,positivefb,67,hard,29,1.3340479000000869,['c'],0,right,['8'],4,1.027016900000035,,,8,20,Vrouw,Rechts,1,
,xotask,xotask,xotask,37,0,37,37,training,positivefb,96,average,15,0.9677100000001246,['n'],1,right,['9'],5,0.5396425999999792,,,8,20,Vrouw,Rechts,1,
,xotask,xotask,xotask,38,0,38,38,training,positivefb,95,hard,53,0.9345476000000872,['c'],1,left,['9'],5,0.7773740000000089,,,8,20,Vrouw,Rechts,1,
,xotask,xotask,xotask,39,0,39,39,training,positivefb,81,hard,53,1.3166447000000971,['c'],1,left,['8'],4,0.6139507000000322,,,8,20,Vrouw,Rechts,1,
,xotask,xotask,xotask,40,0,40,40,training,positivefb,94,easy,70,0.8498343999999634,['c'],1,left,['9'],5,0.4917502999999215,,,8,20,Vrouw,Rechts,1,
,xotask,xotask,xotask,41,0,41,41,training,positivefb,99,average,64,1.1012422000001152,['c'],1,left,['3'],3,1.4845155000000432,,,8,20,Vrouw,Rechts,1,
,xotask,xotask,xotask,42,0,42,42,training,positivefb,96,easy,73,0.9493969000000106,['c'],1,left,['0'],6,0.4024286999999731,,,8,20,Vrouw,Rechts,1,
,xotask,xotask,xotask,43,0,43,43,training,positivefb,86,hard,29,1.0843260999999984,['c'],0,right,['9'],5,1.0317014000002018,,,8,20,Vrouw,Rechts,1,
,xotask,xotask,xotask,44,0,44,44,training,positivefb,98,easy,70,0.916106099999979,['c'],1,left,['9'],5,0.4645780000000741,,,8,20,Vrouw,Rechts,1,
,xotask,xotask,xotask,45,0,45,45,training,positivefb,99,easy,71,1.0004787000000306,['c'],1,left,['8'],4,0.8542689999999311,,,8,20,Vrouw,Rechts,1,
,xotask,xotask,xotask,46,0,46,46,training,positivefb,74,hard,27,0.8665969000001041,['c'],0,right,['1'],1,1.4344063999999435,,,8,20,Vrouw,Rechts,1,
,xotask,xotask,xotask,47,0,47,47,training,positivefb,85,hard,50,2.4174880000000485,['n'],0,left,['8'],4,0.9114480999999159,,,8,20,Vrouw,Rechts,1,
,xotask,xotask,xotask,48,0,48,48,training,positivefb,76,average,60,0.9677642999999989,['c'],1,left,['9'],5,0.8288056999999753,,,8,20,Vrouw,Rechts,1,
,xotask,xotask,xotask,49,0,49,49,training,positivefb,72,easy,70,3.8496969999998782,['c'],1,left,['9'],5,1.1940836000001127,,,8,20,Vrouw,Rechts,1,
,xotask,xotask,xotask,50,0,50,50,training,positivefb,97,average,19,1.3170474999999442,['n'],1,right,['9'],5,0.5973464999999578,,,8,20,Vrouw,Rechts,1,
,xotask,xotask,xotask,51,0,51,51,training,positivefb,87,average,64,0.7837652000000617,['c'],1,left,['9'],5,0.454861800000117,,,8,20,Vrouw,Rechts,1,
,xotask,xotask,xotask,52,0,52,52,training,positivefb,89,average,60,1.166917900000044,['c'],1,left,['9'],5,0.4221256999999241,,,8,20,Vrouw,Rechts,1,
,xotask,xotask,xotask,53,0,53,53,training,positivefb,97,average,61,0.9008380999998735,['c'],1,left,['9'],5,0.4653977999998915,,,8,20,Vrouw,Rechts,1,
,xotask,xotask,xotask,54,0,54,54,training,positivefb,46,average,17,0.9002992000000631,['c'],0,right,['8'],4,1.2750973999998223,,,8,20,Vrouw,Rechts,1,
,xotask,xotask,xotask,55,0,55,55,training,positivefb,100,easy,71,1.033274899999924,['c'],1,left,['8'],4,1.078445899999906,,,8,20,Vrouw,Rechts,1,
,xotask,xotask,xotask,56,0,56,56,training,positivefb,82,easy,8,2.5668975999999475,['n'],1,right,['1'],1,0.5330767999998898,,,8,20,Vrouw,Rechts,1,
,xotask,xotask,xotask,57,0,57,57,training,positivefb,73,easy,5,2.599499700000024,['n'],1,right,['0'],6,1.0798939999999675,,,8,20,Vrouw,Rechts,1,
,xotask,xotask,xotask,58,0,58,58,training,positivefb,79,hard,29,1.950247999999874,['c'],0,right,['3'],3,0.854932799999915,,,8,20,Vrouw,Rechts,1,
,xotask,xotask,xotask,59,0,59,59,training,positivefb,99,easy,7,1.4828640000000632,['n'],1,right,['0'],6,0.6251025999999911,,,8,20,Vrouw,Rechts,1,
,xotask,xotask,xotask,0,1,60,60,training,positivefb,44,hard,25,1.8331068999998479,['c'],0,right,['8'],4,2.459369400000014,,,8,20,Vrouw,Rechts,1,
,xotask,xotask,xotask,1,1,61,61,training,positivefb,97,easy,74,0.9502879000001485,['c'],1,left,['9'],5,0.6265088999998625,,,8,20,Vrouw,Rechts,1,
,xotask,xotask,xotask,2,1,62,62,training,positivefb,90,average,17,1.1499361999999564,['n'],1,right,['8'],4,1.2839420000000246,,,8,20,Vrouw,Rechts,1,
,xotask,xotask,xotask,3,1,63,63,training,positivefb,90,hard,50,1.3835209999999734,['c'],1,left,['8'],4,1.4405451000000085,,,8,20,Vrouw,Rechts,1,
,xotask,xotask,xotask,4,1,64,64,training,positivefb,98,average,17,1.1330259000001206,['n'],1,right,['9'],5,0.7454209999998511,,,8,20,Vrouw,Rechts,1,
,xotask,xotask,xotask,5,1,65,65,training,positivefb,85,easy,72,1.7833840000000691,['c'],1,left,['9'],5,1.3167975999999726,,,8,20,Vrouw,Rechts,1,
,xotask,xotask,xotask,6,1,66,66,training,positivefb,77,average,60,1.4001685999999154,['c'],1,left,['8'],4,0.47931309999989935,,,8,20,Vrouw,Rechts,1,
,xotask,xotask,xotask,7,1,67,67,training,positivefb,95,easy,8,1.0664851999999883,['n'],1,right,['9'],5,0.6500513999999384,,,8,20,Vrouw,Rechts,1,
,xotask,xotask,xotask,8,1,68,68,training,positivefb,91,hard,52,1.167198899999903,['c'],1,left,['9'],5,1.0814515999998093,,,8,20,Vrouw,Rechts,1,
,xotask,xotask,xotask,9,1,69,69,training,positivefb,94,easy,72,1.1000693000000865,['c'],1,left,['0'],6,0.4266597000000729,,,8,20,Vrouw,Rechts,1,
,xotask,xotask,xotask,10,1,70,70,training,positivefb,94,average,62,1.3176962000000003,['c'],1,left,['9'],5,1.6614070999999058,,,8,20,Vrouw,Rechts,1,
,xotask,xotask,xotask,11,1,71,71,training,positivefb,96,easy,7,1.2497340999998414,['n'],1,right,['8'],4,0.6088133000000653,,,8,20,Vrouw,Rechts,1,
,xotask,xotask,xotask,12,1,72,72,training,positivefb,99,average,64,0.9000685999999405,['c'],1,left,['9'],5,1.9090815999998085,,,8,20,Vrouw,Rechts,1,
,xotask,xotask,xotask,13,1,73,73,training,positivefb,90,easy,5,1.5000215000000026,['n'],1,right,['9'],5,0.580208900000116,,,8,20,Vrouw,Rechts,1,
,xotask,xotask,xotask,14,1,74,74,training,positivefb,86,easy,72,2.0669991999998274,['c'],1,left,['9'],5,0.898928099999921,,,8,20,Vrouw,Rechts,1,
,xotask,xotask,xotask,15,1,75,75,training,positivefb,83,average,17,1.1663813999998638,['n'],1,right,['9'],5,0.3842686999998932,,,8,20,Vrouw,Rechts,1,
,xotask,xotask,xotask,16,1,76,76,training,positivefb,32,easy,8,2.3177550000000338,['c'],0,right,['8'],4,0.5482308999999077,,,8,20,Vrouw,Rechts,1,
,xotask,xotask,xotask,17,1,77,77,training,positivefb,93,hard,27,3.284125500000073,['n'],1,right,['8'],4,0.8912717999999131,,,8,20,Vrouw,Rechts,1,
,xotask,xotask,xotask,18,1,78,78,training,positivefb,87,average,63,1.1502978000000894,['c'],1,left,['3'],3,0.9302205000001322,,,8,20,Vrouw,Rechts,1,
,xotask,xotask,xotask,19,1,79,79,training,positivefb,84,easy,6,0.8505012000000534,['n'],1,right,['9'],5,0.41102509999996073,,,8,20,Vrouw,Rechts,1,
,xotask,xotask,xotask,20,1,80,80,training,positivefb,19,hard,27,1.5009966999998596,['c'],0,right,['9'],5,1.4710730000001604,,,8,20,Vrouw,Rechts,1,
,xotask,xotask,xotask,21,1,81,81,training,positivefb,95,easy,74,2.0170697999999447,['c'],1,left,['9'],5,0.8109594000000016,,,8,20,Vrouw,Rechts,1,
,xotask,xotask,xotask,22,1,82,82,training,positivefb,92,easy,7,0.8500764000000345,['n'],1,right,['0'],6,0.44916890000013154,,,8,20,Vrouw,Rechts,1,
,xotask,xotask,xotask,23,1,83,83,training,positivefb,63,hard,51,1.5344886000000315,['n'],0,left,['0'],6,0.8818650000000616,,,8,20,Vrouw,Rechts,1,
,xotask,xotask,xotask,24,1,84,84,training,positivefb,35,hard,50,1.6843097999999372,['c'],1,left,['8'],4,0.9236003999999411,,,8,20,Vrouw,Rechts,1,
,xotask,xotask,xotask,25,1,85,85,training,positivefb,87,hard,25,2.1998636000000715,['n'],1,right,['3'],3,0.9978633999999147,,,8,20,Vrouw,Rechts,1,
,xotask,xotask,xotask,26,1,86,86,training,positivefb,88,easy,73,1.3828816000000188,['c'],1,left,['0'],6,0.7514541999998983,,,8,20,Vrouw,Rechts,1,
,xotask,xotask,xotask,27,1,87,87,training,positivefb,98,easy,74,1.1008077999999841,['c'],1,left,['0'],6,0.46987050000007,,,8,20,Vrouw,Rechts,1,
,xotask,xotask,xotask,28,1,88,88,training,positivefb,88,hard,53,3.3163443999999345,['c'],1,left,['3'],3,1.7660157000000254,,,8,20,Vrouw,Rechts,1,
,xotask,xotask,xotask,29,1,89,89,training,positivefb,92,hard,26,2.5178682999999182,['n'],1,right,['9'],5,1.8420649999998204,,,8,20,Vrouw,Rechts,1,
,xotask,xotask,xotask,30,1,90,90,training,positivefb,99,easy,8,1.0997525000000223,['n'],1,right,['8'],4,0.932144899999912,,,8,20,Vrouw,Rechts,1,
,xotask,xotask,xotask,31,1,91,91,training,positivefb,96,easy,72,1.967024199999969,['c'],1,left,['8'],4,1.2562454999999773,,,8,20,Vrouw,Rechts,1,
,xotask,xotask,xotask,32,1,92,92,training,positivefb,95,average,17,1.583860100000038,['n'],1,right,['9'],5,0.6621658999999909,,,8,20,Vrouw,Rechts,1,
,xotask,xotask,xotask,33,1,93,93,training,positivefb,92,hard,26,1.3505901999999423,['n'],1,right,['3'],3,1.3429470000000947,,,8,20,Vrouw,Rechts,1,
,xotask,xotask,xotask,34,1,94,94,training,positivefb,93,hard,50,2.050178199999891,['n'],0,left,['8'],4,1.462207000000035,,,8,20,Vrouw,Rechts,1,
,xotask,xotask,xotask,35,1,95,95,training,positivefb,94,hard,54,1.7835015999999086,['c'],1,left,['3'],3,0.9163942000000134,,,8,20,Vrouw,Rechts,1,
,xotask,xotask,xotask,36,1,96,96,training,positivefb,63,average,61,1.5680230000000392,['c'],1,left,['8'],4,1.120933100000002,,,8,20,Vrouw,Rechts,1,
,xotask,xotask,xotask,37,1,97,97,training,positivefb,100,easy,70,1.217336499999874,['c'],1,left,['8'],4,2.0434176999999636,,,8,20,Vrouw,Rechts,1,
,xotask,xotask,xotask,38,1,98,98,training,positivefb,88,easy,8,1.134056499999815,['n'],1,right,['0'],6,0.5319311999999172,,,8,20,Vrouw,Rechts,1,
,xotask,xotask,xotask,39,1,99,99,training,positivefb,79,hard,29,1.682876800000031,['n'],1,right,['0'],6,0.4751624000000447,,,8,20,Vrouw,Rechts,1,
,xotask,xotask,xotask,40,1,100,100,training,positivefb,100,average,62,1.0005962000000181,['c'],1,left,['9'],5,0.8004993999998078,,,8,20,Vrouw,Rechts,1,
,xotask,xotask,xotask,41,1,101,101,training,positivefb,83,hard,26,1.4168985000001157,['n'],1,right,['8'],4,1.0961205000000973,,,8,20,Vrouw,Rechts,1,
,xotask,xotask,xotask,42,1,102,102,training,positivefb,98,average,61,1.3321884000001774,['c'],1,left,['8'],4,0.726696999999831,,,8,20,Vrouw,Rechts,1,
,xotask,xotask,xotask,43,1,103,103,training,positivefb,98,easy,72,0.9667896000000837,['c'],1,left,['8'],4,0.90744380000001,,,8,20,Vrouw,Rechts,1,
,xotask,xotask,xotask,44,1,104,104,training,positivefb,55,average,16,1.4178156999998919,['n'],1,right,['8'],4,0.7832381999999143,,,8,20,Vrouw,Rechts,1,
,xotask,xotask,xotask,45,1,105,105,training,positivefb,89,average,16,1.9668523000000278,['n'],1,right,['0'],6,0.4407456000001275,,,8,20,Vrouw,Rechts,1,
,xotask,xotask,xotask,46,1,106,106,training,positivefb,85,hard,26,1.166563300000007,['c'],0,right,['8'],4,0.6727366000000075,,,8,20,Vrouw,Rechts,1,
,xotask,xotask,xotask,47,1,107,107,training,positivefb,99,average,18,1.3832218000000012,['n'],1,right,['8'],4,0.9666526000000886,,,8,20,Vrouw,Rechts,1,
,xotask,xotask,xotask,48,1,108,108,training,positivefb,97,average,63,1.1169909000000189,['c'],1,left,['0'],6,0.8353051000001415,,,8,20,Vrouw,Rechts,1,
,xotask,xotask,xotask,49,1,109,109,training,positivefb,66,average,16,1.2162846000001082,['n'],1,right,['0'],6,0.5695019999998294,,,8,20,Vrouw,Rechts,1,
,xotask,xotask,xotask,50,1,110,110,training,positivefb,92,easy,5,1.2162149000000682,['n'],1,right,['9'],5,0.8579687999999805,,,8,20,Vrouw,Rechts,1,
,xotask,xotask,xotask,51,1,111,111,training,positivefb,57,hard,52,2.150300199999947,['c'],1,left,['8'],4,0.730201500000021,,,8,20,Vrouw,Rechts,1,
,xotask,xotask,xotask,52,1,112,112,training,positivefb,92,average,60,1.4001373999999487,['c'],1,left,['8'],4,0.613612699999976,,,8,20,Vrouw,Rechts,1,
,xotask,xotask,xotask,53,1,113,113,training,positivefb,85,average,63,1.200089700000035,['c'],1,left,['8'],4,0.509587399999873,,,8,20,Vrouw,Rechts,1,
,xotask,xotask,xotask,54,1,114,114,training,positivefb,98,hard,28,1.0345008000001599,['n'],1,right,['9'],5,1.0482500000000528,,,8,20,Vrouw,Rechts,1,
,xotask,xotask,xotask,55,1,115,115,training,positivefb,93,hard,53,1.3340867000001708,['c'],1,left,['1'],1,1.2569641000000047,,,8,20,Vrouw,Rechts,1,
,xotask,xotask,xotask,56,1,116,116,training,positivefb,88,average,17,2.116933400000107,['n'],1,right,['9'],5,1.6017658999999185,,,8,20,Vrouw,Rechts,1,
,xotask,xotask,xotask,57,1,117,117,training,positivefb,27,hard,54,1.8172749999998814,['n'],0,left,['9'],5,0.49638789999994515,,,8,20,Vrouw,Rechts,1,
,xotask,xotask,xotask,58,1,118,118,training,positivefb,97,average,16,1.3830846999999267,['n'],1,right,['9'],5,0.9095919999999751,,,8,20,Vrouw,Rechts,1,
,xotask,xotask,xotask,59,1,119,119,training,positivefb,99,easy,5,0.8327762000001258,['n'],1,right,['0'],6,0.45646739999983765,,,8,20,Vrouw,Rechts,1,
,xotask,xotask,xotask,0,2,120,120,main,positivefb,-99,average,16,1.9342802999999549,['n'],1,right,['0'],6,1.0199356000000535,,,8,20,Vrouw,Rechts,1,
,xotask,xotask,xotask,1,2,121,121,main,positivefb,-99,hard,50,8.150728500000014,['n'],0,left,['1'],1,1.325451300000168,,,8,20,Vrouw,Rechts,1,
,xotask,xotask,xotask,2,2,122,122,main,positivefb,-99,average,64,1.2346039999999903,['c'],1,left,['0'],6,1.4962322000001222,,,8,20,Vrouw,Rechts,1,
,xotask,xotask,xotask,3,2,123,123,main,positivefb,-99,easy,9,3.5008777000000464,['c'],0,right,['8'],4,0.8341831000000184,,,8,20,Vrouw,Rechts,1,
,xotask,xotask,xotask,4,2,124,124,main,positivefb,-99,easy,70,0.9669506000000183,['c'],1,left,['8'],4,0.7144433000000845,,,8,20,Vrouw,Rechts,1,
,xotask,xotask,xotask,5,2,125,125,main,positivefb,-99,average,18,1.5348026000001482,['n'],1,right,['0'],6,0.7930427999999665,,,8,20,Vrouw,Rechts,1,
,xotask,xotask,xotask,6,2,126,126,main,positivefb,-99,hard,51,1.5351745999998911,['c'],1,left,['0'],6,0.8694260000002032,,,8,20,Vrouw,Rechts,1,
,xotask,xotask,xotask,7,2,127,127,main,positivefb,-99,easy,8,2.151412599999958,['n'],1,right,['8'],4,1.3887717999998586,,,8,20,Vrouw,Rechts,1,
,xotask,xotask,xotask,8,2,128,128,main,positivefb,-99,easy,71,1.2839449000000513,['c'],1,left,['9'],5,1.155548799999906,,,8,20,Vrouw,Rechts,1,
,xotask,xotask,xotask,9,2,129,129,main,positivefb,-99,average,63,0.9502451000000747,['c'],1,left,['9'],5,0.5444857999998476,,,8,20,Vrouw,Rechts,1,
,xotask,xotask,xotask,10,2,130,130,main,positivefb,-99,average,17,1.3010479999998097,['n'],1,right,['0'],6,1.4632676000001084,,,8,20,Vrouw,Rechts,1,
,xotask,xotask,xotask,11,2,131,131,main,positivefb,-99,easy,7,1.2008831000000555,['n'],1,right,['0'],6,0.749610500000017,,,8,20,Vrouw,Rechts,1,
,xotask,xotask,xotask,12,2,132,132,main,positivefb,-99,average,18,1.651119000000108,['n'],1,right,['0'],6,0.8709987999998248,,,8,20,Vrouw,Rechts,1,
,xotask,xotask,xotask,13,2,133,133,main,positivefb,-99,easy,72,0.9506834999999683,['c'],1,left,['9'],5,1.1510169999999107,,,8,20,Vrouw,Rechts,1,
,xotask,xotask,xotask,14,2,134,134,main,positivefb,-99,hard,53,1.8680366000000959,['n'],0,left,['8'],4,0.9353274000000056,,,8,20,Vrouw,Rechts,1,
,xotask,xotask,xotask,15,2,135,135,main,positivefb,-99,easy,8,1.0673589000000447,['n'],1,right,['0'],6,0.6395720000000438,,,8,20,Vrouw,Rechts,1,
,xotask,xotask,xotask,16,2,136,136,main,positivefb,-99,hard,27,1.1514274999999543,['c'],0,right,['9'],5,0.8567199999999957,,,8,20,Vrouw,Rechts,1,
,xotask,xotask,xotask,17,2,137,137,main,positivefb,-99,easy,6,1.6349076000001332,['n'],1,right,['9'],5,1.438276999999971,,,8,20,Vrouw,Rechts,1,
,xotask,xotask,xotask,18,2,138,138,main,positivefb,-99,easy,7,0.9174750999998196,['n'],1,right,['0'],6,0.5689544000001661,,,8,20,Vrouw,Rechts,1,
,xotask,xotask,xotask,19,2,139,139,main,positivefb,-99,hard,25,0.8505267000000458,['n'],1,right,['0'],6,0.5203887000000122,,,8,20,Vrouw,Rechts,1,
,xotask,xotask,xotask,20,2,140,140,main,positivefb,-99,average,62,0.7835984999999255,['c'],1,left,['9'],5,1.173510399999941,,,8,20,Vrouw,Rechts,1,
,xotask,xotask,xotask,21,2,141,141,main,positivefb,-99,easy,72,0.8342683000000761,['c'],1,left,['9'],5,0.9344341999999415,,,8,20,Vrouw,Rechts,1,
,xotask,xotask,xotask,22,2,142,142,main,positivefb,-99,hard,25,1.2162223000000267,['c'],0,right,['9'],5,0.641646400000127,,,8,20,Vrouw,Rechts,1,
,xotask,xotask,xotask,23,2,143,143,main,positivefb,-99,easy,73,0.9178671999998187,['c'],1,left,['9'],5,0.5317324000000099,,,8,20,Vrouw,Rechts,1,
,xotask,xotask,xotask,24,2,144,144,main,positivefb,-99,hard,54,0.8007379000000583,['c'],1,left,['9'],5,0.6710387999999057,,,8,20,Vrouw,Rechts,1,
,xotask,xotask,xotask,25,2,145,145,main,positivefb,-99,hard,26,1.2849426000000221,['n'],1,right,['8'],4,0.7694700999998076,,,8,20,Vrouw,Rechts,1,
,xotask,xotask,xotask,26,2,146,146,main,positivefb,-99,average,18,1.5344283000001724,['c'],0,right,['1'],1,1.2541535000000295,,,8,20,Vrouw,Rechts,1,
,xotask,xotask,xotask,27,2,147,147,main,positivefb,-99,hard,27,1.9845384000000195,['n'],1,right,['9'],5,0.789713600000141,,,8,20,Vrouw,Rechts,1,
,xotask,xotask,xotask,28,2,148,148,main,positivefb,-99,easy,74,1.2348723999998583,['c'],1,left,['8'],4,1.4934906999999384,,,8,20,Vrouw,Rechts,1,
,xotask,xotask,xotask,29,2,149,149,main,positivefb,-99,easy,9,1.2171974000000318,['c'],0,right,['2'],2,3.4745292000000063,,,8,20,Vrouw,Rechts,1,
,xotask,xotask,xotask,30,2,150,150,main,positivefb,-99,hard,27,1.9509951,['n'],1,right,['9'],5,1.226699999999937,,,8,20,Vrouw,Rechts,1,
,xotask,xotask,xotask,31,2,151,151,main,positivefb,-99,easy,70,1.1014081000000715,['c'],1,left,['9'],5,1.0149097999999412,,,8,20,Vrouw,Rechts,1,
,xotask,xotask,xotask,32,2,152,152,main,positivefb,-99,average,62,0.8014281999999184,['c'],1,left,['9'],5,0.694891799999823,,,8,20,Vrouw,Rechts,1,
,xotask,xotask,xotask,33,2,153,153,main,positivefb,-99,hard,53,0.700662100000045,['c'],1,left,['3'],3,1.5280620000000908,,,8,20,Vrouw,Rechts,1,
,xotask,xotask,xotask,34,2,154,154,main,positivefb,-99,hard,26,1.4680267999999614,['n'],1,right,['8'],4,0.9611159999999472,,,8,20,Vrouw,Rechts,1,
,xotask,xotask,xotask,35,2,155,155,main,positivefb,-99,average,63,1.7337658999999803,['c'],1,left,['8'],4,1.3831273000000692,,,8,20,Vrouw,Rechts,1,
,xotask,xotask,xotask,36,2,156,156,main,positivefb,-99,hard,54,1.383880500000032,['c'],1,left,['8'],4,1.4413406000001032,,,8,20,Vrouw,Rechts,1,
,xotask,xotask,xotask,37,2,157,157,main,positivefb,-99,hard,51,1.367831299999807,['c'],1,left,['8'],4,0.7853571000000557,,,8,20,Vrouw,Rechts,1,
,xotask,xotask,xotask,38,2,158,158,main,positivefb,-99,easy,74,0.7670450999999048,['c'],1,left,['8'],4,0.6196522000000186,,,8,20,Vrouw,Rechts,1,
,xotask,xotask,xotask,39,2,159,159,main,positivefb,-99,hard,53,1.7514598000000206,['c'],1,left,['3'],3,0.49424739999994927,,,8,20,Vrouw,Rechts,1,
,xotask,xotask,xotask,40,2,160,160,main,positivefb,-99,easy,5,1.0010657999998784,['n'],1,right,['0'],6,1.115395499999977,,,8,20,Vrouw,Rechts,1,
,xotask,xotask,xotask,41,2,161,161,main,positivefb,-99,hard,25,1.2672602000000097,['c'],0,right,['8'],4,0.5088614999999663,,,8,20,Vrouw,Rechts,1,
,xotask,xotask,xotask,42,2,162,162,main,positivefb,-99,average,63,1.866529299999911,['c'],1,left,['8'],4,0.6143698000000768,,,8,20,Vrouw,Rechts,1,
,xotask,xotask,xotask,43,2,163,163,main,positivefb,-99,hard,54,1.0171276999999463,['c'],1,left,['3'],3,1.3738734000000932,,,8,20,Vrouw,Rechts,1,
,xotask,xotask,xotask,44,2,164,164,main,positivefb,-99,easy,73,1.266603000000032,['c'],1,left,['8'],4,1.3815618000000995,,,8,20,Vrouw,Rechts,1,
,xotask,xotask,xotask,45,2,165,165,main,positivefb,-99,average,62,0.7510167999998885,['c'],1,left,['8'],4,0.55246360000001,,,8,20,Vrouw,Rechts,1,
,xotask,xotask,xotask,46,2,166,166,main,positivefb,-99,easy,9,0.8680772000000161,['n'],1,right,['9'],5,0.9053081000001839,,,8,20,Vrouw,Rechts,1,
,xotask,xotask,xotask,47,2,167,167,main,positivefb,-99,average,15,0.7669321999999283,['n'],1,right,['9'],5,0.8863121000001684,,,8,20,Vrouw,Rechts,1,
,xotask,xotask,xotask,48,2,168,168,main,positivefb,-99,average,17,1.984445899999855,['c'],0,right,['3'],3,1.2847148999999263,,,8,20,Vrouw,Rechts,1,
,xotask,xotask,xotask,49,2,169,169,main,positivefb,-99,easy,7,0.7502342000000226,['n'],1,right,['9'],5,0.9805838999998286,,,8,20,Vrouw,Rechts,1,
,xotask,xotask,xotask,50,2,170,170,main,positivefb,-99,average,15,0.6841546000000562,['n'],1,right,['9'],5,0.7387737999999899,,,8,20,Vrouw,Rechts,1,
,xotask,xotask,xotask,51,2,171,171,main,positivefb,-99,average,61,3.167547000000013,['c'],1,left,['2'],2,1.8723544000001766,,,8,20,Vrouw,Rechts,1,
,xotask,xotask,xotask,52,2,172,172,main,positivefb,-99,hard,28,2.966916000000083,['c'],0,right,['8'],4,0.718737899999951,,,8,20,Vrouw,Rechts,1,
,xotask,xotask,xotask,53,2,173,173,main,positivefb,-99,average,60,0.8506941000000552,['c'],1,left,['3'],3,0.5927577999998448,,,8,20,Vrouw,Rechts,1,
,xotask,xotask,xotask,54,2,174,174,main,positivefb,-99,average,19,0.9497142999998687,['n'],1,right,['8'],4,0.5642864999999802,,,8,20,Vrouw,Rechts,1,
,xotask,xotask,xotask,55,2,175,175,main,positivefb,-99,hard,29,2.051541199999974,['c'],0,right,['3'],3,0.45261009999990165,,,8,20,Vrouw,Rechts,1,
,xotask,xotask,xotask,56,2,176,176,main,positivefb,-99,average,18,1.0346736000001329,['n'],1,right,['9'],5,1.241651499999989,,,8,20,Vrouw,Rechts,1,
,xotask,xotask,xotask,57,2,177,177,main,positivefb,-99,hard,52,0.9674751000000015,['c'],1,left,['3'],3,0.9308189000000766,,,8,20,Vrouw,Rechts,1,
,xotask,xotask,xotask,58,2,178,178,main,positivefb,-99,average,62,0.8010148000000754,['c'],1,left,['9'],5,0.9749328000000332,,,8,20,Vrouw,Rechts,1,
,xotask,xotask,xotask,59,2,179,179,main,positivefb,-99,easy,71,0.7182932999999139,['c'],1,left,['9'],5,0.6679655999998886,,,8,20,Vrouw,Rechts,1,
,xotask,xotask,xotask,0,3,180,180,main,positivefb,-99,average,63,1.5339586999998573,['c'],1,left,['9'],5,1.7008989000000838,,,8,20,Vrouw,Rechts,1,
,xotask,xotask,xotask,1,3,181,181,main,positivefb,-99,average,64,0.8174882999999227,['c'],1,left,['9'],5,0.49689699999998993,,,8,20,Vrouw,Rechts,1,
,xotask,xotask,xotask,2,3,182,182,main,positivefb,-99,average,18,1.1008178999998108,['c'],0,right,['9'],5,0.47392949999994016,,,8,20,Vrouw,Rechts,1,
,xotask,xotask,xotask,3,3,183,183,main,positivefb,-99,hard,53,1.0846030000000155,['c'],1,left,['9'],5,0.5888709000000745,,,8,20,Vrouw,Rechts,1,
,xotask,xotask,xotask,4,3,184,184,main,positivefb,-99,hard,54,1.0014602000001105,['c'],1,left,['8'],4,1.2625187999999525,,,8,20,Vrouw,Rechts,1,
,xotask,xotask,xotask,5,3,185,185,main,positivefb,-99,easy,6,1.0009173999999348,['n'],1,right,['8'],4,1.6690455000000384,,,8,20,Vrouw,Rechts,1,
,xotask,xotask,xotask,6,3,186,186,main,positivefb,-99,hard,25,0.6168305999999575,['n'],1,right,['8'],4,0.5218766999998934,,,8,20,Vrouw,Rechts,1,
,xotask,xotask,xotask,7,3,187,187,main,positivefb,-99,average,62,1.367697700000008,['n'],0,left,['8'],4,0.8878190999998878,,,8,20,Vrouw,Rechts,1,
,xotask,xotask,xotask,8,3,188,188,main,positivefb,-99,hard,50,0.9675580000000537,['n'],0,left,['8'],4,0.7902294999998958,,,8,20,Vrouw,Rechts,1,
,xotask,xotask,xotask,9,3,189,189,main,positivefb,-99,easy,74,0.7327032999999119,['c'],1,left,['8'],4,0.874586600000157,,,8,20,Vrouw,Rechts,1,
,xotask,xotask,xotask,10,3,190,190,main,positivefb,-99,easy,6,0.7339681999999357,['n'],1,right,['9'],5,0.5951173000000836,,,8,20,Vrouw,Rechts,1,
,xotask,xotask,xotask,11,3,191,191,main,positivefb,-99,average,18,1.150053699999944,['c'],0,right,['8'],4,0.5261109000000488,,,8,20,Vrouw,Rechts,1,
,xotask,xotask,xotask,12,3,192,192,main,positivefb,-99,hard,26,1.1013001999999688,['c'],0,right,['2'],2,1.5266225000000304,,,8,20,Vrouw,Rechts,1,
,xotask,xotask,xotask,13,3,193,193,main,positivefb,-99,hard,53,1.701328900000135,['n'],0,left,['9'],5,0.6705011999999897,,,8,20,Vrouw,Rechts,1,
,xotask,xotask,xotask,14,3,194,194,main,positivefb,-99,easy,73,0.8336095000001933,['c'],1,left,['9'],5,1.0028191999999763,,,8,20,Vrouw,Rechts,1,
,xotask,xotask,xotask,15,3,195,195,main,positivefb,-99,easy,72,0.8850978000000396,['c'],1,left,['0'],6,1.8804712999999538,,,8,20,Vrouw,Rechts,1,
,xotask,xotask,xotask,16,3,196,196,main,positivefb,-99,hard,27,2.001789300000155,['n'],1,right,['0'],6,1.190135699999928,,,8,20,Vrouw,Rechts,1,
,xotask,xotask,xotask,17,3,197,197,main,positivefb,-99,easy,73,1.16804860000002,['c'],1,left,['9'],5,0.5206527999998798,,,8,20,Vrouw,Rechts,1,
,xotask,xotask,xotask,18,3,198,198,main,positivefb,-99,hard,52,0.766223600000103,['c'],1,left,['9'],5,0.542886800000133,,,8,20,Vrouw,Rechts,1,
,xotask,xotask,xotask,19,3,199,199,main,positivefb,-99,easy,9,1.1017370999998093,['c'],0,right,['3'],3,1.2536158000000341,,,8,20,Vrouw,Rechts,1,
,xotask,xotask,xotask,20,3,200,200,main,positivefb,-99,easy,70,0.9838465000000269,['c'],1,left,['9'],5,1.7489762999998675,,,8,20,Vrouw,Rechts,1,
,xotask,xotask,xotask,21,3,201,201,main,positivefb,-99,hard,27,1.0677984999999808,['c'],0,right,['8'],4,0.6127097000000958,,,8,20,Vrouw,Rechts,1,
,xotask,xotask,xotask,22,3,202,202,main,positivefb,-99,easy,71,0.9017440000000079,['c'],1,left,['9'],5,0.6900035999999545,,,8,20,Vrouw,Rechts,1,
,xotask,xotask,xotask,23,3,203,203,main,positivefb,-99,hard,52,1.6501709000001483,['c'],1,left,['8'],4,0.4694514000000254,,,8,20,Vrouw,Rechts,1,
,xotask,xotask,xotask,24,3,204,204,main,positivefb,-99,average,15,1.452210599999944,['n'],1,right,['8'],4,0.6652943999999934,,,8,20,Vrouw,Rechts,1,
,xotask,xotask,xotask,25,3,205,205,main,positivefb,-99,average,61,1.1351537999998982,['c'],1,left,['8'],4,2.0735800999998446,,,8,20,Vrouw,Rechts,1,
,xotask,xotask,xotask,26,3,206,206,main,positivefb,-99,easy,8,0.8847336999999698,['c'],0,right,['1'],1,1.4049093999999513,,,8,20,Vrouw,Rechts,1,
,xotask,xotask,xotask,27,3,207,207,main,positivefb,-99,hard,53,2.9347428000000946,['c'],1,left,['9'],5,0.6962559000000965,,,8,20,Vrouw,Rechts,1,
,xotask,xotask,xotask,28,3,208,208,main,positivefb,-99,average,60,2.25140250000004,['c'],1,left,['9'],5,0.5709975000002032,,,8,20,Vrouw,Rechts,1,
,xotask,xotask,xotask,29,3,209,209,main,positivefb,-99,easy,6,1.1009613999999601,['n'],1,right,['9'],5,0.577117699999917,,,8,20,Vrouw,Rechts,1,
,xotask,xotask,xotask,30,3,210,210,main,positivefb,-99,easy,5,1.0013007000000016,['n'],1,right,['9'],5,0.6036739000001035,,,8,20,Vrouw,Rechts,1,
,xotask,xotask,xotask,31,3,211,211,main,positivefb,-99,average,18,1.4499920000000657,['c'],0,right,['8'],4,0.8979236000000128,,,8,20,Vrouw,Rechts,1,
,xotask,xotask,xotask,32,3,212,212,main,positivefb,-99,hard,25,2.2677232000000913,['n'],1,right,['8'],4,1.8841631000000234,,,8,20,Vrouw,Rechts,1,
,xotask,xotask,xotask,33,3,213,213,main,positivefb,-99,hard,52,0.984900400000015,['c'],1,left,['8'],4,0.8820446999998239,,,8,20,Vrouw,Rechts,1,
,xotask,xotask,xotask,34,3,214,214,main,positivefb,-99,average,18,2.2678855999999996,['n'],1,right,['8'],4,0.6530204000000595,,,8,20,Vrouw,Rechts,1,
,xotask,xotask,xotask,35,3,215,215,main,positivefb,-99,easy,74,0.9342767000000549,['c'],1,left,['8'],4,0.7902176000000054,,,8,20,Vrouw,Rechts,1,
,xotask,xotask,xotask,36,3,216,216,main,positivefb,-99,average,60,1.3185960999999224,['c'],1,left,['8'],4,0.6193037000000459,,,8,20,Vrouw,Rechts,1,
,xotask,xotask,xotask,37,3,217,217,main,positivefb,-99,hard,29,1.5511867000000166,['n'],1,right,['9'],5,1.0373438999999962,,,8,20,Vrouw,Rechts,1,
,xotask,xotask,xotask,38,3,218,218,main,positivefb,-99,hard,29,2.701212299999952,['n'],1,right,['8'],4,0.4957484999999906,,,8,20,Vrouw,Rechts,1,
,xotask,xotask,xotask,39,3,219,219,main,positivefb,-99,average,63,0.8330109999999422,['c'],1,left,['9'],5,1.0361477000001287,,,8,20,Vrouw,Rechts,1,
,xotask,xotask,xotask,40,3,220,220,main,positivefb,-99,average,61,0.7350232999999662,['c'],1,left,['0'],6,0.7667982000000393,,,8,20,Vrouw,Rechts,1,
,xotask,xotask,xotask,41,3,221,221,main,positivefb,-99,average,19,1.2510870000000978,['n'],1,right,['8'],4,0.8544448000000102,,,8,20,Vrouw,Rechts,1,
,xotask,xotask,xotask,42,3,222,222,main,positivefb,-99,hard,51,0.8680411999998796,['c'],1,left,['9'],5,0.43440400000008594,,,8,20,Vrouw,Rechts,1,
,xotask,xotask,xotask,43,3,223,223,main,positivefb,-99,average,16,1.2015789999998105,['n'],1,right,['8'],4,0.5697872999999163,,,8,20,Vrouw,Rechts,1,
,xotask,xotask,xotask,44,3,224,224,main,positivefb,-99,average,18,1.2518018000000666,['n'],1,right,['9'],5,0.585853600000064,,,8,20,Vrouw,Rechts,1,
,xotask,xotask,xotask,45,3,225,225,main,positivefb,-99,easy,6,0.7669276999999965,['n'],1,right,['0'],6,0.6040556999998898,,,8,20,Vrouw,Rechts,1,
,xotask,xotask,xotask,46,3,226,226,main,positivefb,-99,hard,52,1.7513887999998587,['c'],1,left,['8'],4,1.0797258000000056,,,8,20,Vrouw,Rechts,1,
,xotask,xotask,xotask,47,3,227,227,main,positivefb,-99,average,61,0.7678819000000203,['c'],1,left,['8'],4,0.39902200000005905,,,8,20,Vrouw,Rechts,1,
,xotask,xotask,xotask,48,3,228,228,main,positivefb,-99,easy,71,0.8171239999999216,['c'],1,left,['8'],4,0.3827113999998346,,,8,20,Vrouw,Rechts,1,
,xotask,xotask,xotask,49,3,229,229,main,positivefb,-99,easy,5,0.7679287000000841,['n'],1,right,['0'],6,0.6895858000000317,,,8,20,Vrouw,Rechts,1,
,xotask,xotask,xotask,50,3,230,230,main,positivefb,-99,hard,28,0.9686060999999881,['c'],0,right,['8'],4,0.6557577999999467,,,8,20,Vrouw,Rechts,1,
,xotask,xotask,xotask,51,3,231,231,main,positivefb,-99,hard,25,1.0666337999998632,['c'],0,right,['3'],3,1.4756543999999394,,,8,20,Vrouw,Rechts,1,
,xotask,xotask,xotask,52,3,232,232,main,positivefb,-99,easy,74,0.8173474999998689,['n'],0,left,['9'],5,0.5609270999998444,,,8,20,Vrouw,Rechts,1,
,xotask,xotask,xotask,53,3,233,233,main,positivefb,-99,average,62,0.9337454000001344,['c'],1,left,['9'],5,0.42207759999996597,,,8,20,Vrouw,Rechts,1,
,xotask,xotask,xotask,54,3,234,234,main,positivefb,-99,easy,6,0.934048999999959,['c'],0,right,['1'],1,0.8016343000001598,,,8,20,Vrouw,Rechts,1,
,xotask,xotask,xotask,55,3,235,235,main,positivefb,-99,easy,74,1.6673177999998643,['c'],1,left,['9'],5,0.7437336000000414,,,8,20,Vrouw,Rechts,1,
,xotask,xotask,xotask,56,3,236,236,main,positivefb,-99,hard,26,0.8673585000001367,['n'],1,right,['9'],5,1.1282470999999532,,,8,20,Vrouw,Rechts,1,
,xotask,xotask,xotask,57,3,237,237,main,positivefb,-99,easy,5,1.0180497999999716,['c'],0,right,['0'],6,0.6593811000000187,,,8,20,Vrouw,Rechts,1,
,xotask,xotask,xotask,58,3,238,238,main,positivefb,-99,average,18,8.500075899999956,['n'],1,right,['3'],3,1.9027095999999801,,,8,20,Vrouw,Rechts,1,
,xotask,xotask,xotask,59,3,239,239,main,positivefb,-99,average,17,1.2681872999999086,['n'],1,right,['9'],5,0.8479313000000275,,,8,20,Vrouw,Rechts,1,
,xotask,xotask,xotask,0,4,240,240,main,positivefb,-99,easy,6,1.6686099000000922,['n'],1,right,['0'],6,1.1666316000000734,,,8,20,Vrouw,Rechts,1,
,xotask,xotask,xotask,1,4,241,241,main,positivefb,-99,easy,6,0.6837001999999757,['n'],1,right,['0'],6,1.2850206000000526,,,8,20,Vrouw,Rechts,1,
,xotask,xotask,xotask,2,4,242,242,main,positivefb,-99,hard,51,0.7503593999999794,['c'],1,left,['8'],4,0.6201851999999235,,,8,20,Vrouw,Rechts,1,
,xotask,xotask,xotask,3,4,243,243,main,positivefb,-99,easy,72,0.5838005999999041,['c'],1,left,['8'],4,0.4215271999999004,,,8,20,Vrouw,Rechts,1,
,xotask,xotask,xotask,4,4,244,244,main,positivefb,-99,easy,70,0.900989399999844,['c'],1,left,['8'],4,0.31316499999979897,,,8,20,Vrouw,Rechts,1,
,xotask,xotask,xotask,5,4,245,245,main,positivefb,-99,average,61,0.6510346000000027,['c'],1,left,['8'],4,0.3078362000001107,,,8,20,Vrouw,Rechts,1,
,xotask,xotask,xotask,6,4,246,246,main,positivefb,-99,easy,6,1.0178827999998248,['n'],1,right,['9'],5,0.8795628999998826,,,8,20,Vrouw,Rechts,1,
,xotask,xotask,xotask,7,4,247,247,main,positivefb,-99,hard,28,0.6011432000000241,['n'],1,right,['8'],4,0.5106610000000273,,,8,20,Vrouw,Rechts,1,
,xotask,xotask,xotask,8,4,248,248,main,positivefb,-99,hard,53,0.950981800000136,['c'],1,left,['8'],4,0.8523401999998441,,,8,20,Vrouw,Rechts,1,
,xotask,xotask,xotask,9,4,249,249,main,positivefb,-99,hard,28,2.0508896000001187,['n'],1,right,['9'],5,0.7780179000001226,,,8,20,Vrouw,Rechts,1,
,xotask,xotask,xotask,10,4,250,250,main,positivefb,-99,easy,70,0.7182169000000158,['c'],1,left,['8'],4,1.6628632000001744,,,8,20,Vrouw,Rechts,1,
,xotask,xotask,xotask,11,4,251,251,main,positivefb,-99,average,17,0.9846359000000575,['n'],1,right,['9'],5,0.8464484000000994,,,8,20,Vrouw,Rechts,1,
,xotask,xotask,xotask,12,4,252,252,main,positivefb,-99,easy,74,0.8501046999999744,['c'],1,left,['8'],4,1.6032096999999794,,,8,20,Vrouw,Rechts,1,
,xotask,xotask,xotask,13,4,253,253,main,positivefb,-99,hard,53,0.7000333000000865,['c'],1,left,['8'],4,0.3358880999999201,,,8,20,Vrouw,Rechts,1,
,xotask,xotask,xotask,14,4,254,254,main,positivefb,-99,easy,5,1.0007257999998274,['n'],1,right,['9'],5,0.8192057000001114,,,8,20,Vrouw,Rechts,1,
,xotask,xotask,xotask,15,4,255,255,main,positivefb,-99,hard,29,1.617244699999901,['c'],0,right,['3'],3,0.9789516000000731,,,8,20,Vrouw,Rechts,1,
,xotask,xotask,xotask,16,4,256,256,main,positivefb,-99,hard,28,1.1517950999996174,['n'],1,right,['9'],5,0.8146433000001707,,,8,20,Vrouw,Rechts,1,
,xotask,xotask,xotask,17,4,257,257,main,positivefb,-99,hard,26,0.9008773999998994,['c'],0,right,['3'],3,1.195335299999897,,,8,20,Vrouw,Rechts,1,
,xotask,xotask,xotask,18,4,258,258,main,positivefb,-99,hard,50,1.4842710000002626,['n'],0,left,['9'],5,0.8004036000002088,,,8,20,Vrouw,Rechts,1,
,xotask,xotask,xotask,19,4,259,259,main,positivefb,-99,average,64,0.8839843999999175,['c'],1,left,['9'],5,0.8378825999998298,,,8,20,Vrouw,Rechts,1,
,xotask,xotask,xotask,20,4,260,260,main,positivefb,-99,average,19,2.0849332999996477,['n'],1,right,['9'],5,0.5141450999999506,,,8,20,Vrouw,Rechts,1,
,xotask,xotask,xotask,21,4,261,261,main,positivefb,-99,average,19,1.2677771000003304,['c'],0,right,['8'],4,0.9083177999996224,,,8,20,Vrouw,Rechts,1,
,xotask,xotask,xotask,22,4,262,262,main,positivefb,-99,hard,53,1.9341443999996955,['n'],0,left,['9'],5,0.6352305000000342,,,8,20,Vrouw,Rechts,1,
,xotask,xotask,xotask,23,4,263,263,main,positivefb,-99,hard,52,1.9339038000002802,['c'],1,left,['8'],4,0.7496351999998296,,,8,20,Vrouw,Rechts,1,
,xotask,xotask,xotask,24,4,264,264,main,positivefb,-99,easy,8,0.8160516000002644,['n'],1,right,['9'],5,0.5519671000001836,,,8,20,Vrouw,Rechts,1,
,xotask,xotask,xotask,25,4,265,265,main,positivefb,-99,easy,74,1.1173584000002847,['c'],1,left,['8'],4,2.158095400000093,,,8,20,Vrouw,Rechts,1,
,xotask,xotask,xotask,26,4,266,266,main,positivefb,-99,hard,54,0.9173234999998385,['c'],1,left,['8'],4,1.4601339999999254,,,8,20,Vrouw,Rechts,1,
,xotask,xotask,xotask,27,4,267,267,main,positivefb,-99,easy,5,0.601178599999912,['n'],1,right,['9'],5,0.426502100000107,,,8,20,Vrouw,Rechts,1,
,xotask,xotask,xotask,28,4,268,268,main,positivefb,-99,hard,50,2.535031500000059,['c'],1,left,['8'],4,0.9967176000000109,,,8,20,Vrouw,Rechts,1,
,xotask,xotask,xotask,29,4,269,269,main,positivefb,-99,easy,5,0.5831699999998818,['n'],1,right,['9'],5,0.5110334000000876,,,8,20,Vrouw,Rechts,1,
,xotask,xotask,xotask,30,4,270,270,main,positivefb,-99,average,15,0.9842048999998951,['n'],1,right,['9'],5,0.4200279000001501,,,8,20,Vrouw,Rechts,1,
,xotask,xotask,xotask,31,4,271,271,main,positivefb,-99,hard,50,0.850072000000182,['c'],1,left,['8'],4,0.43435660000022835,,,8,20,Vrouw,Rechts,1,
,xotask,xotask,xotask,32,4,272,272,main,positivefb,-99,average,64,0.7839718000000175,['c'],1,left,['8'],4,0.6660511000000042,,,8,20,Vrouw,Rechts,1,
,xotask,xotask,xotask,33,4,273,273,main,positivefb,-99,hard,29,0.6681496000001061,['n'],1,right,['9'],5,0.6219247999997606,,,8,20,Vrouw,Rechts,1,
,xotask,xotask,xotask,34,4,274,274,main,positivefb,-99,average,63,0.9177632000000813,['c'],1,left,['9'],5,1.5127858000000742,,,8,20,Vrouw,Rechts,1,
,xotask,xotask,xotask,35,4,275,275,main,positivefb,-99,average,62,0.6841563999996652,['c'],1,left,['9'],5,0.9546344000000317,,,8,20,Vrouw,Rechts,1,
,xotask,xotask,xotask,36,4,276,276,main,positivefb,-99,average,62,0.8844450000001416,['c'],1,left,['8'],4,0.602117299999918,,,8,20,Vrouw,Rechts,1,
,xotask,xotask,xotask,37,4,277,277,main,positivefb,-99,hard,25,1.3003186999999343,['c'],0,right,['8'],4,0.5507870000001276,,,8,20,Vrouw,Rechts,1,
,xotask,xotask,xotask,38,4,278,278,main,positivefb,-99,easy,6,0.8005914000000303,['n'],1,right,['9'],5,0.9697938000003887,,,8,20,Vrouw,Rechts,1,
,xotask,xotask,xotask,39,4,279,279,main,positivefb,-99,easy,71,0.8182996000000458,['c'],1,left,['9'],5,0.690922799999953,,,8,20,Vrouw,Rechts,1,
,xotask,xotask,xotask,40,4,280,280,main,positivefb,-99,hard,25,0.8516525999998521,['n'],1,right,['8'],4,0.6776688999998441,,,8,20,Vrouw,Rechts,1,
,xotask,xotask,xotask,41,4,281,281,main,positivefb,-99,average,15,1.4007893000002696,['n'],1,right,['9'],5,0.7640753000000586,,,8,20,Vrouw,Rechts,1,
,xotask,xotask,xotask,42,4,282,282,main,positivefb,-99,easy,7,0.8346228999998857,['c'],0,right,['2'],2,1.8702713000002404,,,8,20,Vrouw,Rechts,1,
,xotask,xotask,xotask,43,4,283,283,main,positivefb,-99,average,15,1.7672897000002195,['c'],0,right,['8'],4,0.6129131999996389,,,8,20,Vrouw,Rechts,1,
,xotask,xotask,xotask,44,4,284,284,main,positivefb,-99,easy,73,0.8171981999998934,['c'],1,left,['8'],4,0.884650199999669,,,8,20,Vrouw,Rechts,1,
,xotask,xotask,xotask,45,4,285,285,main,positivefb,-99,average,17,1.4344695000004322,['n'],1,right,['9'],5,0.5844882999999754,,,8,20,Vrouw,Rechts,1,
,xotask,xotask,xotask,46,4,286,286,main,positivefb,-99,easy,70,1.1004940000002534,['c'],1,left,['8'],4,1.1096114000001762,,,8,20,Vrouw,Rechts,1,
,xotask,xotask,xotask,47,4,287,287,main,positivefb,-99,hard,28,0.9513170000000173,['n'],1,right,['9'],5,0.47715359999983775,,,8,20,Vrouw,Rechts,1,
,xotask,xotask,xotask,48,4,288,288,main,positivefb,-99,average,63,1.5167359000001852,['c'],1,left,['8'],4,1.165876400000343,,,8,20,Vrouw,Rechts,1,
,xotask,xotask,xotask,49,4,289,289,main,positivefb,-99,average,63,1.850996699999996,['c'],1,left,['9'],5,0.49415559999988545,,,8,20,Vrouw,Rechts,1,
,xotask,xotask,xotask,50,4,290,290,main,positivefb,-99,easy,7,0.9178905000003397,['n'],1,right,['0'],6,0.7112319000002572,,,8,20,Vrouw,Rechts,1,
,xotask,xotask,xotask,51,4,291,291,main,positivefb,-99,average,18,0.9342320999999174,['n'],1,right,['3'],3,1.8141845000000103,,,8,20,Vrouw,Rechts,1,
,xotask,xotask,xotask,52,4,292,292,main,positivefb,-99,average,19,1.4685661999997137,['c'],0,right,['8'],4,1.1161781000000701,,,8,20,Vrouw,Rechts,1,
,xotask,xotask,xotask,53,4,293,293,main,positivefb,-99,easy,72,0.8501861999998255,['c'],1,left,['9'],5,0.42177369999990333,,,8,20,Vrouw,Rechts,1,
,xotask,xotask,xotask,54,4,294,294,main,positivefb,-99,hard,51,1.0851808000002165,['n'],0,left,['9'],5,0.8028868999999759,,,8,20,Vrouw,Rechts,1,
,xotask,xotask,xotask,55,4,295,295,main,positivefb,-99,average,19,1.8169411999997465,['n'],1,right,['8'],4,0.5468356999999742,,,8,20,Vrouw,Rechts,1,
,xotask,xotask,xotask,56,4,296,296,main,positivefb,-99,hard,26,1.101424699999825,['c'],0,right,['9'],5,0.7864048999999795,,,8,20,Vrouw,Rechts,1,
,xotask,xotask,xotask,57,4,297,297,main,positivefb,-99,easy,71,0.7345143999996253,['c'],1,left,['9'],5,1.9101904000003742,,,8,20,Vrouw,Rechts,1,
,xotask,xotask,xotask,58,4,298,298,main,positivefb,-99,average,62,0.7005176999996365,['c'],1,left,['9'],5,0.8389237000001231,,,8,20,Vrouw,Rechts,1,
,xotask,xotask,xotask,59,4,299,299,main,positivefb,-99,average,60,0.7836029000000053,['c'],1,left,['9'],5,0.4154159999998228,,,8,20,Vrouw,Rechts,1,
,xotask,xotask,xotask,0,0,0,300,training,positivefb,98,easy,71,1.401079799999934,['c'],1,left,['9'],5,1.4949303000003056,,,8,20,Vrouw,Rechts,1,
,xotask,xotask,xotask,1,0,1,301,training,positivefb,79,hard,28,1.7505243999999038,['n'],1,right,['0'],6,1.4922857999999906,,,8,20,Vrouw,Rechts,1,
,xotask,xotask,xotask,2,0,2,302,training,positivefb,99,easy,5,0.8672381999999743,['n'],1,right,['0'],6,0.5587051000002248,,,8,20,Vrouw,Rechts,1,
,xotask,xotask,xotask,3,0,3,303,training,positivefb,99,easy,7,0.6829955999996855,['n'],1,right,['0'],6,0.48525019999988217,,,8,20,Vrouw,Rechts,1,
,xotask,xotask,xotask,4,0,4,304,training,positivefb,97,easy,9,0.5349720000003799,['n'],1,right,['0'],6,0.4521292999997968,,,8,20,Vrouw,Rechts,1,
,xotask,xotask,xotask,5,0,5,305,training,positivefb,77,easy,5,0.6335151000002952,['n'],1,right,['0'],6,0.42431970000006913,,,8,20,Vrouw,Rechts,1,
,xotask,xotask,xotask,6,0,6,306,training,positivefb,87,average,60,0.9827133000003414,['c'],1,left,['9'],5,0.5044072999999116,,,8,20,Vrouw,Rechts,1,
,xotask,xotask,xotask,7,0,7,307,training,positivefb,100,easy,70,0.5333519999999226,['c'],1,left,['9'],5,0.4240148999997473,,,8,20,Vrouw,Rechts,1,
,xotask,xotask,xotask,8,0,8,308,training,positivefb,80,hard,26,1.1000274000002719,['n'],1,right,['9'],5,0.6114372000001822,,,8,20,Vrouw,Rechts,1,
,xotask,xotask,xotask,9,0,9,309,training,positivefb,62,easy,5,0.750867400000061,['c'],0,right,['1'],1,1.277080500000011,,,8,20,Vrouw,Rechts,1,
,xotask,xotask,xotask,10,0,10,310,training,positivefb,97,average,64,1.3668453000000227,['c'],1,left,['0'],6,3.043019700000059,,,8,20,Vrouw,Rechts,1,
,xotask,xotask,xotask,11,0,11,311,training,positivefb,82,hard,50,0.7498208999995768,['c'],1,left,['9'],5,0.38629430000037246,,,8,20,Vrouw,Rechts,1,
,xotask,xotask,xotask,12,0,12,312,training,positivefb,74,hard,28,1.234294200000022,['n'],1,right,['8'],4,0.7611220999997386,,,8,20,Vrouw,Rechts,1,
,xotask,xotask,xotask,13,0,13,313,training,positivefb,99,easy,70,1.0991827000002559,['c'],1,left,['8'],4,1.472342800000206,,,8,20,Vrouw,Rechts,1,
,xotask,xotask,xotask,14,0,14,314,training,positivefb,95,hard,54,0.7668459000001349,['c'],1,left,['9'],5,0.46969269999999597,,,8,20,Vrouw,Rechts,1,
,xotask,xotask,xotask,15,0,15,315,training,positivefb,97,average,62,0.7995574000001398,['c'],1,left,['0'],6,1.099242299999787,,,8,20,Vrouw,Rechts,1,
,xotask,xotask,xotask,16,0,16,316,training,positivefb,98,easy,72,0.6510331999998016,['c'],1,left,['0'],6,0.7565910000002987,,,8,20,Vrouw,Rechts,1,
,xotask,xotask,xotask,17,0,17,317,training,positivefb,97,easy,74,0.5666716000000633,['c'],1,left,['0'],6,0.48013099999980113,,,8,20,Vrouw,Rechts,1,
,xotask,xotask,xotask,18,0,18,318,training,positivefb,96,average,16,1.183913300000313,['n'],1,right,['0'],6,0.837660600000163,,,8,20,Vrouw,Rechts,1,
,xotask,xotask,xotask,19,0,19,319,training,positivefb,94,average,63,1.900160600000163,['c'],1,left,['9'],5,1.7925012000000606,,,8,20,Vrouw,Rechts,1,
,xotask,xotask,xotask,20,0,20,320,training,positivefb,97,easy,7,0.9172259000001759,['n'],1,right,['9'],5,0.49932369999987714,,,8,20,Vrouw,Rechts,1,
,xotask,xotask,xotask,21,0,21,321,training,positivefb,99,average,60,0.8833921000000373,['c'],1,left,['9'],5,0.5166871999999785,,,8,20,Vrouw,Rechts,1,
,xotask,xotask,xotask,22,0,22,322,training,positivefb,96,hard,53,0.6335524999999507,['c'],1,left,['9'],5,0.39897979999977906,,,8,20,Vrouw,Rechts,1,
,xotask,xotask,xotask,23,0,23,323,training,positivefb,98,average,18,0.817454799999723,['n'],1,right,['9'],5,0.5255631999998513,,,8,20,Vrouw,Rechts,1,
,xotask,xotask,xotask,24,0,24,324,training,positivefb,94,easy,71,1.1343304000001808,['c'],1,left,['9'],5,0.7960121999999501,,,8,20,Vrouw,Rechts,1,
,xotask,xotask,xotask,25,0,25,325,training,positivefb,88,average,16,1.0509339000000182,['n'],1,right,['9'],5,0.43497590000015407,,,8,20,Vrouw,Rechts,1,
,xotask,xotask,xotask,26,0,26,326,training,positivefb,98,average,15,1.582999799999925,['n'],1,right,['9'],5,0.634473899999648,,,8,20,Vrouw,Rechts,1,
,xotask,xotask,xotask,27,0,27,327,training,positivefb,37,hard,26,1.3161823999998887,['c'],0,right,['2'],2,1.852590699999837,,,8,20,Vrouw,Rechts,1,
,xotask,xotask,xotask,28,0,28,328,training,positivefb,97,easy,71,1.2668874999999389,['c'],1,left,['9'],5,1.1826701999998477,,,8,20,Vrouw,Rechts,1,
,xotask,xotask,xotask,29,0,29,329,training,positivefb,90,average,16,0.7674935000000005,['n'],1,right,['9'],5,0.4161501000003227,,,8,20,Vrouw,Rechts,1,
,xotask,xotask,xotask,30,0,30,330,training,positivefb,92,hard,27,0.8340285999997832,['n'],1,right,['9'],5,0.7016835999997966,,,8,20,Vrouw,Rechts,1,
,xotask,xotask,xotask,31,0,31,331,training,positivefb,64,easy,72,0.6340958999999202,['c'],1,left,['9'],5,0.608635200000208,,,8,20,Vrouw,Rechts,1,
,xotask,xotask,xotask,32,0,32,332,training,positivefb,98,average,61,1.266503499999999,['c'],1,left,['9'],5,0.6940223000001424,,,8,20,Vrouw,Rechts,1,
,xotask,xotask,xotask,33,0,33,333,training,positivefb,98,hard,26,0.9000121999997646,['n'],1,right,['9'],5,0.6151567000001705,,,8,20,Vrouw,Rechts,1,
,xotask,xotask,xotask,34,0,34,334,training,positivefb,95,average,62,1.0507787000001372,['c'],1,left,['9'],5,0.46851749999996173,,,8,20,Vrouw,Rechts,1,
,xotask,xotask,xotask,35,0,35,335,training,positivefb,98,hard,26,0.8845638999996481,['n'],1,right,['9'],5,0.5343461000002208,,,8,20,Vrouw,Rechts,1,
,xotask,xotask,xotask,36,0,36,336,training,positivefb,97,average,19,1.1176317999997991,['n'],1,right,['9'],5,0.5243723999997201,,,8,20,Vrouw,Rechts,1,
,xotask,xotask,xotask,37,0,37,337,training,positivefb,95,average,19,1.1341889999998784,['n'],1,right,['9'],5,0.5300781999999344,,,8,20,Vrouw,Rechts,1,
,xotask,xotask,xotask,38,0,38,338,training,positivefb,100,average,61,1.0836968000003253,['c'],1,left,['9'],5,0.5142504999998891,,,8,20,Vrouw,Rechts,1,
,xotask,xotask,xotask,39,0,39,339,training,positivefb,95,hard,29,0.983786599999803,['n'],1,right,['0'],6,0.6146472999998878,,,8,20,Vrouw,Rechts,1,
,xotask,xotask,xotask,40,0,40,340,training,positivefb,99,hard,51,0.9004353000000265,['c'],1,left,['0'],6,0.6736734000000979,,,8,20,Vrouw,Rechts,1,
,xotask,xotask,xotask,41,0,41,341,training,positivefb,98,hard,28,0.8675710000002255,['n'],1,right,['9'],5,0.452519299999949,,,8,20,Vrouw,Rechts,1,
,xotask,xotask,xotask,42,0,42,342,training,positivefb,99,easy,8,0.868206900000132,['n'],1,right,['9'],5,0.45593019999978424,,,8,20,Vrouw,Rechts,1,
,xotask,xotask,xotask,43,0,43,343,training,positivefb,86,hard,29,0.7163912000000892,['n'],1,right,['9'],5,0.6252436999998281,,,8,20,Vrouw,Rechts,1,
,xotask,xotask,xotask,44,0,44,344,training,positivefb,75,easy,5,1.1832652000002781,['n'],1,right,['9'],5,0.5614845000000059,,,8,20,Vrouw,Rechts,1,
,xotask,xotask,xotask,45,0,45,345,training,positivefb,65,hard,53,0.8011673000000883,['c'],1,left,['9'],5,0.7160036000000218,,,8,20,Vrouw,Rechts,1,
,xotask,xotask,xotask,46,0,46,346,training,positivefb,47,average,63,2.0001068999999916,['n'],0,left,['9'],5,0.5345833000001221,,,8,20,Vrouw,Rechts,1,
,xotask,xotask,xotask,47,0,47,347,training,positivefb,24,average,19,0.9502843000000212,['c'],0,right,['8'],4,0.6112398999998732,,,8,20,Vrouw,Rechts,1,
,xotask,xotask,xotask,48,0,48,348,training,positivefb,96,easy,6,1.0677677999997286,['n'],1,right,['0'],6,0.44840590000012526,,,8,20,Vrouw,Rechts,1,
,xotask,xotask,xotask,49,0,49,349,training,positivefb,99,average,15,1.8496844999999666,['n'],1,right,['9'],5,0.9807236000001467,,,8,20,Vrouw,Rechts,1,
,xotask,xotask,xotask,50,0,50,350,training,positivefb,46,hard,50,0.7990651000000071,['n'],0,left,['8'],4,0.7575388000000203,,,8,20,Vrouw,Rechts,1,
,xotask,xotask,xotask,51,0,51,351,training,positivefb,74,hard,50,0.8844027999998616,['c'],1,left,['8'],4,0.9568973999998889,,,8,20,Vrouw,Rechts,1,
,xotask,xotask,xotask,52,0,52,352,training,positivefb,94,hard,50,1.1327298999999584,['n'],0,left,['9'],5,0.47395879999976387,,,8,20,Vrouw,Rechts,1,
,xotask,xotask,xotask,53,0,53,353,training,positivefb,86,easy,5,0.800119800000175,['n'],1,right,['9'],5,0.3824319000000287,,,8,20,Vrouw,Rechts,1,
,xotask,xotask,xotask,54,0,54,354,training,positivefb,98,easy,71,0.6995124999998552,['c'],1,left,['8'],4,0.6032322999999451,,,8,20,Vrouw,Rechts,1,
,xotask,xotask,xotask,55,0,55,355,training,positivefb,76,average,16,0.9005356999996366,['n'],1,right,['9'],5,0.47200710000015533,,,8,20,Vrouw,Rechts,1,
,xotask,xotask,xotask,56,0,56,356,training,positivefb,93,easy,74,0.7167057999999997,['c'],1,left,['9'],5,0.4882990000000973,,,8,20,Vrouw,Rechts,1,
,xotask,xotask,xotask,57,0,57,357,training,positivefb,49,hard,50,1.632864199999858,['n'],0,left,['8'],4,0.7312949000001936,,,8,20,Vrouw,Rechts,1,
,xotask,xotask,xotask,58,0,58,358,training,positivefb,93,hard,50,1.0657702999997127,['c'],1,left,['9'],5,0.5318255000001955,,,8,20,Vrouw,Rechts,1,
,xotask,xotask,xotask,59,0,59,359,training,positivefb,83,average,63,1.3009225000000697,['c'],1,left,['0'],6,0.43428439999979673,,,8,20,Vrouw,Rechts,1,
,xotask,xotask,xotask,0,1,60,360,training,positivefb,96,hard,51,1.2005623999998534,['n'],0,left,['9'],5,0.5534571999996842,,,8,20,Vrouw,Rechts,1,
,xotask,xotask,xotask,1,1,61,361,training,positivefb,83,hard,54,1.5504618999998456,['c'],1,left,['8'],4,0.6223104999999123,,,8,20,Vrouw,Rechts,1,
,xotask,xotask,xotask,2,1,62,362,training,positivefb,91,hard,25,0.7831535999998778,['n'],1,right,['9'],5,0.5334093000001303,,,8,20,Vrouw,Rechts,1,
,xotask,xotask,xotask,3,1,63,363,training,positivefb,91,easy,72,1.0506792999999561,['c'],1,left,['0'],6,0.9186110000000554,,,8,20,Vrouw,Rechts,1,
,xotask,xotask,xotask,4,1,64,364,training,positivefb,96,easy,73,0.6836414999997942,['c'],1,left,['0'],6,0.45478289999982735,,,8,20,Vrouw,Rechts,1,
,xotask,xotask,xotask,5,1,65,365,training,positivefb,98,easy,70,0.5007360999998127,['c'],1,left,['0'],6,0.44127690000004804,,,8,20,Vrouw,Rechts,1,
,xotask,xotask,xotask,6,1,66,366,training,positivefb,87,hard,50,1.6839184999998906,['c'],1,left,['8'],4,0.3721282000001338,,,8,20,Vrouw,Rechts,1,
,xotask,xotask,xotask,7,1,67,367,training,positivefb,93,easy,9,0.9171965999998974,['n'],1,right,['9'],5,0.744348600000194,,,8,20,Vrouw,Rechts,1,
,xotask,xotask,xotask,8,1,68,368,training,positivefb,100,average,63,0.7678452000000107,['c'],1,left,['0'],6,0.7806009999999333,,,8,20,Vrouw,Rechts,1,
,xotask,xotask,xotask,9,1,69,369,training,positivefb,59,average,60,0.6842297000002873,['c'],1,left,['0'],6,0.411449900000207,,,8,20,Vrouw,Rechts,1,
,xotask,xotask,xotask,10,1,70,370,training,positivefb,81,hard,50,1.8834115999998176,['n'],0,left,['3'],3,0.8716695999996773,,,8,20,Vrouw,Rechts,1,
,xotask,xotask,xotask,11,1,71,371,training,positivefb,87,average,62,1.4172992999997405,['c'],1,left,['9'],5,0.4120020000000295,,,8,20,Vrouw,Rechts,1,
,xotask,xotask,xotask,12,1,72,372,training,positivefb,100,easy,72,0.5507667000001675,['c'],1,left,['9'],5,0.3664168999998765,,,8,20,Vrouw,Rechts,1,
,xotask,xotask,xotask,13,1,73,373,training,positivefb,70,hard,25,1.6331159999999727,['n'],1,right,['9'],5,0.35024780000003375,,,8,20,Vrouw,Rechts,1,
,xotask,xotask,xotask,14,1,74,374,training,positivefb,98,hard,29,1.1828760000003058,['n'],1,right,['9'],5,0.4250920999998016,,,8,20,Vrouw,Rechts,1,
,xotask,xotask,xotask,15,1,75,375,training,positivefb,83,average,63,0.6506978000002164,['c'],1,left,['9'],5,0.35036370000034367,,,8,20,Vrouw,Rechts,1,
,xotask,xotask,xotask,16,1,76,376,training,positivefb,98,average,17,0.7670481000000109,['n'],1,right,['9'],5,0.4495805000001383,,,8,20,Vrouw,Rechts,1,
,xotask,xotask,xotask,17,1,77,377,training,positivefb,98,easy,8,2.0171823999999106,['n'],1,right,['9'],5,0.9750106999999844,,,8,20,Vrouw,Rechts,1,
,xotask,xotask,xotask,18,1,78,378,training,positivefb,98,average,17,0.9994308999998793,['n'],1,right,['9'],5,0.48043730000017604,,,8,20,Vrouw,Rechts,1,
,xotask,xotask,xotask,19,1,79,379,training,positivefb,88,average,62,0.9499712000001637,['c'],1,left,['9'],5,0.7752940999998827,,,8,20,Vrouw,Rechts,1,
,xotask,xotask,xotask,20,1,80,380,training,positivefb,98,average,19,0.883908099999644,['n'],1,right,['9'],5,0.406264000000192,,,8,20,Vrouw,Rechts,1,
,xotask,xotask,xotask,21,1,81,381,training,positivefb,91,hard,52,1.7993744000000333,['c'],1,left,['8'],4,1.077274700000089,,,8,20,Vrouw,Rechts,1,
,xotask,xotask,xotask,22,1,82,382,training,positivefb,63,hard,52,1.80151479999995,['n'],0,left,['8'],4,0.5865929999999935,,,8,20,Vrouw,Rechts,1,
,xotask,xotask,xotask,23,1,83,383,training,positivefb,90,easy,5,0.8998902000003,['c'],0,right,['9'],5,0.34311539999998786,,,8,20,Vrouw,Rechts,1,
,xotask,xotask,xotask,24,1,84,384,training,positivefb,80,hard,52,0.9510540000001129,['c'],1,left,['9'],5,0.4037529000001996,,,8,20,Vrouw,Rechts,1,
,xotask,xotask,xotask,25,1,85,385,training,positivefb,96,easy,9,1.4162129999999706,['n'],1,right,['9'],5,0.4754206999996313,,,8,20,Vrouw,Rechts,1,
,xotask,xotask,xotask,26,1,86,386,training,positivefb,89,hard,29,1.2504018999998152,['n'],1,right,['9'],5,0.5103654000004099,,,8,20,Vrouw,Rechts,1,
,xotask,xotask,xotask,27,1,87,387,training,positivefb,80,average,63,1.1335316999998213,['c'],1,left,['9'],5,0.660823100000016,,,8,20,Vrouw,Rechts,1,
,xotask,xotask,xotask,28,1,88,388,training,positivefb,96,easy,6,0.5665625000001455,['n'],1,right,['9'],5,0.6049115000000711,,,8,20,Vrouw,Rechts,1,
,xotask,xotask,xotask,29,1,89,389,training,positivefb,96,average,64,0.9670219999998153,['c'],1,left,['0'],6,0.3097204000000602,,,8,20,Vrouw,Rechts,1,
,xotask,xotask,xotask,30,1,90,390,training,positivefb,79,average,60,0.566903800000091,['c'],1,left,['0'],6,0.3714033000001109,,,8,20,Vrouw,Rechts,1,
,xotask,xotask,xotask,31,1,91,391,training,positivefb,92,average,17,1.2171488999997564,['n'],1,right,['9'],5,0.5478368999997656,,,8,20,Vrouw,Rechts,1,
,xotask,xotask,xotask,32,1,92,392,training,positivefb,99,easy,73,0.6017486000000645,['c'],1,left,['0'],6,1.0698146999998244,,,8,20,Vrouw,Rechts,1,
,xotask,xotask,xotask,33,1,93,393,training,positivefb,94,hard,51,0.6170253999998749,['c'],1,left,['0'],6,0.38632589999997435,,,8,20,Vrouw,Rechts,1,
,xotask,xotask,xotask,34,1,94,394,training,positivefb,83,average,18,1.5501014999999825,['n'],1,right,['8'],4,0.6055952000001525,,,8,20,Vrouw,Rechts,1,
,xotask,xotask,xotask,35,1,95,395,training,positivefb,86,hard,29,2.5002462000002197,['n'],1,right,['8'],4,0.8579388000002837,,,8,20,Vrouw,Rechts,1,
,xotask,xotask,xotask,36,1,96,396,training,positivefb,91,hard,28,1.4828049999996438,['c'],0,right,['3'],3,1.2440378999999666,,,8,20,Vrouw,Rechts,1,
,xotask,xotask,xotask,37,1,97,397,training,positivefb,98,hard,26,0.7828564000001279,['n'],1,right,['9'],5,0.5068696000003001,,,8,20,Vrouw,Rechts,1,
,xotask,xotask,xotask,38,1,98,398,training,positivefb,93,average,61,1.033791100000144,['c'],1,left,['9'],5,0.6777160999999978,,,8,20,Vrouw,Rechts,1,
,xotask,xotask,xotask,39,1,99,399,training,positivefb,100,easy,72,0.8004838000001655,['c'],1,left,['0'],6,0.5304173999998056,,,8,20,Vrouw,Rechts,1,
,xotask,xotask,xotask,40,1,100,400,training,positivefb,82,hard,28,0.8999021999998149,['n'],1,right,['9'],5,0.85698420000017,,,8,20,Vrouw,Rechts,1,
,xotask,xotask,xotask,41,1,101,401,training,positivefb,70,hard,25,1.0001186999998026,['n'],1,right,['8'],4,1.2475570000001426,,,8,20,Vrouw,Rechts,1,
,xotask,xotask,xotask,42,1,102,402,training,positivefb,87,easy,73,0.7839187999998103,['c'],1,left,['9'],5,0.7500996999997369,,,8,20,Vrouw,Rechts,1,
,xotask,xotask,xotask,43,1,103,403,training,positivefb,99,average,15,0.9663079000001744,['n'],1,right,['0'],6,0.6258570999998483,,,8,20,Vrouw,Rechts,1,
,xotask,xotask,xotask,44,1,104,404,training,positivefb,92,easy,5,1.1005860000000212,['n'],1,right,['0'],6,0.6932584999999563,,,8,20,Vrouw,Rechts,1,
,xotask,xotask,xotask,45,1,105,405,training,positivefb,89,easy,72,0.9673701000001529,['c'],1,left,['0'],6,0.5393598999999085,,,8,20,Vrouw,Rechts,1,
,xotask,xotask,xotask,46,1,106,406,training,positivefb,94,easy,5,0.5845247000002018,['n'],1,right,['0'],6,0.3986637000002702,,,8,20,Vrouw,Rechts,1,
,xotask,xotask,xotask,47,1,107,407,training,positivefb,93,easy,8,1.100389499999892,['n'],1,right,['0'],6,0.5068907999998373,,,8,20,Vrouw,Rechts,1,
,xotask,xotask,xotask,48,1,108,408,training,positivefb,88,average,18,1.3167045000000144,['n'],1,right,['9'],5,0.4094009000000369,,,8,20,Vrouw,Rechts,1,
,xotask,xotask,xotask,49,1,109,409,training,positivefb,96,average,19,0.8833355000001575,['n'],1,right,['9'],5,0.4863855999997213,,,8,20,Vrouw,Rechts,1,
,xotask,xotask,xotask,50,1,110,410,training,positivefb,88,hard,52,1.1164398000000801,['c'],1,left,['9'],5,0.4622831000001497,,,8,20,Vrouw,Rechts,1,
,xotask,xotask,xotask,51,1,111,411,training,positivefb,82,easy,73,0.7669000000000779,['c'],1,left,['9'],5,0.5497138999999152,,,8,20,Vrouw,Rechts,1,
,xotask,xotask,xotask,52,1,112,412,training,positivefb,94,average,61,0.49987019999980475,['c'],1,left,['0'],6,0.38078589999986434,,,8,20,Vrouw,Rechts,1,
,xotask,xotask,xotask,53,1,113,413,training,positivefb,80,easy,9,0.7505761000002167,['n'],1,right,['0'],6,0.3436165999996774,,,8,20,Vrouw,Rechts,1,
,xotask,xotask,xotask,54,1,114,414,training,positivefb,95,easy,6,0.8006169000000227,['n'],1,right,['0'],6,0.37807169999996404,,,8,20,Vrouw,Rechts,1,
,xotask,xotask,xotask,55,1,115,415,training,positivefb,97,average,19,0.5331523999998353,['n'],1,right,['0'],6,0.3740848000002188,,,8,20,Vrouw,Rechts,1,
,xotask,xotask,xotask,56,1,116,416,training,positivefb,97,hard,54,0.6512047999999595,['c'],1,left,['9'],5,0.5248412000000826,,,8,20,Vrouw,Rechts,1,
,xotask,xotask,xotask,57,1,117,417,training,positivefb,94,hard,26,1.5832973999999922,['n'],1,right,['9'],5,0.5293382999998357,,,8,20,Vrouw,Rechts,1,
,xotask,xotask,xotask,58,1,118,418,training,positivefb,20,average,16,0.9339101999999002,['c'],0,right,['2'],2,1.4792013999999654,,,8,20,Vrouw,Rechts,1,
,xotask,xotask,xotask,59,1,119,419,training,positivefb,99,easy,73,1.084085899999991,['c'],1,left,['0'],6,0.920487200000025,,,8,20,Vrouw,Rechts,1,
,dotcolour,xotask,xotask,0,2,120,420,main,positivefb,-99,average,,1.150451399999838,['c'],1,left,['9'],5,1.5414079000001948,53,,8,20,Vrouw,Rechts,1,
,dotcolour,xotask,xotask,1,2,121,421,main,positivefb,-99,easy,,0.8336309999999685,['n'],1,right,['9'],5,0.5038184000000001,15,,8,20,Vrouw,Rechts,1,
,dotcolour,xotask,xotask,2,2,122,422,main,positivefb,-99,easy,,0.9338306999998167,['c'],0,right,['9'],5,0.6315314999997099,18,,8,20,Vrouw,Rechts,1,
,dotcolour,xotask,xotask,3,2,123,423,main,positivefb,-99,easy,,0.8171247999998741,['c'],1,left,['9'],5,0.6376015000000734,62,,8,20,Vrouw,Rechts,1,
,dotcolour,xotask,xotask,4,2,124,424,main,positivefb,-99,hard,,1.4501281999996536,['n'],1,right,['9'],5,0.5388680000000932,37,,8,20,Vrouw,Rechts,1,
,dotcolour,xotask,xotask,5,2,125,425,main,positivefb,-99,easy,,1.1840624999999818,['c'],1,left,['9'],5,0.7191570999998476,62,,8,20,Vrouw,Rechts,1,
,dotcolour,xotask,xotask,6,2,126,426,main,positivefb,-99,easy,,0.7340257999999267,['n'],1,right,['9'],5,0.5419975999998314,19,,8,20,Vrouw,Rechts,1,
,dotcolour,xotask,xotask,7,2,127,427,main,positivefb,-99,average,,0.9329991999998128,['c'],1,left,['9'],5,0.42764900000020134,53,,8,20,Vrouw,Rechts,1,
,dotcolour,xotask,xotask,8,2,128,428,main,positivefb,-99,hard,,2.084488400000282,['n'],1,right,['8'],4,0.5521929000001364,37,,8,20,Vrouw,Rechts,1,
,dotcolour,xotask,xotask,9,2,129,429,main,positivefb,-99,easy,,0.9504719000001387,['c'],1,left,['0'],6,0.8210434000002351,64,,8,20,Vrouw,Rechts,1,
,dotcolour,xotask,xotask,10,2,130,430,main,positivefb,-99,hard,,1.7169264999997722,['n'],0,left,['9'],5,0.480913800000053,42,,8,20,Vrouw,Rechts,1,
,dotcolour,xotask,xotask,11,2,131,431,main,positivefb,-99,average,,1.6337535999996362,['n'],1,right,['9'],5,0.5170388000001367,29,,8,20,Vrouw,Rechts,1,
,dotcolour,xotask,xotask,12,2,132,432,main,positivefb,-99,easy,,1.3667135000000599,['n'],1,right,['9'],5,0.4417776000000231,15,,8,20,Vrouw,Rechts,1,
,dotcolour,xotask,xotask,13,2,133,433,main,positivefb,-99,average,,1.2019368999999642,['c'],1,left,['9'],5,0.4020751999996719,53,,8,20,Vrouw,Rechts,1,
,dotcolour,xotask,xotask,14,2,134,434,main,positivefb,-99,hard,,1.9503893000000971,['n'],0,left,['8'],4,0.420644700000139,45,,8,20,Vrouw,Rechts,1,
,dotcolour,xotask,xotask,15,2,135,435,main,positivefb,-99,average,,1.5664372999999614,['n'],1,right,['9'],5,0.7416078000001107,29,,8,20,Vrouw,Rechts,1,
,dotcolour,xotask,xotask,16,2,136,436,main,positivefb,-99,average,,1.3336607000001095,['c'],1,left,['9'],5,0.3709927999998399,55,,8,20,Vrouw,Rechts,1,
,dotcolour,xotask,xotask,17,2,137,437,main,positivefb,-99,hard,,1.4171846999997797,['n'],0,left,['9'],5,0.43662399999993795,41,,8,20,Vrouw,Rechts,1,
,dotcolour,xotask,xotask,18,2,138,438,main,positivefb,-99,easy,,1.1673607000002448,['c'],1,left,['0'],6,0.517597300000034,62,,8,20,Vrouw,Rechts,1,
,dotcolour,xotask,xotask,19,2,139,439,main,positivefb,-99,hard,,1.633749799999805,['n'],0,left,['9'],5,0.48050929999999425,45,,8,20,Vrouw,Rechts,1,
,dotcolour,xotask,xotask,20,2,140,440,main,positivefb,-99,hard,,1.6840297000003375,['c'],1,left,['9'],5,0.33831529999997656,43,,8,20,Vrouw,Rechts,1,
,dotcolour,xotask,xotask,21,2,141,441,main,positivefb,-99,hard,,1.567923200000223,['n'],1,right,['9'],5,0.6953871999999137,38,,8,20,Vrouw,Rechts,1,
,dotcolour,xotask,xotask,22,2,142,442,main,positivefb,-99,easy,,1.1178465000002689,['n'],1,right,['0'],6,0.6637700999999652,18,,8,20,Vrouw,Rechts,1,
,dotcolour,xotask,xotask,23,2,143,443,main,positivefb,-99,hard,,2.701203699999951,['n'],0,left,['8'],4,0.6594390000000203,45,,8,20,Vrouw,Rechts,1,
,dotcolour,xotask,xotask,24,2,144,444,main,positivefb,-99,easy,,1.2841702000000623,['n'],1,right,['0'],6,0.46265249999987645,15,,8,20,Vrouw,Rechts,1,
,dotcolour,xotask,xotask,25,2,145,445,main,positivefb,-99,hard,,1.667331699999977,['n'],0,left,['9'],5,0.4497462999997879,42,,8,20,Vrouw,Rechts,1,
,dotcolour,xotask,xotask,26,2,146,446,main,positivefb,-99,hard,,1.3842643000002681,['c'],0,right,['8'],4,1.1298054000003503,36,,8,20,Vrouw,Rechts,1,
,dotcolour,xotask,xotask,27,2,147,447,main,positivefb,-99,average,,0.7019610000002103,['n'],1,right,['0'],6,0.793619900000067,27,,8,20,Vrouw,Rechts,1,
,dotcolour,xotask,xotask,28,2,148,448,main,positivefb,-99,average,,1.7013895999998567,['n'],0,left,['8'],4,0.590953499999614,53,,8,20,Vrouw,Rechts,1,
,dotcolour,xotask,xotask,29,2,149,449,main,positivefb,-99,average,,1.7519013999999515,['n'],1,right,['0'],6,0.7225532000002204,26,,8,20,Vrouw,Rechts,1,
,dotcolour,xotask,xotask,30,2,150,450,main,positivefb,-99,easy,,0.8674439000001257,['n'],1,right,['0'],6,0.45106369999984963,16,,8,20,Vrouw,Rechts,1,
,dotcolour,xotask,xotask,31,2,151,451,main,positivefb,-99,hard,,2.667006200000287,['c'],1,left,['8'],4,0.5194738000000143,42,,8,20,Vrouw,Rechts,1,
,dotcolour,xotask,xotask,32,2,152,452,main,positivefb,-99,easy,,1.2008200999998735,['c'],1,left,['0'],6,1.04335970000011,64,,8,20,Vrouw,Rechts,1,
,dotcolour,xotask,xotask,33,2,153,453,main,positivefb,-99,hard,,3.168558100000155,['c'],1,left,['8'],4,0.4362931999999091,44,,8,20,Vrouw,Rechts,1,
,dotcolour,xotask,xotask,34,2,154,454,main,positivefb,-99,hard,,1.100391199999649,['n'],1,right,['9'],5,0.583423899999616,39,,8,20,Vrouw,Rechts,1,
,dotcolour,xotask,xotask,35,2,155,455,main,positivefb,-99,average,,1.8666520000001583,['c'],1,left,['9'],5,0.6462751999997636,51,,8,20,Vrouw,Rechts,1,
,dotcolour,xotask,xotask,36,2,156,456,main,positivefb,-99,hard,,1.434185399999933,['c'],1,left,['9'],5,0.4848416999998335,42,,8,20,Vrouw,Rechts,1,
,dotcolour,xotask,xotask,37,2,157,457,main,positivefb,-99,easy,,0.8508695999998963,['n'],1,right,['9'],5,1.1204787000001488,16,,8,20,Vrouw,Rechts,1,
,dotcolour,xotask,xotask,38,2,158,458,main,positivefb,-99,average,,1.633737099999962,['n'],1,right,['9'],5,0.49898849999999584,28,,8,20,Vrouw,Rechts,1,
,dotcolour,xotask,xotask,39,2,159,459,main,positivefb,-99,average,,1.2509750999997777,['c'],1,left,['9'],5,0.7099173000001429,52,,8,20,Vrouw,Rechts,1,
,dotcolour,xotask,xotask,40,2,160,460,main,positivefb,-99,easy,,0.7674643999998807,['n'],1,right,['9'],5,0.4593798999999308,16,,8,20,Vrouw,Rechts,1,
,dotcolour,xotask,xotask,41,2,161,461,main,positivefb,-99,hard,,1.3177201999997123,['n'],1,right,['9'],5,0.3819868000000497,37,,8,20,Vrouw,Rechts,1,
,dotcolour,xotask,xotask,42,2,162,462,main,positivefb,-99,easy,,0.851361900000029,['c'],1,left,['9'],5,0.8047277999999096,61,,8,20,Vrouw,Rechts,1,
,dotcolour,xotask,xotask,43,2,163,463,main,positivefb,-99,average,,0.7839248000000225,['c'],1,left,['9'],5,0.4298431000001983,55,,8,20,Vrouw,Rechts,1,
,dotcolour,xotask,xotask,44,2,164,464,main,positivefb,-99,easy,,1.0002936999999292,['c'],1,left,['9'],5,0.4699164999997265,65,,8,20,Vrouw,Rechts,1,
,dotcolour,xotask,xotask,45,2,165,465,main,positivefb,-99,average,,1.2344984999999724,['n'],1,right,['9'],5,0.4110112999997,28,,8,20,Vrouw,Rechts,1,
,dotcolour,xotask,xotask,46,2,166,466,main,positivefb,-99,easy,,0.9491957000000184,['c'],1,left,['9'],5,0.4209478000002491,63,,8,20,Vrouw,Rechts,1,
,dotcolour,xotask,xotask,47,2,167,467,main,positivefb,-99,easy,,0.8011541000000761,['c'],1,left,['9'],5,0.44561890000022686,61,,8,20,Vrouw,Rechts,1,
,dotcolour,xotask,xotask,48,2,168,468,main,positivefb,-99,average,,0.9674489999997604,['n'],1,right,['9'],5,0.429866999999831,27,,8,20,Vrouw,Rechts,1,
,dotcolour,xotask,xotask,49,2,169,469,main,positivefb,-99,hard,,1.7503059999999095,['n'],1,right,['9'],5,0.38341510000009293,38,,8,20,Vrouw,Rechts,1,
,dotcolour,xotask,xotask,50,2,170,470,main,positivefb,-99,average,,1.5503066999999646,['c'],1,left,['9'],5,0.36341170000014245,52,,8,20,Vrouw,Rechts,1,
,dotcolour,xotask,xotask,51,2,171,471,main,positivefb,-99,easy,,0.8681801999996424,['n'],1,right,['9'],5,0.4996510999999373,16,,8,20,Vrouw,Rechts,1,
,dotcolour,xotask,xotask,52,2,172,472,main,positivefb,-99,average,,1.6515761999999086,['n'],1,right,['9'],5,0.4384719999998197,27,,8,20,Vrouw,Rechts,1,
,dotcolour,xotask,xotask,53,2,173,473,main,positivefb,-99,average,,1.2011677999998938,['n'],1,right,['9'],5,0.3893002999998316,26,,8,20,Vrouw,Rechts,1,
,dotcolour,xotask,xotask,54,2,174,474,main,positivefb,-99,hard,,1.5329001999998582,['c'],0,right,['9'],5,0.3451415999998062,36,,8,20,Vrouw,Rechts,1,
,dotcolour,xotask,xotask,55,2,175,475,main,positivefb,-99,average,,1.334201000000121,['c'],1,left,['9'],5,0.35948980000011943,55,,8,20,Vrouw,Rechts,1,
,dotcolour,xotask,xotask,56,2,176,476,main,positivefb,-99,easy,,1.3005788000000393,['c'],1,left,['9'],5,0.29400329999998576,62,,8,20,Vrouw,Rechts,1,
,dotcolour,xotask,xotask,57,2,177,477,main,positivefb,-99,hard,,1.2336202999999841,['c'],0,right,['9'],5,0.3541064999999435,35,,8,20,Vrouw,Rechts,1,
,dotcolour,xotask,xotask,58,2,178,478,main,positivefb,-99,average,,0.7841248999998243,['n'],1,right,['9'],5,0.3893895999999586,25,,8,20,Vrouw,Rechts,1,
,dotcolour,xotask,xotask,59,2,179,479,main,positivefb,-99,hard,,1.2175661999999647,['c'],0,right,['3'],3,1.4944962999998097,36,,8,20,Vrouw,Rechts,1,
,dotcolour,xotask,xotask,0,3,180,480,main,positivefb,-99,hard,,5.935451100000137,['c'],0,right,['3'],3,1.1724868999999671,37,,8,20,Vrouw,Rechts,1,
,dotcolour,xotask,xotask,1,3,181,481,main,positivefb,-99,hard,,4.517537500000344,['n'],0,left,['8'],4,0.8894169999998667,41,,8,20,Vrouw,Rechts,1,
,dotcolour,xotask,xotask,2,3,182,482,main,positivefb,-99,average,,0.7332617000001846,['n'],1,right,['8'],4,0.37779049999971903,25,,8,20,Vrouw,Rechts,1,
,dotcolour,xotask,xotask,3,3,183,483,main,positivefb,-99,hard,,1.368234399999892,['c'],0,right,['3'],3,1.0216820000000553,35,,8,20,Vrouw,Rechts,1,
,dotcolour,xotask,xotask,4,3,184,484,main,positivefb,-99,easy,,1.1833833000000595,['c'],1,left,['8'],4,0.3980206999999609,62,,8,20,Vrouw,Rechts,1,
,dotcolour,xotask,xotask,5,3,185,485,main,positivefb,-99,easy,,0.9516155000001163,['c'],1,left,['8'],4,0.45653530000026876,61,,8,20,Vrouw,Rechts,1,
,dotcolour,xotask,xotask,6,3,186,486,main,positivefb,-99,hard,,1.3519836000000396,['n'],0,left,['8'],4,0.41717979999975796,41,,8,20,Vrouw,Rechts,1,
,dotcolour,xotask,xotask,7,3,187,487,main,positivefb,-99,easy,,0.8838568999999552,['n'],1,right,['8'],4,0.4946786999998949,16,,8,20,Vrouw,Rechts,1,
,dotcolour,xotask,xotask,8,3,188,488,main,positivefb,-99,average,,0.9340925999999854,['c'],1,left,['9'],5,0.9100492000002305,54,,8,20,Vrouw,Rechts,1,
,dotcolour,xotask,xotask,9,3,189,489,main,positivefb,-99,hard,,1.1671824999998535,['n'],0,left,['9'],5,0.41946669999970254,42,,8,20,Vrouw,Rechts,1,
,dotcolour,xotask,xotask,10,3,190,490,main,positivefb,-99,easy,,1.135060600000088,['n'],1,right,['9'],5,0.8628496000001178,17,,8,20,Vrouw,Rechts,1,
,dotcolour,xotask,xotask,11,3,191,491,main,positivefb,-99,average,,1.9684833999999682,['n'],1,right,['0'],6,0.6792070000001331,27,,8,20,Vrouw,Rechts,1,
,dotcolour,xotask,xotask,12,3,192,492,main,positivefb,-99,average,,1.4174205999997866,['c'],1,left,['9'],5,1.2842267000000902,55,,8,20,Vrouw,Rechts,1,
,dotcolour,xotask,xotask,13,3,193,493,main,positivefb,-99,average,,0.7005565999997998,['n'],1,right,['9'],5,0.8054102000000967,25,,8,20,Vrouw,Rechts,1,
,dotcolour,xotask,xotask,14,3,194,494,main,positivefb,-99,hard,,1.3011668000003738,['c'],0,right,['9'],5,0.6425505000001976,36,,8,20,Vrouw,Rechts,1,
,dotcolour,xotask,xotask,15,3,195,495,main,positivefb,-99,hard,,2.1179446000001008,['n'],1,right,['9'],5,0.5003452000000834,37,,8,20,Vrouw,Rechts,1,
,dotcolour,xotask,xotask,16,3,196,496,main,positivefb,-99,easy,,1.0341257000000041,['n'],1,right,['9'],5,0.40764209999997547,18,,8,20,Vrouw,Rechts,1,
,dotcolour,xotask,xotask,17,3,197,497,main,positivefb,-99,average,,1.3840651000000435,['c'],1,left,['9'],5,0.5690352999999959,52,,8,20,Vrouw,Rechts,1,
,dotcolour,xotask,xotask,18,3,198,498,main,positivefb,-99,hard,,0.8351324000000204,['n'],1,right,['9'],5,0.4262693999999101,36,,8,20,Vrouw,Rechts,1,
,dotcolour,xotask,xotask,19,3,199,499,main,positivefb,-99,hard,,1.317788599999858,['n'],1,right,['9'],5,0.3091875000000073,36,,8,20,Vrouw,Rechts,1,
,dotcolour,xotask,xotask,20,3,200,500,main,positivefb,-99,hard,,1.1342454999999063,['c'],0,right,['9'],5,0.35684870000022784,39,,8,20,Vrouw,Rechts,1,
,dotcolour,xotask,xotask,21,3,201,501,main,positivefb,-99,average,,0.7508833000001687,['n'],1,right,['9'],5,0.385339699999804,26,,8,20,Vrouw,Rechts,1,
,dotcolour,xotask,xotask,22,3,202,502,main,positivefb,-99,hard,,2.2337049999996452,['n'],0,left,['9'],5,0.38590190000013536,43,,8,20,Vrouw,Rechts,1,
,dotcolour,xotask,xotask,23,3,203,503,main,positivefb,-99,average,,1.1340280999997958,['c'],1,left,['9'],5,0.43776359999992565,55,,8,20,Vrouw,Rechts,1,
,dotcolour,xotask,xotask,24,3,204,504,main,positivefb,-99,hard,,1.0176894000001084,['n'],1,right,['9'],5,0.35645919999979014,39,,8,20,Vrouw,Rechts,1,
,dotcolour,xotask,xotask,25,3,205,505,main,positivefb,-99,easy,,0.833963600000061,['n'],1,right,['9'],5,0.4616627000000335,19,,8,20,Vrouw,Rechts,1,
,dotcolour,xotask,xotask,26,3,206,506,main,positivefb,-99,hard,,1.4844630000002326,['c'],1,left,['9'],5,0.3529353999997511,43,,8,20,Vrouw,Rechts,1,
,dotcolour,xotask,xotask,27,3,207,507,main,positivefb,-99,easy,,0.9503693000001476,['n'],1,right,['9'],5,0.4458502000002227,19,,8,20,Vrouw,Rechts,1,
,dotcolour,xotask,xotask,28,3,208,508,main,positivefb,-99,hard,,1.5187040000000707,['n'],1,right,['9'],5,0.35230460000002495,35,,8,20,Vrouw,Rechts,1,
,dotcolour,xotask,xotask,29,3,209,509,main,positivefb,-99,average,,0.8179002000001674,['c'],1,left,['9'],5,0.4022541000003912,53,,8,20,Vrouw,Rechts,1,
,dotcolour,xotask,xotask,30,3,210,510,main,positivefb,-99,easy,,0.7178349000000708,['n'],1,right,['9'],5,0.4778870000000097,19,,8,20,Vrouw,Rechts,1,
,dotcolour,xotask,xotask,31,3,211,511,main,positivefb,-99,average,,0.7347755999999208,['n'],1,right,['9'],5,0.36697289999983695,26,,8,20,Vrouw,Rechts,1,
,dotcolour,xotask,xotask,32,3,212,512,main,positivefb,-99,easy,,0.8343382000002748,['c'],1,left,['9'],5,0.5759760999999344,61,,8,20,Vrouw,Rechts,1,
,dotcolour,xotask,xotask,33,3,213,513,main,positivefb,-99,easy,,0.701184099999864,['n'],1,right,['9'],5,0.3974797999999282,17,,8,20,Vrouw,Rechts,1,
,dotcolour,xotask,xotask,34,3,214,514,main,positivefb,-99,easy,,1.3175986999999623,['c'],1,left,['9'],5,1.7862530000002153,62,,8,20,Vrouw,Rechts,1,
,dotcolour,xotask,xotask,35,3,215,515,main,positivefb,-99,easy,,0.7837941999996474,['c'],1,left,['9'],5,0.27683689999958006,64,,8,20,Vrouw,Rechts,1,
,dotcolour,xotask,xotask,36,3,216,516,main,positivefb,-99,easy,,0.7164513000002444,['c'],1,left,['9'],5,0.3019874000001437,62,,8,20,Vrouw,Rechts,1,
,dotcolour,xotask,xotask,37,3,217,517,main,positivefb,-99,average,,1.400927700000011,['c'],1,left,['9'],5,0.6505843999998433,51,,8,20,Vrouw,Rechts,1,
,dotcolour,xotask,xotask,38,3,218,518,main,positivefb,-99,easy,,0.9180767000002561,['c'],1,left,['0'],6,0.3567614000003232,64,,8,20,Vrouw,Rechts,1,
,dotcolour,xotask,xotask,39,3,219,519,main,positivefb,-99,average,,0.7837347999998201,['c'],1,left,['0'],6,0.54403689999981,55,,8,20,Vrouw,Rechts,1,
,dotcolour,xotask,xotask,40,3,220,520,main,positivefb,-99,hard,,1.366878799999995,['c'],1,left,['9'],5,0.39593879999983983,42,,8,20,Vrouw,Rechts,1,
,dotcolour,xotask,xotask,41,3,221,521,main,positivefb,-99,easy,,0.7664915999998811,['c'],1,left,['9'],5,0.32731969999986177,64,,8,20,Vrouw,Rechts,1,
,dotcolour,xotask,xotask,42,3,222,522,main,positivefb,-99,hard,,1.8846386000000166,['n'],1,right,['9'],5,0.6719978999999512,38,,8,20,Vrouw,Rechts,1,
,dotcolour,xotask,xotask,43,3,223,523,main,positivefb,-99,average,,0.7503077999999732,['c'],0,right,['9'],5,0.3118648999998186,27,,8,20,Vrouw,Rechts,1,
,dotcolour,xotask,xotask,44,3,224,524,main,positivefb,-99,average,,1.2017578999998477,['c'],0,right,['2'],2,1.5085272999999688,28,,8,20,Vrouw,Rechts,1,
,dotcolour,xotask,xotask,45,3,225,525,main,positivefb,-99,average,,1.1502322999999706,['c'],1,left,['9'],5,0.9630253000000266,52,,8,20,Vrouw,Rechts,1,
,dotcolour,xotask,xotask,46,3,226,526,main,positivefb,-99,average,,1.134896800000206,['n'],1,right,['9'],5,0.8409194000000753,28,,8,20,Vrouw,Rechts,1,
,dotcolour,xotask,xotask,47,3,227,527,main,positivefb,-99,hard,,1.8335250999998607,['n'],0,left,['9'],5,1.8942320999999538,42,,8,20,Vrouw,Rechts,1,
,dotcolour,xotask,xotask,48,3,228,528,main,positivefb,-99,easy,,0.8515588000000207,['c'],1,left,['0'],6,0.3144296000000395,62,,8,20,Vrouw,Rechts,1,
,dotcolour,xotask,xotask,49,3,229,529,main,positivefb,-99,easy,,0.7180645000003096,['c'],1,left,['0'],6,0.3375087999997959,65,,8,20,Vrouw,Rechts,1,
,dotcolour,xotask,xotask,50,3,230,530,main,positivefb,-99,easy,,0.6173398999999336,['n'],1,right,['9'],5,0.6843890000000101,18,,8,20,Vrouw,Rechts,1,
,dotcolour,xotask,xotask,51,3,231,531,main,positivefb,-99,hard,,2.101837400000022,['n'],0,left,['9'],5,0.6134282000002713,42,,8,20,Vrouw,Rechts,1,
,dotcolour,xotask,xotask,52,3,232,532,main,positivefb,-99,easy,,0.784610100000009,['c'],0,right,['0'],6,0.35027660000014293,17,,8,20,Vrouw,Rechts,1,
,dotcolour,xotask,xotask,53,3,233,533,main,positivefb,-99,average,,0.9019353999997293,['c'],0,right,['1'],1,1.2214065000002847,25,,8,20,Vrouw,Rechts,1,
,dotcolour,xotask,xotask,54,3,234,534,main,positivefb,-99,average,,3.834028799999942,['c'],1,left,['9'],5,1.6680159000002277,53,,8,20,Vrouw,Rechts,1,
,dotcolour,xotask,xotask,55,3,235,535,main,positivefb,-99,average,,1.1511774000000514,['c'],1,left,['9'],5,0.3080371999999443,53,,8,20,Vrouw,Rechts,1,
,dotcolour,xotask,xotask,56,3,236,536,main,positivefb,-99,hard,,1.4505462000001899,['c'],1,left,['9'],5,0.3589795000002596,43,,8,20,Vrouw,Rechts,1,
,dotcolour,xotask,xotask,57,3,237,537,main,positivefb,-99,hard,,1.233221599999979,['n'],0,left,['9'],5,0.43278109999982917,44,,8,20,Vrouw,Rechts,1,
,dotcolour,xotask,xotask,58,3,238,538,main,positivefb,-99,average,,0.9675855000000411,['c'],0,right,['9'],5,0.6089474000000337,26,,8,20,Vrouw,Rechts,1,
,dotcolour,xotask,xotask,59,3,239,539,main,positivefb,-99,easy,,2.60088769999993,['n'],1,right,['0'],6,0.5295760999997583,17,,8,20,Vrouw,Rechts,1,
,dotcolour,xotask,xotask,0,4,240,540,main,positivefb,-99,average,,6.684292199999618,['c'],1,left,['0'],6,1.0496045999998387,55,,8,20,Vrouw,Rechts,1,
,dotcolour,xotask,xotask,1,4,241,541,main,positivefb,-99,average,,1.1833788000003551,['c'],1,left,['0'],6,0.6330815000001166,51,,8,20,Vrouw,Rechts,1,
,dotcolour,xotask,xotask,2,4,242,542,main,positivefb,-99,average,,1.4005734000002121,['c'],1,left,['0'],6,0.8007489999999962,54,,8,20,Vrouw,Rechts,1,
,dotcolour,xotask,xotask,3,4,243,543,main,positivefb,-99,easy,,0.6848473999998532,['c'],1,left,['0'],6,0.733615799999825,65,,8,20,Vrouw,Rechts,1,
,dotcolour,xotask,xotask,4,4,244,544,main,positivefb,-99,hard,,1.5668138999999428,['n'],0,left,['9'],5,0.48305459999983213,42,,8,20,Vrouw,Rechts,1,
,dotcolour,xotask,xotask,5,4,245,545,main,positivefb,-99,average,,1.1338944999997693,['c'],1,left,['9'],5,1.2266940999998042,51,,8,20,Vrouw,Rechts,1,
,dotcolour,xotask,xotask,6,4,246,546,main,positivefb,-99,hard,,1.0678753999995934,['n'],1,right,['9'],5,0.5916906999996172,35,,8,20,Vrouw,Rechts,1,
,dotcolour,xotask,xotask,7,4,247,547,main,positivefb,-99,hard,,1.8851582000002054,['n'],0,left,['9'],5,0.4302972000000409,45,,8,20,Vrouw,Rechts,1,
,dotcolour,xotask,xotask,8,4,248,548,main,positivefb,-99,average,,0.7839704000002712,['c'],0,right,['2'],2,1.4225243000000773,25,,8,20,Vrouw,Rechts,1,
,dotcolour,xotask,xotask,9,4,249,549,main,positivefb,-99,average,,1.2512917000003654,['n'],1,right,['3'],3,1.812355099999877,27,,8,20,Vrouw,Rechts,1,
,dotcolour,xotask,xotask,10,4,250,550,main,positivefb,-99,easy,,0.8834604999997282,['n'],1,right,['0'],6,0.6503023000000212,18,,8,20,Vrouw,Rechts,1,
,dotcolour,xotask,xotask,11,4,251,551,main,positivefb,-99,average,,1.6179395999997723,['n'],1,right,['9'],5,0.4405621999999312,29,,8,20,Vrouw,Rechts,1,
,dotcolour,xotask,xotask,12,4,252,552,main,positivefb,-99,average,,1.2336056999997709,['n'],1,right,['9'],5,0.4781880000000456,26,,8,20,Vrouw,Rechts,1,
,dotcolour,xotask,xotask,13,4,253,553,main,positivefb,-99,hard,,1.9686958999996023,['n'],0,left,['8'],4,0.8457981999999902,44,,8,20,Vrouw,Rechts,1,
,dotcolour,xotask,xotask,14,4,254,554,main,positivefb,-99,easy,,0.9013863000000129,['c'],1,left,['0'],6,0.9286912000002303,64,,8,20,Vrouw,Rechts,1,
,dotcolour,xotask,xotask,15,4,255,555,main,positivefb,-99,easy,,0.6834155999999894,['c'],1,left,['0'],6,0.7218167000000903,62,,8,20,Vrouw,Rechts,1,
,dotcolour,xotask,xotask,16,4,256,556,main,positivefb,-99,hard,,1.0668737999999394,['n'],1,right,['9'],5,0.5151369000000159,39,,8,20,Vrouw,Rechts,1,
,dotcolour,xotask,xotask,17,4,257,557,main,positivefb,-99,average,,1.7344484999998713,['n'],1,right,['9'],5,0.5132487000000765,29,,8,20,Vrouw,Rechts,1,
,dotcolour,xotask,xotask,18,4,258,558,main,positivefb,-99,hard,,2.6681276999997863,['c'],0,right,['8'],4,0.3400314000000435,38,,8,20,Vrouw,Rechts,1,
,dotcolour,xotask,xotask,19,4,259,559,main,positivefb,-99,easy,,0.9006193000000167,['n'],1,right,['0'],6,0.6108291000000463,15,,8,20,Vrouw,Rechts,1,
,dotcolour,xotask,xotask,20,4,260,560,main,positivefb,-99,average,,2.000790699999925,['c'],1,left,['9'],5,0.40325639999991836,53,,8,20,Vrouw,Rechts,1,
,dotcolour,xotask,xotask,21,4,261,561,main,positivefb,-99,hard,,2.300751400000081,['c'],1,left,['9'],5,0.3523516999998719,42,,8,20,Vrouw,Rechts,1,
,dotcolour,xotask,xotask,22,4,262,562,main,positivefb,-99,average,,1.4846035000000484,['n'],1,right,['9'],5,0.5992521999996825,28,,8,20,Vrouw,Rechts,1,
,dotcolour,xotask,xotask,23,4,263,563,main,positivefb,-99,hard,,0.884252700000161,['n'],1,right,['9'],5,0.4776028999999653,39,,8,20,Vrouw,Rechts,1,
,dotcolour,xotask,xotask,24,4,264,564,main,positivefb,-99,average,,1.2843943999996554,['c'],1,left,['9'],5,0.439655700000003,53,,8,20,Vrouw,Rechts,1,
,dotcolour,xotask,xotask,25,4,265,565,main,positivefb,-99,easy,,0.8841290999998819,['n'],1,right,['9'],5,0.45152530000041224,16,,8,20,Vrouw,Rechts,1,
,dotcolour,xotask,xotask,26,4,266,566,main,positivefb,-99,average,,1.2674141000002237,['n'],1,right,['0'],6,0.6799816999996438,26,,8,20,Vrouw,Rechts,1,
,dotcolour,xotask,xotask,27,4,267,567,main,positivefb,-99,hard,,1.200481899999886,['c'],0,right,['3'],3,2.165487000000212,39,,8,20,Vrouw,Rechts,1,
,dotcolour,xotask,xotask,28,4,268,568,main,positivefb,-99,easy,,1.2010685999998714,['c'],1,left,['9'],5,0.5440002999998796,65,,8,20,Vrouw,Rechts,1,
,dotcolour,xotask,xotask,29,4,269,569,main,positivefb,-99,easy,,0.8511624000002485,['n'],1,right,['0'],6,0.38525280000021667,16,,8,20,Vrouw,Rechts,1,
,dotcolour,xotask,xotask,30,4,270,570,main,positivefb,-99,hard,,4.167530599999736,['c'],0,right,['8'],4,0.36403759999984686,35,,8,20,Vrouw,Rechts,1,
,dotcolour,xotask,xotask,31,4,271,571,main,positivefb,-99,easy,,0.967906899999889,['n'],1,right,['9'],5,0.5272037999998247,16,,8,20,Vrouw,Rechts,1,
,dotcolour,xotask,xotask,32,4,272,572,main,positivefb,-99,hard,,1.0840244999999413,['c'],1,left,['9'],5,0.3684367000000748,44,,8,20,Vrouw,Rechts,1,
,dotcolour,xotask,xotask,33,4,273,573,main,positivefb,-99,easy,,1.0177300000000287,['n'],1,right,['0'],6,0.5140980000001036,19,,8,20,Vrouw,Rechts,1,
,dotcolour,xotask,xotask,34,4,274,574,main,positivefb,-99,average,,1.7002963999998428,['c'],1,left,['8'],4,0.46651950000023135,54,,8,20,Vrouw,Rechts,1,
,dotcolour,xotask,xotask,35,4,275,575,main,positivefb,-99,easy,,0.7511344000004101,['c'],1,left,['0'],6,0.7866613999999572,62,,8,20,Vrouw,Rechts,1,
,dotcolour,xotask,xotask,36,4,276,576,main,positivefb,-99,hard,,1.9186589000000822,['c'],1,left,['0'],6,0.8552104000000327,43,,8,20,Vrouw,Rechts,1,
,dotcolour,xotask,xotask,37,4,277,577,main,positivefb,-99,average,,1.7336499000002732,['c'],1,left,['8'],4,0.5207746000000952,52,,8,20,Vrouw,Rechts,1,
,dotcolour,xotask,xotask,38,4,278,578,main,positivefb,-99,average,,1.483631599999626,['c'],1,left,['8'],4,0.3535669000002599,51,,8,20,Vrouw,Rechts,1,
,dotcolour,xotask,xotask,39,4,279,579,main,positivefb,-99,hard,,1.6839522000000215,['c'],1,left,['8'],4,0.33637720000024274,45,,8,20,Vrouw,Rechts,1,
,dotcolour,xotask,xotask,40,4,280,580,main,positivefb,-99,easy,,0.8502935999999863,['n'],1,right,['0'],6,0.8981355999999323,18,,8,20,Vrouw,Rechts,1,
,dotcolour,xotask,xotask,41,4,281,581,main,positivefb,-99,hard,,2.550600999999915,['n'],1,right,['8'],4,0.45670250000011947,36,,8,20,Vrouw,Rechts,1,
,dotcolour,xotask,xotask,42,4,282,582,main,positivefb,-99,easy,,1.43472759999986,['n'],1,right,['8'],4,0.5177476999997452,17,,8,20,Vrouw,Rechts,1,
,dotcolour,xotask,xotask,43,4,283,583,main,positivefb,-99,easy,,1.8512120999998842,['c'],1,left,['9'],5,1.704447600000094,61,,8,20,Vrouw,Rechts,1,
,dotcolour,xotask,xotask,44,4,284,584,main,positivefb,-99,hard,,1.6509470999999394,['c'],1,left,['9'],5,0.4750601999999162,42,,8,20,Vrouw,Rechts,1,
,dotcolour,xotask,xotask,45,4,285,585,main,positivefb,-99,easy,,0.8007532999999967,['c'],1,left,['9'],5,0.441046599999936,62,,8,20,Vrouw,Rechts,1,
,dotcolour,xotask,xotask,46,4,286,586,main,positivefb,-99,easy,,0.9851151999996546,['c'],1,left,['9'],5,0.8404853000001822,63,,8,20,Vrouw,Rechts,1,
,dotcolour,xotask,xotask,47,4,287,587,main,positivefb,-99,average,,1.1352812000000085,['c'],1,left,['9'],5,0.8987194999999701,54,,8,20,Vrouw,Rechts,1,
,dotcolour,xotask,xotask,48,4,288,588,main,positivefb,-99,hard,,1.3336936999999125,['n'],0,left,['8'],4,0.6977622999997948,44,,8,20,Vrouw,Rechts,1,
,dotcolour,xotask,xotask,49,4,289,589,main,positivefb,-99,easy,,0.6673258999999234,['n'],1,right,['0'],6,0.6042983000002096,17,,8,20,Vrouw,Rechts,1,
,dotcolour,xotask,xotask,50,4,290,590,main,positivefb,-99,average,,1.0171205999999984,['n'],1,right,['0'],6,0.771697099999983,28,,8,20,Vrouw,Rechts,1,
,dotcolour,xotask,xotask,51,4,291,591,main,positivefb,-99,easy,,0.8006171000001814,['c'],1,left,['0'],6,0.34974849999980506,65,,8,20,Vrouw,Rechts,1,
,dotcolour,xotask,xotask,52,4,292,592,main,positivefb,-99,average,,1.017879399999856,['n'],1,right,['0'],6,0.7524536000000808,27,,8,20,Vrouw,Rechts,1,
,dotcolour,xotask,xotask,53,4,293,593,main,positivefb,-99,easy,,0.7179606999998214,['n'],1,right,['0'],6,0.5744681999999557,18,,8,20,Vrouw,Rechts,1,
,dotcolour,xotask,xotask,54,4,294,594,main,positivefb,-99,average,,2.884319300000243,['n'],1,right,['8'],4,0.4528752999999597,28,,8,20,Vrouw,Rechts,1,
,dotcolour,xotask,xotask,55,4,295,595,main,positivefb,-99,hard,,1.7339324999998098,['c'],0,right,['8'],4,0.43816510000033304,39,,8,20,Vrouw,Rechts,1,
,dotcolour,xotask,xotask,56,4,296,596,main,positivefb,-99,hard,,1.6841512000000876,['c'],0,right,['8'],4,0.3463030000002618,37,,8,20,Vrouw,Rechts,1,
,dotcolour,xotask,xotask,57,4,297,597,main,positivefb,-99,hard,,1.2176703000000089,['c'],1,left,['8'],4,0.41259590000026947,41,,8,20,Vrouw,Rechts,1,
,dotcolour,xotask,xotask,58,4,298,598,main,positivefb,-99,hard,,1.2675725999997667,['n'],1,right,['8'],4,0.5625385999996979,37,,8,20,Vrouw,Rechts,1,
,dotcolour,xotask,xotask,59,4,299,599,main,positivefb,-99,easy,,0.7514858999998069,['c'],1,left,['8'],4,0.45612049999999726,63,,8,20,Vrouw,Rechts,1,
,xotask,xotask,xotask,0,0,0,600,training,positivefb,99,average,60,0.8851125000001048,['c'],1,left,['8'],4,0.9349352999997791,,,8,20,Vrouw,Rechts,1,
,xotask,xotask,xotask,1,0,1,601,training,positivefb,92,average,16,0.7166623000002801,['c'],0,right,['9'],5,0.5243335000000116,,,8,20,Vrouw,Rechts,1,
,xotask,xotask,xotask,2,0,2,602,training,positivefb,40,average,16,0.5495436000001064,['c'],0,right,['0'],6,0.5456466999999066,,,8,20,Vrouw,Rechts,1,
,xotask,xotask,xotask,3,0,3,603,training,positivefb,95,hard,54,1.1840809999998783,['c'],1,left,['9'],5,2.100423200000023,,,8,20,Vrouw,Rechts,1,
,xotask,xotask,xotask,4,0,4,604,training,positivefb,93,easy,70,0.6160592000001088,['c'],1,left,['0'],6,0.39202579999982845,,,8,20,Vrouw,Rechts,1,
,xotask,xotask,xotask,5,0,5,605,training,positivefb,82,hard,25,1.6671986999999717,['n'],1,right,['9'],5,0.5890524000001278,,,8,20,Vrouw,Rechts,1,
,xotask,xotask,xotask,6,0,6,606,training,positivefb,98,average,18,0.7840338000000884,['n'],1,right,['0'],6,0.5829006999997546,,,8,20,Vrouw,Rechts,1,
,xotask,xotask,xotask,7,0,7,607,training,positivefb,80,hard,26,0.617301100000077,['n'],1,right,['0'],6,0.4468392000003405,,,8,20,Vrouw,Rechts,1,
,xotask,xotask,xotask,8,0,8,608,training,positivefb,91,hard,25,0.583581100000174,['n'],1,right,['8'],4,0.7428679999998167,,,8,20,Vrouw,Rechts,1,
,xotask,xotask,xotask,9,0,9,609,training,positivefb,71,easy,74,0.9000111999998808,['c'],1,left,['0'],6,1.3564221000001453,,,8,20,Vrouw,Rechts,1,
,xotask,xotask,xotask,10,0,10,610,training,positivefb,98,average,15,0.6833818000000065,['n'],1,right,['9'],5,0.6665529000001698,,,8,20,Vrouw,Rechts,1,
,xotask,xotask,xotask,11,0,11,611,training,positivefb,76,hard,29,0.9846253000000615,['c'],0,right,['8'],4,0.7291716999998243,,,8,20,Vrouw,Rechts,1,
,xotask,xotask,xotask,12,0,12,612,training,positivefb,98,average,16,0.6839925999997831,['n'],1,right,['9'],5,0.8094805000000633,,,8,20,Vrouw,Rechts,1,
,xotask,xotask,xotask,13,0,13,613,training,positivefb,98,average,63,0.7006877000003442,['c'],1,left,['9'],5,0.45304499999974723,,,8,20,Vrouw,Rechts,1,
,xotask,xotask,xotask,14,0,14,614,training,positivefb,89,hard,50,1.3498763000002327,['c'],1,left,['8'],4,0.2930983000001106,,,8,20,Vrouw,Rechts,1,
,xotask,xotask,xotask,15,0,15,615,training,positivefb,96,easy,8,0.7999832000000424,['n'],1,right,['9'],5,0.5534426999997777,,,8,20,Vrouw,Rechts,1,
,xotask,xotask,xotask,16,0,16,616,training,positivefb,99,easy,9,0.7502509000000828,['n'],1,right,['9'],5,0.48608329999979105,,,8,20,Vrouw,Rechts,1,
,xotask,xotask,xotask,17,0,17,617,training,positivefb,96,average,61,0.6501066000000719,['c'],1,left,['9'],5,0.7528054999997948,,,8,20,Vrouw,Rechts,1,
,xotask,xotask,xotask,18,0,18,618,training,positivefb,98,average,60,0.8841404999998304,['c'],1,left,['9'],5,0.9113328999997066,,,8,20,Vrouw,Rechts,1,
,xotask,xotask,xotask,19,0,19,619,training,positivefb,94,average,15,1.1998008000000482,['n'],1,right,['9'],5,0.46718849999979284,,,8,20,Vrouw,Rechts,1,
,xotask,xotask,xotask,20,0,20,620,training,positivefb,80,hard,25,0.6172398999997313,['n'],1,right,['0'],6,0.5122653000003083,,,8,20,Vrouw,Rechts,1,
,xotask,xotask,xotask,21,0,21,621,training,positivefb,85,hard,52,1.1832586999998966,['c'],1,left,['9'],5,0.43718859999989945,,,8,20,Vrouw,Rechts,1,
,xotask,xotask,xotask,22,0,22,622,training,positivefb,99,easy,8,0.6838127999999415,['n'],1,right,['0'],6,0.647726899999725,,,8,20,Vrouw,Rechts,1,
,xotask,xotask,xotask,23,0,23,623,training,positivefb,81,hard,28,2.333660399999644,['n'],1,right,['9'],5,0.5851760000000468,,,8,20,Vrouw,Rechts,1,
,xotask,xotask,xotask,24,0,24,624,training,positivefb,95,average,17,0.8333895999999186,['n'],1,right,['0'],6,0.5440128000000186,,,8,20,Vrouw,Rechts,1,
,xotask,xotask,xotask,25,0,25,625,training,positivefb,84,easy,72,0.6840550000001713,['c'],1,left,['0'],6,0.3914244000002327,,,8,20,Vrouw,Rechts,1,
,xotask,xotask,xotask,26,0,26,626,training,positivefb,97,easy,71,0.7839988000000631,['c'],1,left,['0'],6,0.35250779999978477,,,8,20,Vrouw,Rechts,1,
,xotask,xotask,xotask,27,0,27,627,training,positivefb,92,hard,51,0.5660142000001542,['c'],1,left,['0'],6,1.0522640999997748,,,8,20,Vrouw,Rechts,1,
,xotask,xotask,xotask,28,0,28,628,training,positivefb,97,easy,8,0.8166857000001073,['n'],1,right,['0'],6,0.6727955999999722,,,8,20,Vrouw,Rechts,1,
,xotask,xotask,xotask,29,0,29,629,training,positivefb,94,average,60,1.1008504999999786,['c'],1,left,['9'],5,0.546981599999981,,,8,20,Vrouw,Rechts,1,
,xotask,xotask,xotask,30,0,30,630,training,positivefb,85,hard,54,1.6005018000000746,['c'],1,left,['8'],4,0.42960919999995895,,,8,20,Vrouw,Rechts,1,
,xotask,xotask,xotask,31,0,31,631,training,positivefb,99,hard,51,0.6165390000001025,['c'],1,left,['8'],4,0.39648329999999987,,,8,20,Vrouw,Rechts,1,
,xotask,xotask,xotask,32,0,32,632,training,positivefb,87,hard,51,1.2168025999999372,['c'],1,left,['8'],4,0.3723954000001868,,,8,20,Vrouw,Rechts,1,
,xotask,xotask,xotask,33,0,33,633,training,positivefb,94,hard,25,0.817657799999779,['n'],1,right,['8'],4,1.068779000000177,,,8,20,Vrouw,Rechts,1,
,xotask,xotask,xotask,34,0,34,634,training,positivefb,98,easy,74,0.7006836000000476,['c'],1,left,['9'],5,0.510066100000131,,,8,20,Vrouw,Rechts,1,
,xotask,xotask,xotask,35,0,35,635,training,positivefb,89,average,62,0.6832711000001837,['c'],1,left,['0'],6,0.542591800000082,,,8,20,Vrouw,Rechts,1,
,xotask,xotask,xotask,36,0,36,636,training,positivefb,98,easy,8,0.916822300000149,['n'],1,right,['9'],5,0.692856699999993,,,8,20,Vrouw,Rechts,1,
,xotask,xotask,xotask,37,0,37,637,training,positivefb,99,easy,71,0.8331847000004018,['c'],1,left,['9'],5,0.4082106999999269,,,8,20,Vrouw,Rechts,1,
,xotask,xotask,xotask,38,0,38,638,training,positivefb,93,hard,54,0.6000005000000783,['c'],1,left,['9'],5,0.38502070000004096,,,8,20,Vrouw,Rechts,1,
,xotask,xotask,xotask,39,0,39,639,training,positivefb,99,average,15,0.7499846999999136,['n'],1,right,['9'],5,0.4348571999998967,,,8,20,Vrouw,Rechts,1,
,xotask,xotask,xotask,40,0,40,640,training,positivefb,93,average,15,1.383910300000025,['c'],0,right,['8'],4,0.37837690000014845,,,8,20,Vrouw,Rechts,1,
,xotask,xotask,xotask,41,0,41,641,training,positivefb,98,average,62,0.7670640000001185,['c'],1,left,['9'],5,0.6049886999999217,,,8,20,Vrouw,Rechts,1,
,xotask,xotask,xotask,42,0,42,642,training,positivefb,93,hard,25,0.5503143000000819,['n'],1,right,['0'],6,0.37496509999982663,,,8,20,Vrouw,Rechts,1,
,xotask,xotask,xotask,43,0,43,643,training,positivefb,99,easy,71,0.6162951000001158,['c'],1,left,['0'],6,0.36736560000008467,,,8,20,Vrouw,Rechts,1,
,xotask,xotask,xotask,44,0,44,644,training,positivefb,87,hard,26,0.9505782000001091,['n'],1,right,['0'],6,0.4672451000001274,,,8,20,Vrouw,Rechts,1,
,xotask,xotask,xotask,45,0,45,645,training,positivefb,75,average,64,0.7344413000000714,['c'],1,left,['9'],5,0.3871313999998165,,,8,20,Vrouw,Rechts,1,
,xotask,xotask,xotask,46,0,46,646,training,positivefb,98,average,63,0.5499436999998579,['c'],1,left,['0'],6,0.4463927000001604,,,8,20,Vrouw,Rechts,1,
,xotask,xotask,xotask,47,0,47,647,training,positivefb,98,easy,9,0.733766100000139,['n'],1,right,['0'],6,0.6713014999995721,,,8,20,Vrouw,Rechts,1,
,xotask,xotask,xotask,48,0,48,648,training,positivefb,95,easy,73,0.9010932000001048,['c'],1,left,['0'],6,0.37668219999977737,,,8,20,Vrouw,Rechts,1,
,xotask,xotask,xotask,49,0,49,649,training,positivefb,91,easy,74,1.0494464000003063,['c'],1,left,['0'],6,0.40745509999987917,,,8,20,Vrouw,Rechts,1,
,xotask,xotask,xotask,50,0,50,650,training,positivefb,96,easy,7,0.5997893999997359,['n'],1,right,['0'],6,0.5442702000000281,,,8,20,Vrouw,Rechts,1,
,xotask,xotask,xotask,51,0,51,651,training,positivefb,95,easy,9,0.6172566999998708,['n'],1,right,['0'],6,0.5060085999998591,,,8,20,Vrouw,Rechts,1,
,xotask,xotask,xotask,52,0,52,652,training,positivefb,94,hard,50,0.5841591999997036,['c'],1,left,['0'],6,0.7588294000001952,,,8,20,Vrouw,Rechts,1,
,xotask,xotask,xotask,53,0,53,653,training,positivefb,92,easy,8,0.5339994999999362,['n'],1,right,['0'],6,0.4510565000000497,,,8,20,Vrouw,Rechts,1,
,xotask,xotask,xotask,54,0,54,654,training,positivefb,98,easy,71,0.5672988000001169,['c'],1,left,['0'],6,0.4426579999999376,,,8,20,Vrouw,Rechts,1,
,xotask,xotask,xotask,55,0,55,655,training,positivefb,85,hard,54,0.8673856000000342,['c'],1,left,['0'],6,0.43050700000003417,,,8,20,Vrouw,Rechts,1,
,xotask,xotask,xotask,56,0,56,656,training,positivefb,84,average,64,0.7996576000000459,['c'],1,left,['0'],6,0.8383711000001313,,,8,20,Vrouw,Rechts,1,
,xotask,xotask,xotask,57,0,57,657,training,positivefb,95,easy,8,0.6169663000000583,['n'],1,right,['0'],6,0.6040453999999045,,,8,20,Vrouw,Rechts,1,
,xotask,xotask,xotask,58,0,58,658,training,positivefb,95,average,17,0.8503159000001688,['n'],1,right,['0'],6,0.43436789999987013,,,8,20,Vrouw,Rechts,1,
,xotask,xotask,xotask,59,0,59,659,training,positivefb,78,hard,26,2.0334600000001046,['n'],1,right,['0'],6,0.4316516999997475,,,8,20,Vrouw,Rechts,1,
,xotask,xotask,xotask,0,1,60,660,training,positivefb,81,easy,72,0.8672165000002678,['c'],1,left,['9'],5,0.4634425999997802,,,8,20,Vrouw,Rechts,1,
,xotask,xotask,xotask,1,1,61,661,training,positivefb,97,hard,52,0.5826311000000715,['c'],1,left,['9'],5,0.3340069000000767,,,8,20,Vrouw,Rechts,1,
,xotask,xotask,xotask,2,1,62,662,training,positivefb,95,average,17,0.5830800000003364,['n'],1,right,['9'],5,0.36916770000016186,,,8,20,Vrouw,Rechts,1,
,xotask,xotask,xotask,3,1,63,663,training,positivefb,96,hard,26,0.8838416000003235,['n'],1,right,['9'],5,0.29535429999987173,,,8,20,Vrouw,Rechts,1,
,xotask,xotask,xotask,4,1,64,664,training,positivefb,93,easy,6,0.632842200000141,['n'],1,right,['9'],5,0.46678449999990335,,,8,20,Vrouw,Rechts,1,
,xotask,xotask,xotask,5,1,65,665,training,positivefb,63,hard,54,0.7166193999996722,['c'],1,left,['9'],5,0.3322659999998905,,,8,20,Vrouw,Rechts,1,
,xotask,xotask,xotask,6,1,66,666,training,positivefb,92,hard,51,1.350198999999975,['c'],1,left,['9'],5,0.3284131000000343,,,8,20,Vrouw,Rechts,1,
,xotask,xotask,xotask,7,1,67,667,training,positivefb,94,hard,54,0.7672443000001294,['c'],1,left,['9'],5,0.30916849999994156,,,8,20,Vrouw,Rechts,1,
,xotask,xotask,xotask,8,1,68,668,training,positivefb,94,average,19,0.6672103000000789,['c'],0,right,['9'],5,0.26202250000005733,,,8,20,Vrouw,Rechts,1,
,xotask,xotask,xotask,9,1,69,669,training,positivefb,94,easy,74,0.6998162999998385,['c'],1,left,['9'],5,0.24057240000001912,,,8,20,Vrouw,Rechts,1,
,xotask,xotask,xotask,10,1,70,670,training,positivefb,87,average,63,0.5669056000001547,['c'],1,left,['0'],6,0.5599375000001601,,,8,20,Vrouw,Rechts,1,
,xotask,xotask,xotask,11,1,71,671,training,positivefb,95,hard,51,0.5332290999999714,['c'],1,left,['0'],6,0.5413142000002154,,,8,20,Vrouw,Rechts,1,
,xotask,xotask,xotask,12,1,72,672,training,positivefb,86,average,15,0.6840584999999919,['n'],1,right,['9'],5,0.6523968000001332,,,8,20,Vrouw,Rechts,1,
,xotask,xotask,xotask,13,1,73,673,training,positivefb,18,easy,9,0.6503124999999272,['c'],0,right,['3'],3,1.2173829000003025,,,8,20,Vrouw,Rechts,1,
,xotask,xotask,xotask,14,1,74,674,training,positivefb,98,easy,70,0.8178745000000163,['c'],1,left,['9'],5,0.7028608999999051,,,8,20,Vrouw,Rechts,1,
,xotask,xotask,xotask,15,1,75,675,training,positivefb,88,easy,9,0.667027699999835,['n'],1,right,['9'],5,0.35241939999968963,,,8,20,Vrouw,Rechts,1,
