starttime,task,fbtask,firsttask,withinblocktrial,block,withintasktrial,trial,running,feedback,fbscore,difflevel,reddots,rt,resp,cor,cresp,conf_press,cj,RTconf,n_xes,post1,post2,post3,post4,post5,stoptime,sub,age,gender,handedness,session,
1715688054,dotcolour,dotcolour,xotask,0,0,0,0,training,positivefb,76,hard,43,5.1673699999992095,['n'],0,left,['9'],5,0.7643207000000984,,,,,,,,30,18,Vrouw,Rechts,2,
,dotcolour,dotcolour,xotask,1,0,1,1,training,positivefb,78,average,28,2.3675240999982634,['n'],1,right,['9'],5,0.5664264000006369,,,,,,,,30,18,Vrouw,Rechts,2,
,dotcolour,dotcolour,xotask,2,0,2,2,training,positivefb,76,hard,42,2.183188999999402,['c'],1,left,['0'],6,1.0881119999976363,,,,,,,,30,18,Vrouw,Rechts,2,
,dotcolour,dotcolour,xotask,3,0,3,3,training,positivefb,81,hard,43,0.5505553999973927,['n'],0,left,['9'],5,0.31865340000149445,,,,,,,,30,18,Vrouw,Rechts,2,
,dotcolour,dotcolour,xotask,4,0,4,4,training,positivefb,96,average,52,1.117670100000396,['c'],1,left,['9'],5,0.4779068999996525,,,,,,,,30,18,Vrouw,Rechts,2,
,dotcolour,dotcolour,xotask,5,0,5,5,training,positivefb,80,easy,18,0.4664898000009998,['n'],1,right,['0'],6,0.2317375999991782,,,,,,,,30,18,Vrouw,Rechts,2,
,dotcolour,dotcolour,xotask,6,0,6,6,training,positivefb,64,easy,63,0.46765980000054697,['c'],1,left,['9'],5,0.139836500002275,,,,,,,,30,18,Vrouw,Rechts,2,
,dotcolour,dotcolour,xotask,7,0,7,7,training,positivefb,84,hard,36,0.5501067000004696,['n'],1,right,['0'],6,0.24058279999735532,,,,,,,,30,18,Vrouw,Rechts,2,
,dotcolour,dotcolour,xotask,8,0,8,8,training,positivefb,97,average,27,0.5673185999985435,['n'],1,right,['9'],5,0.24873989999832702,,,,,,,,30,18,Vrouw,Rechts,2,
,dotcolour,dotcolour,xotask,9,0,9,9,training,positivefb,97,average,25,0.5171636999984912,['n'],1,right,['8'],4,0.29018139999971027,,,,,,,,30,18,Vrouw,Rechts,2,
,dotcolour,dotcolour,xotask,10,0,10,10,training,positivefb,94,average,27,0.6822969000022567,['n'],1,right,['9'],5,0.24413619999904768,,,,,,,,30,18,Vrouw,Rechts,2,
,dotcolour,dotcolour,xotask,11,0,11,11,training,positivefb,97,average,55,0.5671040999986872,['c'],1,left,['9'],5,0.16386989999955404,,,,,,,,30,18,Vrouw,Rechts,2,
,dotcolour,dotcolour,xotask,12,0,12,12,training,positivefb,96,easy,15,0.6495857000008982,['n'],1,right,['9'],5,0.23588549999840325,,,,,,,,30,18,Vrouw,Rechts,2,
,dotcolour,dotcolour,xotask,13,0,13,13,training,positivefb,94,hard,38,0.6169446999992942,['n'],1,right,['9'],5,0.249400799999421,,,,,,,,30,18,Vrouw,Rechts,2,
,dotcolour,dotcolour,xotask,14,0,14,14,training,positivefb,98,average,54,0.5996444999982486,['c'],1,left,['8'],4,0.183687299999292,,,,,,,,30,18,Vrouw,Rechts,2,
,dotcolour,dotcolour,xotask,15,0,15,15,training,positivefb,98,average,53,0.6324195000015607,['c'],1,left,['9'],5,0.31921439999860013,,,,,,,,30,18,Vrouw,Rechts,2,
,dotcolour,dotcolour,xotask,16,0,16,16,training,positivefb,98,average,53,0.6663972999995167,['c'],1,left,['9'],5,0.25534650000190595,,,,,,,,30,18,Vrouw,Rechts,2,
,dotcolour,dotcolour,xotask,17,0,17,17,training,positivefb,54,easy,63,0.5836909000026935,['c'],1,left,['0'],6,0.40640609999900335,,,,,,,,30,18,Vrouw,Rechts,2,
,dotcolour,dotcolour,xotask,18,0,18,18,training,positivefb,94,easy,17,0.4328813000029186,['n'],1,right,['9'],5,0.2528119000016886,,,,,,,,30,18,Vrouw,Rechts,2,
,dotcolour,dotcolour,xotask,19,0,19,19,training,positivefb,89,hard,43,0.5336366999981692,['c'],1,left,['9'],5,0.2213917000008223,,,,,,,,30,18,Vrouw,Rechts,2,
,dotcolour,dotcolour,xotask,20,0,20,20,training,positivefb,97,easy,63,0.46683679999841843,['c'],1,left,['0'],6,0.3616817000001902,,,,,,,,30,18,Vrouw,Rechts,2,
,dotcolour,dotcolour,xotask,21,0,21,21,training,positivefb,99,easy,15,0.41596690000005765,['n'],1,right,['9'],5,0.18758129999696393,,,,,,,,30,18,Vrouw,Rechts,2,
,dotcolour,dotcolour,xotask,22,0,22,22,training,positivefb,93,average,52,0.8160072999999102,['c'],1,left,['9'],5,0.1635156000011193,,,,,,,,30,18,Vrouw,Rechts,2,
,dotcolour,dotcolour,xotask,23,0,23,23,training,positivefb,95,hard,45,0.6002588999981526,['c'],1,left,['9'],5,0.14940819999901578,,,,,,,,30,18,Vrouw,Rechts,2,
,dotcolour,dotcolour,xotask,24,0,24,24,training,positivefb,99,hard,38,0.6503123000002233,['n'],1,right,['9'],5,0.22159889999966254,,,,,,,,30,18,Vrouw,Rechts,2,
,dotcolour,dotcolour,xotask,25,0,25,25,training,positivefb,72,hard,43,0.8679069999998319,['c'],1,left,['9'],5,0.20239700000092853,,,,,,,,30,18,Vrouw,Rechts,2,
,dotcolour,dotcolour,xotask,26,0,26,26,training,positivefb,96,easy,61,0.46707660000174656,['c'],1,left,['9'],5,0.14348249999966356,,,,,,,,30,18,Vrouw,Rechts,2,
,dotcolour,dotcolour,xotask,27,0,27,27,training,positivefb,90,hard,35,0.7338248000014573,['n'],1,right,['9'],5,0.196831099998235,,,,,,,,30,18,Vrouw,Rechts,2,
,dotcolour,dotcolour,xotask,28,0,28,28,training,positivefb,89,easy,17,0.7512626000025193,['n'],1,right,['9'],5,0.1916001999998116,,,,,,,,30,18,Vrouw,Rechts,2,
,dotcolour,dotcolour,xotask,29,0,29,29,training,positivefb,87,hard,35,1.1337724000004528,['c'],0,right,['9'],5,0.2274756000006164,,,,,,,,30,18,Vrouw,Rechts,2,
,dotcolour,dotcolour,xotask,30,0,30,30,training,positivefb,94,easy,63,0.6662374000006821,['c'],1,left,['8'],4,0.3836834000030649,,,,,,,,30,18,Vrouw,Rechts,2,
,dotcolour,dotcolour,xotask,31,0,31,31,training,positivefb,75,easy,18,0.61740170000121,['n'],1,right,['8'],4,0.21635289999903762,,,,,,,,30,18,Vrouw,Rechts,2,
,dotcolour,dotcolour,xotask,32,0,32,32,training,positivefb,65,hard,37,0.5330458999997063,['c'],0,right,['9'],5,0.2895228000015777,,,,,,,,30,18,Vrouw,Rechts,2,
,dotcolour,dotcolour,xotask,33,0,33,33,training,positivefb,67,average,25,0.682665200001793,['n'],1,right,['9'],5,0.171216300001106,,,,,,,,30,18,Vrouw,Rechts,2,
,dotcolour,dotcolour,xotask,34,0,34,34,training,positivefb,98,easy,65,0.616101499999786,['c'],1,left,['9'],5,0.13969790000192006,,,,,,,,30,18,Vrouw,Rechts,2,
,dotcolour,dotcolour,xotask,35,0,35,35,training,positivefb,90,hard,41,0.81644999999844,['c'],1,left,['8'],4,0.22152989999813144,,,,,,,,30,18,Vrouw,Rechts,2,
,dotcolour,dotcolour,xotask,36,0,36,36,training,positivefb,98,average,26,0.48409779999929015,['n'],1,right,['9'],5,0.24153619999924558,,,,,,,,30,18,Vrouw,Rechts,2,
,dotcolour,dotcolour,xotask,37,0,37,37,training,positivefb,96,average,28,0.5835740000002261,['n'],1,right,['8'],4,0.28092340000148397,,,,,,,,30,18,Vrouw,Rechts,2,
,dotcolour,dotcolour,xotask,38,0,38,38,training,positivefb,81,hard,35,0.5834198000011384,['c'],0,right,['8'],4,0.16679759999897215,,,,,,,,30,18,Vrouw,Rechts,2,
,dotcolour,dotcolour,xotask,39,0,39,39,training,positivefb,93,average,54,0.5496177999993961,['c'],1,left,['9'],5,0.17075320000003558,,,,,,,,30,18,Vrouw,Rechts,2,
,dotcolour,dotcolour,xotask,40,0,40,40,training,positivefb,97,average,26,0.6672030000008817,['n'],1,right,['9'],5,0.22521190000043134,,,,,,,,30,18,Vrouw,Rechts,2,
,dotcolour,dotcolour,xotask,41,0,41,41,training,positivefb,85,easy,18,0.5504231000013533,['n'],1,right,['9'],5,0.28196119999847724,,,,,,,,30,18,Vrouw,Rechts,2,
,dotcolour,dotcolour,xotask,42,0,42,42,training,positivefb,97,easy,15,0.7831143000003067,['n'],1,right,['9'],5,0.31917279999834136,,,,,,,,30,18,Vrouw,Rechts,2,
,dotcolour,dotcolour,xotask,43,0,43,43,training,positivefb,90,hard,37,0.917468399999052,['n'],1,right,['9'],5,0.22225239999897894,,,,,,,,30,18,Vrouw,Rechts,2,
,dotcolour,dotcolour,xotask,44,0,44,44,training,positivefb,99,easy,62,0.41723300000012387,['c'],1,left,['9'],5,0.19657979999828967,,,,,,,,30,18,Vrouw,Rechts,2,
,dotcolour,dotcolour,xotask,45,0,45,45,training,positivefb,96,average,29,0.5330847000004724,['n'],1,right,['9'],5,0.19213579999996,,,,,,,,30,18,Vrouw,Rechts,2,
,dotcolour,dotcolour,xotask,46,0,46,46,training,positivefb,82,hard,37,0.5675480999998399,['n'],1,right,['9'],5,0.25010719999772846,,,,,,,,30,18,Vrouw,Rechts,2,
,dotcolour,dotcolour,xotask,47,0,47,47,training,positivefb,94,average,55,0.5502072999988741,['c'],1,left,['9'],5,0.12256519999937154,,,,,,,,30,18,Vrouw,Rechts,2,
,dotcolour,dotcolour,xotask,48,0,48,48,training,positivefb,99,average,52,0.45139340000241646,['c'],1,left,['9'],5,0.13954700000249431,,,,,,,,30,18,Vrouw,Rechts,2,
,dotcolour,dotcolour,xotask,49,0,49,49,training,positivefb,94,hard,37,0.4677793000009842,['c'],0,right,['9'],5,0.21972740000273916,,,,,,,,30,18,Vrouw,Rechts,2,
,dotcolour,dotcolour,xotask,50,0,50,50,training,positivefb,87,hard,45,0.6006545999989612,['c'],1,left,['8'],4,0.1548951999975543,,,,,,,,30,18,Vrouw,Rechts,2,
,dotcolour,dotcolour,xotask,51,0,51,51,training,positivefb,98,easy,18,0.566668600000412,['n'],1,right,['9'],5,0.21475659999850905,,,,,,,,30,18,Vrouw,Rechts,2,
,dotcolour,dotcolour,xotask,52,0,52,52,training,positivefb,95,easy,63,0.4662131999975827,['c'],1,left,['9'],5,0.3718217999994522,,,,,,,,30,18,Vrouw,Rechts,2,
,dotcolour,dotcolour,xotask,53,0,53,53,training,positivefb,99,hard,45,0.5494519000021683,['c'],1,left,['8'],4,0.20638419999886537,,,,,,,,30,18,Vrouw,Rechts,2,
,dotcolour,dotcolour,xotask,54,0,54,54,training,positivefb,97,easy,15,0.4832138000019768,['n'],1,right,['9'],5,0.2039083000017854,,,,,,,,30,18,Vrouw,Rechts,2,
,dotcolour,dotcolour,xotask,55,0,55,55,training,positivefb,98,average,26,0.5342175999976462,['c'],0,right,['8'],4,0.36679750000257627,,,,,,,,30,18,Vrouw,Rechts,2,
,dotcolour,dotcolour,xotask,56,0,56,56,training,positivefb,99,easy,62,0.5669581000001926,['c'],1,left,['9'],5,0.17665560000023106,,,,,,,,30,18,Vrouw,Rechts,2,
,dotcolour,dotcolour,xotask,57,0,57,57,training,positivefb,94,hard,43,0.6660761999992246,['c'],1,left,['8'],4,0.23962390000087908,,,,,,,,30,18,Vrouw,Rechts,2,
,dotcolour,dotcolour,xotask,58,0,58,58,training,positivefb,93,average,53,0.48393529999884777,['c'],1,left,['9'],5,0.1629718000003777,,,,,,,,30,18,Vrouw,Rechts,2,
,dotcolour,dotcolour,xotask,59,0,59,59,training,positivefb,89,easy,62,0.5336547000006249,['c'],1,left,['9'],5,0.2715442000007897,,,,,,,,30,18,Vrouw,Rechts,2,
,dotcolour,dotcolour,xotask,0,1,60,60,training,positivefb,80,easy,62,0.8343821999987995,['c'],1,left,['9'],5,0.15698200000042561,,,,,,,,30,18,Vrouw,Rechts,2,
,dotcolour,dotcolour,xotask,1,1,61,61,training,positivefb,97,average,54,0.48283900000024005,['c'],1,left,['9'],5,0.16357439999774215,,,,,,,,30,18,Vrouw,Rechts,2,
,dotcolour,dotcolour,xotask,2,1,62,62,training,positivefb,93,average,51,0.4344870999993873,['c'],1,left,['9'],5,0.13986909999948693,,,,,,,,30,18,Vrouw,Rechts,2,
,dotcolour,dotcolour,xotask,3,1,63,63,training,positivefb,98,hard,45,0.5338029999984428,['c'],1,left,['9'],5,0.18492289999994682,,,,,,,,30,18,Vrouw,Rechts,2,
,dotcolour,dotcolour,xotask,4,1,64,64,training,positivefb,93,average,29,0.5994968000013614,['n'],1,right,['8'],4,0.21721350000007078,,,,,,,,30,18,Vrouw,Rechts,2,
,dotcolour,dotcolour,xotask,5,1,65,65,training,positivefb,98,average,55,0.38453759999902104,['c'],1,left,['9'],5,0.26573690000077477,,,,,,,,30,18,Vrouw,Rechts,2,
,dotcolour,dotcolour,xotask,6,1,66,66,training,positivefb,95,hard,43,0.4176493000013579,['c'],1,left,['9'],5,0.11837320000267937,,,,,,,,30,18,Vrouw,Rechts,2,
,dotcolour,dotcolour,xotask,7,1,67,67,training,positivefb,96,easy,18,0.5000642999984848,['n'],1,right,['9'],5,0.1975802000015392,,,,,,,,30,18,Vrouw,Rechts,2,
,dotcolour,dotcolour,xotask,8,1,68,68,training,positivefb,86,easy,17,0.4342608000006294,['n'],1,right,['9'],5,0.21332540000003064,,,,,,,,30,18,Vrouw,Rechts,2,
,dotcolour,dotcolour,xotask,9,1,69,69,training,positivefb,100,easy,62,0.3999377000000095,['c'],1,left,['9'],5,0.20487209999919287,,,,,,,,30,18,Vrouw,Rechts,2,
,dotcolour,dotcolour,xotask,10,1,70,70,training,positivefb,92,average,51,0.46691740000096615,['c'],1,left,['9'],5,0.07361369999853196,,,,,,,,30,18,Vrouw,Rechts,2,
,dotcolour,dotcolour,xotask,11,1,71,71,training,positivefb,90,hard,37,0.4507666999998037,['c'],0,right,['8'],4,0.6860396000010951,,,,,,,,30,18,Vrouw,Rechts,2,
,dotcolour,dotcolour,xotask,12,1,72,72,training,positivefb,96,hard,39,0.5330345000002126,['c'],0,right,['9'],5,0.12548139999853447,,,,,,,,30,18,Vrouw,Rechts,2,
,dotcolour,dotcolour,xotask,13,1,73,73,training,positivefb,93,easy,19,0.7506886000010127,['n'],1,right,['9'],5,0.22619160000249394,,,,,,,,30,18,Vrouw,Rechts,2,
,dotcolour,dotcolour,xotask,14,1,74,74,training,positivefb,98,average,26,0.5172110999992583,['n'],1,right,['9'],5,0.22109659999841824,,,,,,,,30,18,Vrouw,Rechts,2,
,dotcolour,dotcolour,xotask,15,1,75,75,training,positivefb,99,average,25,0.5173187000000325,['n'],1,right,['9'],5,0.19977450000078534,,,,,,,,30,18,Vrouw,Rechts,2,
,dotcolour,dotcolour,xotask,16,1,76,76,training,positivefb,96,average,53,0.49974920000022394,['c'],1,left,['9'],5,0.12363249999907566,,,,,,,,30,18,Vrouw,Rechts,2,
,dotcolour,dotcolour,xotask,17,1,77,77,training,positivefb,92,hard,41,0.6180580000000191,['c'],1,left,['8'],4,0.12696230000074138,,,,,,,,30,18,Vrouw,Rechts,2,
,dotcolour,dotcolour,xotask,18,1,78,78,training,positivefb,98,average,53,0.6165619999992487,['c'],1,left,['9'],5,0.16891819999727886,,,,,,,,30,18,Vrouw,Rechts,2,
,dotcolour,dotcolour,xotask,19,1,79,79,training,positivefb,96,easy,15,0.467399100001785,['n'],1,right,['0'],6,0.20011080000040238,,,,,,,,30,18,Vrouw,Rechts,2,
,dotcolour,dotcolour,xotask,20,1,80,80,training,positivefb,51,hard,41,0.7670069999985571,['c'],1,left,['9'],5,0.13721259999874746,,,,,,,,30,18,Vrouw,Rechts,2,
,dotcolour,dotcolour,xotask,21,1,81,81,training,positivefb,82,easy,61,0.5334858999995049,['c'],1,left,['0'],6,0.1340447000002314,,,,,,,,30,18,Vrouw,Rechts,2,
,dotcolour,dotcolour,xotask,22,1,82,82,training,positivefb,98,easy,61,0.483832000001712,['c'],1,left,['0'],6,0.08528540000042995,,,,,,,,30,18,Vrouw,Rechts,2,
,dotcolour,dotcolour,xotask,23,1,83,83,training,positivefb,94,hard,43,0.6837408999999752,['n'],0,left,['9'],5,0.22377989999949932,,,,,,,,30,18,Vrouw,Rechts,2,
,dotcolour,dotcolour,xotask,24,1,84,84,training,positivefb,91,easy,19,0.850763200000074,['n'],1,right,['0'],6,0.25236779999977443,,,,,,,,30,18,Vrouw,Rechts,2,
,dotcolour,dotcolour,xotask,25,1,85,85,training,positivefb,96,average,26,0.650103100000706,['n'],1,right,['0'],6,0.18428259999927832,,,,,,,,30,18,Vrouw,Rechts,2,
,dotcolour,dotcolour,xotask,26,1,86,86,training,positivefb,98,average,52,0.5672798999985389,['c'],1,left,['0'],6,0.09072029999879305,,,,,,,,30,18,Vrouw,Rechts,2,
,dotcolour,dotcolour,xotask,27,1,87,87,training,positivefb,99,easy,62,0.41694660000212025,['c'],1,left,['0'],6,0.0862916000005498,,,,,,,,30,18,Vrouw,Rechts,2,
,dotcolour,dotcolour,xotask,28,1,88,88,training,positivefb,94,hard,44,0.5352399999974295,['c'],1,left,['0'],6,0.14925809999840567,,,,,,,,30,18,Vrouw,Rechts,2,
,dotcolour,dotcolour,xotask,29,1,89,89,training,positivefb,91,hard,42,0.7171415999982855,['c'],1,left,['9'],5,0.10746199999994133,,,,,,,,30,18,Vrouw,Rechts,2,
,dotcolour,dotcolour,xotask,30,1,90,90,training,positivefb,94,average,51,0.44912359999943874,['c'],1,left,['0'],6,0.10096259999772883,,,,,,,,30,18,Vrouw,Rechts,2,
,dotcolour,dotcolour,xotask,31,1,91,91,training,positivefb,98,easy,15,0.9669810000013968,['n'],1,right,['0'],6,0.38589499999943655,,,,,,,,30,18,Vrouw,Rechts,2,
,dotcolour,dotcolour,xotask,32,1,92,92,training,positivefb,84,hard,38,0.5173558000024059,['c'],0,right,['9'],5,0.24677789999987,,,,,,,,30,18,Vrouw,Rechts,2,
,dotcolour,dotcolour,xotask,33,1,93,93,training,positivefb,94,easy,63,0.4334435000018857,['c'],1,left,['9'],5,0.11546589999852586,,,,,,,,30,18,Vrouw,Rechts,2,
,dotcolour,dotcolour,xotask,34,1,94,94,training,positivefb,94,average,54,0.5339308000002347,['c'],1,left,['0'],6,0.18629159999909461,,,,,,,,30,18,Vrouw,Rechts,2,
,dotcolour,dotcolour,xotask,35,1,95,95,training,positivefb,96,hard,38,0.9828089000002365,['n'],1,right,['9'],5,0.2429697000006854,,,,,,,,30,18,Vrouw,Rechts,2,
,dotcolour,dotcolour,xotask,36,1,96,96,training,positivefb,78,hard,41,0.7672683000018878,['c'],1,left,['9'],5,0.2745814000008977,,,,,,,,30,18,Vrouw,Rechts,2,
,dotcolour,dotcolour,xotask,37,1,97,97,training,positivefb,68,hard,38,0.6332025000010617,['c'],0,right,['9'],5,0.2709859000024153,,,,,,,,30,18,Vrouw,Rechts,2,
,dotcolour,dotcolour,xotask,38,1,98,98,training,positivefb,95,hard,39,0.7343962999984797,['n'],1,right,['9'],5,0.22283960000277148,,,,,,,,30,18,Vrouw,Rechts,2,
,dotcolour,dotcolour,xotask,39,1,99,99,training,positivefb,98,easy,63,0.48234710000178893,['c'],1,left,['9'],5,0.12267349999819999,,,,,,,,30,18,Vrouw,Rechts,2,
,dotcolour,dotcolour,xotask,40,1,100,100,training,positivefb,79,hard,36,0.7995678000006592,['n'],1,right,['0'],6,0.21479270000054385,,,,,,,,30,18,Vrouw,Rechts,2,
,dotcolour,dotcolour,xotask,41,1,101,101,training,positivefb,99,average,25,0.6499844000027224,['n'],1,right,['9'],5,0.2358992000008584,,,,,,,,30,18,Vrouw,Rechts,2,
,dotcolour,dotcolour,xotask,42,1,102,102,training,positivefb,91,hard,44,0.616259499998705,['c'],1,left,['9'],5,0.08928269999887561,,,,,,,,30,18,Vrouw,Rechts,2,
,dotcolour,dotcolour,xotask,43,1,103,103,training,positivefb,96,hard,39,0.9002075999997032,['n'],1,right,['9'],5,0.38622419999956037,,,,,,,,30,18,Vrouw,Rechts,2,
,dotcolour,dotcolour,xotask,44,1,104,104,training,positivefb,91,easy,16,0.7500150000014401,['n'],1,right,['0'],6,0.24523770000087097,,,,,,,,30,18,Vrouw,Rechts,2,
,dotcolour,dotcolour,xotask,45,1,105,105,training,positivefb,96,average,28,0.7170144999981858,['n'],1,right,['9'],5,0.19105810000110068,,,,,,,,30,18,Vrouw,Rechts,2,
,dotcolour,dotcolour,xotask,46,1,106,106,training,positivefb,87,average,26,0.4333778000000166,['n'],1,right,['9'],5,0.23084510000262526,,,,,,,,30,18,Vrouw,Rechts,2,
,dotcolour,dotcolour,xotask,47,1,107,107,training,positivefb,95,average,29,0.5496965000020282,['n'],1,right,['0'],6,0.2397796000004746,,,,,,,,30,18,Vrouw,Rechts,2,
,dotcolour,dotcolour,xotask,48,1,108,108,training,positivefb,98,easy,15,0.45013250000192784,['n'],1,right,['0'],6,0.21196770000096876,,,,,,,,30,18,Vrouw,Rechts,2,
,dotcolour,dotcolour,xotask,49,1,109,109,training,positivefb,90,hard,42,0.7672182000023895,['c'],1,left,['9'],5,0.12516210000103456,,,,,,,,30,18,Vrouw,Rechts,2,
,dotcolour,dotcolour,xotask,50,1,110,110,training,positivefb,95,easy,17,0.5339382999991358,['n'],1,right,['0'],6,0.2440214999987802,,,,,,,,30,18,Vrouw,Rechts,2,
,dotcolour,dotcolour,xotask,51,1,111,111,training,positivefb,99,easy,15,0.4342069000012998,['n'],1,right,['0'],6,0.13708609999957844,,,,,,,,30,18,Vrouw,Rechts,2,
,dotcolour,dotcolour,xotask,52,1,112,112,training,positivefb,94,hard,37,0.4673326999982237,['n'],1,right,['0'],6,0.10461349999968661,,,,,,,,30,18,Vrouw,Rechts,2,
,dotcolour,dotcolour,xotask,53,1,113,113,training,positivefb,95,easy,61,0.46762020000096527,['c'],1,left,['0'],6,0.09819819999756874,,,,,,,,30,18,Vrouw,Rechts,2,
,dotcolour,dotcolour,xotask,54,1,114,114,training,positivefb,98,easy,64,0.6322194000022137,['c'],1,left,['0'],6,0.10066929999811691,,,,,,,,30,18,Vrouw,Rechts,2,
,dotcolour,dotcolour,xotask,55,1,115,115,training,positivefb,96,average,55,0.46653470000092057,['c'],1,left,['0'],6,0.05466960000194376,,,,,,,,30,18,Vrouw,Rechts,2,
,dotcolour,dotcolour,xotask,56,1,116,116,training,positivefb,99,hard,35,0.3334323000017321,['c'],0,right,['0'],6,0.08714970000073663,,,,,,,,30,18,Vrouw,Rechts,2,
,dotcolour,dotcolour,xotask,57,1,117,117,training,positivefb,94,average,27,0.43411420000120415,['n'],1,right,['0'],6,0.18666769999981625,,,,,,,,30,18,Vrouw,Rechts,2,
,dotcolour,dotcolour,xotask,58,1,118,118,training,positivefb,94,easy,61,0.5507905000013125,['c'],1,left,['0'],6,0.11654120000093826,,,,,,,,30,18,Vrouw,Rechts,2,
,dotcolour,dotcolour,xotask,59,1,119,119,training,positivefb,91,average,29,0.5845134000010148,['n'],1,right,['0'],6,0.1285386000017752,,,,,,,,30,18,Vrouw,Rechts,2,
,xotask,dotcolour,xotask,0,2,120,120,main,positivefb,-99,easy,,1.2179121000008308,['n'],1,right,['9'],5,0.24445449999984703,5,,,,,,,30,18,Vrouw,Rechts,2,
,xotask,dotcolour,xotask,1,2,121,121,main,positivefb,-99,average,,0.7348406999990402,['c'],1,left,['9'],5,0.14185770000040065,63,,,,,,,30,18,Vrouw,Rechts,2,
,xotask,dotcolour,xotask,2,2,122,122,main,positivefb,-99,easy,,0.7509073999972316,['n'],1,right,['0'],6,0.41172000000005937,6,,,,,,,30,18,Vrouw,Rechts,2,
,xotask,dotcolour,xotask,3,2,123,123,main,positivefb,-99,easy,,0.9340077000015299,['c'],1,left,['9'],5,0.022872000001370907,74,,,,,,,30,18,Vrouw,Rechts,2,
,xotask,dotcolour,xotask,4,2,124,124,main,positivefb,-99,hard,,0.7669501000018499,['n'],1,right,['0'],6,0.1042446999999811,26,,,,,,,30,18,Vrouw,Rechts,2,
,xotask,dotcolour,xotask,5,2,125,125,main,positivefb,-99,hard,,0.5174165000025823,['c'],1,left,['9'],5,0.08825459999934537,50,,,,,,,30,18,Vrouw,Rechts,2,
,xotask,dotcolour,xotask,6,2,126,126,main,positivefb,-99,hard,,1.1178397000003315,['c'],1,left,['8'],4,0.03299260000130744,52,,,,,,,30,18,Vrouw,Rechts,2,
,xotask,dotcolour,xotask,7,2,127,127,main,positivefb,-99,hard,,1.700758599999972,['c'],0,right,['0'],6,0.0601487999992969,25,,,,,,,30,18,Vrouw,Rechts,2,
,xotask,dotcolour,xotask,8,2,128,128,main,positivefb,-99,average,,1.2172893999995722,['n'],1,right,['0'],6,0.10588579999966896,17,,,,,,,30,18,Vrouw,Rechts,2,
,xotask,dotcolour,xotask,9,2,129,129,main,positivefb,-99,hard,,0.867483900001389,['n'],0,left,['0'],6,0.044621099998039426,54,,,,,,,30,18,Vrouw,Rechts,2,
,xotask,dotcolour,xotask,10,2,130,130,main,positivefb,-99,average,,1.0345893000012438,['c'],1,left,['0'],6,0.07439630000226316,63,,,,,,,30,18,Vrouw,Rechts,2,
,xotask,dotcolour,xotask,11,2,131,131,main,positivefb,-99,average,,1.0505521000013687,['n'],1,right,['0'],6,0.06179770000017015,18,,,,,,,30,18,Vrouw,Rechts,2,
,xotask,dotcolour,xotask,12,2,132,132,main,positivefb,-99,easy,,0.7343432999987272,['c'],1,left,['0'],6,0.06404740000289166,73,,,,,,,30,18,Vrouw,Rechts,2,
,xotask,dotcolour,xotask,13,2,133,133,main,positivefb,-99,easy,,0.8512474999988626,['n'],1,right,['0'],6,0.0604721999989124,9,,,,,,,30,18,Vrouw,Rechts,2,
,xotask,dotcolour,xotask,14,2,134,134,main,positivefb,-99,hard,,0.6835965999998734,['n'],0,left,['9'],5,0.864091899999039,51,,,,,,,30,18,Vrouw,Rechts,2,
,xotask,dotcolour,xotask,15,2,135,135,main,positivefb,-99,easy,,0.6847601000008581,['c'],1,left,['9'],5,0.09121109999978216,71,,,,,,,30,18,Vrouw,Rechts,2,
,xotask,dotcolour,xotask,16,2,136,136,main,positivefb,-99,average,,0.7497540000003937,['c'],1,left,['9'],5,0.09893039999951725,62,,,,,,,30,18,Vrouw,Rechts,2,
,xotask,dotcolour,xotask,17,2,137,137,main,positivefb,-99,average,,0.767288600000029,['n'],1,right,['9'],5,0.06467320000228938,19,,,,,,,30,18,Vrouw,Rechts,2,
,xotask,dotcolour,xotask,18,2,138,138,main,positivefb,-99,average,,0.6018752999989374,['n'],1,right,['0'],6,0.04588240000157384,18,,,,,,,30,18,Vrouw,Rechts,2,
,xotask,dotcolour,xotask,19,2,139,139,main,positivefb,-99,average,,0.4675518000003649,['n'],1,right,['0'],6,0.09068710000065039,16,,,,,,,30,18,Vrouw,Rechts,2,
,xotask,dotcolour,xotask,20,2,140,140,main,positivefb,-99,easy,,0.5335162999981549,['n'],1,right,['0'],6,0.11471059999894351,5,,,,,,,30,18,Vrouw,Rechts,2,
,xotask,dotcolour,xotask,21,2,141,141,main,positivefb,-99,easy,,0.416917900001863,['n'],1,right,['0'],6,0.07852939999793307,9,,,,,,,30,18,Vrouw,Rechts,2,
,xotask,dotcolour,xotask,22,2,142,142,main,positivefb,-99,hard,,0.6843719000025885,['c'],1,left,['9'],5,0.0814436000000569,53,,,,,,,30,18,Vrouw,Rechts,2,
,xotask,dotcolour,xotask,23,2,143,143,main,positivefb,-99,hard,,0.5344249000008858,['c'],1,left,['9'],5,0.10514530000000377,54,,,,,,,30,18,Vrouw,Rechts,2,
,xotask,dotcolour,xotask,24,2,144,144,main,positivefb,-99,hard,,0.5172732999999425,['c'],0,right,['8'],4,0.7376375999992888,25,,,,,,,30,18,Vrouw,Rechts,2,
,xotask,dotcolour,xotask,25,2,145,145,main,positivefb,-99,easy,,1.2501150999996753,['c'],1,left,['0'],6,0.058520999999018386,70,,,,,,,30,18,Vrouw,Rechts,2,
,xotask,dotcolour,xotask,26,2,146,146,main,positivefb,-99,hard,,0.9502666999978828,['n'],1,right,['9'],5,0.0987267000018619,28,,,,,,,30,18,Vrouw,Rechts,2,
,xotask,dotcolour,xotask,27,2,147,147,main,positivefb,-99,easy,,0.8178230000012263,['c'],1,left,['8'],4,0.12717429999975138,73,,,,,,,30,18,Vrouw,Rechts,2,
,xotask,dotcolour,xotask,28,2,148,148,main,positivefb,-99,hard,,0.8508270000020275,['c'],0,right,['9'],5,0.12127139999938663,29,,,,,,,30,18,Vrouw,Rechts,2,
,xotask,dotcolour,xotask,29,2,149,149,main,positivefb,-99,easy,,0.6837360999998054,['n'],1,right,['0'],6,0.06629830000019865,8,,,,,,,30,18,Vrouw,Rechts,2,
,xotask,dotcolour,xotask,30,2,150,150,main,positivefb,-99,average,,0.6839790999983961,['c'],1,left,['9'],5,0.12493019999965327,63,,,,,,,30,18,Vrouw,Rechts,2,
,xotask,dotcolour,xotask,31,2,151,151,main,positivefb,-99,average,,0.8346559999990859,['c'],1,left,['0'],6,0.09491189999971539,63,,,,,,,30,18,Vrouw,Rechts,2,
,xotask,dotcolour,xotask,32,2,152,152,main,positivefb,-99,hard,,0.582989099999395,['n'],0,left,['0'],6,0.05271550000179559,50,,,,,,,30,18,Vrouw,Rechts,2,
,xotask,dotcolour,xotask,33,2,153,153,main,positivefb,-99,hard,,0.9339351000016904,['n'],1,right,['0'],6,0.029924599999503698,26,,,,,,,30,18,Vrouw,Rechts,2,
,xotask,dotcolour,xotask,34,2,154,154,main,positivefb,-99,average,,0.5513890000001993,['c'],1,left,['9'],5,0.11233440000069095,62,,,,,,,30,18,Vrouw,Rechts,2,
,xotask,dotcolour,xotask,35,2,155,155,main,positivefb,-99,hard,,0.7179767999987234,['c'],1,left,['0'],6,0.10447620000195457,53,,,,,,,30,18,Vrouw,Rechts,2,
,xotask,dotcolour,xotask,36,2,156,156,main,positivefb,-99,hard,,1.1183769000017492,['c'],1,left,['9'],5,0.19242239999948652,52,,,,,,,30,18,Vrouw,Rechts,2,
,xotask,dotcolour,xotask,37,2,157,157,main,positivefb,-99,average,,0.5174126999991131,['c'],1,left,['8'],4,0.2925218999989738,61,,,,,,,30,18,Vrouw,Rechts,2,
,xotask,dotcolour,xotask,38,2,158,158,main,positivefb,-99,average,,0.7840256999988924,['n'],1,right,['0'],6,0.15491130000009434,18,,,,,,,30,18,Vrouw,Rechts,2,
,xotask,dotcolour,xotask,39,2,159,159,main,positivefb,-99,hard,,0.7337823000016215,['n'],1,right,['9'],5,0.1683018000003358,25,,,,,,,30,18,Vrouw,Rechts,2,
,xotask,dotcolour,xotask,40,2,160,160,main,positivefb,-99,easy,,0.5008961999992607,['n'],1,right,['0'],6,0.12693789999684668,7,,,,,,,30,18,Vrouw,Rechts,2,
,xotask,dotcolour,xotask,41,2,161,161,main,positivefb,-99,average,,0.6011776999985159,['c'],1,left,['9'],5,0.13878240000121878,62,,,,,,,30,18,Vrouw,Rechts,2,
,xotask,dotcolour,xotask,42,2,162,162,main,positivefb,-99,average,,0.6514525999991747,['c'],1,left,['9'],5,0.12383860000045388,60,,,,,,,30,18,Vrouw,Rechts,2,
,xotask,dotcolour,xotask,43,2,163,163,main,positivefb,-99,hard,,1.134717400000227,['c'],1,left,['0'],6,0.14601540000148816,51,,,,,,,30,18,Vrouw,Rechts,2,
,xotask,dotcolour,xotask,44,2,164,164,main,positivefb,-99,easy,,0.6511885999971128,['n'],1,right,['0'],6,0.06008010000005015,6,,,,,,,30,18,Vrouw,Rechts,2,
,xotask,dotcolour,xotask,45,2,165,165,main,positivefb,-99,average,,0.4332347000017762,['n'],1,right,['0'],6,0.056989600001543295,17,,,,,,,30,18,Vrouw,Rechts,2,
,xotask,dotcolour,xotask,46,2,166,166,main,positivefb,-99,average,,0.4504101000020455,['n'],1,right,['0'],6,0.10204430000158027,18,,,,,,,30,18,Vrouw,Rechts,2,
,xotask,dotcolour,xotask,47,2,167,167,main,positivefb,-99,hard,,0.550917999997182,['n'],1,right,['0'],6,0.028315799998381408,28,,,,,,,30,18,Vrouw,Rechts,2,
,xotask,dotcolour,xotask,48,2,168,168,main,positivefb,-99,easy,,1.3513198000000557,['c'],1,left,['0'],6,0.04706420000002254,74,,,,,,,30,18,Vrouw,Rechts,2,
,xotask,dotcolour,xotask,49,2,169,169,main,positivefb,-99,easy,,0.984732900000381,['n'],1,right,['0'],6,0.022466300000814954,6,,,,,,,30,18,Vrouw,Rechts,2,
,xotask,dotcolour,xotask,50,2,170,170,main,positivefb,-99,hard,,0.63342030000058,['c'],0,right,['0'],6,0.5328188000021328,26,,,,,,,30,18,Vrouw,Rechts,2,
,xotask,dotcolour,xotask,51,2,171,171,main,positivefb,-99,easy,,0.8340730999989319,['c'],1,left,['0'],6,0.08733139999822015,70,,,,,,,30,18,Vrouw,Rechts,2,
,xotask,dotcolour,xotask,52,2,172,172,main,positivefb,-99,average,,0.582691600000544,['n'],1,right,['0'],6,0.06922769999800948,19,,,,,,,30,18,Vrouw,Rechts,2,
,xotask,dotcolour,xotask,53,2,173,173,main,positivefb,-99,easy,,0.5497329000027094,['n'],1,right,['0'],6,0.07726769999862881,6,,,,,,,30,18,Vrouw,Rechts,2,
,xotask,dotcolour,xotask,54,2,174,174,main,positivefb,-99,hard,,2.783798399999796,['n'],1,right,['0'],6,0.06006089999937103,29,,,,,,,30,18,Vrouw,Rechts,2,
,xotask,dotcolour,xotask,55,2,175,175,main,positivefb,-99,average,,0.5839039999991655,['n'],1,right,['0'],6,0.067112000000634,19,,,,,,,30,18,Vrouw,Rechts,2,
,xotask,dotcolour,xotask,56,2,176,176,main,positivefb,-99,easy,,0.7512294000007387,['c'],1,left,['0'],6,0.12247240000215243,73,,,,,,,30,18,Vrouw,Rechts,2,
,xotask,dotcolour,xotask,57,2,177,177,main,positivefb,-99,easy,,0.584005700002308,['c'],1,left,['0'],6,0.08002269999997225,73,,,,,,,30,18,Vrouw,Rechts,2,
,xotask,dotcolour,xotask,58,2,178,178,main,positivefb,-99,easy,,0.7997687000024598,['c'],1,left,['9'],5,0.06997680000131368,72,,,,,,,30,18,Vrouw,Rechts,2,
,xotask,dotcolour,xotask,59,2,179,179,main,positivefb,-99,average,,0.5346504000008281,['c'],1,left,['9'],5,0.12629500000184635,64,,,,,,,30,18,Vrouw,Rechts,2,
,xotask,dotcolour,xotask,0,3,180,180,main,positivefb,-99,average,,0.617253399999754,['c'],0,right,['0'],6,0.22908929999903194,17,,,,,,,30,18,Vrouw,Rechts,2,
,xotask,dotcolour,xotask,1,3,181,181,main,positivefb,-99,hard,,0.4174505000009958,['c'],1,left,['0'],6,0.09264040000198293,50,,,,,,,30,18,Vrouw,Rechts,2,
,xotask,dotcolour,xotask,2,3,182,182,main,positivefb,-99,average,,0.33497410000200034,['c'],1,left,['9'],5,0.8370955000027607,64,,,,,,,30,18,Vrouw,Rechts,2,
,xotask,dotcolour,xotask,3,3,183,183,main,positivefb,-99,average,,0.9680883999972139,['n'],0,left,['9'],5,0.020689600001787767,62,,,,,,,30,18,Vrouw,Rechts,2,
,xotask,dotcolour,xotask,4,3,184,184,main,positivefb,-99,average,,0.48451550000027055,['n'],0,left,['9'],5,0.05735839999761083,61,,,,,,,30,18,Vrouw,Rechts,2,
,xotask,dotcolour,xotask,5,3,185,185,main,positivefb,-99,hard,,1.0167993000031856,['c'],0,right,['8'],4,0.07928330000140704,26,,,,,,,30,18,Vrouw,Rechts,2,
,xotask,dotcolour,xotask,6,3,186,186,main,positivefb,-99,easy,,1.3172187999989546,['n'],0,left,['3'],3,0.20935929999905056,71,,,,,,,30,18,Vrouw,Rechts,2,
,xotask,dotcolour,xotask,7,3,187,187,main,positivefb,-99,hard,,2.166532699997333,['n'],1,right,['0'],6,0.1066642999976466,25,,,,,,,30,18,Vrouw,Rechts,2,
,xotask,dotcolour,xotask,8,3,188,188,main,positivefb,-99,hard,,0.8345134999981383,['c'],1,left,['9'],5,0.0707222000019101,52,,,,,,,30,18,Vrouw,Rechts,2,
,xotask,dotcolour,xotask,9,3,189,189,main,positivefb,-99,average,,0.48435479999898234,['c'],1,left,['8'],4,0.19334560000061174,62,,,,,,,30,18,Vrouw,Rechts,2,
,xotask,dotcolour,xotask,10,3,190,190,main,positivefb,-99,average,,0.6337918999997783,['c'],0,right,['1'],1,1.0811154000002716,15,,,,,,,30,18,Vrouw,Rechts,2,
,xotask,dotcolour,xotask,11,3,191,191,main,positivefb,-99,easy,,1.133566199998313,['c'],1,left,['0'],6,0.05761100000017905,74,,,,,,,30,18,Vrouw,Rechts,2,
,xotask,dotcolour,xotask,12,3,192,192,main,positivefb,-99,average,,0.46670459999950253,['c'],1,left,['0'],6,0.11731089999739197,60,,,,,,,30,18,Vrouw,Rechts,2,
,xotask,dotcolour,xotask,13,3,193,193,main,positivefb,-99,average,,0.7826840000016091,['c'],1,left,['9'],5,0.10600089999934426,60,,,,,,,30,18,Vrouw,Rechts,2,
,xotask,dotcolour,xotask,14,3,194,194,main,positivefb,-99,easy,,0.5846867000000202,['c'],1,left,['0'],6,0.19898359999933746,70,,,,,,,30,18,Vrouw,Rechts,2,
,xotask,dotcolour,xotask,15,3,195,195,main,positivefb,-99,hard,,0.517817300002207,['c'],0,right,['9'],5,0.09958340000230237,29,,,,,,,30,18,Vrouw,Rechts,2,
,xotask,dotcolour,xotask,16,3,196,196,main,positivefb,-99,easy,,0.45051650000095833,['c'],1,left,['8'],4,0.1899635000008857,72,,,,,,,30,18,Vrouw,Rechts,2,
,xotask,dotcolour,xotask,17,3,197,197,main,positivefb,-99,average,,0.6010988999987603,['c'],1,left,['9'],5,0.1353897999979381,64,,,,,,,30,18,Vrouw,Rechts,2,
,xotask,dotcolour,xotask,18,3,198,198,main,positivefb,-99,easy,,0.9169994000003499,['n'],1,right,['9'],5,0.029508899999200366,9,,,,,,,30,18,Vrouw,Rechts,2,
,xotask,dotcolour,xotask,19,3,199,199,main,positivefb,-99,hard,,0.6002085000000079,['n'],1,right,['9'],5,0.09357459999955609,26,,,,,,,30,18,Vrouw,Rechts,2,
,xotask,dotcolour,xotask,20,3,200,200,main,positivefb,-99,average,,0.46810150000237627,['n'],1,right,['9'],5,0.08041120000052615,15,,,,,,,30,18,Vrouw,Rechts,2,
,xotask,dotcolour,xotask,21,3,201,201,main,positivefb,-99,average,,0.5339593999997305,['n'],1,right,['0'],6,0.12104499999986729,15,,,,,,,30,18,Vrouw,Rechts,2,
,xotask,dotcolour,xotask,22,3,202,202,main,positivefb,-99,easy,,0.4669934999983525,['n'],1,right,['0'],6,0.0981303000007756,7,,,,,,,30,18,Vrouw,Rechts,2,
,xotask,dotcolour,xotask,23,3,203,203,main,positivefb,-99,hard,,1.0829548000001523,['c'],1,left,['9'],5,0.07615910000095027,52,,,,,,,30,18,Vrouw,Rechts,2,
,xotask,dotcolour,xotask,24,3,204,204,main,positivefb,-99,easy,,0.6833430000006047,['n'],1,right,['0'],6,0.07009090000065044,5,,,,,,,30,18,Vrouw,Rechts,2,
,xotask,dotcolour,xotask,25,3,205,205,main,positivefb,-99,easy,,0.5847643000015523,['c'],1,left,['9'],5,0.10881950000111829,72,,,,,,,30,18,Vrouw,Rechts,2,
,xotask,dotcolour,xotask,26,3,206,206,main,positivefb,-99,easy,,0.6489818000009109,['n'],1,right,['0'],6,0.04019020000123419,7,,,,,,,30,18,Vrouw,Rechts,2,
,xotask,dotcolour,xotask,27,3,207,207,main,positivefb,-99,average,,1.000971200002823,['n'],1,right,['0'],6,0.02274760000000242,19,,,,,,,30,18,Vrouw,Rechts,2,
,xotask,dotcolour,xotask,28,3,208,208,main,positivefb,-99,easy,,0.9509462000023632,['c'],1,left,['0'],6,0.08932199999981094,74,,,,,,,30,18,Vrouw,Rechts,2,
,xotask,dotcolour,xotask,29,3,209,209,main,positivefb,-99,average,,0.6681901999982074,['c'],1,left,['0'],6,0.09174879999773111,62,,,,,,,30,18,Vrouw,Rechts,2,
,xotask,dotcolour,xotask,30,3,210,210,main,positivefb,-99,easy,,0.6343988999979047,['n'],1,right,['0'],6,0.04788479999842821,5,,,,,,,30,18,Vrouw,Rechts,2,
,xotask,dotcolour,xotask,31,3,211,211,main,positivefb,-99,hard,,0.6521465000005264,['n'],1,right,['0'],6,0.05244780000066385,26,,,,,,,30,18,Vrouw,Rechts,2,
,xotask,dotcolour,xotask,32,3,212,212,main,positivefb,-99,hard,,0.9170692000006966,['c'],1,left,['9'],5,0.14225860000078683,54,,,,,,,30,18,Vrouw,Rechts,2,
,xotask,dotcolour,xotask,33,3,213,213,main,positivefb,-99,average,,0.7674009000002115,['c'],0,right,['8'],4,0.12360370000169496,15,,,,,,,30,18,Vrouw,Rechts,2,
,xotask,dotcolour,xotask,34,3,214,214,main,positivefb,-99,easy,,1.118008399997052,['c'],1,left,['0'],6,0.17052200000034645,71,,,,,,,30,18,Vrouw,Rechts,2,
,xotask,dotcolour,xotask,35,3,215,215,main,positivefb,-99,hard,,0.8839608999987831,['n'],1,right,['0'],6,0.07323489999907906,26,,,,,,,30,18,Vrouw,Rechts,2,
,xotask,dotcolour,xotask,36,3,216,216,main,positivefb,-99,hard,,0.6669514999994135,['n'],1,right,['0'],6,0.08501189999878989,26,,,,,,,30,18,Vrouw,Rechts,2,
,xotask,dotcolour,xotask,37,3,217,217,main,positivefb,-99,hard,,0.6508536000001186,['c'],1,left,['0'],6,0.19214970000030007,54,,,,,,,30,18,Vrouw,Rechts,2,
,xotask,dotcolour,xotask,38,3,218,218,main,positivefb,-99,average,,0.7683139000000665,['n'],1,right,['0'],6,0.034645799998543225,19,,,,,,,30,18,Vrouw,Rechts,2,
,xotask,dotcolour,xotask,39,3,219,219,main,positivefb,-99,average,,0.966664600000513,['n'],1,right,['0'],6,0.027605299997958355,16,,,,,,,30,18,Vrouw,Rechts,2,
,xotask,dotcolour,xotask,40,3,220,220,main,positivefb,-99,hard,,0.9176781999995001,['c'],1,left,['9'],5,0.12699509999947622,53,,,,,,,30,18,Vrouw,Rechts,2,
,xotask,dotcolour,xotask,41,3,221,221,main,positivefb,-99,hard,,1.1006956999990507,['n'],1,right,['0'],6,0.5106761999995797,28,,,,,,,30,18,Vrouw,Rechts,2,
,xotask,dotcolour,xotask,42,3,222,222,main,positivefb,-99,hard,,0.8515145999990636,['c'],1,left,['9'],5,0.1291707000018505,54,,,,,,,30,18,Vrouw,Rechts,2,
,xotask,dotcolour,xotask,43,3,223,223,main,positivefb,-99,hard,,0.6179671999998391,['c'],1,left,['9'],5,0.16457860000082292,53,,,,,,,30,18,Vrouw,Rechts,2,
,xotask,dotcolour,xotask,44,3,224,224,main,positivefb,-99,hard,,1.1003931000013836,['c'],1,left,['8'],4,0.1864839000008942,52,,,,,,,30,18,Vrouw,Rechts,2,
,xotask,dotcolour,xotask,45,3,225,225,main,positivefb,-99,easy,,0.666966599997977,['c'],1,left,['9'],5,0.16120740000042133,72,,,,,,,30,18,Vrouw,Rechts,2,
,xotask,dotcolour,xotask,46,3,226,226,main,positivefb,-99,average,,0.6507548999979917,['c'],1,left,['0'],6,0.15390700000352808,64,,,,,,,30,18,Vrouw,Rechts,2,
,xotask,dotcolour,xotask,47,3,227,227,main,positivefb,-99,easy,,0.6169792000000598,['n'],1,right,['0'],6,0.10034070000256179,8,,,,,,,30,18,Vrouw,Rechts,2,
,xotask,dotcolour,xotask,48,3,228,228,main,positivefb,-99,easy,,0.7165371999981289,['c'],1,left,['9'],5,0.1398287000010896,74,,,,,,,30,18,Vrouw,Rechts,2,
,xotask,dotcolour,xotask,49,3,229,229,main,positivefb,-99,easy,,0.53421359999993,['n'],1,right,['0'],6,0.058606099999451544,6,,,,,,,30,18,Vrouw,Rechts,2,
,xotask,dotcolour,xotask,50,3,230,230,main,positivefb,-99,average,,0.6518508999979531,['c'],1,left,['9'],5,0.19900639999832492,60,,,,,,,30,18,Vrouw,Rechts,2,
,xotask,dotcolour,xotask,51,3,231,231,main,positivefb,-99,hard,,0.8506082000021706,['c'],1,left,['9'],5,0.13329490000251099,51,,,,,,,30,18,Vrouw,Rechts,2,
,xotask,dotcolour,xotask,52,3,232,232,main,positivefb,-99,hard,,0.8667053999997734,['n'],1,right,['0'],6,0.0857030000006489,26,,,,,,,30,18,Vrouw,Rechts,2,
,xotask,dotcolour,xotask,53,3,233,233,main,positivefb,-99,easy,,0.517497299999377,['n'],1,right,['0'],6,0.054584800000156974,9,,,,,,,30,18,Vrouw,Rechts,2,
,xotask,dotcolour,xotask,54,3,234,234,main,positivefb,-99,average,,1.1501078000001144,['c'],0,right,['9'],5,0.5115119000001869,19,,,,,,,30,18,Vrouw,Rechts,2,
,xotask,dotcolour,xotask,55,3,235,235,main,positivefb,-99,easy,,0.5177380999994057,['n'],1,right,['0'],6,0.11948240000128862,7,,,,,,,30,18,Vrouw,Rechts,2,
,xotask,dotcolour,xotask,56,3,236,236,main,positivefb,-99,easy,,0.6513852999996743,['c'],1,left,['9'],5,0.12103120000028866,71,,,,,,,30,18,Vrouw,Rechts,2,
,xotask,dotcolour,xotask,57,3,237,237,main,positivefb,-99,hard,,0.5986773000004177,['c'],0,right,['9'],5,0.22948570000153268,29,,,,,,,30,18,Vrouw,Rechts,2,
,xotask,dotcolour,xotask,58,3,238,238,main,positivefb,-99,easy,,0.8844153999998525,['n'],1,right,['0'],6,0.033353900002111914,6,,,,,,,30,18,Vrouw,Rechts,2,
,xotask,dotcolour,xotask,59,3,239,239,main,positivefb,-99,average,,0.6510935999976937,['n'],1,right,['0'],6,0.03146560000095633,15,,,,,,,30,18,Vrouw,Rechts,2,
,xotask,dotcolour,xotask,0,4,240,240,main,positivefb,-99,hard,,0.500892300002306,['c'],1,left,['0'],6,0.08939319999990403,54,,,,,,,30,18,Vrouw,Rechts,2,
,xotask,dotcolour,xotask,1,4,241,241,main,positivefb,-99,easy,,0.4173467000000528,['c'],0,right,['9'],5,0.7015672000015911,6,,,,,,,30,18,Vrouw,Rechts,2,
,xotask,dotcolour,xotask,2,4,242,242,main,positivefb,-99,hard,,1.1335661000011896,['n'],1,right,['9'],5,0.06906689999959781,28,,,,,,,30,18,Vrouw,Rechts,2,
,xotask,dotcolour,xotask,3,4,243,243,main,positivefb,-99,hard,,0.834608199998911,['n'],1,right,['3'],3,0.2097693999967305,25,,,,,,,30,18,Vrouw,Rechts,2,
,xotask,dotcolour,xotask,4,4,244,244,main,positivefb,-99,hard,,0.9496647999985726,['n'],1,right,['2'],2,0.20477699999901233,29,,,,,,,30,18,Vrouw,Rechts,2,
,xotask,dotcolour,xotask,5,4,245,245,main,positivefb,-99,hard,,1.1014169999980368,['c'],1,left,['0'],6,0.10515169999780483,52,,,,,,,30,18,Vrouw,Rechts,2,
,xotask,dotcolour,xotask,6,4,246,246,main,positivefb,-99,average,,0.617478399999527,['c'],1,left,['0'],6,0.11701199999879464,63,,,,,,,30,18,Vrouw,Rechts,2,
,xotask,dotcolour,xotask,7,4,247,247,main,positivefb,-99,easy,,0.4669174999980896,['c'],1,left,['0'],6,0.1669763999998395,72,,,,,,,30,18,Vrouw,Rechts,2,
,xotask,dotcolour,xotask,8,4,248,248,main,positivefb,-99,easy,,0.9676228000025731,['c'],0,right,['0'],6,0.12929649999932735,6,,,,,,,30,18,Vrouw,Rechts,2,
,xotask,dotcolour,xotask,9,4,249,249,main,positivefb,-99,hard,,1.1495883999996295,['n'],1,right,['0'],6,0.24049060000106692,25,,,,,,,30,18,Vrouw,Rechts,2,
,xotask,dotcolour,xotask,10,4,250,250,main,positivefb,-99,easy,,0.6843684999985271,['c'],1,left,['9'],5,0.1873046999971848,74,,,,,,,30,18,Vrouw,Rechts,2,
,xotask,dotcolour,xotask,11,4,251,251,main,positivefb,-99,average,,0.5003257999997004,['c'],1,left,['9'],5,0.10521270000026561,64,,,,,,,30,18,Vrouw,Rechts,2,
,xotask,dotcolour,xotask,12,4,252,252,main,positivefb,-99,easy,,0.43496700000105193,['c'],1,left,['0'],6,0.15622529999745893,72,,,,,,,30,18,Vrouw,Rechts,2,
,xotask,dotcolour,xotask,13,4,253,253,main,positivefb,-99,easy,,0.6013513999969291,['n'],1,right,['0'],6,0.0715864000012516,8,,,,,,,30,18,Vrouw,Rechts,2,
,xotask,dotcolour,xotask,14,4,254,254,main,positivefb,-99,hard,,1.4683817000004638,['c'],1,left,['8'],4,0.12275129999761702,53,,,,,,,30,18,Vrouw,Rechts,2,
,xotask,dotcolour,xotask,15,4,255,255,main,positivefb,-99,average,,0.9675126999973145,['c'],1,left,['9'],5,0.19938960000217776,61,,,,,,,30,18,Vrouw,Rechts,2,
,xotask,dotcolour,xotask,16,4,256,256,main,positivefb,-99,hard,,0.8675608999983524,['c'],1,left,['9'],5,0.1659365000014077,51,,,,,,,30,18,Vrouw,Rechts,2,
,xotask,dotcolour,xotask,17,4,257,257,main,positivefb,-99,hard,,0.6681282999998075,['c'],1,left,['9'],5,0.26092900000003283,50,,,,,,,30,18,Vrouw,Rechts,2,
,xotask,dotcolour,xotask,18,4,258,258,main,positivefb,-99,average,,0.6340202999999747,['c'],1,left,['9'],5,0.2588125000002037,64,,,,,,,30,18,Vrouw,Rechts,2,
,xotask,dotcolour,xotask,19,4,259,259,main,positivefb,-99,easy,,0.8517328000016278,['n'],1,right,['0'],6,0.15106029999878956,5,,,,,,,30,18,Vrouw,Rechts,2,
,xotask,dotcolour,xotask,20,4,260,260,main,positivefb,-99,hard,,0.56648259999929,['n'],0,left,['0'],6,0.059179300002142554,54,,,,,,,30,18,Vrouw,Rechts,2,
,xotask,dotcolour,xotask,21,4,261,261,main,positivefb,-99,easy,,0.7004610000003595,['n'],1,right,['0'],6,0.1413563999994949,5,,,,,,,30,18,Vrouw,Rechts,2,
,xotask,dotcolour,xotask,22,4,262,262,main,positivefb,-99,easy,,0.6677311000021291,['c'],1,left,['0'],6,0.22285630000260426,73,,,,,,,30,18,Vrouw,Rechts,2,
,xotask,dotcolour,xotask,23,4,263,263,main,positivefb,-99,average,,1.0499710999974923,['n'],1,right,['0'],6,0.004495799999858718,18,,,,,,,30,18,Vrouw,Rechts,2,
,xotask,dotcolour,xotask,24,4,264,264,main,positivefb,-99,average,,1.000997400002234,['c'],1,left,['9'],5,0.38947319999715546,63,,,,,,,30,18,Vrouw,Rechts,2,
,xotask,dotcolour,xotask,25,4,265,265,main,positivefb,-99,average,,0.8002758000002359,['n'],1,right,['0'],6,0.06256500000017695,16,,,,,,,30,18,Vrouw,Rechts,2,
,xotask,dotcolour,xotask,26,4,266,266,main,positivefb,-99,hard,,0.5664286999999604,['n'],1,right,['0'],6,0.08663240000169026,28,,,,,,,30,18,Vrouw,Rechts,2,
,xotask,dotcolour,xotask,27,4,267,267,main,positivefb,-99,easy,,0.984960100002354,['c'],1,left,['9'],5,0.09230709999974351,70,,,,,,,30,18,Vrouw,Rechts,2,
,xotask,dotcolour,xotask,28,4,268,268,main,positivefb,-99,hard,,0.9512671999982558,['c'],1,left,['9'],5,0.13968109999768785,52,,,,,,,30,18,Vrouw,Rechts,2,
,xotask,dotcolour,xotask,29,4,269,269,main,positivefb,-99,easy,,0.8348322000019834,['c'],1,left,['0'],6,0.13366820000010193,74,,,,,,,30,18,Vrouw,Rechts,2,
,xotask,dotcolour,xotask,30,4,270,270,main,positivefb,-99,hard,,0.8513615000010759,['n'],1,right,['0'],6,0.07091049999871757,28,,,,,,,30,18,Vrouw,Rechts,2,
,xotask,dotcolour,xotask,31,4,271,271,main,positivefb,-99,average,,0.900993399998697,['c'],1,left,['0'],6,0.2413538000000699,64,,,,,,,30,18,Vrouw,Rechts,2,
,xotask,dotcolour,xotask,32,4,272,272,main,positivefb,-99,easy,,0.6503874000009091,['n'],1,right,['0'],6,0.07812610000109999,5,,,,,,,30,18,Vrouw,Rechts,2,
,xotask,dotcolour,xotask,33,4,273,273,main,positivefb,-99,average,,0.9506949999995413,['n'],1,right,['0'],6,0.07858299999861629,19,,,,,,,30,18,Vrouw,Rechts,2,
,xotask,dotcolour,xotask,34,4,274,274,main,positivefb,-99,easy,,0.6508897999992769,['c'],1,left,['0'],6,0.10606399999960558,74,,,,,,,30,18,Vrouw,Rechts,2,
,xotask,dotcolour,xotask,35,4,275,275,main,positivefb,-99,average,,0.9842000000026019,['c'],1,left,['0'],6,0.13555189999897266,61,,,,,,,30,18,Vrouw,Rechts,2,
,xotask,dotcolour,xotask,36,4,276,276,main,positivefb,-99,easy,,0.7667320000000473,['c'],1,left,['9'],5,0.11662860000069486,71,,,,,,,30,18,Vrouw,Rechts,2,
,xotask,dotcolour,xotask,37,4,277,277,main,positivefb,-99,easy,,0.450499899998249,['c'],1,left,['9'],5,0.158851299998787,74,,,,,,,30,18,Vrouw,Rechts,2,
,xotask,dotcolour,xotask,38,4,278,278,main,positivefb,-99,average,,0.8007977999986906,['c'],0,right,['0'],6,0.11274090000006254,15,,,,,,,30,18,Vrouw,Rechts,2,
,xotask,dotcolour,xotask,39,4,279,279,main,positivefb,-99,hard,,0.6346559999983583,['c'],0,right,['9'],5,0.18074069999784115,27,,,,,,,30,18,Vrouw,Rechts,2,
,xotask,dotcolour,xotask,40,4,280,280,main,positivefb,-99,easy,,0.8168121999988216,['n'],1,right,['0'],6,0.9497193999995943,8,,,,,,,30,18,Vrouw,Rechts,2,
,xotask,dotcolour,xotask,41,4,281,281,main,positivefb,-99,easy,,0.9178739000017231,['n'],1,right,['0'],6,0.23616389999733656,6,,,,,,,30,18,Vrouw,Rechts,2,
,xotask,dotcolour,xotask,42,4,282,282,main,positivefb,-99,hard,,0.6173554999986663,['c'],1,left,['9'],5,0.17880500000319444,50,,,,,,,30,18,Vrouw,Rechts,2,
,xotask,dotcolour,xotask,43,4,283,283,main,positivefb,-99,easy,,0.5517622999977903,['c'],1,left,['0'],6,0.16700649999984307,73,,,,,,,30,18,Vrouw,Rechts,2,
,xotask,dotcolour,xotask,44,4,284,284,main,positivefb,-99,average,,0.43409369999790215,['c'],1,left,['0'],6,0.22306960000059917,64,,,,,,,30,18,Vrouw,Rechts,2,
,xotask,dotcolour,xotask,45,4,285,285,main,positivefb,-99,average,,0.634371200001624,['n'],1,right,['0'],6,0.09405030000198167,15,,,,,,,30,18,Vrouw,Rechts,2,
,xotask,dotcolour,xotask,46,4,286,286,main,positivefb,-99,average,,0.601253100001486,['n'],1,right,['0'],6,0.2590870999993058,15,,,,,,,30,18,Vrouw,Rechts,2,
,xotask,dotcolour,xotask,47,4,287,287,main,positivefb,-99,average,,0.7167051000033098,['c'],1,left,['9'],5,0.3491844999989553,64,,,,,,,30,18,Vrouw,Rechts,2,
,xotask,dotcolour,xotask,48,4,288,288,main,positivefb,-99,hard,,0.9847583999980998,['c'],0,right,['0'],6,0.13658469999791123,26,,,,,,,30,18,Vrouw,Rechts,2,
,xotask,dotcolour,xotask,49,4,289,289,main,positivefb,-99,hard,,0.8837403999968956,['n'],0,left,['0'],6,0.09652229999846895,52,,,,,,,30,18,Vrouw,Rechts,2,
,xotask,dotcolour,xotask,50,4,290,290,main,positivefb,-99,average,,0.5345627999995486,['n'],1,right,['0'],6,0.0886105999998108,19,,,,,,,30,18,Vrouw,Rechts,2,
,xotask,dotcolour,xotask,51,4,291,291,main,positivefb,-99,average,,0.5507665000004636,['n'],1,right,['0'],6,0.183637500002078,16,,,,,,,30,18,Vrouw,Rechts,2,
,xotask,dotcolour,xotask,52,4,292,292,main,positivefb,-99,average,,0.5826206999990973,['n'],1,right,['9'],5,0.04242990000057034,16,,,,,,,30,18,Vrouw,Rechts,2,
,xotask,dotcolour,xotask,53,4,293,293,main,positivefb,-99,hard,,0.6004556999978377,['n'],1,right,['9'],5,0.049685199999657925,25,,,,,,,30,18,Vrouw,Rechts,2,
,xotask,dotcolour,xotask,54,4,294,294,main,positivefb,-99,average,,0.5512519000003522,['n'],1,right,['0'],6,0.09003190000294126,16,,,,,,,30,18,Vrouw,Rechts,2,
,xotask,dotcolour,xotask,55,4,295,295,main,positivefb,-99,hard,,0.40054979999695206,['n'],0,left,['9'],5,0.5109085000003688,52,,,,,,,30,18,Vrouw,Rechts,2,
,xotask,dotcolour,xotask,56,4,296,296,main,positivefb,-99,average,,0.9852004000022134,['c'],1,left,['0'],6,0.1084759999976086,63,,,,,,,30,18,Vrouw,Rechts,2,
,xotask,dotcolour,xotask,57,4,297,297,main,positivefb,-99,hard,,0.7839292000026035,['n'],1,right,['9'],5,0.1304050999970059,27,,,,,,,30,18,Vrouw,Rechts,2,
,xotask,dotcolour,xotask,58,4,298,298,main,positivefb,-99,easy,,0.8010004999996454,['c'],0,right,['0'],6,0.22213949999786564,9,,,,,,,30,18,Vrouw,Rechts,2,
,xotask,dotcolour,xotask,59,4,299,299,main,positivefb,-99,easy,,0.6841309999981604,['n'],1,right,['9'],5,0.010413100000732811,9,,,,,,,30,18,Vrouw,Rechts,2,
,dotcolour,dotcolour,xotask,0,0,0,300,training,positivefb,86,easy,64,1.050873500000307,['c'],1,left,['0'],6,0.1010521999996854,,,,,,,,30,18,Vrouw,Rechts,2,
,dotcolour,dotcolour,xotask,1,0,1,301,training,positivefb,95,average,55,0.4517669999986538,['c'],1,left,['0'],6,0.05502350000097067,,,,,,,,30,18,Vrouw,Rechts,2,
,dotcolour,dotcolour,xotask,2,0,2,302,training,positivefb,95,average,55,0.9498929999972461,['c'],1,left,['9'],5,0.11865650000254391,,,,,,,,30,18,Vrouw,Rechts,2,
,dotcolour,dotcolour,xotask,3,0,3,303,training,positivefb,97,easy,65,0.5347516999972868,['c'],1,left,['0'],6,0.10883550000289688,,,,,,,,30,18,Vrouw,Rechts,2,
,dotcolour,dotcolour,xotask,4,0,4,304,training,positivefb,98,average,27,0.6673532999993768,['n'],1,right,['0'],6,0.12555009999778122,,,,,,,,30,18,Vrouw,Rechts,2,
,dotcolour,dotcolour,xotask,5,0,5,305,training,positivefb,89,hard,39,0.5168393999992986,['n'],1,right,['0'],6,0.18059880000146222,,,,,,,,30,18,Vrouw,Rechts,2,
,dotcolour,dotcolour,xotask,6,0,6,306,training,positivefb,96,average,25,0.4843275999992329,['n'],1,right,['9'],5,0.09827420000146958,,,,,,,,30,18,Vrouw,Rechts,2,
,dotcolour,dotcolour,xotask,7,0,7,307,training,positivefb,97,average,29,0.5173557000016444,['n'],1,right,['0'],6,0.018432699998811586,,,,,,,,30,18,Vrouw,Rechts,2,
,dotcolour,dotcolour,xotask,8,0,8,308,training,positivefb,94,easy,61,0.6665399999983492,['n'],0,left,['0'],6,0.09449099999983446,,,,,,,,30,18,Vrouw,Rechts,2,
,dotcolour,dotcolour,xotask,9,0,9,309,training,positivefb,96,average,53,0.6680025000023306,['c'],1,left,['9'],5,0.21652549999998882,,,,,,,,30,18,Vrouw,Rechts,2,
,dotcolour,dotcolour,xotask,10,0,10,310,training,positivefb,95,easy,19,0.5995867999990878,['n'],1,right,['0'],6,0.10428070000125444,,,,,,,,30,18,Vrouw,Rechts,2,
,dotcolour,dotcolour,xotask,11,0,11,311,training,positivefb,93,easy,62,0.532963199999358,['c'],1,left,['9'],5,0.11045150000063586,,,,,,,,30,18,Vrouw,Rechts,2,
,dotcolour,dotcolour,xotask,12,0,12,312,training,positivefb,80,easy,16,0.7168509000002814,['n'],1,right,['0'],6,0.10235980000288691,,,,,,,,30,18,Vrouw,Rechts,2,
,dotcolour,dotcolour,xotask,13,0,13,313,training,positivefb,92,hard,38,0.6169869000004837,['n'],1,right,['0'],6,0.09832929999902262,,,,,,,,30,18,Vrouw,Rechts,2,
,dotcolour,dotcolour,xotask,14,0,14,314,training,positivefb,91,hard,44,0.5996799999993527,['c'],1,left,['9'],5,0.07724600000074133,,,,,,,,30,18,Vrouw,Rechts,2,
,dotcolour,dotcolour,xotask,15,0,15,315,training,positivefb,97,easy,65,0.5008828000027279,['c'],1,left,['9'],5,0.07151789999988978,,,,,,,,30,18,Vrouw,Rechts,2,
,dotcolour,dotcolour,xotask,16,0,16,316,training,positivefb,90,hard,41,0.734152199998789,['n'],0,left,['0'],6,0.14274769999974524,,,,,,,,30,18,Vrouw,Rechts,2,
,dotcolour,dotcolour,xotask,17,0,17,317,training,positivefb,94,hard,43,0.5330929000010656,['c'],1,left,['9'],5,0.09977910000088741,,,,,,,,30,18,Vrouw,Rechts,2,
,dotcolour,dotcolour,xotask,18,0,18,318,training,positivefb,99,average,26,0.6506171000000904,['n'],1,right,['0'],6,0.446072800001275,,,,,,,,30,18,Vrouw,Rechts,2,
,dotcolour,dotcolour,xotask,19,0,19,319,training,positivefb,97,hard,38,0.6339112000023306,['n'],1,right,['0'],6,0.12314780000087922,,,,,,,,30,18,Vrouw,Rechts,2,
,dotcolour,dotcolour,xotask,20,0,20,320,training,positivefb,92,average,51,0.8510649999989255,['c'],1,left,['9'],5,0.07749390000026324,,,,,,,,30,18,Vrouw,Rechts,2,
,dotcolour,dotcolour,xotask,21,0,21,321,training,positivefb,97,easy,64,0.49935899999763933,['c'],1,left,['9'],5,0.16610030000083498,,,,,,,,30,18,Vrouw,Rechts,2,
,dotcolour,dotcolour,xotask,22,0,22,322,training,positivefb,95,average,52,0.6170343999983743,['c'],1,left,['0'],6,0.142492900002253,,,,,,,,30,18,Vrouw,Rechts,2,
,dotcolour,dotcolour,xotask,23,0,23,323,training,positivefb,92,hard,35,1.000121200002468,['c'],0,right,['9'],5,0.17693990000043414,,,,,,,,30,18,Vrouw,Rechts,2,
,dotcolour,dotcolour,xotask,24,0,24,324,training,positivefb,96,easy,18,0.8165487999976904,['n'],1,right,['0'],6,0.11444200000187266,,,,,,,,30,18,Vrouw,Rechts,2,
,dotcolour,dotcolour,xotask,25,0,25,325,training,positivefb,88,hard,41,0.8001592000000528,['n'],0,left,['0'],6,0.09346889999869745,,,,,,,,30,18,Vrouw,Rechts,2,
,dotcolour,dotcolour,xotask,26,0,26,326,training,positivefb,99,easy,62,0.3493175000003248,['c'],1,left,['9'],5,0.09202069999810192,,,,,,,,30,18,Vrouw,Rechts,2,
,dotcolour,dotcolour,xotask,27,0,27,327,training,positivefb,97,easy,18,0.5002232000006188,['n'],1,right,['0'],6,0.10040510000180802,,,,,,,,30,18,Vrouw,Rechts,2,
,dotcolour,dotcolour,xotask,28,0,28,328,training,positivefb,95,easy,19,0.7163660999976855,['n'],1,right,['0'],6,0.11578849999932572,,,,,,,,30,18,Vrouw,Rechts,2,
,dotcolour,dotcolour,xotask,29,0,29,329,training,positivefb,97,hard,44,0.6671175000010408,['c'],1,left,['9'],5,0.13272289999804343,,,,,,,,30,18,Vrouw,Rechts,2,
,dotcolour,dotcolour,xotask,30,0,30,330,training,positivefb,79,hard,42,0.8336058999993838,['n'],0,left,['0'],6,0.2781262999997125,,,,,,,,30,18,Vrouw,Rechts,2,
,dotcolour,dotcolour,xotask,31,0,31,331,training,positivefb,93,average,54,0.5009900000004563,['c'],1,left,['9'],5,0.11061179999887827,,,,,,,,30,18,Vrouw,Rechts,2,
,dotcolour,dotcolour,xotask,32,0,32,332,training,positivefb,96,easy,17,0.5497174000011,['n'],1,right,['0'],6,0.1574810999991314,,,,,,,,30,18,Vrouw,Rechts,2,
,dotcolour,dotcolour,xotask,33,0,33,333,training,positivefb,97,hard,38,0.5995651000012003,['n'],1,right,['9'],5,0.11145960000067134,,,,,,,,30,18,Vrouw,Rechts,2,
,dotcolour,dotcolour,xotask,34,0,34,334,training,positivefb,97,average,26,0.5495899000015925,['n'],1,right,['0'],6,0.16483920000246144,,,,,,,,30,18,Vrouw,Rechts,2,
,dotcolour,dotcolour,xotask,35,0,35,335,training,positivefb,95,easy,15,0.4509003000021039,['n'],1,right,['0'],6,0.12456849999944097,,,,,,,,30,18,Vrouw,Rechts,2,
,dotcolour,dotcolour,xotask,36,0,36,336,training,positivefb,93,average,52,0.599132200000895,['c'],1,left,['9'],5,0.08812839999882272,,,,,,,,30,18,Vrouw,Rechts,2,
,dotcolour,dotcolour,xotask,37,0,37,337,training,positivefb,92,hard,43,0.5008455999995931,['c'],1,left,['9'],5,0.07222299999921233,,,,,,,,30,18,Vrouw,Rechts,2,
,dotcolour,dotcolour,xotask,38,0,38,338,training,positivefb,99,easy,15,0.3833773000005749,['n'],1,right,['0'],6,0.10251630000129808,,,,,,,,30,18,Vrouw,Rechts,2,
,dotcolour,dotcolour,xotask,39,0,39,339,training,positivefb,96,average,27,0.7018272999994224,['n'],1,right,['0'],6,0.23826730000291718,,,,,,,,30,18,Vrouw,Rechts,2,
,dotcolour,dotcolour,xotask,40,0,40,340,training,positivefb,96,hard,43,0.6341322999978729,['c'],1,left,['9'],5,0.07581110000319313,,,,,,,,30,18,Vrouw,Rechts,2,
,dotcolour,dotcolour,xotask,41,0,41,341,training,positivefb,97,easy,16,0.7994517999977688,['n'],1,right,['0'],6,0.08116619999782415,,,,,,,,30,18,Vrouw,Rechts,2,
,dotcolour,dotcolour,xotask,42,0,42,342,training,positivefb,81,hard,38,0.9832343999987643,['c'],0,right,['9'],5,0.24712630000067293,,,,,,,,30,18,Vrouw,Rechts,2,
,dotcolour,dotcolour,xotask,43,0,43,343,training,positivefb,75,easy,16,0.7837091000001237,['c'],0,right,['9'],5,0.7179947000004177,,,,,,,,30,18,Vrouw,Rechts,2,
,dotcolour,dotcolour,xotask,44,0,44,344,training,positivefb,89,easy,62,0.7008461999976134,['c'],1,left,['0'],6,0.1490525000008347,,,,,,,,30,18,Vrouw,Rechts,2,
,dotcolour,dotcolour,xotask,45,0,45,345,training,positivefb,95,average,27,0.7169587000025786,['n'],1,right,['0'],6,0.09951150000051712,,,,,,,,30,18,Vrouw,Rechts,2,
,dotcolour,dotcolour,xotask,46,0,46,346,training,positivefb,92,average,29,0.7996609000001627,['n'],1,right,['9'],5,0.07890840000254684,,,,,,,,30,18,Vrouw,Rechts,2,
,dotcolour,dotcolour,xotask,47,0,47,347,training,positivefb,85,average,55,0.8005273999988276,['c'],1,left,['0'],6,0.27644839999993565,,,,,,,,30,18,Vrouw,Rechts,2,
,dotcolour,dotcolour,xotask,48,0,48,348,training,positivefb,81,hard,39,1.183415600000444,['c'],0,right,['9'],5,0.1382305000006454,,,,,,,,30,18,Vrouw,Rechts,2,
,dotcolour,dotcolour,xotask,49,0,49,349,training,positivefb,94,hard,38,0.7010780999989947,['n'],1,right,['0'],6,0.01607739999963087,,,,,,,,30,18,Vrouw,Rechts,2,
,dotcolour,dotcolour,xotask,50,0,50,350,training,positivefb,75,hard,37,0.8177936000029149,['c'],0,right,['9'],5,0.16762129999915487,,,,,,,,30,18,Vrouw,Rechts,2,
,dotcolour,dotcolour,xotask,51,0,51,351,training,positivefb,93,average,29,0.6326254999985395,['n'],1,right,['0'],6,0.05572059999758494,,,,,,,,30,18,Vrouw,Rechts,2,
,dotcolour,dotcolour,xotask,52,0,52,352,training,positivefb,95,average,54,0.4507511000010709,['c'],1,left,['9'],5,0.1873468000012508,,,,,,,,30,18,Vrouw,Rechts,2,
,dotcolour,dotcolour,xotask,53,0,53,353,training,positivefb,92,average,55,0.3836585999997624,['c'],1,left,['9'],5,0.18090569999912987,,,,,,,,30,18,Vrouw,Rechts,2,
,dotcolour,dotcolour,xotask,54,0,54,354,training,positivefb,92,hard,43,0.6835987999984354,['n'],0,left,['9'],5,0.034616400000231806,,,,,,,,30,18,Vrouw,Rechts,2,
,dotcolour,dotcolour,xotask,55,0,55,355,training,positivefb,96,average,27,0.6500384999999369,['n'],1,right,['9'],5,0.13522379999994882,,,,,,,,30,18,Vrouw,Rechts,2,
,dotcolour,dotcolour,xotask,56,0,56,356,training,positivefb,94,hard,37,0.6842619000017294,['c'],0,right,['9'],5,0.09442240000134916,,,,,,,,30,18,Vrouw,Rechts,2,
,dotcolour,dotcolour,xotask,57,0,57,357,training,positivefb,96,easy,63,0.43389030000253115,['c'],1,left,['8'],4,0.19379029999981867,,,,,,,,30,18,Vrouw,Rechts,2,
,dotcolour,dotcolour,xotask,58,0,58,358,training,positivefb,71,hard,41,1.3501744999994116,['n'],0,left,['0'],6,0.25246019999758573,,,,,,,,30,18,Vrouw,Rechts,2,
,dotcolour,dotcolour,xotask,59,0,59,359,training,positivefb,85,easy,65,0.633995699998195,['c'],1,left,['0'],6,0.20151389999955427,,,,,,,,30,18,Vrouw,Rechts,2,
,dotcolour,dotcolour,xotask,0,1,60,360,training,positivefb,91,hard,45,0.8510635999991791,['c'],1,left,['9'],5,0.17007050000029267,,,,,,,,30,18,Vrouw,Rechts,2,
,dotcolour,dotcolour,xotask,1,1,61,361,training,positivefb,96,easy,65,0.36723690000144416,['c'],1,left,['8'],4,0.11671940000087488,,,,,,,,30,18,Vrouw,Rechts,2,
,dotcolour,dotcolour,xotask,2,1,62,362,training,positivefb,63,average,25,0.8668832000003022,['c'],0,right,['9'],5,0.6050029999969411,,,,,,,,30,18,Vrouw,Rechts,2,
,dotcolour,dotcolour,xotask,3,1,63,363,training,positivefb,98,easy,64,0.5001976999992621,['c'],1,left,['9'],5,0.0887985999979719,,,,,,,,30,18,Vrouw,Rechts,2,
,dotcolour,dotcolour,xotask,4,1,64,364,training,positivefb,89,average,28,0.8665397000004305,['n'],1,right,['9'],5,0.0832382000007783,,,,,,,,30,18,Vrouw,Rechts,2,
,dotcolour,dotcolour,xotask,5,1,65,365,training,positivefb,95,average,26,0.6671243000018876,['n'],1,right,['0'],6,0.07749540000077104,,,,,,,,30,18,Vrouw,Rechts,2,
,dotcolour,dotcolour,xotask,6,1,66,366,training,positivefb,95,easy,62,0.5839358000011998,['c'],1,left,['0'],6,0.11507269999856362,,,,,,,,30,18,Vrouw,Rechts,2,
,dotcolour,dotcolour,xotask,7,1,67,367,training,positivefb,98,easy,19,0.4167254000021785,['n'],1,right,['0'],6,0.07796930000040447,,,,,,,,30,18,Vrouw,Rechts,2,
,dotcolour,dotcolour,xotask,8,1,68,368,training,positivefb,95,hard,36,1.0844768999995722,['c'],0,right,['9'],5,0.07991169999877457,,,,,,,,30,18,Vrouw,Rechts,2,
,dotcolour,dotcolour,xotask,9,1,69,369,training,positivefb,89,hard,38,0.8004637000012735,['c'],0,right,['9'],5,0.0934333000004699,,,,,,,,30,18,Vrouw,Rechts,2,
,dotcolour,dotcolour,xotask,10,1,70,370,training,positivefb,92,easy,16,0.6993785999984539,['n'],1,right,['0'],6,0.08542469999883906,,,,,,,,30,18,Vrouw,Rechts,2,
,dotcolour,dotcolour,xotask,11,1,71,371,training,positivefb,91,hard,43,1.0492674999986775,['c'],1,left,['9'],5,0.10528290000002016,,,,,,,,30,18,Vrouw,Rechts,2,
,dotcolour,dotcolour,xotask,12,1,72,372,training,positivefb,93,easy,17,0.6664157999985036,['n'],1,right,['0'],6,0.050607499997568084,,,,,,,,30,18,Vrouw,Rechts,2,
,dotcolour,dotcolour,xotask,13,1,73,373,training,positivefb,96,average,55,0.5665016000020842,['c'],1,left,['9'],5,0.0972284999988915,,,,,,,,30,18,Vrouw,Rechts,2,
,dotcolour,dotcolour,xotask,14,1,74,374,training,positivefb,82,hard,39,0.8005257999975584,['c'],0,right,['9'],5,0.1816940999997314,,,,,,,,30,18,Vrouw,Rechts,2,
,dotcolour,dotcolour,xotask,15,1,75,375,training,positivefb,98,easy,19,0.7986870999993698,['n'],1,right,['0'],6,0.45489679999809596,,,,,,,,30,18,Vrouw,Rechts,2,
,dotcolour,dotcolour,xotask,16,1,76,376,training,positivefb,93,average,51,0.7338639999979932,['c'],1,left,['9'],5,0.03912789999958477,,,,,,,,30,18,Vrouw,Rechts,2,
,dotcolour,dotcolour,xotask,17,1,77,377,training,positivefb,97,hard,43,0.6331806000016513,['n'],0,left,['0'],6,0.07648879999760538,,,,,,,,30,18,Vrouw,Rechts,2,
,dotcolour,dotcolour,xotask,18,1,78,378,training,positivefb,85,hard,35,0.8332098999999289,['n'],1,right,['0'],6,0.16850609999892185,,,,,,,,30,18,Vrouw,Rechts,2,
,dotcolour,dotcolour,xotask,19,1,79,379,training,positivefb,93,hard,45,0.5333549999995739,['c'],1,left,['9'],5,0.12475650000124006,,,,,,,,30,18,Vrouw,Rechts,2,
,dotcolour,dotcolour,xotask,20,1,80,380,training,positivefb,62,easy,61,0.6829505000023346,['c'],1,left,['0'],6,0.2132071999985783,,,,,,,,30,18,Vrouw,Rechts,2,
,dotcolour,dotcolour,xotask,21,1,81,381,training,positivefb,96,average,55,0.5005753000004916,['c'],1,left,['0'],6,0.25711109999974724,,,,,,,,30,18,Vrouw,Rechts,2,
,dotcolour,dotcolour,xotask,22,1,82,382,training,positivefb,94,average,27,0.6494801999979245,['n'],1,right,['0'],6,0.1651902000012342,,,,,,,,30,18,Vrouw,Rechts,2,
,dotcolour,dotcolour,xotask,23,1,83,383,training,positivefb,96,hard,39,0.5328380999999354,['c'],0,right,['9'],5,0.089149899999029,,,,,,,,30,18,Vrouw,Rechts,2,
,dotcolour,dotcolour,xotask,24,1,84,384,training,positivefb,88,average,51,0.5674187999975402,['c'],1,left,['0'],6,0.2309927999995125,,,,,,,,30,18,Vrouw,Rechts,2,
,dotcolour,dotcolour,xotask,25,1,85,385,training,positivefb,98,average,53,0.3840591000007407,['c'],1,left,['0'],6,0.013908799999626353,,,,,,,,30,18,Vrouw,Rechts,2,
,dotcolour,dotcolour,xotask,26,1,86,386,training,positivefb,84,average,51,0.7164609999999811,['c'],1,left,['0'],6,0.21703290000004927,,,,,,,,30,18,Vrouw,Rechts,2,
,dotcolour,dotcolour,xotask,27,1,87,387,training,positivefb,97,average,51,0.5519755999994231,['c'],1,left,['0'],6,0.15491750000001048,,,,,,,,30,18,Vrouw,Rechts,2,
,dotcolour,dotcolour,xotask,28,1,88,388,training,positivefb,93,easy,62,0.5657329999994545,['c'],1,left,['0'],6,0.09449769999991986,,,,,,,,30,18,Vrouw,Rechts,2,
,dotcolour,dotcolour,xotask,29,1,89,389,training,positivefb,95,average,53,0.9998586000001524,['c'],1,left,['0'],6,0.09033379999891622,,,,,,,,30,18,Vrouw,Rechts,2,
,dotcolour,dotcolour,xotask,30,1,90,390,training,positivefb,54,average,29,0.4331037000010838,['c'],0,right,['0'],6,0.3099752999987686,,,,,,,,30,18,Vrouw,Rechts,2,
,dotcolour,dotcolour,xotask,31,1,91,391,training,positivefb,98,easy,16,0.6004439000025741,['n'],1,right,['0'],6,0.12983709999753046,,,,,,,,30,18,Vrouw,Rechts,2,
,dotcolour,dotcolour,xotask,32,1,92,392,training,positivefb,99,average,26,0.4007497999991756,['n'],1,right,['0'],6,0.16527230000065174,,,,,,,,30,18,Vrouw,Rechts,2,
,dotcolour,dotcolour,xotask,33,1,93,393,training,positivefb,92,average,55,0.5667482999997446,['c'],1,left,['9'],5,0.07181990000026417,,,,,,,,30,18,Vrouw,Rechts,2,
,dotcolour,dotcolour,xotask,34,1,94,394,training,positivefb,87,hard,35,0.6499565999984043,['c'],0,right,['9'],5,0.1635601999987557,,,,,,,,30,18,Vrouw,Rechts,2,
,dotcolour,dotcolour,xotask,35,1,95,395,training,positivefb,83,hard,38,0.7832436999997299,['n'],1,right,['0'],6,0.309667300000001,,,,,,,,30,18,Vrouw,Rechts,2,
,dotcolour,dotcolour,xotask,36,1,96,396,training,positivefb,91,hard,45,0.6161320999999589,['c'],1,left,['9'],5,0.20153209999989485,,,,,,,,30,18,Vrouw,Rechts,2,
,dotcolour,dotcolour,xotask,37,1,97,397,training,positivefb,92,easy,61,0.7840279000010923,['c'],1,left,['0'],6,0.2660772999988694,,,,,,,,30,18,Vrouw,Rechts,2,
,dotcolour,dotcolour,xotask,38,1,98,398,training,positivefb,90,hard,43,1.1495678999999654,['c'],1,left,['9'],5,0.057098500001302455,,,,,,,,30,18,Vrouw,Rechts,2,
,dotcolour,dotcolour,xotask,39,1,99,399,training,positivefb,93,average,25,0.7496215999999549,['n'],1,right,['9'],5,0.18561250000129803,,,,,,,,30,18,Vrouw,Rechts,2,
,dotcolour,dotcolour,xotask,40,1,100,400,training,positivefb,95,average,28,0.6342239000005065,['n'],1,right,['0'],6,0.08844369999860646,,,,,,,,30,18,Vrouw,Rechts,2,
,dotcolour,dotcolour,xotask,41,1,101,401,training,positivefb,96,easy,19,0.5173260999981721,['n'],1,right,['0'],6,0.08887359999789624,,,,,,,,30,18,Vrouw,Rechts,2,
,dotcolour,dotcolour,xotask,42,1,102,402,training,positivefb,90,hard,44,0.7169214999994438,['c'],1,left,['9'],5,0.032971200002066325,,,,,,,,30,18,Vrouw,Rechts,2,
,dotcolour,dotcolour,xotask,43,1,103,403,training,positivefb,98,average,54,0.6998411000022315,['c'],1,left,['0'],6,0.25147910000305274,,,,,,,,30,18,Vrouw,Rechts,2,
,dotcolour,dotcolour,xotask,44,1,104,404,training,positivefb,95,hard,41,0.8840535000017553,['c'],1,left,['0'],6,0.2942457999997714,,,,,,,,30,18,Vrouw,Rechts,2,
,dotcolour,dotcolour,xotask,45,1,105,405,training,positivefb,92,hard,35,0.7332657000006293,['n'],1,right,['9'],5,0.12568069999906584,,,,,,,,30,18,Vrouw,Rechts,2,
,dotcolour,dotcolour,xotask,46,1,106,406,training,positivefb,98,easy,18,0.9334616000014648,['n'],1,right,['0'],6,0.1312039000004006,,,,,,,,30,18,Vrouw,Rechts,2,
,dotcolour,dotcolour,xotask,47,1,107,407,training,positivefb,86,easy,64,1.500538600001164,['c'],1,left,['0'],6,0.1220181999997294,,,,,,,,30,18,Vrouw,Rechts,2,
,dotcolour,dotcolour,xotask,48,1,108,408,training,positivefb,96,easy,65,0.400213500000973,['c'],1,left,['0'],6,0.06111550000059651,,,,,,,,30,18,Vrouw,Rechts,2,
,dotcolour,dotcolour,xotask,49,1,109,409,training,positivefb,91,hard,37,0.8171275000022433,['n'],1,right,['9'],5,0.1309188000013819,,,,,,,,30,18,Vrouw,Rechts,2,
,dotcolour,dotcolour,xotask,50,1,110,410,training,positivefb,93,hard,38,1.2506681999984721,['n'],1,right,['0'],6,0.1007333000015933,,,,,,,,30,18,Vrouw,Rechts,2,
,dotcolour,dotcolour,xotask,51,1,111,411,training,positivefb,92,hard,43,0.8670405999982904,['c'],1,left,['9'],5,0.05361119999724906,,,,,,,,30,18,Vrouw,Rechts,2,
,dotcolour,dotcolour,xotask,52,1,112,412,training,positivefb,84,easy,62,0.5003821000027528,['c'],1,left,['0'],6,0.25545940000301925,,,,,,,,30,18,Vrouw,Rechts,2,
,dotcolour,dotcolour,xotask,53,1,113,413,training,positivefb,100,easy,15,0.783857700000226,['n'],1,right,['0'],6,0.3015704999997979,,,,,,,,30,18,Vrouw,Rechts,2,
,dotcolour,dotcolour,xotask,54,1,114,414,training,positivefb,96,easy,65,0.5670133000021451,['c'],1,left,['9'],5,0.07582769999862649,,,,,,,,30,18,Vrouw,Rechts,2,
,dotcolour,dotcolour,xotask,55,1,115,415,training,positivefb,95,easy,16,0.66757349999898,['n'],1,right,['0'],6,0.1257692999970459,,,,,,,,30,18,Vrouw,Rechts,2,
,dotcolour,dotcolour,xotask,56,1,116,416,training,positivefb,91,hard,44,0.6827470999996876,['c'],1,left,['9'],5,0.053783900002599694,,,,,,,,30,18,Vrouw,Rechts,2,
,dotcolour,dotcolour,xotask,57,1,117,417,training,positivefb,88,easy,19,0.8506436999996367,['n'],1,right,['0'],6,0.10624570000072708,,,,,,,,30,18,Vrouw,Rechts,2,
,dotcolour,dotcolour,xotask,58,1,118,418,training,positivefb,97,average,29,0.7499122000008356,['n'],1,right,['0'],6,0.15959060000022873,,,,,,,,30,18,Vrouw,Rechts,2,
,dotcolour,dotcolour,xotask,59,1,119,419,training,positivefb,97,average,26,0.800801199999114,['n'],1,right,['0'],6,0.11466379999910714,,,,,,,,30,18,Vrouw,Rechts,2,
,dotcolour,dotcolour,xotask,0,2,120,420,main,positivefb,-99,average,25,1.0505945999975665,['n'],1,right,['0'],6,0.09092469999814057,,,,,,,,30,18,Vrouw,Rechts,2,
,dotcolour,dotcolour,xotask,1,2,121,421,main,positivefb,-99,average,29,0.9684015999991971,['c'],0,right,['9'],5,0.17703310000069905,,,,,,,,30,18,Vrouw,Rechts,2,
,dotcolour,dotcolour,xotask,2,2,122,422,main,positivefb,-99,easy,18,0.5343130999972345,['n'],1,right,['0'],6,0.14208979999966687,,,,,,,,30,18,Vrouw,Rechts,2,
,dotcolour,dotcolour,xotask,3,2,123,423,main,positivefb,-99,easy,15,0.4174066999985371,['n'],1,right,['0'],6,0.09739749999789638,,,,,,,,30,18,Vrouw,Rechts,2,
,dotcolour,dotcolour,xotask,4,2,124,424,main,positivefb,-99,easy,65,0.4850518000021111,['c'],1,left,['0'],6,0.08297619999939343,,,,,,,,30,18,Vrouw,Rechts,2,
,dotcolour,dotcolour,xotask,5,2,125,425,main,positivefb,-99,average,53,0.4517457000001741,['c'],1,left,['0'],6,0.05440240000098129,,,,,,,,30,18,Vrouw,Rechts,2,
,dotcolour,dotcolour,xotask,6,2,126,426,main,positivefb,-99,average,27,0.6000946999993175,['n'],1,right,['0'],6,0.06886370000211173,,,,,,,,30,18,Vrouw,Rechts,2,
,dotcolour,dotcolour,xotask,7,2,127,427,main,positivefb,-99,easy,65,0.5176112999979523,['c'],1,left,['0'],6,0.05432780000046478,,,,,,,,30,18,Vrouw,Rechts,2,
,dotcolour,dotcolour,xotask,8,2,128,428,main,positivefb,-99,hard,39,1.1681148000025132,['n'],1,right,['9'],5,0.1582049000026018,,,,,,,,30,18,Vrouw,Rechts,2,
,dotcolour,dotcolour,xotask,9,2,129,429,main,positivefb,-99,easy,61,0.33541580000019167,['c'],1,left,['0'],6,0.0510022000016761,,,,,,,,30,18,Vrouw,Rechts,2,
,dotcolour,dotcolour,xotask,10,2,130,430,main,positivefb,-99,average,28,0.49989979999736534,['n'],1,right,['0'],6,0.05407480000212672,,,,,,,,30,18,Vrouw,Rechts,2,
,dotcolour,dotcolour,xotask,11,2,131,431,main,positivefb,-99,hard,37,0.4678483999996388,['c'],0,right,['9'],5,0.033893100000568666,,,,,,,,30,18,Vrouw,Rechts,2,
,dotcolour,dotcolour,xotask,12,2,132,432,main,positivefb,-99,easy,16,0.45141290000174195,['c'],0,right,['8'],4,0.13597129999834578,,,,,,,,30,18,Vrouw,Rechts,2,
,dotcolour,dotcolour,xotask,13,2,133,433,main,positivefb,-99,hard,45,1.2011600000005274,['c'],1,left,['9'],5,0.04279740000129095,,,,,,,,30,18,Vrouw,Rechts,2,
,dotcolour,dotcolour,xotask,14,2,134,434,main,positivefb,-99,average,27,0.4834095999976853,['n'],1,right,['0'],6,0.07892599999831873,,,,,,,,30,18,Vrouw,Rechts,2,
,dotcolour,dotcolour,xotask,15,2,135,435,main,positivefb,-99,easy,62,0.867229600000428,['c'],1,left,['0'],6,0.06669460000193794,,,,,,,,30,18,Vrouw,Rechts,2,
,dotcolour,dotcolour,xotask,16,2,136,436,main,positivefb,-99,easy,64,0.4674427999998443,['c'],1,left,['0'],6,0.10155099999974482,,,,,,,,30,18,Vrouw,Rechts,2,
,dotcolour,dotcolour,xotask,17,2,137,437,main,positivefb,-99,average,25,0.5168029999986175,['n'],1,right,['0'],6,0.06106920000092941,,,,,,,,30,18,Vrouw,Rechts,2,
,dotcolour,dotcolour,xotask,18,2,138,438,main,positivefb,-99,average,52,0.4180999999989581,['c'],1,left,['9'],5,0.0990882000005513,,,,,,,,30,18,Vrouw,Rechts,2,
,dotcolour,dotcolour,xotask,19,2,139,439,main,positivefb,-99,average,51,0.550078800002666,['c'],1,left,['9'],5,0.08201999999801046,,,,,,,,30,18,Vrouw,Rechts,2,
,dotcolour,dotcolour,xotask,20,2,140,440,main,positivefb,-99,hard,39,0.4505328000013833,['c'],0,right,['0'],6,0.09317219999866211,,,,,,,,30,18,Vrouw,Rechts,2,
,dotcolour,dotcolour,xotask,21,2,141,441,main,positivefb,-99,easy,63,0.4505812999996124,['c'],1,left,['0'],6,0.432957199998782,,,,,,,,30,18,Vrouw,Rechts,2,
,dotcolour,dotcolour,xotask,22,2,142,442,main,positivefb,-99,easy,61,0.38471170000048005,['c'],1,left,['0'],6,0.08033299999806331,,,,,,,,30,18,Vrouw,Rechts,2,
,dotcolour,dotcolour,xotask,23,2,143,443,main,positivefb,-99,easy,18,0.567749100002402,['n'],1,right,['0'],6,0.06453030000193394,,,,,,,,30,18,Vrouw,Rechts,2,
,dotcolour,dotcolour,xotask,24,2,144,444,main,positivefb,-99,hard,44,0.5671612000005553,['c'],1,left,['9'],5,0.09545209999851068,,,,,,,,30,18,Vrouw,Rechts,2,
,dotcolour,dotcolour,xotask,25,2,145,445,main,positivefb,-99,average,28,0.6168829000016558,['c'],0,right,['0'],6,0.13207920000058948,,,,,,,,30,18,Vrouw,Rechts,2,
,dotcolour,dotcolour,xotask,26,2,146,446,main,positivefb,-99,average,26,0.6004262999995262,['n'],1,right,['0'],6,0.05534009999973932,,,,,,,,30,18,Vrouw,Rechts,2,
,dotcolour,dotcolour,xotask,27,2,147,447,main,positivefb,-99,hard,38,0.5843088999972679,['c'],0,right,['9'],5,0.09435089999897173,,,,,,,,30,18,Vrouw,Rechts,2,
,dotcolour,dotcolour,xotask,28,2,148,448,main,positivefb,-99,hard,42,0.5169586000010895,['c'],1,left,['0'],6,0.10331860000223969,,,,,,,,30,18,Vrouw,Rechts,2,
,dotcolour,dotcolour,xotask,29,2,149,449,main,positivefb,-99,hard,39,0.9010207999999693,['n'],1,right,['0'],6,0.15218839999943157,,,,,,,,30,18,Vrouw,Rechts,2,
,dotcolour,dotcolour,xotask,30,2,150,450,main,positivefb,-99,easy,19,0.45118340000044554,['n'],1,right,['0'],6,0.10463639999943553,,,,,,,,30,18,Vrouw,Rechts,2,
,dotcolour,dotcolour,xotask,31,2,151,451,main,positivefb,-99,hard,44,0.6852216000006592,['c'],1,left,['9'],5,0.09836609999911161,,,,,,,,30,18,Vrouw,Rechts,2,
,dotcolour,dotcolour,xotask,32,2,152,452,main,positivefb,-99,hard,41,0.5500749999991967,['c'],1,left,['0'],6,0.1451974000010523,,,,,,,,30,18,Vrouw,Rechts,2,
,dotcolour,dotcolour,xotask,33,2,153,453,main,positivefb,-99,hard,37,0.4506110999973316,['c'],0,right,['0'],6,0.15364240000053542,,,,,,,,30,18,Vrouw,Rechts,2,
,dotcolour,dotcolour,xotask,34,2,154,454,main,positivefb,-99,hard,43,0.6512600999994902,['c'],1,left,['0'],6,0.24242759999833652,,,,,,,,30,18,Vrouw,Rechts,2,
,dotcolour,dotcolour,xotask,35,2,155,455,main,positivefb,-99,easy,18,0.6347175000009884,['n'],1,right,['0'],6,0.0884280000027502,,,,,,,,30,18,Vrouw,Rechts,2,
,dotcolour,dotcolour,xotask,36,2,156,456,main,positivefb,-99,hard,41,0.8175574000015331,['c'],1,left,['9'],5,0.08534189999772934,,,,,,,,30,18,Vrouw,Rechts,2,
,dotcolour,dotcolour,xotask,37,2,157,457,main,positivefb,-99,average,53,0.4837112999994133,['c'],1,left,['8'],4,0.05511499999920488,,,,,,,,30,18,Vrouw,Rechts,2,
,dotcolour,dotcolour,xotask,38,2,158,458,main,positivefb,-99,hard,36,0.734821699999884,['c'],0,right,['8'],4,0.1048882999966736,,,,,,,,30,18,Vrouw,Rechts,2,
,dotcolour,dotcolour,xotask,39,2,159,459,main,positivefb,-99,hard,45,0.36743510000087554,['c'],1,left,['8'],4,0.08711289999700966,,,,,,,,30,18,Vrouw,Rechts,2,
,dotcolour,dotcolour,xotask,40,2,160,460,main,positivefb,-99,hard,43,0.5170499999985623,['c'],1,left,['9'],5,0.8235370000002149,,,,,,,,30,18,Vrouw,Rechts,2,
,dotcolour,dotcolour,xotask,41,2,161,461,main,positivefb,-99,hard,41,0.45107420000204,['c'],1,left,['9'],5,0.1171570000005886,,,,,,,,30,18,Vrouw,Rechts,2,
,dotcolour,dotcolour,xotask,42,2,162,462,main,positivefb,-99,easy,64,0.46751940000103787,['c'],1,left,['9'],5,0.07047990000137361,,,,,,,,30,18,Vrouw,Rechts,2,
,dotcolour,dotcolour,xotask,43,2,163,463,main,positivefb,-99,average,54,0.6004556000007142,['c'],1,left,['0'],6,0.24490080000032322,,,,,,,,30,18,Vrouw,Rechts,2,
,dotcolour,dotcolour,xotask,44,2,164,464,main,positivefb,-99,easy,62,0.3843682999977318,['c'],1,left,['0'],6,0.08456079999814392,,,,,,,,30,18,Vrouw,Rechts,2,
,dotcolour,dotcolour,xotask,45,2,165,465,main,positivefb,-99,easy,17,0.6179424000001745,['n'],1,right,['0'],6,0.06526289999965229,,,,,,,,30,18,Vrouw,Rechts,2,
,dotcolour,dotcolour,xotask,46,2,166,466,main,positivefb,-99,easy,18,0.6677250000029744,['n'],1,right,['0'],6,0.06845510000130162,,,,,,,,30,18,Vrouw,Rechts,2,
,dotcolour,dotcolour,xotask,47,2,167,467,main,positivefb,-99,average,29,0.6666569000008167,['c'],0,right,['9'],5,0.11231120000229566,,,,,,,,30,18,Vrouw,Rechts,2,
,dotcolour,dotcolour,xotask,48,2,168,468,main,positivefb,-99,easy,62,0.5000834999991639,['c'],1,left,['0'],6,0.16901190000135102,,,,,,,,30,18,Vrouw,Rechts,2,
,dotcolour,dotcolour,xotask,49,2,169,469,main,positivefb,-99,hard,35,0.4510197000017797,['c'],0,right,['0'],6,0.24836040000081994,,,,,,,,30,18,Vrouw,Rechts,2,
,dotcolour,dotcolour,xotask,50,2,170,470,main,positivefb,-99,easy,16,0.5336616000022332,['n'],1,right,['0'],6,0.7626041999974404,,,,,,,,30,18,Vrouw,Rechts,2,
,dotcolour,dotcolour,xotask,51,2,171,471,main,positivefb,-99,hard,38,0.7840832000001683,['c'],0,right,['9'],5,0.09364120000100229,,,,,,,,30,18,Vrouw,Rechts,2,
,dotcolour,dotcolour,xotask,52,2,172,472,main,positivefb,-99,hard,36,0.783748400001059,['c'],0,right,['0'],6,0.1313893000005919,,,,,,,,30,18,Vrouw,Rechts,2,
,dotcolour,dotcolour,xotask,53,2,173,473,main,positivefb,-99,average,53,0.6516416999984358,['c'],1,left,['0'],6,0.10934249999991152,,,,,,,,30,18,Vrouw,Rechts,2,
,dotcolour,dotcolour,xotask,54,2,174,474,main,positivefb,-99,average,52,0.5014756999989913,['c'],1,left,['0'],6,0.085901800001011,,,,,,,,30,18,Vrouw,Rechts,2,
,dotcolour,dotcolour,xotask,55,2,175,475,main,positivefb,-99,average,53,0.3659609999995155,['c'],1,left,['0'],6,0.06021780000082799,,,,,,,,30,18,Vrouw,Rechts,2,
,dotcolour,dotcolour,xotask,56,2,176,476,main,positivefb,-99,average,53,0.38349609999932,['c'],1,left,['0'],6,0.07524630000261823,,,,,,,,30,18,Vrouw,Rechts,2,
,dotcolour,dotcolour,xotask,57,2,177,477,main,positivefb,-99,average,29,1.2174796999970567,['n'],1,right,['9'],5,0.560805100001744,,,,,,,,30,18,Vrouw,Rechts,2,
,dotcolour,dotcolour,xotask,58,2,178,478,main,positivefb,-99,easy,16,0.5338487999979407,['n'],1,right,['0'],6,0.1661872000004223,,,,,,,,30,18,Vrouw,Rechts,2,
,dotcolour,dotcolour,xotask,59,2,179,479,main,positivefb,-99,average,53,0.6338859999996203,['c'],1,left,['9'],5,0.09488060000148835,,,,,,,,30,18,Vrouw,Rechts,2,
,dotcolour,dotcolour,xotask,0,3,180,480,main,positivefb,-99,hard,41,1.517068000001018,['n'],0,left,['9'],5,1.070868500002689,,,,,,,,30,18,Vrouw,Rechts,2,
,dotcolour,dotcolour,xotask,1,3,181,481,main,positivefb,-99,average,26,0.7509228999988409,['n'],1,right,['0'],6,0.3662852000015846,,,,,,,,30,18,Vrouw,Rechts,2,
,dotcolour,dotcolour,xotask,2,3,182,482,main,positivefb,-99,hard,37,0.7849249999999302,['c'],0,right,['9'],5,0.09632580000106827,,,,,,,,30,18,Vrouw,Rechts,2,
,dotcolour,dotcolour,xotask,3,3,183,483,main,positivefb,-99,hard,42,0.5672212000026775,['c'],1,left,['9'],5,0.07887219999975059,,,,,,,,30,18,Vrouw,Rechts,2,
,dotcolour,dotcolour,xotask,4,3,184,484,main,positivefb,-99,hard,43,0.5006084000015107,['c'],1,left,['9'],5,0.13768790000176523,,,,,,,,30,18,Vrouw,Rechts,2,
,dotcolour,dotcolour,xotask,5,3,185,485,main,positivefb,-99,hard,38,0.5002058999998553,['c'],0,right,['0'],6,0.2646762000003946,,,,,,,,30,18,Vrouw,Rechts,2,
,dotcolour,dotcolour,xotask,6,3,186,486,main,positivefb,-99,easy,64,0.568143799999234,['c'],1,left,['0'],6,0.1041551000016625,,,,,,,,30,18,Vrouw,Rechts,2,
,dotcolour,dotcolour,xotask,7,3,187,487,main,positivefb,-99,average,27,0.9339865000001737,['n'],1,right,['9'],5,0.23110739999901853,,,,,,,,30,18,Vrouw,Rechts,2,
,dotcolour,dotcolour,xotask,8,3,188,488,main,positivefb,-99,easy,16,0.5338400999971782,['n'],1,right,['0'],6,0.12166349999824888,,,,,,,,30,18,Vrouw,Rechts,2,
,dotcolour,dotcolour,xotask,9,3,189,489,main,positivefb,-99,easy,64,0.5842052000007243,['c'],1,left,['0'],6,0.14168130000325618,,,,,,,,30,18,Vrouw,Rechts,2,
,dotcolour,dotcolour,xotask,10,3,190,490,main,positivefb,-99,easy,16,0.5850056000017503,['n'],1,right,['0'],6,0.14618759999939357,,,,,,,,30,18,Vrouw,Rechts,2,
,dotcolour,dotcolour,xotask,11,3,191,491,main,positivefb,-99,average,52,0.5171749000001,['c'],1,left,['0'],6,0.10484200000064448,,,,,,,,30,18,Vrouw,Rechts,2,
,dotcolour,dotcolour,xotask,12,3,192,492,main,positivefb,-99,easy,19,0.651604499998939,['n'],1,right,['0'],6,0.13179569999920204,,,,,,,,30,18,Vrouw,Rechts,2,
,dotcolour,dotcolour,xotask,13,3,193,493,main,positivefb,-99,average,29,0.44988130000274396,['c'],0,right,['0'],6,0.13306599999850732,,,,,,,,30,18,Vrouw,Rechts,2,
,dotcolour,dotcolour,xotask,14,3,194,494,main,positivefb,-99,easy,61,0.4506191999971634,['c'],1,left,['0'],6,0.3024970000005851,,,,,,,,30,18,Vrouw,Rechts,2,
,dotcolour,dotcolour,xotask,15,3,195,495,main,positivefb,-99,easy,15,0.6001090999998269,['n'],1,right,['0'],6,0.09072200000082375,,,,,,,,30,18,Vrouw,Rechts,2,
,dotcolour,dotcolour,xotask,16,3,196,496,main,positivefb,-99,easy,61,0.48384100000112085,['c'],1,left,['0'],6,0.124882100000832,,,,,,,,30,18,Vrouw,Rechts,2,
,dotcolour,dotcolour,xotask,17,3,197,497,main,positivefb,-99,average,55,0.5006425999999919,['c'],1,left,['0'],6,0.06068080000113696,,,,,,,,30,18,Vrouw,Rechts,2,
,dotcolour,dotcolour,xotask,18,3,198,498,main,positivefb,-99,easy,63,0.4343418999997084,['c'],1,left,['0'],6,0.09016490000067279,,,,,,,,30,18,Vrouw,Rechts,2,
,dotcolour,dotcolour,xotask,19,3,199,499,main,positivefb,-99,hard,36,1.0010304999996151,['n'],1,right,['9'],5,0.007594200000312412,,,,,,,,30,18,Vrouw,Rechts,2,
,dotcolour,dotcolour,xotask,20,3,200,500,main,positivefb,-99,hard,36,0.8160820000011881,['n'],1,right,['9'],5,0.03155239999978221,,,,,,,,30,18,Vrouw,Rechts,2,
,dotcolour,dotcolour,xotask,21,3,201,501,main,positivefb,-99,average,25,0.7506414000017685,['n'],1,right,['0'],6,0.14495329999772366,,,,,,,,30,18,Vrouw,Rechts,2,
,dotcolour,dotcolour,xotask,22,3,202,502,main,positivefb,-99,average,52,0.48480710000148974,['c'],1,left,['0'],6,0.08092730000134907,,,,,,,,30,18,Vrouw,Rechts,2,
,dotcolour,dotcolour,xotask,23,3,203,503,main,positivefb,-99,easy,17,0.7002701999990677,['n'],1,right,['9'],5,0.09059079999860842,,,,,,,,30,18,Vrouw,Rechts,2,
,dotcolour,dotcolour,xotask,24,3,204,504,main,positivefb,-99,average,28,0.6347336999970139,['n'],1,right,['9'],5,0.07858269999996992,,,,,,,,30,18,Vrouw,Rechts,2,
,dotcolour,dotcolour,xotask,25,3,205,505,main,positivefb,-99,easy,61,0.6003794999996899,['c'],1,left,['0'],6,0.10011429999940447,,,,,,,,30,18,Vrouw,Rechts,2,
,dotcolour,dotcolour,xotask,26,3,206,506,main,positivefb,-99,easy,62,0.48335489999954007,['c'],1,left,['0'],6,0.12613799999962794,,,,,,,,30,18,Vrouw,Rechts,2,
,dotcolour,dotcolour,xotask,27,3,207,507,main,positivefb,-99,average,26,0.6666679000009026,['n'],1,right,['9'],5,0.07091510000100243,,,,,,,,30,18,Vrouw,Rechts,2,
,dotcolour,dotcolour,xotask,28,3,208,508,main,positivefb,-99,average,55,2.001212700000906,['c'],1,left,['0'],6,0.22914260000106879,,,,,,,,30,18,Vrouw,Rechts,2,
,dotcolour,dotcolour,xotask,29,3,209,509,main,positivefb,-99,hard,44,0.9837085999970441,['c'],1,left,['9'],5,0.08578560000023572,,,,,,,,30,18,Vrouw,Rechts,2,
,dotcolour,dotcolour,xotask,30,3,210,510,main,positivefb,-99,hard,36,0.4665731000022788,['c'],0,right,['9'],5,0.10395960000096238,,,,,,,,30,18,Vrouw,Rechts,2,
,dotcolour,dotcolour,xotask,31,3,211,511,main,positivefb,-99,hard,36,0.6342386000033002,['n'],1,right,['0'],6,0.14019249999910244,,,,,,,,30,18,Vrouw,Rechts,2,
,dotcolour,dotcolour,xotask,32,3,212,512,main,positivefb,-99,easy,17,0.4343637999991188,['n'],1,right,['0'],6,0.2212738000016543,,,,,,,,30,18,Vrouw,Rechts,2,
,dotcolour,dotcolour,xotask,33,3,213,513,main,positivefb,-99,average,55,0.7499552999979642,['c'],1,left,['0'],6,0.07200019999800134,,,,,,,,30,18,Vrouw,Rechts,2,
,dotcolour,dotcolour,xotask,34,3,214,514,main,positivefb,-99,hard,38,0.8342106000018248,['c'],0,right,['9'],5,0.15615389999948093,,,,,,,,30,18,Vrouw,Rechts,2,
,dotcolour,dotcolour,xotask,35,3,215,515,main,positivefb,-99,hard,44,0.6344592999994347,['c'],1,left,['9'],5,0.053718000002845656,,,,,,,,30,18,Vrouw,Rechts,2,
,dotcolour,dotcolour,xotask,36,3,216,516,main,positivefb,-99,easy,19,0.56788200000301,['n'],1,right,['0'],6,0.1257748999996693,,,,,,,,30,18,Vrouw,Rechts,2,
,dotcolour,dotcolour,xotask,37,3,217,517,main,positivefb,-99,average,27,0.5836892000006628,['n'],1,right,['0'],6,0.05780890000096406,,,,,,,,30,18,Vrouw,Rechts,2,
,dotcolour,dotcolour,xotask,38,3,218,518,main,positivefb,-99,hard,43,0.8840591999978642,['c'],1,left,['9'],5,0.02195180000126129,,,,,,,,30,18,Vrouw,Rechts,2,
,dotcolour,dotcolour,xotask,39,3,219,519,main,positivefb,-99,easy,63,0.5834094000019832,['c'],1,left,['0'],6,0.07790699999895878,,,,,,,,30,18,Vrouw,Rechts,2,
,dotcolour,dotcolour,xotask,40,3,220,520,main,positivefb,-99,average,53,0.48492549999718904,['c'],1,left,['0'],6,0.04055079999670852,,,,,,,,30,18,Vrouw,Rechts,2,
,dotcolour,dotcolour,xotask,41,3,221,521,main,positivefb,-99,easy,18,0.6181135999977414,['n'],1,right,['0'],6,0.04749250000168104,,,,,,,,30,18,Vrouw,Rechts,2,
,dotcolour,dotcolour,xotask,42,3,222,522,main,positivefb,-99,hard,41,0.6844152999983635,['c'],1,left,['9'],5,0.05864369999835617,,,,,,,,30,18,Vrouw,Rechts,2,
,dotcolour,dotcolour,xotask,43,3,223,523,main,positivefb,-99,easy,63,0.4513523999994504,['c'],1,left,['0'],6,0.20843869999953313,,,,,,,,30,18,Vrouw,Rechts,2,
,dotcolour,dotcolour,xotask,44,3,224,524,main,positivefb,-99,average,29,0.6840563000005204,['n'],1,right,['0'],6,0.17289480000181356,,,,,,,,30,18,Vrouw,Rechts,2,
,dotcolour,dotcolour,xotask,45,3,225,525,main,positivefb,-99,easy,62,0.5843598999999813,['c'],1,left,['0'],6,0.12007040000025881,,,,,,,,30,18,Vrouw,Rechts,2,
,dotcolour,dotcolour,xotask,46,3,226,526,main,positivefb,-99,hard,45,0.5507870999972511,['c'],1,left,['0'],6,0.2220541000024241,,,,,,,,30,18,Vrouw,Rechts,2,
,dotcolour,dotcolour,xotask,47,3,227,527,main,positivefb,-99,average,52,0.5675561999996717,['c'],1,left,['0'],6,0.16681310000058147,,,,,,,,30,18,Vrouw,Rechts,2,
,dotcolour,dotcolour,xotask,48,3,228,528,main,positivefb,-99,average,53,0.40130279999721097,['c'],1,left,['0'],6,0.10482349999801954,,,,,,,,30,18,Vrouw,Rechts,2,
,dotcolour,dotcolour,xotask,49,3,229,529,main,positivefb,-99,hard,36,0.5014124999979686,['c'],0,right,['9'],5,0.10607420000087586,,,,,,,,30,18,Vrouw,Rechts,2,
,dotcolour,dotcolour,xotask,50,3,230,530,main,positivefb,-99,easy,17,0.9842855999995663,['n'],1,right,['3'],3,0.2865810000002966,,,,,,,,30,18,Vrouw,Rechts,2,
,dotcolour,dotcolour,xotask,51,3,231,531,main,positivefb,-99,average,51,1.0847892000019783,['c'],1,left,['0'],6,0.17702559999816003,,,,,,,,30,18,Vrouw,Rechts,2,
,dotcolour,dotcolour,xotask,52,3,232,532,main,positivefb,-99,average,53,0.35077889999956824,['c'],1,left,['9'],5,0.061429299999872455,,,,,,,,30,18,Vrouw,Rechts,2,
,dotcolour,dotcolour,xotask,53,3,233,533,main,positivefb,-99,hard,42,0.5010942999979306,['c'],1,left,['8'],4,0.16762050000033923,,,,,,,,30,18,Vrouw,Rechts,2,
,dotcolour,dotcolour,xotask,54,3,234,534,main,positivefb,-99,hard,39,0.6181116999978258,['c'],0,right,['8'],4,0.10491739999997662,,,,,,,,30,18,Vrouw,Rechts,2,
,dotcolour,dotcolour,xotask,55,3,235,535,main,positivefb,-99,easy,17,0.6509213999997883,['n'],1,right,['0'],6,0.06791270000030636,,,,,,,,30,18,Vrouw,Rechts,2,
,dotcolour,dotcolour,xotask,56,3,236,536,main,positivefb,-99,hard,38,0.7508281999980682,['c'],0,right,['9'],5,0.0605085000024701,,,,,,,,30,18,Vrouw,Rechts,2,
,dotcolour,dotcolour,xotask,57,3,237,537,main,positivefb,-99,hard,44,0.7016131000018504,['c'],1,left,['9'],5,0.06182300000000396,,,,,,,,30,18,Vrouw,Rechts,2,
,dotcolour,dotcolour,xotask,58,3,238,538,main,positivefb,-99,average,28,0.917934700002661,['n'],1,right,['0'],6,0.055881599997519515,,,,,,,,30,18,Vrouw,Rechts,2,
,dotcolour,dotcolour,xotask,59,3,239,539,main,positivefb,-99,average,27,0.8343469000028563,['c'],0,right,['9'],5,0.1894603000000643,,,,,,,,30,18,Vrouw,Rechts,2,
,dotcolour,dotcolour,xotask,0,4,240,540,main,positivefb,-99,easy,64,0.5680274000005738,['c'],1,left,['0'],6,0.08984749999945052,,,,,,,,30,18,Vrouw,Rechts,2,
,dotcolour,dotcolour,xotask,1,4,241,541,main,positivefb,-99,average,52,0.36783099999956903,['c'],1,left,['0'],6,0.145270500001061,,,,,,,,30,18,Vrouw,Rechts,2,
,dotcolour,dotcolour,xotask,2,4,242,542,main,positivefb,-99,hard,41,0.33342220000122325,['c'],1,left,['9'],5,0.07090790000074776,,,,,,,,30,18,Vrouw,Rechts,2,
,dotcolour,dotcolour,xotask,3,4,243,543,main,positivefb,-99,easy,63,0.5004877999999735,['c'],1,left,['3'],3,0.11279629999989993,,,,,,,,30,18,Vrouw,Rechts,2,
,dotcolour,dotcolour,xotask,4,4,244,544,main,positivefb,-99,average,54,0.4016676000028383,['c'],1,left,['8'],4,0.19747500000084983,,,,,,,,30,18,Vrouw,Rechts,2,
,dotcolour,dotcolour,xotask,5,4,245,545,main,positivefb,-99,easy,65,0.28498250000120606,['c'],1,left,['9'],5,0.09203360000174143,,,,,,,,30,18,Vrouw,Rechts,2,
,dotcolour,dotcolour,xotask,6,4,246,546,main,positivefb,-99,hard,38,0.28456850000293343,['c'],0,right,['1'],1,1.1417294000020775,,,,,,,,30,18,Vrouw,Rechts,2,
,dotcolour,dotcolour,xotask,7,4,247,547,main,positivefb,-99,average,26,0.4844063999989885,['c'],0,right,['8'],4,0.6372301000010339,,,,,,,,30,18,Vrouw,Rechts,2,
,dotcolour,dotcolour,xotask,8,4,248,548,main,positivefb,-99,hard,37,0.41717859999698703,['n'],1,right,['0'],6,0.46815520000018296,,,,,,,,30,18,Vrouw,Rechts,2,
,dotcolour,dotcolour,xotask,9,4,249,549,main,positivefb,-99,hard,42,0.8502327999995032,['c'],1,left,['9'],5,0.08002900000064983,,,,,,,,30,18,Vrouw,Rechts,2,
,dotcolour,dotcolour,xotask,10,4,250,550,main,positivefb,-99,average,29,0.5177548999999999,['c'],0,right,['8'],4,0.1453932000003988,,,,,,,,30,18,Vrouw,Rechts,2,
,dotcolour,dotcolour,xotask,11,4,251,551,main,positivefb,-99,hard,42,1.0344767999995383,['c'],1,left,['8'],4,0.2601496999996016,,,,,,,,30,18,Vrouw,Rechts,2,
,dotcolour,dotcolour,xotask,12,4,252,552,main,positivefb,-99,easy,64,0.6016445999994176,['c'],1,left,['0'],6,0.2505916000009165,,,,,,,,30,18,Vrouw,Rechts,2,
,dotcolour,dotcolour,xotask,13,4,253,553,main,positivefb,-99,average,53,0.3498561999986123,['c'],1,left,['9'],5,0.7472441999998409,,,,,,,,30,18,Vrouw,Rechts,2,
,dotcolour,dotcolour,xotask,14,4,254,554,main,positivefb,-99,average,51,0.8843385000000126,['c'],1,left,['8'],4,0.12292819999856874,,,,,,,,30,18,Vrouw,Rechts,2,
,dotcolour,dotcolour,xotask,15,4,255,555,main,positivefb,-99,hard,36,1.0003327000013087,['n'],1,right,['9'],5,0.0945371999987401,,,,,,,,30,18,Vrouw,Rechts,2,
,dotcolour,dotcolour,xotask,16,4,256,556,main,positivefb,-99,easy,15,0.5351668999974208,['n'],1,right,['9'],5,0.05466580000211252,,,,,,,,30,18,Vrouw,Rechts,2,
,dotcolour,dotcolour,xotask,17,4,257,557,main,positivefb,-99,easy,18,0.8011331000016071,['n'],1,right,['0'],6,0.06190540000170586,,,,,,,,30,18,Vrouw,Rechts,2,
,dotcolour,dotcolour,xotask,18,4,258,558,main,positivefb,-99,hard,39,0.800328500001342,['c'],0,right,['9'],5,0.08421729999827221,,,,,,,,30,18,Vrouw,Rechts,2,
,dotcolour,dotcolour,xotask,19,4,259,559,main,positivefb,-99,hard,41,0.484127300002001,['c'],1,left,['8'],4,0.07822930000111228,,,,,,,,30,18,Vrouw,Rechts,2,
,dotcolour,dotcolour,xotask,20,4,260,560,main,positivefb,-99,average,26,0.7175317000001087,['n'],1,right,['0'],6,0.12734400000044843,,,,,,,,30,18,Vrouw,Rechts,2,
,dotcolour,dotcolour,xotask,21,4,261,561,main,positivefb,-99,easy,61,0.5505623999997624,['c'],1,left,['0'],6,0.2858871000025829,,,,,,,,30,18,Vrouw,Rechts,2,
,dotcolour,dotcolour,xotask,22,4,262,562,main,positivefb,-99,average,25,0.5679074999970908,['n'],1,right,['0'],6,0.11671220000062021,,,,,,,,30,18,Vrouw,Rechts,2,
,dotcolour,dotcolour,xotask,23,4,263,563,main,positivefb,-99,average,29,0.45189169999866863,['n'],1,right,['0'],6,0.15067660000204341,,,,,,,,30,18,Vrouw,Rechts,2,
,dotcolour,dotcolour,xotask,24,4,264,564,main,positivefb,-99,hard,45,0.7665815000000293,['c'],1,left,['9'],5,0.10659909999958472,,,,,,,,30,18,Vrouw,Rechts,2,
,dotcolour,dotcolour,xotask,25,4,265,565,main,positivefb,-99,average,52,0.5668358000002627,['c'],1,left,['8'],4,0.21579989999736426,,,,,,,,30,18,Vrouw,Rechts,2,
,dotcolour,dotcolour,xotask,26,4,266,566,main,positivefb,-99,easy,18,0.6508610000018962,['n'],1,right,['0'],6,0.158117900002253,,,,,,,,30,18,Vrouw,Rechts,2,
,dotcolour,dotcolour,xotask,27,4,267,567,main,positivefb,-99,hard,43,1.0181916000001365,['c'],1,left,['9'],5,0.28034800000023097,,,,,,,,30,18,Vrouw,Rechts,2,
,dotcolour,dotcolour,xotask,28,4,268,568,main,positivefb,-99,easy,16,0.6167397999997775,['n'],1,right,['0'],6,0.013389299998380011,,,,,,,,30,18,Vrouw,Rechts,2,
,dotcolour,dotcolour,xotask,29,4,269,569,main,positivefb,-99,average,52,0.6164180000014312,['c'],1,left,['9'],5,0.06206490000113263,,,,,,,,30,18,Vrouw,Rechts,2,
,dotcolour,dotcolour,xotask,30,4,270,570,main,positivefb,-99,average,51,0.8341689000008046,['c'],1,left,['0'],6,0.07520370000202092,,,,,,,,30,18,Vrouw,Rechts,2,
,dotcolour,dotcolour,xotask,31,4,271,571,main,positivefb,-99,hard,42,0.4498916000011377,['c'],1,left,['0'],6,0.05529010000100243,,,,,,,,30,18,Vrouw,Rechts,2,
,dotcolour,dotcolour,xotask,32,4,272,572,main,positivefb,-99,average,28,0.6184672999988834,['n'],1,right,['0'],6,0.005057700000179466,,,,,,,,30,18,Vrouw,Rechts,2,
,dotcolour,dotcolour,xotask,33,4,273,573,main,positivefb,-99,hard,38,0.5508541000017431,['c'],0,right,['9'],5,0.14374189999944065,,,,,,,,30,18,Vrouw,Rechts,2,
,dotcolour,dotcolour,xotask,34,4,274,574,main,positivefb,-99,hard,36,0.6331763999987743,['n'],1,right,['0'],6,0.09785420000116574,,,,,,,,30,18,Vrouw,Rechts,2,
,dotcolour,dotcolour,xotask,35,4,275,575,main,positivefb,-99,easy,15,0.46745240000018384,['n'],1,right,['0'],6,0.060006899999279995,,,,,,,,30,18,Vrouw,Rechts,2,
,dotcolour,dotcolour,xotask,36,4,276,576,main,positivefb,-99,hard,37,0.734477700003481,['c'],0,right,['8'],4,0.11698840000099153,,,,,,,,30,18,Vrouw,Rechts,2,
,dotcolour,dotcolour,xotask,37,4,277,577,main,positivefb,-99,easy,17,0.6336336999993364,['n'],1,right,['0'],6,0.11152809999839519,,,,,,,,30,18,Vrouw,Rechts,2,
,dotcolour,dotcolour,xotask,38,4,278,578,main,positivefb,-99,easy,19,0.4340569999985746,['n'],1,right,['0'],6,0.10715580000032787,,,,,,,,30,18,Vrouw,Rechts,2,
,dotcolour,dotcolour,xotask,39,4,279,579,main,positivefb,-99,easy,18,0.7842952999999397,['n'],1,right,['0'],6,0.3277544999982638,,,,,,,,30,18,Vrouw,Rechts,2,
,dotcolour,dotcolour,xotask,40,4,280,580,main,positivefb,-99,easy,64,0.5830883999988146,['c'],1,left,['0'],6,0.10100869999951101,,,,,,,,30,18,Vrouw,Rechts,2,
,dotcolour,dotcolour,xotask,41,4,281,581,main,positivefb,-99,hard,36,0.7514573999978893,['n'],1,right,['9'],5,0.2280605000014475,,,,,,,,30,18,Vrouw,Rechts,2,
,dotcolour,dotcolour,xotask,42,4,282,582,main,positivefb,-99,average,28,0.7012696999991022,['c'],0,right,['9'],5,0.08790380000209552,,,,,,,,30,18,Vrouw,Rechts,2,
,dotcolour,dotcolour,xotask,43,4,283,583,main,positivefb,-99,average,53,0.5499750999988464,['c'],1,left,['0'],6,0.2229899000012665,,,,,,,,30,18,Vrouw,Rechts,2,
,dotcolour,dotcolour,xotask,44,4,284,584,main,positivefb,-99,average,52,0.4344831999987946,['c'],1,left,['0'],6,0.1175321000009717,,,,,,,,30,18,Vrouw,Rechts,2,
,dotcolour,dotcolour,xotask,45,4,285,585,main,positivefb,-99,average,52,0.4169003999995766,['c'],1,left,['0'],6,0.15317049999794108,,,,,,,,30,18,Vrouw,Rechts,2,
,dotcolour,dotcolour,xotask,46,4,286,586,main,positivefb,-99,hard,43,0.4338477999990573,['c'],1,left,['0'],6,0.10653989999991609,,,,,,,,30,18,Vrouw,Rechts,2,
,dotcolour,dotcolour,xotask,47,4,287,587,main,positivefb,-99,easy,16,0.633713400002307,['n'],1,right,['9'],5,0.08557669999936479,,,,,,,,30,18,Vrouw,Rechts,2,
,dotcolour,dotcolour,xotask,48,4,288,588,main,positivefb,-99,average,28,0.7837779000001319,['c'],0,right,['0'],6,0.140002000000095,,,,,,,,30,18,Vrouw,Rechts,2,
,dotcolour,dotcolour,xotask,49,4,289,589,main,positivefb,-99,average,29,0.8171246000019892,['n'],1,right,['0'],6,0.0622466999993776,,,,,,,,30,18,Vrouw,Rechts,2,
,dotcolour,dotcolour,xotask,50,4,290,590,main,positivefb,-99,easy,64,1.017329400001472,['c'],1,left,['0'],6,0.14043540000056964,,,,,,,,30,18,Vrouw,Rechts,2,
,dotcolour,dotcolour,xotask,51,4,291,591,main,positivefb,-99,hard,36,1.7014947000025131,['n'],1,right,['9'],5,0.12318530000266037,,,,,,,,30,18,Vrouw,Rechts,2,
,dotcolour,dotcolour,xotask,52,4,292,592,main,positivefb,-99,hard,43,0.8499746000015875,['c'],1,left,['0'],6,0.02994140000009793,,,,,,,,30,18,Vrouw,Rechts,2,
,dotcolour,dotcolour,xotask,53,4,293,593,main,positivefb,-99,hard,41,1.7833145999975386,['n'],0,left,['9'],5,0.5020504999993136,,,,,,,,30,18,Vrouw,Rechts,2,
,dotcolour,dotcolour,xotask,54,4,294,594,main,positivefb,-99,easy,62,0.7182763999990129,['c'],1,left,['0'],6,0.14228739999816753,,,,,,,,30,18,Vrouw,Rechts,2,
,dotcolour,dotcolour,xotask,55,4,295,595,main,positivefb,-99,easy,61,0.4338973999983864,['c'],1,left,['0'],6,0.12797739999950863,,,,,,,,30,18,Vrouw,Rechts,2,
,dotcolour,dotcolour,xotask,56,4,296,596,main,positivefb,-99,hard,35,0.6835260000007111,['n'],1,right,['9'],5,0.1291997000007541,,,,,,,,30,18,Vrouw,Rechts,2,
,dotcolour,dotcolour,xotask,57,4,297,597,main,positivefb,-99,easy,19,1.4848787000009906,['n'],1,right,['0'],6,0.17754280000008293,,,,,,,,30,18,Vrouw,Rechts,2,
,dotcolour,dotcolour,xotask,58,4,298,598,main,positivefb,-99,average,29,0.7009538000020257,['n'],1,right,['9'],5,0.2313300000023446,,,,,,,,30,18,Vrouw,Rechts,2,
,dotcolour,dotcolour,xotask,59,4,299,599,main,positivefb,-99,easy,64,0.6339121000019077,['c'],1,left,['9'],5,0.06168150000303285,,,,,,,,30,18,Vrouw,Rechts,2,
,dotcolour,dotcolour,xotask,0,0,0,600,training,positivefb,96,average,52,0.6182651999988593,['c'],1,left,['0'],6,0.09377139999924111,,,,,,,,30,18,Vrouw,Rechts,2,
,dotcolour,dotcolour,xotask,1,0,1,601,training,positivefb,92,hard,42,0.533049800000299,['c'],1,left,['0'],6,0.05319059999965248,,,,,,,,30,18,Vrouw,Rechts,2,
,dotcolour,dotcolour,xotask,2,0,2,602,training,positivefb,98,average,52,0.3659469000012905,['c'],1,left,['9'],5,1.524508299997251,,,,,,,,30,18,Vrouw,Rechts,2,
,dotcolour,dotcolour,xotask,3,0,3,603,training,positivefb,97,easy,64,0.5009576999982528,['c'],1,left,['9'],5,0.07490139999936218,,,,,,,,30,18,Vrouw,Rechts,2,
,dotcolour,dotcolour,xotask,4,0,4,604,training,positivefb,92,hard,35,0.7334377999977733,['n'],1,right,['9'],5,0.12337660000048345,,,,,,,,30,18,Vrouw,Rechts,2,
,dotcolour,dotcolour,xotask,5,0,5,605,training,positivefb,87,easy,17,0.4840288999985205,['c'],0,right,['8'],4,0.2590898999987985,,,,,,,,30,18,Vrouw,Rechts,2,
,dotcolour,dotcolour,xotask,6,0,6,606,training,positivefb,90,easy,61,0.7501384999995935,['c'],1,left,['9'],5,0.13869179999892367,,,,,,,,30,18,Vrouw,Rechts,2,
,dotcolour,dotcolour,xotask,7,0,7,607,training,positivefb,90,hard,36,1.0335497999985819,['c'],0,right,['8'],4,0.08455989999856683,,,,,,,,30,18,Vrouw,Rechts,2,
,dotcolour,dotcolour,xotask,8,0,8,608,training,positivefb,90,average,51,0.6000391000015952,['c'],1,left,['0'],6,0.1934782999996969,,,,,,,,30,18,Vrouw,Rechts,2,
,dotcolour,dotcolour,xotask,9,0,9,609,training,positivefb,92,average,55,1.1510409000002255,['c'],1,left,['0'],6,0.33181020000120043,,,,,,,,30,18,Vrouw,Rechts,2,
,dotcolour,dotcolour,xotask,10,0,10,610,training,positivefb,94,easy,19,0.933553099999699,['n'],1,right,['9'],5,0.08926559999963501,,,,,,,,30,18,Vrouw,Rechts,2,
,dotcolour,dotcolour,xotask,11,0,11,611,training,positivefb,81,average,25,0.599609100001544,['n'],1,right,['0'],6,0.3899189999974624,,,,,,,,30,18,Vrouw,Rechts,2,
,dotcolour,dotcolour,xotask,12,0,12,612,training,positivefb,97,average,29,0.6342989000004309,['c'],0,right,['0'],6,0.1653379000017594,,,,,,,,30,18,Vrouw,Rechts,2,
,dotcolour,dotcolour,xotask,13,0,13,613,training,positivefb,97,average,26,0.5325539000004937,['n'],1,right,['0'],6,0.09736599999814644,,,,,,,,30,18,Vrouw,Rechts,2,
,dotcolour,dotcolour,xotask,14,0,14,614,training,positivefb,98,average,54,0.6166988999975729,['c'],1,left,['9'],5,0.10095179999916581,,,,,,,,30,18,Vrouw,Rechts,2,
,dotcolour,dotcolour,xotask,15,0,15,615,training,positivefb,65,easy,16,0.6839276999999129,['c'],0,right,['8'],4,0.7093823999966844,,,,,,,,30,18,Vrouw,Rechts,2,
,dotcolour,dotcolour,xotask,16,0,16,616,training,positivefb,96,easy,64,0.6663665000014589,['c'],1,left,['0'],6,0.014801400000578724,,,,,,,,30,18,Vrouw,Rechts,2,
,dotcolour,dotcolour,xotask,17,0,17,617,training,positivefb,99,average,55,0.6171271000021079,['c'],1,left,['0'],6,0.11761449999903562,,,,,,,,30,18,Vrouw,Rechts,2,
,dotcolour,dotcolour,xotask,18,0,18,618,training,positivefb,95,easy,15,0.5669340999993437,['n'],1,right,['0'],6,0.09022219999678782,,,,,,,,30,18,Vrouw,Rechts,2,
,dotcolour,dotcolour,xotask,19,0,19,619,training,positivefb,97,easy,19,0.5347731000001659,['n'],1,right,['0'],6,0.0497691999989911,,,,,,,,30,18,Vrouw,Rechts,2,
,dotcolour,dotcolour,xotask,20,0,20,620,training,positivefb,90,easy,19,0.600921000001108,['n'],1,right,['0'],6,0.0634715000014694,,,,,,,,30,18,Vrouw,Rechts,2,
,dotcolour,dotcolour,xotask,21,0,21,621,training,positivefb,99,easy,62,0.48284589999821037,['n'],0,left,['0'],6,0.08271239999885438,,,,,,,,30,18,Vrouw,Rechts,2,
,dotcolour,dotcolour,xotask,22,0,22,622,training,positivefb,95,easy,17,0.5674987999991572,['n'],1,right,['0'],6,0.07250339999882272,,,,,,,,30,18,Vrouw,Rechts,2,
,dotcolour,dotcolour,xotask,23,0,23,623,training,positivefb,96,hard,35,0.433865799997875,['n'],1,right,['0'],6,0.11683719999928144,,,,,,,,30,18,Vrouw,Rechts,2,
,dotcolour,dotcolour,xotask,24,0,24,624,training,positivefb,99,easy,62,0.2843925000015588,['n'],0,left,['9'],5,0.02862729999833391,,,,,,,,30,18,Vrouw,Rechts,2,
,dotcolour,dotcolour,xotask,25,0,25,625,training,positivefb,96,hard,42,0.3831931999993685,['c'],1,left,['9'],5,0.9965682000001834,,,,,,,,30,18,Vrouw,Rechts,2,
,dotcolour,dotcolour,xotask,26,0,26,626,training,positivefb,97,average,25,0.4001274000002013,['n'],1,right,['9'],5,0.0210999000009906,,,,,,,,30,18,Vrouw,Rechts,2,
,dotcolour,dotcolour,xotask,27,0,27,627,training,positivefb,97,hard,44,0.41736179999861633,['c'],1,left,['9'],5,0.0918454999991809,,,,,,,,30,18,Vrouw,Rechts,2,
