starttime,task,fbtask,firsttask,withinblocktrial,block,withintasktrial,trial,running,feedback,fbscore,difflevel,reddots,rt,resp,cor,cresp,conf_press,cj,RTconf,n_xes,stoptime,sub,age,gender,handedness,session,
1715167764,dotcolour,dotcolour,xotask,0,0,0,0,training,positivefb,99,hard,43,3.951348699999926,['c'],1,left,['3'],4,3.2997795999999653,,,36,19,Vrouw,Links,1,
,dotcolour,dotcolour,xotask,1,0,1,1,training,positivefb,95,average,29,2.532359100000008,['n'],1,right,['2'],5,1.1300666999999294,,,36,19,Vrouw,Links,1,
,dotcolour,dotcolour,xotask,2,0,2,2,training,positivefb,86,average,52,2.199625400000059,['c'],1,left,['1'],6,1.2934056999999939,,,36,19,Vrouw,Links,1,
,dotcolour,dotcolour,xotask,3,0,3,3,training,positivefb,84,easy,61,2.3007023999999774,['c'],1,left,['1'],6,0.7981148999999732,,,36,19,Vrouw,Links,1,
,dotcolour,dotcolour,xotask,4,0,4,4,training,positivefb,62,average,52,5.833793499999956,['c'],1,left,['3'],4,0.5011697999999569,,,36,19,Vrouw,Links,1,
,dotcolour,dotcolour,xotask,5,0,5,5,training,positivefb,100,easy,16,2.432693900000004,['n'],1,right,['2'],5,4.27186729999994,,,36,19,Vrouw,Links,1,
,dotcolour,dotcolour,xotask,6,0,6,6,training,positivefb,5,hard,43,3.6172231000000465,['n'],0,left,['3'],4,4.6038463000001,,,36,19,Vrouw,Links,1,
,dotcolour,dotcolour,xotask,7,0,7,7,training,positivefb,96,easy,61,3.1334309000000076,['c'],1,left,['8'],3,1.8624255999999377,,,36,19,Vrouw,Links,1,
,dotcolour,dotcolour,xotask,8,0,8,8,training,positivefb,81,hard,39,3.083350100000075,['c'],0,right,['3'],4,1.5938175,,,36,19,Vrouw,Links,1,
,dotcolour,dotcolour,xotask,9,0,9,9,training,positivefb,98,hard,36,5.617225800000028,['n'],1,right,['8'],3,3.1373793000000205,,,36,19,Vrouw,Links,1,
,dotcolour,dotcolour,xotask,10,0,10,10,training,positivefb,96,easy,62,1.6159863000000314,['c'],1,left,['2'],5,2.4268955000000005,,,36,19,Vrouw,Links,1,
,dotcolour,dotcolour,xotask,11,0,11,11,training,positivefb,60,average,54,1.5832903000000442,['c'],1,left,['1'],6,0.8904436999999916,,,36,19,Vrouw,Links,1,
,dotcolour,dotcolour,xotask,12,0,12,12,training,positivefb,93,average,28,2.450018899999918,['n'],1,right,['3'],4,1.29348159999995,,,36,19,Vrouw,Links,1,
,dotcolour,dotcolour,xotask,13,0,13,13,training,positivefb,82,easy,16,1.7832365000000436,['n'],1,right,['2'],5,1.0747208999999884,,,36,19,Vrouw,Links,1,
,dotcolour,dotcolour,xotask,14,0,14,14,training,positivefb,83,easy,65,1.651229599999965,['c'],1,left,['1'],6,1.109589700000015,,,36,19,Vrouw,Links,1,
,dotcolour,dotcolour,xotask,15,0,15,15,training,positivefb,62,hard,35,2.483357500000011,['c'],0,right,['3'],4,1.2791733999999906,,,36,19,Vrouw,Links,1,
,dotcolour,dotcolour,xotask,16,0,16,16,training,positivefb,90,easy,19,1.9182673999999906,['n'],1,right,['3'],4,1.1276995000000625,,,36,19,Vrouw,Links,1,
,dotcolour,dotcolour,xotask,17,0,17,17,training,positivefb,94,average,55,1.4830976000000646,['c'],1,left,['2'],5,0.7358975000000783,,,36,19,Vrouw,Links,1,
,dotcolour,dotcolour,xotask,18,0,18,18,training,positivefb,73,hard,42,2.217871700000046,['n'],0,left,['3'],4,0.8499763000000939,,,36,19,Vrouw,Links,1,
,dotcolour,dotcolour,xotask,19,0,19,19,training,positivefb,72,hard,45,2.549797699999999,['n'],0,left,['3'],4,1.4978592999999591,,,36,19,Vrouw,Links,1,
,dotcolour,dotcolour,xotask,20,0,20,20,training,positivefb,82,hard,43,2.784173199999941,['n'],0,left,['3'],4,1.2319559999999683,,,36,19,Vrouw,Links,1,
,dotcolour,dotcolour,xotask,21,0,21,21,training,positivefb,62,hard,39,2.9317208999999593,['c'],0,right,['3'],4,0.6972051999999849,,,36,19,Vrouw,Links,1,
,dotcolour,dotcolour,xotask,22,0,22,22,training,positivefb,57,average,29,1.4342304000000468,['n'],1,right,['2'],5,1.4931685000000243,,,36,19,Vrouw,Links,1,
,dotcolour,dotcolour,xotask,23,0,23,23,training,positivefb,84,average,25,2.4994395999999597,['n'],1,right,['3'],4,0.7971407999999656,,,36,19,Vrouw,Links,1,
,dotcolour,dotcolour,xotask,24,0,24,24,training,positivefb,92,average,28,1.851648100000034,['n'],1,right,['2'],5,0.8198545000000195,,,36,19,Vrouw,Links,1,
,dotcolour,dotcolour,xotask,25,0,25,25,training,positivefb,99,average,25,1.3329923000000008,['n'],1,right,['1'],6,1.0620384000000058,,,36,19,Vrouw,Links,1,
,dotcolour,dotcolour,xotask,26,0,26,26,training,positivefb,63,average,29,2.1332181999999875,['n'],1,right,['1'],6,1.7505556999999499,,,36,19,Vrouw,Links,1,
,dotcolour,dotcolour,xotask,27,0,27,27,training,positivefb,98,easy,61,1.3336091000001034,['c'],1,left,['1'],6,1.091821600000003,,,36,19,Vrouw,Links,1,
,dotcolour,dotcolour,xotask,28,0,28,28,training,positivefb,95,easy,62,1.1493472999999312,['c'],1,left,['1'],6,0.4588563999999451,,,36,19,Vrouw,Links,1,
,dotcolour,dotcolour,xotask,29,0,29,29,training,positivefb,44,hard,35,1.3162487999999257,['n'],1,right,['2'],5,1.5634816000000455,,,36,19,Vrouw,Links,1,
,dotcolour,dotcolour,xotask,30,0,30,30,training,positivefb,77,easy,16,1.3494421999999986,['n'],1,right,['2'],5,0.8076480000000856,,,36,19,Vrouw,Links,1,
,dotcolour,dotcolour,xotask,31,0,31,31,training,positivefb,98,easy,18,1.250906299999997,['n'],1,right,['1'],6,0.4626690000000053,,,36,19,Vrouw,Links,1,
,dotcolour,dotcolour,xotask,32,0,32,32,training,positivefb,99,easy,61,1.1005440000000135,['c'],1,left,['1'],6,0.39273900000000594,,,36,19,Vrouw,Links,1,
,dotcolour,dotcolour,xotask,33,0,33,33,training,positivefb,53,hard,39,1.7323129000000108,['c'],0,right,['2'],5,0.6594657000000552,,,36,19,Vrouw,Links,1,
,dotcolour,dotcolour,xotask,34,0,34,34,training,positivefb,71,average,51,1.333112099999994,['c'],1,left,['1'],6,0.8760698999999477,,,36,19,Vrouw,Links,1,
,dotcolour,dotcolour,xotask,35,0,35,35,training,positivefb,95,easy,63,1.2823915999999826,['c'],1,left,['1'],6,0.6070949999999584,,,36,19,Vrouw,Links,1,
,dotcolour,dotcolour,xotask,36,0,36,36,training,positivefb,89,average,28,1.6992865000000847,['n'],1,right,['2'],5,1.938505599999985,,,36,19,Vrouw,Links,1,
,dotcolour,dotcolour,xotask,37,0,37,37,training,positivefb,82,average,53,1.3182182000000466,['c'],1,left,['2'],5,1.0563044000000446,,,36,19,Vrouw,Links,1,
,dotcolour,dotcolour,xotask,38,0,38,38,training,positivefb,95,average,51,1.2837504000000308,['c'],1,left,['3'],4,0.6834552999999914,,,36,19,Vrouw,Links,1,
,dotcolour,dotcolour,xotask,39,0,39,39,training,positivefb,98,hard,44,2.200083800000016,['c'],1,left,['3'],4,0.8000690999999733,,,36,19,Vrouw,Links,1,
,dotcolour,dotcolour,xotask,40,0,40,40,training,positivefb,99,average,55,1.1318354,['c'],1,left,['2'],5,1.9237428999999793,,,36,19,Vrouw,Links,1,
,dotcolour,dotcolour,xotask,41,0,41,41,training,positivefb,63,hard,38,1.351127500000075,['n'],1,right,['3'],4,1.2484461999999894,,,36,19,Vrouw,Links,1,
,dotcolour,dotcolour,xotask,42,0,42,42,training,positivefb,99,easy,18,1.182225600000038,['n'],1,right,['1'],6,1.2001940000000104,,,36,19,Vrouw,Links,1,
,dotcolour,dotcolour,xotask,43,0,43,43,training,positivefb,92,easy,17,1.1167939999999135,['n'],1,right,['1'],6,0.4914783000000398,,,36,19,Vrouw,Links,1,
,dotcolour,dotcolour,xotask,44,0,44,44,training,positivefb,73,hard,39,4.266960199999971,['n'],1,right,['3'],4,0.6614806000000044,,,36,19,Vrouw,Links,1,
,dotcolour,dotcolour,xotask,45,0,45,45,training,positivefb,81,hard,45,1.8504198000000542,['n'],0,left,['3'],4,0.5056888999999956,,,36,19,Vrouw,Links,1,
,dotcolour,dotcolour,xotask,46,0,46,46,training,positivefb,99,easy,16,1.0496941999999763,['n'],1,right,['2'],5,0.6271781000000374,,,36,19,Vrouw,Links,1,
,dotcolour,dotcolour,xotask,47,0,47,47,training,positivefb,79,average,26,1.04971670000009,['n'],1,right,['1'],6,0.4974554000000353,,,36,19,Vrouw,Links,1,
,dotcolour,dotcolour,xotask,48,0,48,48,training,positivefb,59,hard,37,3.6165498999999954,['n'],1,right,['3'],4,0.6203004000000192,,,36,19,Vrouw,Links,1,
,dotcolour,dotcolour,xotask,49,0,49,49,training,positivefb,89,hard,37,2.266124800000057,['n'],1,right,['3'],4,0.3138528000000633,,,36,19,Vrouw,Links,1,
,dotcolour,dotcolour,xotask,50,0,50,50,training,positivefb,76,average,53,1.2168658000000505,['c'],1,left,['2'],5,1.0531623999997919,,,36,19,Vrouw,Links,1,
,dotcolour,dotcolour,xotask,51,0,51,51,training,positivefb,73,hard,42,1.733022199999823,['n'],0,left,['3'],4,0.3417544999999791,,,36,19,Vrouw,Links,1,
,dotcolour,dotcolour,xotask,52,0,52,52,training,positivefb,70,hard,44,3.3171621000001323,['n'],0,left,['3'],4,0.651914300000044,,,36,19,Vrouw,Links,1,
,dotcolour,dotcolour,xotask,53,0,53,53,training,positivefb,97,easy,15,1.0164674999998624,['n'],1,right,['2'],5,0.9850719000000936,,,36,19,Vrouw,Links,1,
,dotcolour,dotcolour,xotask,54,0,54,54,training,positivefb,90,average,26,1.4168732999999065,['n'],1,right,['2'],5,0.4174373000000742,,,36,19,Vrouw,Links,1,
,dotcolour,dotcolour,xotask,55,0,55,55,training,positivefb,87,easy,63,1.0500378000001547,['n'],0,left,['1'],6,0.35861210000007304,,,36,19,Vrouw,Links,1,
,dotcolour,dotcolour,xotask,56,0,56,56,training,positivefb,84,hard,42,3.9676630999999816,['c'],1,left,['8'],3,1.6906721000000289,,,36,19,Vrouw,Links,1,
,dotcolour,dotcolour,xotask,57,0,57,57,training,positivefb,93,easy,17,1.5831349000000046,['n'],1,right,['1'],6,0.8959585000000061,,,36,19,Vrouw,Links,1,
,dotcolour,dotcolour,xotask,58,0,58,58,training,positivefb,98,average,55,4.315708099999938,['c'],1,left,['8'],3,3.4310998000000836,,,36,19,Vrouw,Links,1,
,dotcolour,dotcolour,xotask,59,0,59,59,training,positivefb,88,easy,63,1.7501559999998335,['c'],1,left,['1'],6,0.58467359999986,,,36,19,Vrouw,Links,1,
,dotcolour,dotcolour,xotask,0,1,60,60,training,positivefb,82,hard,37,5.2341731999999865,['c'],0,right,['3'],4,1.0949333000000934,,,36,19,Vrouw,Links,1,
,dotcolour,dotcolour,xotask,1,1,61,61,training,positivefb,98,easy,62,2.0175940999999966,['c'],1,left,['1'],6,1.1635191000000304,,,36,19,Vrouw,Links,1,
,dotcolour,dotcolour,xotask,2,1,62,62,training,positivefb,80,hard,42,3.0835830999999416,['n'],0,left,['2'],5,0.9626008000000184,,,36,19,Vrouw,Links,1,
,dotcolour,dotcolour,xotask,3,1,63,63,training,positivefb,94,hard,44,1.733577799999921,['c'],1,left,['2'],5,1.2547902999999678,,,36,19,Vrouw,Links,1,
,dotcolour,dotcolour,xotask,4,1,64,64,training,positivefb,90,easy,62,1.3845037999999477,['c'],1,left,['1'],6,0.4934822999998687,,,36,19,Vrouw,Links,1,
,dotcolour,dotcolour,xotask,5,1,65,65,training,positivefb,94,easy,17,1.3656519000001026,['n'],1,right,['1'],6,0.6595251999999618,,,36,19,Vrouw,Links,1,
,dotcolour,dotcolour,xotask,6,1,66,66,training,positivefb,76,hard,42,2.799251599999934,['n'],0,left,['3'],4,0.8895764000001236,,,36,19,Vrouw,Links,1,
,dotcolour,dotcolour,xotask,7,1,67,67,training,positivefb,92,average,26,2.250067299999955,['n'],1,right,['2'],5,1.077215699999897,,,36,19,Vrouw,Links,1,
,dotcolour,dotcolour,xotask,8,1,68,68,training,positivefb,94,average,26,0.9827287000000524,['n'],1,right,['1'],6,1.0828383000000485,,,36,19,Vrouw,Links,1,
,dotcolour,dotcolour,xotask,9,1,69,69,training,positivefb,74,hard,42,1.9653771000000688,['n'],0,left,['2'],5,0.42442380000011326,,,36,19,Vrouw,Links,1,
,dotcolour,dotcolour,xotask,10,1,70,70,training,positivefb,79,hard,43,1.8495597000000998,['n'],0,left,['2'],5,1.1347733000000062,,,36,19,Vrouw,Links,1,
,dotcolour,dotcolour,xotask,11,1,71,71,training,positivefb,89,average,52,1.6843165000000226,['c'],1,left,['1'],6,0.6777019000001019,,,36,19,Vrouw,Links,1,
,dotcolour,dotcolour,xotask,12,1,72,72,training,positivefb,96,average,29,1.7000808000000234,['n'],1,right,['2'],5,0.9911496999998235,,,36,19,Vrouw,Links,1,
,dotcolour,dotcolour,xotask,13,1,73,73,training,positivefb,86,easy,19,1.133936100000028,['n'],1,right,['1'],6,0.35517879999997604,,,36,19,Vrouw,Links,1,
,dotcolour,dotcolour,xotask,14,1,74,74,training,positivefb,83,hard,38,1.7167199000000437,['n'],1,right,['2'],5,0.5041129000001092,,,36,19,Vrouw,Links,1,
,dotcolour,dotcolour,xotask,15,1,75,75,training,positivefb,65,average,53,1.59998429999996,['c'],1,left,['2'],5,1.667558999999983,,,36,19,Vrouw,Links,1,
,dotcolour,dotcolour,xotask,16,1,76,76,training,positivefb,91,easy,64,1.7835998999998992,['c'],1,left,['2'],5,1.51488489999997,,,36,19,Vrouw,Links,1,
,dotcolour,dotcolour,xotask,17,1,77,77,training,positivefb,94,average,54,1.5828891000001022,['c'],1,left,['2'],5,0.43036499999993794,,,36,19,Vrouw,Links,1,
,dotcolour,dotcolour,xotask,18,1,78,78,training,positivefb,87,average,28,1.617304699999977,['n'],1,right,['2'],5,3.5419965000000957,,,36,19,Vrouw,Links,1,
,dotcolour,dotcolour,xotask,19,1,79,79,training,positivefb,97,easy,63,1.500438400000121,['c'],1,left,['1'],6,0.4280604000000494,,,36,19,Vrouw,Links,1,
,dotcolour,dotcolour,xotask,20,1,80,80,training,positivefb,94,hard,37,1.9676595000000816,['n'],1,right,['3'],4,1.8043614000000616,,,36,19,Vrouw,Links,1,
,dotcolour,dotcolour,xotask,21,1,81,81,training,positivefb,30,easy,62,2.9165806000000885,['n'],0,left,['3'],4,1.1926386000000093,,,36,19,Vrouw,Links,1,
,dotcolour,dotcolour,xotask,22,1,82,82,training,positivefb,95,hard,37,2.3326907999999094,['n'],1,right,['2'],5,1.31493260000002,,,36,19,Vrouw,Links,1,
,dotcolour,dotcolour,xotask,23,1,83,83,training,positivefb,71,average,28,4.583307600000126,['n'],1,right,['3'],4,1.5514851999998882,,,36,19,Vrouw,Links,1,
,dotcolour,dotcolour,xotask,24,1,84,84,training,positivefb,66,hard,45,3.8342695999999705,['n'],0,left,['3'],4,0.32053480000013224,,,36,19,Vrouw,Links,1,
,dotcolour,dotcolour,xotask,25,1,85,85,training,positivefb,98,average,51,2.981907999999976,['c'],1,left,['2'],5,0.9891886000000341,,,36,19,Vrouw,Links,1,
,dotcolour,dotcolour,xotask,26,1,86,86,training,positivefb,87,hard,36,1.1835424999999304,['n'],1,right,['2'],5,0.5017117999998391,,,36,19,Vrouw,Links,1,
,dotcolour,dotcolour,xotask,27,1,87,87,training,positivefb,84,hard,38,1.8500765000001138,['n'],1,right,['3'],4,0.42404689999989387,,,36,19,Vrouw,Links,1,
,dotcolour,dotcolour,xotask,28,1,88,88,training,positivefb,93,hard,38,1.5996056999999837,['n'],1,right,['3'],4,0.3916452000000845,,,36,19,Vrouw,Links,1,
,dotcolour,dotcolour,xotask,29,1,89,89,training,positivefb,99,easy,19,1.9669695000000047,['n'],1,right,['2'],5,0.8253045999999813,,,36,19,Vrouw,Links,1,
,dotcolour,dotcolour,xotask,30,1,90,90,training,positivefb,94,average,54,1.2832491000001482,['c'],1,left,['2'],5,0.34980570000016087,,,36,19,Vrouw,Links,1,
,dotcolour,dotcolour,xotask,31,1,91,91,training,positivefb,92,hard,38,1.7338638999999603,['n'],1,right,['3'],4,0.5301972000002024,,,36,19,Vrouw,Links,1,
,dotcolour,dotcolour,xotask,32,1,92,92,training,positivefb,86,hard,37,1.633274799999981,['n'],1,right,['3'],4,0.29982049999989613,,,36,19,Vrouw,Links,1,
,dotcolour,dotcolour,xotask,33,1,93,93,training,positivefb,85,average,28,1.9499130000001514,['n'],1,right,['3'],4,0.3066908999999214,,,36,19,Vrouw,Links,1,
,dotcolour,dotcolour,xotask,34,1,94,94,training,positivefb,87,average,55,1.7671549000001505,['c'],1,left,['2'],5,0.3278534999999465,,,36,19,Vrouw,Links,1,
,dotcolour,dotcolour,xotask,35,1,95,95,training,positivefb,98,easy,16,1.1334882999999536,['n'],1,right,['1'],6,0.32516340000006494,,,36,19,Vrouw,Links,1,
,dotcolour,dotcolour,xotask,36,1,96,96,training,positivefb,60,hard,41,3.9836589999999887,['n'],0,left,['2'],5,0.7940819999998894,,,36,19,Vrouw,Links,1,
,dotcolour,dotcolour,xotask,37,1,97,97,training,positivefb,88,average,52,2.800866600000063,['c'],1,left,['2'],5,0.37888550000002397,,,36,19,Vrouw,Links,1,
,dotcolour,dotcolour,xotask,38,1,98,98,training,positivefb,88,average,26,1.6994723999998769,['n'],1,right,['2'],5,0.7123189000001275,,,36,19,Vrouw,Links,1,
,dotcolour,dotcolour,xotask,39,1,99,99,training,positivefb,99,easy,16,1.1668423000000985,['n'],1,right,['1'],6,0.45294300000000476,,,36,19,Vrouw,Links,1,
,dotcolour,dotcolour,xotask,40,1,100,100,training,positivefb,94,easy,16,1.199900800000023,['n'],1,right,['1'],6,0.5150254000000132,,,36,19,Vrouw,Links,1,
,dotcolour,dotcolour,xotask,41,1,101,101,training,positivefb,70,average,27,1.733284299999923,['n'],1,right,['1'],6,0.3775543000001562,,,36,19,Vrouw,Links,1,
,dotcolour,dotcolour,xotask,42,1,102,102,training,positivefb,87,average,53,0.9998339000001124,['c'],1,left,['2'],5,0.7873078999998597,,,36,19,Vrouw,Links,1,
,dotcolour,dotcolour,xotask,43,1,103,103,training,positivefb,34,hard,41,4.533821500000158,['n'],0,left,['8'],3,0.8139998000001469,,,36,19,Vrouw,Links,1,
,dotcolour,dotcolour,xotask,44,1,104,104,training,positivefb,44,average,29,3.367607399999997,['c'],0,right,['3'],4,3.104058699999996,,,36,19,Vrouw,Links,1,
,dotcolour,dotcolour,xotask,45,1,105,105,training,positivefb,89,easy,61,1.7666085000000749,['c'],1,left,['2'],5,0.4609032999999272,,,36,19,Vrouw,Links,1,
,dotcolour,dotcolour,xotask,46,1,106,106,training,positivefb,97,easy,62,1.1494560999999521,['c'],1,left,['2'],5,0.3970319999998537,,,36,19,Vrouw,Links,1,
,dotcolour,dotcolour,xotask,47,1,107,107,training,positivefb,99,easy,15,1.5179815999999846,['n'],1,right,['2'],5,1.0814033999999992,,,36,19,Vrouw,Links,1,
,dotcolour,dotcolour,xotask,48,1,108,108,training,positivefb,92,hard,42,1.534173699999883,['c'],1,left,['2'],5,0.9375222999999551,,,36,19,Vrouw,Links,1,
,dotcolour,dotcolour,xotask,49,1,109,109,training,positivefb,93,average,52,0.8493481000000429,['c'],1,left,['2'],5,0.3697660000000269,,,36,19,Vrouw,Links,1,
,dotcolour,dotcolour,xotask,50,1,110,110,training,positivefb,86,average,54,0.7653933000001416,['c'],1,left,['2'],5,0.34022410000011405,,,36,19,Vrouw,Links,1,
,dotcolour,dotcolour,xotask,51,1,111,111,training,positivefb,98,easy,19,0.9495014999999967,['n'],1,right,['8'],3,0.3605853000001389,,,36,19,Vrouw,Links,1,
,dotcolour,dotcolour,xotask,52,1,112,112,training,positivefb,72,easy,15,3.583806900000127,['n'],1,right,['1'],6,0.45199830000001384,,,36,19,Vrouw,Links,1,
,dotcolour,dotcolour,xotask,53,1,113,113,training,positivefb,92,easy,62,1.083897400000069,['c'],1,left,['1'],6,0.7186212999999952,,,36,19,Vrouw,Links,1,
,dotcolour,dotcolour,xotask,54,1,114,114,training,positivefb,89,hard,41,1.3318644000000859,['n'],0,left,['3'],4,0.35614350000014383,,,36,19,Vrouw,Links,1,
,dotcolour,dotcolour,xotask,55,1,115,115,training,positivefb,99,easy,61,1.4654360000001816,['c'],1,left,['1'],6,0.6282229999999345,,,36,19,Vrouw,Links,1,
,dotcolour,dotcolour,xotask,56,1,116,116,training,positivefb,49,hard,38,2.799246099999891,['n'],1,right,['3'],4,2.539806100000078,,,36,19,Vrouw,Links,1,
,dotcolour,dotcolour,xotask,57,1,117,117,training,positivefb,100,easy,18,2.016793000000007,['n'],1,right,['2'],5,3.469267299999956,,,36,19,Vrouw,Links,1,
,dotcolour,dotcolour,xotask,58,1,118,118,training,positivefb,93,easy,64,2.584303699999964,['c'],1,left,['1'],6,0.7385718000000452,,,36,19,Vrouw,Links,1,
,dotcolour,dotcolour,xotask,59,1,119,119,training,positivefb,91,average,26,1.6333170000000337,['n'],1,right,['2'],5,0.6035870000000614,,,36,19,Vrouw,Links,1,
,xotask,dotcolour,xotask,0,2,120,120,main,positivefb,-99,easy,,2.317021600000089,['n'],1,right,['3'],4,1.6975403999999799,6,,36,19,Vrouw,Links,1,
,xotask,dotcolour,xotask,1,2,121,121,main,positivefb,-99,hard,,3.199669399999948,['c'],1,left,['2'],5,1.8148449000000255,52,,36,19,Vrouw,Links,1,
,xotask,dotcolour,xotask,2,2,122,122,main,positivefb,-99,easy,,1.6167871000000105,['n'],1,right,['2'],5,1.5110950000000685,5,,36,19,Vrouw,Links,1,
,xotask,dotcolour,xotask,3,2,123,123,main,positivefb,-99,hard,,2.733868100000109,['c'],1,left,['8'],3,0.9345384999999169,53,,36,19,Vrouw,Links,1,
,xotask,dotcolour,xotask,4,2,124,124,main,positivefb,-99,average,,1.550130500000023,['n'],1,right,['3'],4,1.8837968999998793,18,,36,19,Vrouw,Links,1,
,xotask,dotcolour,xotask,5,2,125,125,main,positivefb,-99,easy,,2.200029500000028,['c'],1,left,['1'],6,1.0819512999999006,72,,36,19,Vrouw,Links,1,
,xotask,dotcolour,xotask,6,2,126,126,main,positivefb,-99,average,,1.6333180999999968,['c'],1,left,['2'],5,0.6140333000000737,60,,36,19,Vrouw,Links,1,
,xotask,dotcolour,xotask,7,2,127,127,main,positivefb,-99,average,,1.1667750000001433,['c'],1,left,['2'],5,1.1913197000001219,60,,36,19,Vrouw,Links,1,
,xotask,dotcolour,xotask,8,2,128,128,main,positivefb,-99,easy,,1.4172681000000011,['n'],1,right,['1'],6,1.263987199999974,9,,36,19,Vrouw,Links,1,
,xotask,dotcolour,xotask,9,2,129,129,main,positivefb,-99,easy,,1.7506793000000016,['c'],1,left,['1'],6,1.2810930999999073,70,,36,19,Vrouw,Links,1,
,xotask,dotcolour,xotask,10,2,130,130,main,positivefb,-99,average,,1.650436099999979,['n'],1,right,['3'],4,1.58899150000002,17,,36,19,Vrouw,Links,1,
,xotask,dotcolour,xotask,11,2,131,131,main,positivefb,-99,easy,,1.2839196999998421,['c'],1,left,['2'],5,1.6676158000000214,71,,36,19,Vrouw,Links,1,
,xotask,dotcolour,xotask,12,2,132,132,main,positivefb,-99,average,,1.0340380000000096,['n'],1,right,['2'],5,1.055928399999857,16,,36,19,Vrouw,Links,1,
,xotask,dotcolour,xotask,13,2,133,133,main,positivefb,-99,hard,,3.7006336999997984,['n'],1,right,['3'],4,2.042511099999956,28,,36,19,Vrouw,Links,1,
,xotask,dotcolour,xotask,14,2,134,134,main,positivefb,-99,easy,,1.7337007999999514,['c'],1,left,['2'],5,0.7409777999998823,73,,36,19,Vrouw,Links,1,
,xotask,dotcolour,xotask,15,2,135,135,main,positivefb,-99,hard,,1.9169606000000385,['n'],1,right,['1'],6,0.5952882999999929,25,,36,19,Vrouw,Links,1,
,xotask,dotcolour,xotask,16,2,136,136,main,positivefb,-99,easy,,1.233768800000007,['n'],1,right,['1'],6,0.6196664999999939,5,,36,19,Vrouw,Links,1,
,xotask,dotcolour,xotask,17,2,137,137,main,positivefb,-99,hard,,2.2179217000000335,['n'],1,right,['2'],5,2.26705579999998,25,,36,19,Vrouw,Links,1,
,xotask,dotcolour,xotask,18,2,138,138,main,positivefb,-99,easy,,1.2515055000001212,['n'],1,right,['1'],6,0.8796608000000106,8,,36,19,Vrouw,Links,1,
,xotask,dotcolour,xotask,19,2,139,139,main,positivefb,-99,average,,1.7519591000000219,['n'],1,right,['3'],4,0.694743199999948,18,,36,19,Vrouw,Links,1,
,xotask,dotcolour,xotask,20,2,140,140,main,positivefb,-99,average,,1.249078900000086,['c'],1,left,['2'],5,1.585818300000028,63,,36,19,Vrouw,Links,1,
,xotask,dotcolour,xotask,21,2,141,141,main,positivefb,-99,easy,,1.4180730000000494,['n'],0,left,['9'],2,3.9237123999998857,70,,36,19,Vrouw,Links,1,
,xotask,dotcolour,xotask,22,2,142,142,main,positivefb,-99,hard,,2.6679801000000225,['c'],0,right,['3'],4,1.1083768000000873,26,,36,19,Vrouw,Links,1,
,xotask,dotcolour,xotask,23,2,143,143,main,positivefb,-99,hard,,2.2504781000000094,['c'],1,left,['2'],5,0.8874631999999565,53,,36,19,Vrouw,Links,1,
,xotask,dotcolour,xotask,24,2,144,144,main,positivefb,-99,hard,,1.5832768000000215,['c'],1,left,['2'],5,0.6063824000000295,53,,36,19,Vrouw,Links,1,
,xotask,dotcolour,xotask,25,2,145,145,main,positivefb,-99,easy,,1.8180438000001686,['n'],1,right,['9'],2,0.653612399999929,6,,36,19,Vrouw,Links,1,
,xotask,dotcolour,xotask,26,2,146,146,main,positivefb,-99,hard,,3.350781599999891,['n'],1,right,['3'],4,1.1827630000000227,29,,36,19,Vrouw,Links,1,
,xotask,dotcolour,xotask,27,2,147,147,main,positivefb,-99,average,,1.2507478999998511,['n'],1,right,['2'],5,0.9495110000000295,16,,36,19,Vrouw,Links,1,
,xotask,dotcolour,xotask,28,2,148,148,main,positivefb,-99,average,,2.3504684999998062,['c'],0,right,['2'],5,0.4902962999999545,19,,36,19,Vrouw,Links,1,
,xotask,dotcolour,xotask,29,2,149,149,main,positivefb,-99,average,,1.0494097000000693,['c'],1,left,['2'],5,0.3742360999999619,64,,36,19,Vrouw,Links,1,
,xotask,dotcolour,xotask,30,2,150,150,main,positivefb,-99,hard,,0.9003450000000157,['c'],1,left,['2'],5,0.6117123999999876,50,,36,19,Vrouw,Links,1,
,xotask,dotcolour,xotask,31,2,151,151,main,positivefb,-99,average,,0.7838219000000208,['c'],1,left,['1'],6,0.5100609999999506,63,,36,19,Vrouw,Links,1,
,xotask,dotcolour,xotask,32,2,152,152,main,positivefb,-99,hard,,1.3011297000000468,['c'],1,left,['3'],4,1.7497366000000056,54,,36,19,Vrouw,Links,1,
,xotask,dotcolour,xotask,33,2,153,153,main,positivefb,-99,average,,1.6679345999998532,['n'],1,right,['2'],5,0.5107196000001295,19,,36,19,Vrouw,Links,1,
,xotask,dotcolour,xotask,34,2,154,154,main,positivefb,-99,easy,,0.7495777999999973,['n'],1,right,['1'],6,0.44475139999985913,5,,36,19,Vrouw,Links,1,
,xotask,dotcolour,xotask,35,2,155,155,main,positivefb,-99,easy,,0.8506901000000653,['n'],1,right,['1'],6,0.5543493999998645,6,,36,19,Vrouw,Links,1,
,xotask,dotcolour,xotask,36,2,156,156,main,positivefb,-99,easy,,1.4342015999998239,['c'],1,left,['1'],6,0.5710509000000457,71,,36,19,Vrouw,Links,1,
,xotask,dotcolour,xotask,37,2,157,157,main,positivefb,-99,average,,2.783325800000057,['c'],1,left,['3'],4,1.9187988000001042,62,,36,19,Vrouw,Links,1,
,xotask,dotcolour,xotask,38,2,158,158,main,positivefb,-99,hard,,2.035558700000138,['c'],1,left,['3'],4,0.785180500000024,51,,36,19,Vrouw,Links,1,
,xotask,dotcolour,xotask,39,2,159,159,main,positivefb,-99,hard,,3.566954899999928,['c'],0,right,['3'],4,0.8514364000000114,25,,36,19,Vrouw,Links,1,
,xotask,dotcolour,xotask,40,2,160,160,main,positivefb,-99,average,,1.2831776000000445,['n'],1,right,['3'],4,1.0159854999999425,15,,36,19,Vrouw,Links,1,
,xotask,dotcolour,xotask,41,2,161,161,main,positivefb,-99,average,,3.6007574000000204,['n'],0,left,['3'],4,1.3589928999999756,60,,36,19,Vrouw,Links,1,
,xotask,dotcolour,xotask,42,2,162,162,main,positivefb,-99,hard,,1.3515952000000198,['c'],1,left,['2'],5,0.6360366999999769,52,,36,19,Vrouw,Links,1,
,xotask,dotcolour,xotask,43,2,163,163,main,positivefb,-99,easy,,0.7330349999999726,['c'],1,left,['2'],5,0.3423055000000659,70,,36,19,Vrouw,Links,1,
,xotask,dotcolour,xotask,44,2,164,164,main,positivefb,-99,hard,,1.0672263999999814,['c'],0,right,['3'],4,0.5017994999998336,27,,36,19,Vrouw,Links,1,
,xotask,dotcolour,xotask,45,2,165,165,main,positivefb,-99,average,,1.0505832000001192,['n'],1,right,['3'],4,1.3935824000000139,15,,36,19,Vrouw,Links,1,
,xotask,dotcolour,xotask,46,2,166,166,main,positivefb,-99,average,,1.467001499999924,['n'],1,right,['3'],4,1.0958599000000504,18,,36,19,Vrouw,Links,1,
,xotask,dotcolour,xotask,47,2,167,167,main,positivefb,-99,hard,,1.3511353999999756,['c'],1,left,['2'],5,1.5432630000000245,50,,36,19,Vrouw,Links,1,
,xotask,dotcolour,xotask,48,2,168,168,main,positivefb,-99,hard,,0.9504348000000391,['c'],0,right,['3'],4,0.5005764999998519,26,,36,19,Vrouw,Links,1,
,xotask,dotcolour,xotask,49,2,169,169,main,positivefb,-99,easy,,1.083961699999918,['c'],1,left,['1'],6,0.47003590000008444,74,,36,19,Vrouw,Links,1,
,xotask,dotcolour,xotask,50,2,170,170,main,positivefb,-99,average,,1.4675271999999495,['c'],1,left,['2'],5,0.7933223999998518,60,,36,19,Vrouw,Links,1,
,xotask,dotcolour,xotask,51,2,171,171,main,positivefb,-99,easy,,0.9841827999998713,['c'],1,left,['2'],5,0.5551348999999846,71,,36,19,Vrouw,Links,1,
,xotask,dotcolour,xotask,52,2,172,172,main,positivefb,-99,average,,0.9335605000001124,['c'],1,left,['3'],4,0.7854449999999815,64,,36,19,Vrouw,Links,1,
,xotask,dotcolour,xotask,53,2,173,173,main,positivefb,-99,easy,,0.9181874000000789,['c'],1,left,['3'],4,0.5813435999998546,71,,36,19,Vrouw,Links,1,
,xotask,dotcolour,xotask,54,2,174,174,main,positivefb,-99,hard,,5.0836623000000145,['n'],1,right,['3'],4,0.5955396999997902,29,,36,19,Vrouw,Links,1,
,xotask,dotcolour,xotask,55,2,175,175,main,positivefb,-99,easy,,1.0500134999999773,['n'],1,right,['1'],6,0.6195494999999482,6,,36,19,Vrouw,Links,1,
,xotask,dotcolour,xotask,56,2,176,176,main,positivefb,-99,easy,,1.0346439999998438,['n'],1,right,['2'],5,0.457811399999855,9,,36,19,Vrouw,Links,1,
,xotask,dotcolour,xotask,57,2,177,177,main,positivefb,-99,average,,0.8670646000000488,['c'],1,left,['1'],6,0.7262295000000449,60,,36,19,Vrouw,Links,1,
,xotask,dotcolour,xotask,58,2,178,178,main,positivefb,-99,hard,,0.9669272999999521,['c'],1,left,['2'],5,0.5875872999999956,53,,36,19,Vrouw,Links,1,
,xotask,dotcolour,xotask,59,2,179,179,main,positivefb,-99,hard,,1.5005455999998958,['n'],1,right,['2'],5,0.8970088000000942,27,,36,19,Vrouw,Links,1,
,xotask,dotcolour,xotask,0,3,180,180,main,positivefb,-99,hard,,1.5341712000001735,['n'],1,right,['2'],5,0.42237310000018624,26,,36,19,Vrouw,Links,1,
,xotask,dotcolour,xotask,1,3,181,181,main,positivefb,-99,easy,,1.4171294000000216,['c'],1,left,['1'],6,0.2938093000000208,70,,36,19,Vrouw,Links,1,
,xotask,dotcolour,xotask,2,3,182,182,main,positivefb,-99,hard,,0.9668950999998742,['c'],1,left,['1'],6,0.30055349999997816,53,,36,19,Vrouw,Links,1,
,xotask,dotcolour,xotask,3,3,183,183,main,positivefb,-99,easy,,0.8501921999998103,['c'],1,left,['2'],5,0.6232867999999598,72,,36,19,Vrouw,Links,1,
,xotask,dotcolour,xotask,4,3,184,184,main,positivefb,-99,average,,1.1339176000001316,['c'],1,left,['3'],4,0.6582378000000517,62,,36,19,Vrouw,Links,1,
,xotask,dotcolour,xotask,5,3,185,185,main,positivefb,-99,average,,0.9004662999998345,['n'],1,right,['2'],5,2.916273100000126,17,,36,19,Vrouw,Links,1,
,xotask,dotcolour,xotask,6,3,186,186,main,positivefb,-99,average,,1.9512337999999545,['n'],1,right,['3'],4,0.46662590000005366,16,,36,19,Vrouw,Links,1,
,xotask,dotcolour,xotask,7,3,187,187,main,positivefb,-99,easy,,1.0166361999999936,['n'],1,right,['2'],5,0.9040075000000343,8,,36,19,Vrouw,Links,1,
,xotask,dotcolour,xotask,8,3,188,188,main,positivefb,-99,average,,1.001350999999886,['n'],1,right,['3'],4,0.4364138000000821,19,,36,19,Vrouw,Links,1,
,xotask,dotcolour,xotask,9,3,189,189,main,positivefb,-99,average,,1.3844017000001259,['n'],0,left,['3'],4,0.780569499999956,63,,36,19,Vrouw,Links,1,
,xotask,dotcolour,xotask,10,3,190,190,main,positivefb,-99,hard,,1.8169972000000598,['n'],1,right,['2'],5,0.6386778999999478,27,,36,19,Vrouw,Links,1,
,xotask,dotcolour,xotask,11,3,191,191,main,positivefb,-99,easy,,1.083822100000134,['c'],1,left,['2'],5,0.41080239999996593,73,,36,19,Vrouw,Links,1,
,xotask,dotcolour,xotask,12,3,192,192,main,positivefb,-99,average,,1.6500105000000076,['n'],1,right,['3'],4,0.65746809999996,18,,36,19,Vrouw,Links,1,
,xotask,dotcolour,xotask,13,3,193,193,main,positivefb,-99,hard,,1.884720699999889,['c'],1,left,['3'],4,0.7962770999999975,50,,36,19,Vrouw,Links,1,
,xotask,dotcolour,xotask,14,3,194,194,main,positivefb,-99,hard,,2.284094800000048,['c'],1,left,['3'],4,0.6259718999999677,52,,36,19,Vrouw,Links,1,
,xotask,dotcolour,xotask,15,3,195,195,main,positivefb,-99,hard,,0.9676970999998957,['n'],1,right,['2'],5,1.211777500000153,25,,36,19,Vrouw,Links,1,
,xotask,dotcolour,xotask,16,3,196,196,main,positivefb,-99,hard,,1.0505318999998963,['c'],1,left,['2'],5,0.9306573000001208,51,,36,19,Vrouw,Links,1,
,xotask,dotcolour,xotask,17,3,197,197,main,positivefb,-99,hard,,1.1841694999998253,['c'],1,left,['2'],5,0.42265599999996084,52,,36,19,Vrouw,Links,1,
,xotask,dotcolour,xotask,18,3,198,198,main,positivefb,-99,average,,1.1338403999998263,['n'],1,right,['2'],5,1.0506980000000112,19,,36,19,Vrouw,Links,1,
,xotask,dotcolour,xotask,19,3,199,199,main,positivefb,-99,hard,,1.6501665000000685,['n'],1,right,['3'],4,0.4553046999999424,25,,36,19,Vrouw,Links,1,
,xotask,dotcolour,xotask,20,3,200,200,main,positivefb,-99,hard,,9.900662400000101,['c'],0,right,['3'],4,1.2813387000001057,28,,36,19,Vrouw,Links,1,
,xotask,dotcolour,xotask,21,3,201,201,main,positivefb,-99,average,,3.9008633999999347,['c'],0,right,['3'],4,1.7075741999999536,17,,36,19,Vrouw,Links,1,
,xotask,dotcolour,xotask,22,3,202,202,main,positivefb,-99,easy,,1.483951500000103,['n'],1,right,['2'],5,0.6524475999999595,9,,36,19,Vrouw,Links,1,
,xotask,dotcolour,xotask,23,3,203,203,main,positivefb,-99,easy,,1.3669877999998334,['c'],1,left,['2'],5,0.6997237999999015,74,,36,19,Vrouw,Links,1,
,xotask,dotcolour,xotask,24,3,204,204,main,positivefb,-99,average,,2.600378300000102,['c'],0,right,['3'],4,0.6177738999999747,18,,36,19,Vrouw,Links,1,
,xotask,dotcolour,xotask,25,3,205,205,main,positivefb,-99,hard,,1.5847590999999284,['n'],1,right,['3'],4,0.5545110999998997,27,,36,19,Vrouw,Links,1,
,xotask,dotcolour,xotask,26,3,206,206,main,positivefb,-99,average,,0.9664087999999538,['c'],1,left,['2'],5,0.4787003999999797,64,,36,19,Vrouw,Links,1,
,xotask,dotcolour,xotask,27,3,207,207,main,positivefb,-99,hard,,1.2012240999999904,['c'],1,left,['3'],4,0.4443992999999864,51,,36,19,Vrouw,Links,1,
,xotask,dotcolour,xotask,28,3,208,208,main,positivefb,-99,easy,,1.0006464000000506,['c'],1,left,['1'],6,0.5230618000000504,74,,36,19,Vrouw,Links,1,
,xotask,dotcolour,xotask,29,3,209,209,main,positivefb,-99,hard,,1.8673545999999988,['n'],1,right,['3'],4,2.0365578999999343,25,,36,19,Vrouw,Links,1,
,xotask,dotcolour,xotask,30,3,210,210,main,positivefb,-99,easy,,0.8512155999999322,['n'],1,right,['1'],6,0.4983441000001676,6,,36,19,Vrouw,Links,1,
,xotask,dotcolour,xotask,31,3,211,211,main,positivefb,-99,hard,,1.5999870000000556,['c'],1,left,['2'],5,0.9032749999998941,51,,36,19,Vrouw,Links,1,
,xotask,dotcolour,xotask,32,3,212,212,main,positivefb,-99,hard,,1.700501099999883,['n'],0,left,['3'],4,1.1523749999998927,52,,36,19,Vrouw,Links,1,
,xotask,dotcolour,xotask,33,3,213,213,main,positivefb,-99,hard,,1.8674100000000635,['c'],1,left,['3'],4,0.5681491000000278,53,,36,19,Vrouw,Links,1,
,xotask,dotcolour,xotask,34,3,214,214,main,positivefb,-99,average,,0.9508711999999377,['c'],1,left,['3'],4,0.5802092000001267,64,,36,19,Vrouw,Links,1,
,xotask,dotcolour,xotask,35,3,215,215,main,positivefb,-99,easy,,2.5844419000000016,['c'],1,left,['3'],4,0.5516550999998344,71,,36,19,Vrouw,Links,1,
,xotask,dotcolour,xotask,36,3,216,216,main,positivefb,-99,average,,1.167518100000052,['n'],1,right,['2'],5,0.8589621999999508,19,,36,19,Vrouw,Links,1,
,xotask,dotcolour,xotask,37,3,217,217,main,positivefb,-99,average,,1.249804999999924,['c'],1,left,['2'],5,0.6080956000000697,60,,36,19,Vrouw,Links,1,
,xotask,dotcolour,xotask,38,3,218,218,main,positivefb,-99,easy,,2.017449200000101,['n'],1,right,['2'],5,1.3204547000000275,9,,36,19,Vrouw,Links,1,
,xotask,dotcolour,xotask,39,3,219,219,main,positivefb,-99,easy,,1.0672621999999592,['c'],1,left,['2'],5,0.7294956999999158,71,,36,19,Vrouw,Links,1,
,xotask,dotcolour,xotask,40,3,220,220,main,positivefb,-99,average,,2.0004560999998375,['c'],1,left,['2'],5,0.42122889999996005,64,,36,19,Vrouw,Links,1,
,xotask,dotcolour,xotask,41,3,221,221,main,positivefb,-99,hard,,1.166508100000101,['n'],1,right,['3'],4,0.6703620999999202,25,,36,19,Vrouw,Links,1,
,xotask,dotcolour,xotask,42,3,222,222,main,positivefb,-99,hard,,1.6344144999998207,['c'],1,left,['3'],4,0.5877762000000075,52,,36,19,Vrouw,Links,1,
,xotask,dotcolour,xotask,43,3,223,223,main,positivefb,-99,easy,,3.3341310999999223,['n'],1,right,['3'],4,0.9601357999999891,7,,36,19,Vrouw,Links,1,
,xotask,dotcolour,xotask,44,3,224,224,main,positivefb,-99,easy,,1.6669624000001022,['n'],1,right,['2'],5,0.4633361999999579,9,,36,19,Vrouw,Links,1,
,xotask,dotcolour,xotask,45,3,225,225,main,positivefb,-99,easy,,0.9343089000001328,['c'],1,left,['1'],6,0.4495313999998416,70,,36,19,Vrouw,Links,1,
,xotask,dotcolour,xotask,46,3,226,226,main,positivefb,-99,easy,,1.9332398999999896,['c'],1,left,['1'],6,0.6027887000000192,73,,36,19,Vrouw,Links,1,
,xotask,dotcolour,xotask,47,3,227,227,main,positivefb,-99,average,,2.3341554999999516,['n'],1,right,['2'],5,1.5907297000001108,17,,36,19,Vrouw,Links,1,
,xotask,dotcolour,xotask,48,3,228,228,main,positivefb,-99,hard,,1.6842098999998143,['c'],0,right,['2'],5,0.7242310999999972,29,,36,19,Vrouw,Links,1,
,xotask,dotcolour,xotask,49,3,229,229,main,positivefb,-99,easy,,0.9836322999999538,['n'],1,right,['1'],6,0.5124114000000191,7,,36,19,Vrouw,Links,1,
,xotask,dotcolour,xotask,50,3,230,230,main,positivefb,-99,easy,,1.0174036999999316,['n'],1,right,['1'],6,0.4444828000000598,7,,36,19,Vrouw,Links,1,
,xotask,dotcolour,xotask,51,3,231,231,main,positivefb,-99,average,,1.583767299999863,['c'],1,left,['3'],4,1.372716999999966,62,,36,19,Vrouw,Links,1,
,xotask,dotcolour,xotask,52,3,232,232,main,positivefb,-99,average,,1.9171484999999393,['c'],0,right,['3'],4,0.3783209999999144,19,,36,19,Vrouw,Links,1,
,xotask,dotcolour,xotask,53,3,233,233,main,positivefb,-99,average,,1.0675694000001386,['c'],1,left,['2'],5,0.3769981000000371,62,,36,19,Vrouw,Links,1,
,xotask,dotcolour,xotask,54,3,234,234,main,positivefb,-99,easy,,0.8341368999999759,['c'],1,left,['1'],6,0.45067660000017895,74,,36,19,Vrouw,Links,1,
,xotask,dotcolour,xotask,55,3,235,235,main,positivefb,-99,average,,1.0837289999999484,['c'],1,left,['2'],5,0.8699659999999767,60,,36,19,Vrouw,Links,1,
,xotask,dotcolour,xotask,56,3,236,236,main,positivefb,-99,easy,,0.8006781000001411,['c'],0,right,['9'],2,2.364067700000078,8,,36,19,Vrouw,Links,1,
,xotask,dotcolour,xotask,57,3,237,237,main,positivefb,-99,average,,2.800231599999961,['c'],1,left,['2'],5,0.5425981999999294,62,,36,19,Vrouw,Links,1,
,xotask,dotcolour,xotask,58,3,238,238,main,positivefb,-99,hard,,0.8841797000000042,['n'],1,right,['2'],5,0.5750977999998668,29,,36,19,Vrouw,Links,1,
,xotask,dotcolour,xotask,59,3,239,239,main,positivefb,-99,easy,,0.9347582999998849,['n'],1,right,['1'],6,0.3797391999999036,9,,36,19,Vrouw,Links,1,
,xotask,dotcolour,xotask,0,4,240,240,main,positivefb,-99,average,,1.850190800000064,['c'],1,left,['2'],5,0.36291929999993044,63,,36,19,Vrouw,Links,1,
,xotask,dotcolour,xotask,1,4,241,241,main,positivefb,-99,average,,1.2844953999999689,['c'],1,left,['2'],5,0.31373149999990346,60,,36,19,Vrouw,Links,1,
,xotask,dotcolour,xotask,2,4,242,242,main,positivefb,-99,easy,,0.934292300000152,['n'],1,right,['3'],4,0.8734011999999893,5,,36,19,Vrouw,Links,1,
,xotask,dotcolour,xotask,3,4,243,243,main,positivefb,-99,easy,,0.8669754000000012,['c'],1,left,['2'],5,0.29333820000010746,74,,36,19,Vrouw,Links,1,
,xotask,dotcolour,xotask,4,4,244,244,main,positivefb,-99,hard,,1.0175702000001365,['n'],1,right,['2'],5,0.29035750000002736,29,,36,19,Vrouw,Links,1,
,xotask,dotcolour,xotask,5,4,245,245,main,positivefb,-99,easy,,0.750622900000053,['n'],1,right,['1'],6,0.528964999999971,9,,36,19,Vrouw,Links,1,
,xotask,dotcolour,xotask,6,4,246,246,main,positivefb,-99,easy,,0.7507101000001057,['n'],1,right,['1'],6,0.2628396000000066,6,,36,19,Vrouw,Links,1,
,xotask,dotcolour,xotask,7,4,247,247,main,positivefb,-99,hard,,1.016864299999952,['n'],1,right,['1'],6,0.30959200000006604,29,,36,19,Vrouw,Links,1,
,xotask,dotcolour,xotask,8,4,248,248,main,positivefb,-99,easy,,0.9176806999998917,['c'],1,left,['1'],6,0.4529069000000163,73,,36,19,Vrouw,Links,1,
,xotask,dotcolour,xotask,9,4,249,249,main,positivefb,-99,easy,,1.6840440000000854,['c'],1,left,['2'],5,0.47213419999980033,73,,36,19,Vrouw,Links,1,
,xotask,dotcolour,xotask,10,4,250,250,main,positivefb,-99,average,,1.0185034999999516,['n'],1,right,['1'],6,0.2936835999998948,16,,36,19,Vrouw,Links,1,
,xotask,dotcolour,xotask,11,4,251,251,main,positivefb,-99,average,,0.7834781000001385,['n'],1,right,['1'],6,0.32394859999999426,18,,36,19,Vrouw,Links,1,
,xotask,dotcolour,xotask,12,4,252,252,main,positivefb,-99,average,,0.7339713000001211,['c'],1,left,['2'],5,0.3303232000000662,60,,36,19,Vrouw,Links,1,
,xotask,dotcolour,xotask,13,4,253,253,main,positivefb,-99,hard,,3.0339001999998345,['n'],1,right,['3'],4,0.7332768999999644,29,,36,19,Vrouw,Links,1,
,xotask,dotcolour,xotask,14,4,254,254,main,positivefb,-99,hard,,1.6672261000001072,['c'],0,right,['2'],5,0.4060840999998163,28,,36,19,Vrouw,Links,1,
,xotask,dotcolour,xotask,15,4,255,255,main,positivefb,-99,hard,,2.200389399999949,['n'],1,right,['2'],5,0.39038510000000315,26,,36,19,Vrouw,Links,1,
,xotask,dotcolour,xotask,16,4,256,256,main,positivefb,-99,easy,,1.4006600000000162,['c'],1,left,['2'],5,0.7611558999999488,70,,36,19,Vrouw,Links,1,
,xotask,dotcolour,xotask,17,4,257,257,main,positivefb,-99,easy,,2.2667558999999073,['n'],1,right,['2'],5,14.808590699999968,9,,36,19,Vrouw,Links,1,
,xotask,dotcolour,xotask,18,4,258,258,main,positivefb,-99,hard,,3.551065799999833,['n'],1,right,['3'],4,0.47526449999986653,25,,36,19,Vrouw,Links,1,
,xotask,dotcolour,xotask,19,4,259,259,main,positivefb,-99,easy,,1.3007716000001892,['c'],1,left,['2'],5,0.3576299999999719,72,,36,19,Vrouw,Links,1,
,xotask,dotcolour,xotask,20,4,260,260,main,positivefb,-99,easy,,0.6833807000000434,['n'],1,right,['2'],5,0.32454299999994873,7,,36,19,Vrouw,Links,1,
,xotask,dotcolour,xotask,21,4,261,261,main,positivefb,-99,hard,,1.0508879999999863,['c'],1,left,['2'],5,0.2628078000000187,53,,36,19,Vrouw,Links,1,
,xotask,dotcolour,xotask,22,4,262,262,main,positivefb,-99,average,,0.7345828999998503,['c'],1,left,['2'],5,0.23181709999994382,60,,36,19,Vrouw,Links,1,
,xotask,dotcolour,xotask,23,4,263,263,main,positivefb,-99,easy,,1.15104539999993,['c'],1,left,['2'],5,0.24173719999998866,70,,36,19,Vrouw,Links,1,
,xotask,dotcolour,xotask,24,4,264,264,main,positivefb,-99,average,,0.8671692000000348,['n'],1,right,['2'],5,0.397896400000036,15,,36,19,Vrouw,Links,1,
,xotask,dotcolour,xotask,25,4,265,265,main,positivefb,-99,easy,,0.8496569000001273,['n'],1,right,['1'],6,0.29384159999995063,8,,36,19,Vrouw,Links,1,
,xotask,dotcolour,xotask,26,4,266,266,main,positivefb,-99,average,,1.1341688999998496,['n'],1,right,['1'],6,0.2531202000000121,15,,36,19,Vrouw,Links,1,
,xotask,dotcolour,xotask,27,4,267,267,main,positivefb,-99,average,,0.7841900000000805,['n'],1,right,['1'],6,0.3252180000001772,18,,36,19,Vrouw,Links,1,
,xotask,dotcolour,xotask,28,4,268,268,main,positivefb,-99,hard,,1.1175140000000283,['c'],1,left,['2'],5,0.3476987999999892,54,,36,19,Vrouw,Links,1,
,xotask,dotcolour,xotask,29,4,269,269,main,positivefb,-99,hard,,1.016782400000011,['c'],1,left,['1'],6,0.4545990999999958,53,,36,19,Vrouw,Links,1,
,xotask,dotcolour,xotask,30,4,270,270,main,positivefb,-99,hard,,1.6006393000000116,['c'],1,left,['2'],5,0.350025000000187,52,,36,19,Vrouw,Links,1,
,xotask,dotcolour,xotask,31,4,271,271,main,positivefb,-99,hard,,0.8497904000000744,['c'],1,left,['2'],5,0.27777960000003077,53,,36,19,Vrouw,Links,1,
,xotask,dotcolour,xotask,32,4,272,272,main,positivefb,-99,easy,,0.7663376000000426,['c'],1,left,['2'],5,0.38106390000007195,70,,36,19,Vrouw,Links,1,
,xotask,dotcolour,xotask,33,4,273,273,main,positivefb,-99,average,,1.067020599999978,['n'],1,right,['2'],5,1.82117089999997,15,,36,19,Vrouw,Links,1,
,xotask,dotcolour,xotask,34,4,274,274,main,positivefb,-99,easy,,0.8007254999999986,['n'],1,right,['1'],6,0.6697057999999743,8,,36,19,Vrouw,Links,1,
,xotask,dotcolour,xotask,35,4,275,275,main,positivefb,-99,easy,,4.28404670000009,['c'],1,left,['2'],5,0.8803912999999284,73,,36,19,Vrouw,Links,1,
,xotask,dotcolour,xotask,36,4,276,276,main,positivefb,-99,hard,,1.8002117999999427,['c'],0,right,['2'],5,0.5339188999998896,29,,36,19,Vrouw,Links,1,
,xotask,dotcolour,xotask,37,4,277,277,main,positivefb,-99,hard,,1.4678237000000536,['n'],1,right,['2'],5,6.6065324000001056,25,,36,19,Vrouw,Links,1,
,xotask,dotcolour,xotask,38,4,278,278,main,positivefb,-99,average,,1.016878300000144,['c'],1,left,['2'],5,0.36711239999999634,62,,36,19,Vrouw,Links,1,
,xotask,dotcolour,xotask,39,4,279,279,main,positivefb,-99,hard,,2.551347400000168,['c'],1,left,['3'],4,0.41066219999993336,51,,36,19,Vrouw,Links,1,
,xotask,dotcolour,xotask,40,4,280,280,main,positivefb,-99,easy,,1.4180816999999024,['c'],1,left,['2'],5,0.3311625000001186,72,,36,19,Vrouw,Links,1,
,xotask,dotcolour,xotask,41,4,281,281,main,positivefb,-99,average,,2.050871299999926,['n'],1,right,['2'],5,0.3651640000000498,18,,36,19,Vrouw,Links,1,
,xotask,dotcolour,xotask,42,4,282,282,main,positivefb,-99,hard,,1.3006855999999516,['n'],1,right,['2'],5,0.49059699999997974,28,,36,19,Vrouw,Links,1,
,xotask,dotcolour,xotask,43,4,283,283,main,positivefb,-99,hard,,2.051425499999823,['n'],1,right,['2'],5,0.5270101999999497,25,,36,19,Vrouw,Links,1,
,xotask,dotcolour,xotask,44,4,284,284,main,positivefb,-99,easy,,0.8339161000001241,['n'],1,right,['2'],5,0.5846503999998731,9,,36,19,Vrouw,Links,1,
,xotask,dotcolour,xotask,45,4,285,285,main,positivefb,-99,average,,1.2848989999999958,['c'],1,left,['3'],4,1.5917106000001695,62,,36,19,Vrouw,Links,1,
,xotask,dotcolour,xotask,46,4,286,286,main,positivefb,-99,average,,1.41688669999985,['n'],1,right,['2'],5,0.2633258000000751,16,,36,19,Vrouw,Links,1,
,xotask,dotcolour,xotask,47,4,287,287,main,positivefb,-99,average,,1.26701039999989,['c'],1,left,['2'],5,0.3800831000000926,64,,36,19,Vrouw,Links,1,
,xotask,dotcolour,xotask,48,4,288,288,main,positivefb,-99,hard,,0.684157900000173,['c'],1,left,['2'],5,0.3309882999999445,53,,36,19,Vrouw,Links,1,
,xotask,dotcolour,xotask,49,4,289,289,main,positivefb,-99,average,,0.7511821999999029,['c'],1,left,['2'],5,0.3851383999999598,62,,36,19,Vrouw,Links,1,
,xotask,dotcolour,xotask,50,4,290,290,main,positivefb,-99,hard,,1.7014773999999306,['c'],1,left,['3'],4,0.6705019000000902,54,,36,19,Vrouw,Links,1,
,xotask,dotcolour,xotask,51,4,291,291,main,positivefb,-99,hard,,1.6003292000000329,['c'],1,left,['2'],5,0.37986300000011397,54,,36,19,Vrouw,Links,1,
,xotask,dotcolour,xotask,52,4,292,292,main,positivefb,-99,average,,0.8179763000000548,['n'],1,right,['2'],5,0.3651729000000614,19,,36,19,Vrouw,Links,1,
,xotask,dotcolour,xotask,53,4,293,293,main,positivefb,-99,average,,0.7671195000000353,['c'],1,left,['2'],5,0.3524563000000853,64,,36,19,Vrouw,Links,1,
,xotask,dotcolour,xotask,54,4,294,294,main,positivefb,-99,easy,,0.834025899999915,['n'],1,right,['2'],5,0.3785611999999219,8,,36,19,Vrouw,Links,1,
,xotask,dotcolour,xotask,55,4,295,295,main,positivefb,-99,average,,2.0679216000000906,['c'],0,right,['3'],4,0.5853265000000647,19,,36,19,Vrouw,Links,1,
,xotask,dotcolour,xotask,56,4,296,296,main,positivefb,-99,easy,,0.9167056000001139,['n'],1,right,['1'],6,0.35039179999989756,6,,36,19,Vrouw,Links,1,
,xotask,dotcolour,xotask,57,4,297,297,main,positivefb,-99,easy,,2.001301999999896,['c'],1,left,['1'],6,0.6014740999999049,73,,36,19,Vrouw,Links,1,
,xotask,dotcolour,xotask,58,4,298,298,main,positivefb,-99,average,,1.3660428999999112,['c'],1,left,['2'],5,0.4116924999998446,64,,36,19,Vrouw,Links,1,
,xotask,dotcolour,xotask,59,4,299,299,main,positivefb,-99,hard,,0.8171194999999898,['c'],1,left,['2'],5,0.3473917999999685,50,,36,19,Vrouw,Links,1,
,dotcolour,dotcolour,xotask,0,0,0,300,training,positivefb,84,hard,38,3.2839905999999246,['c'],0,right,['3'],4,2.770278800000142,,,36,19,Vrouw,Links,1,
,dotcolour,dotcolour,xotask,1,0,1,301,training,positivefb,94,average,54,1.3002297999998973,['c'],1,left,['2'],5,0.4058741999999711,,,36,19,Vrouw,Links,1,
,dotcolour,dotcolour,xotask,2,0,2,302,training,positivefb,96,easy,15,1.2322781000000305,['n'],1,right,['2'],5,0.46082280000018727,,,36,19,Vrouw,Links,1,
,dotcolour,dotcolour,xotask,3,0,3,303,training,positivefb,92,easy,62,0.9507906999999705,['c'],1,left,['2'],5,0.3259784000001673,,,36,19,Vrouw,Links,1,
,dotcolour,dotcolour,xotask,4,0,4,304,training,positivefb,78,average,54,1.8998242999998638,['c'],1,left,['2'],5,0.2770533999998861,,,36,19,Vrouw,Links,1,
,dotcolour,dotcolour,xotask,5,0,5,305,training,positivefb,91,hard,45,1.416926599999897,['c'],1,left,['3'],4,0.5850828000000092,,,36,19,Vrouw,Links,1,
,dotcolour,dotcolour,xotask,6,0,6,306,training,positivefb,86,hard,44,1.7833418999998685,['c'],1,left,['3'],4,0.6108796999999413,,,36,19,Vrouw,Links,1,
,dotcolour,dotcolour,xotask,7,0,7,307,training,positivefb,90,hard,35,1.1174978000001374,['n'],1,right,['3'],4,0.30996200000004137,,,36,19,Vrouw,Links,1,
,dotcolour,dotcolour,xotask,8,0,8,308,training,positivefb,85,hard,43,1.100383200000124,['n'],0,left,['3'],4,0.277912699999888,,,36,19,Vrouw,Links,1,
,dotcolour,dotcolour,xotask,9,0,9,309,training,positivefb,75,average,25,0.9830491000000166,['n'],1,right,['2'],5,0.35688649999997324,,,36,19,Vrouw,Links,1,
,dotcolour,dotcolour,xotask,10,0,10,310,training,positivefb,96,average,27,1.266769899999872,['n'],1,right,['2'],5,0.22813829999995505,,,36,19,Vrouw,Links,1,
,dotcolour,dotcolour,xotask,11,0,11,311,training,positivefb,74,hard,38,0.9672256000001198,['n'],1,right,['2'],5,0.19685299999991912,,,36,19,Vrouw,Links,1,
,dotcolour,dotcolour,xotask,12,0,12,312,training,positivefb,87,hard,37,1.9506082000000333,['n'],1,right,['2'],5,0.263474499999802,,,36,19,Vrouw,Links,1,
,dotcolour,dotcolour,xotask,13,0,13,313,training,positivefb,96,easy,62,0.8498540000000503,['c'],1,left,['1'],6,0.49111470000002555,,,36,19,Vrouw,Links,1,
,dotcolour,dotcolour,xotask,14,0,14,314,training,positivefb,92,average,55,0.9152979000000414,['c'],1,left,['1'],6,0.48414999999999964,,,36,19,Vrouw,Links,1,
,dotcolour,dotcolour,xotask,15,0,15,315,training,positivefb,96,easy,63,0.6659071999999924,['c'],1,left,['1'],6,0.23702219999995577,,,36,19,Vrouw,Links,1,
,dotcolour,dotcolour,xotask,16,0,16,316,training,positivefb,80,average,28,1.115616300000056,['n'],1,right,['1'],6,0.23114089999990028,,,36,19,Vrouw,Links,1,
,dotcolour,dotcolour,xotask,17,0,17,317,training,positivefb,89,easy,63,0.8681782999999541,['c'],1,left,['1'],6,0.5165165000000798,,,36,19,Vrouw,Links,1,
,dotcolour,dotcolour,xotask,18,0,18,318,training,positivefb,95,average,28,1.3162849999998798,['n'],1,right,['1'],6,0.3232524000000012,,,36,19,Vrouw,Links,1,
,dotcolour,dotcolour,xotask,19,0,19,319,training,positivefb,91,average,53,1.25086199999987,['c'],1,left,['1'],6,0.3173331999998936,,,36,19,Vrouw,Links,1,
,dotcolour,dotcolour,xotask,20,0,20,320,training,positivefb,78,hard,45,1.7833246000000145,['c'],1,left,['2'],5,0.8575475999998616,,,36,19,Vrouw,Links,1,
,dotcolour,dotcolour,xotask,21,0,21,321,training,positivefb,98,easy,15,1.5992393999999877,['n'],1,right,['1'],6,0.5752942999999959,,,36,19,Vrouw,Links,1,
,dotcolour,dotcolour,xotask,22,0,22,322,training,positivefb,95,average,29,0.817128700000012,['n'],1,right,['1'],6,0.271749600000021,,,36,19,Vrouw,Links,1,
,dotcolour,dotcolour,xotask,23,0,23,323,training,positivefb,98,easy,62,0.8164283999999498,['c'],1,left,['2'],5,0.6595879999999852,,,36,19,Vrouw,Links,1,
,dotcolour,dotcolour,xotask,24,0,24,324,training,positivefb,89,hard,39,2.0489505000000463,['n'],1,right,['2'],5,0.3276883999999427,,,36,19,Vrouw,Links,1,
,dotcolour,dotcolour,xotask,25,0,25,325,training,positivefb,93,average,27,0.9332261999998082,['n'],1,right,['2'],5,0.4302476000000297,,,36,19,Vrouw,Links,1,
,dotcolour,dotcolour,xotask,26,0,26,326,training,positivefb,86,hard,38,1.0499697000000197,['n'],1,right,['2'],5,0.3872548000001643,,,36,19,Vrouw,Links,1,
,dotcolour,dotcolour,xotask,27,0,27,327,training,positivefb,93,easy,15,1.5660126000000218,['n'],1,right,['1'],6,0.29445339999983844,,,36,19,Vrouw,Links,1,
,dotcolour,dotcolour,xotask,28,0,28,328,training,positivefb,91,average,53,1.1654889999999796,['c'],1,left,['1'],6,0.3082433999998102,,,36,19,Vrouw,Links,1,
,dotcolour,dotcolour,xotask,29,0,29,329,training,positivefb,95,easy,17,1.3670556999995824,['n'],1,right,['1'],6,0.2490296999999373,,,36,19,Vrouw,Links,1,
,dotcolour,dotcolour,xotask,30,0,30,330,training,positivefb,92,easy,62,1.6829727999997885,['c'],1,left,['1'],6,0.9803686000000198,,,36,19,Vrouw,Links,1,
,dotcolour,dotcolour,xotask,31,0,31,331,training,positivefb,92,easy,18,0.750387800000226,['n'],1,right,['1'],6,0.31971519999979137,,,36,19,Vrouw,Links,1,
,dotcolour,dotcolour,xotask,32,0,32,332,training,positivefb,85,hard,38,1.4163824000002023,['n'],1,right,['2'],5,0.4665029999996477,,,36,19,Vrouw,Links,1,
,dotcolour,dotcolour,xotask,33,0,33,333,training,positivefb,86,hard,43,1.6832625000001826,['c'],1,left,['3'],4,0.6521452000001773,,,36,19,Vrouw,Links,1,
,dotcolour,dotcolour,xotask,34,0,34,334,training,positivefb,73,average,54,1.066598299999896,['c'],1,left,['2'],5,0.31949100000019826,,,36,19,Vrouw,Links,1,
,dotcolour,dotcolour,xotask,35,0,35,335,training,positivefb,98,easy,64,1.417131899999731,['c'],1,left,['1'],6,0.29760170000008657,,,36,19,Vrouw,Links,1,
,dotcolour,dotcolour,xotask,36,0,36,336,training,positivefb,93,average,53,1.584356299999854,['c'],1,left,['2'],5,0.39983970000002955,,,36,19,Vrouw,Links,1,
,dotcolour,dotcolour,xotask,37,0,37,337,training,positivefb,90,hard,42,1.6163966999997683,['c'],1,left,['2'],5,1.3826415999997153,,,36,19,Vrouw,Links,1,
,dotcolour,dotcolour,xotask,38,0,38,338,training,positivefb,85,average,29,0.9836904999997387,['n'],1,right,['2'],5,0.3369700000002922,,,36,19,Vrouw,Links,1,
,dotcolour,dotcolour,xotask,39,0,39,339,training,positivefb,95,easy,18,0.850614900000437,['n'],1,right,['1'],6,0.2251046999999744,,,36,19,Vrouw,Links,1,
,dotcolour,dotcolour,xotask,40,0,40,340,training,positivefb,78,hard,44,1.6991527000000133,['n'],0,left,['1'],6,0.3406191000003673,,,36,19,Vrouw,Links,1,
,dotcolour,dotcolour,xotask,41,0,41,341,training,positivefb,95,easy,65,2.2158160999997563,['c'],1,left,['1'],6,1.1183285000001888,,,36,19,Vrouw,Links,1,
,dotcolour,dotcolour,xotask,42,0,42,342,training,positivefb,59,hard,44,1.2339492999999493,['n'],0,left,['1'],6,0.3767843000000539,,,36,19,Vrouw,Links,1,
,dotcolour,dotcolour,xotask,43,0,43,343,training,positivefb,93,hard,35,1.9331425000000309,['n'],1,right,['2'],5,0.34865669999999227,,,36,19,Vrouw,Links,1,
,dotcolour,dotcolour,xotask,44,0,44,344,training,positivefb,95,average,28,2.051073699999961,['n'],1,right,['2'],5,0.3165066999999908,,,36,19,Vrouw,Links,1,
,dotcolour,dotcolour,xotask,45,0,45,345,training,positivefb,94,easy,64,0.8671150000000125,['n'],0,left,['1'],6,0.3094403999998576,,,36,19,Vrouw,Links,1,
,dotcolour,dotcolour,xotask,46,0,46,346,training,positivefb,82,average,55,1.9655582000000322,['c'],1,left,['1'],6,0.33946830000013506,,,36,19,Vrouw,Links,1,
,dotcolour,dotcolour,xotask,47,0,47,347,training,positivefb,95,easy,18,1.0325634999999238,['n'],1,right,['1'],6,0.3484214999998585,,,36,19,Vrouw,Links,1,
,dotcolour,dotcolour,xotask,48,0,48,348,training,positivefb,86,hard,39,2.6488906999998107,['n'],1,right,['2'],5,0.364777100000083,,,36,19,Vrouw,Links,1,
,dotcolour,dotcolour,xotask,49,0,49,349,training,positivefb,94,average,29,0.9332085000000916,['n'],1,right,['1'],6,0.28929150000021764,,,36,19,Vrouw,Links,1,
,dotcolour,dotcolour,xotask,50,0,50,350,training,positivefb,83,hard,44,2.4835032000000865,['n'],0,left,['3'],4,0.8922968000001674,,,36,19,Vrouw,Links,1,
,dotcolour,dotcolour,xotask,51,0,51,351,training,positivefb,97,hard,39,1.4513545999998314,['n'],1,right,['3'],4,1.238577499999792,,,36,19,Vrouw,Links,1,
,dotcolour,dotcolour,xotask,52,0,52,352,training,positivefb,80,average,26,2.4169434000000365,['n'],1,right,['3'],4,0.3797554000002492,,,36,19,Vrouw,Links,1,
,dotcolour,dotcolour,xotask,53,0,53,353,training,positivefb,100,easy,19,0.9657511000000341,['n'],1,right,['2'],5,3.4390723999999864,,,36,19,Vrouw,Links,1,
,dotcolour,dotcolour,xotask,54,0,54,354,training,positivefb,81,easy,65,1.5178707000000031,['c'],1,left,['2'],5,0.89575990000003,,,36,19,Vrouw,Links,1,
,dotcolour,dotcolour,xotask,55,0,55,355,training,positivefb,91,average,55,1.0159231999996337,['c'],1,left,['1'],6,0.2607052999996995,,,36,19,Vrouw,Links,1,
,dotcolour,dotcolour,xotask,56,0,56,356,training,positivefb,73,easy,16,1.0493246999999428,['c'],0,right,['1'],6,0.30396250000012515,,,36,19,Vrouw,Links,1,
,dotcolour,dotcolour,xotask,57,0,57,357,training,positivefb,89,average,52,0.9486422999998467,['c'],1,left,['2'],5,0.37472969999998895,,,36,19,Vrouw,Links,1,
,dotcolour,dotcolour,xotask,58,0,58,358,training,positivefb,6,easy,18,0.7169471000001977,['c'],0,right,['1'],6,1.9556080000002112,,,36,19,Vrouw,Links,1,
,dotcolour,dotcolour,xotask,59,0,59,359,training,positivefb,53,hard,42,3.233172199999899,['c'],1,left,['2'],5,1.5885213999999905,,,36,19,Vrouw,Links,1,
,dotcolour,dotcolour,xotask,0,1,60,360,training,positivefb,62,average,54,1.1162693999999647,['c'],1,left,['2'],5,0.291055900000174,,,36,19,Vrouw,Links,1,
,dotcolour,dotcolour,xotask,1,1,61,361,training,positivefb,99,easy,63,0.5668439000000944,['c'],1,left,['2'],5,0.24005980000038107,,,36,19,Vrouw,Links,1,
,dotcolour,dotcolour,xotask,2,1,62,362,training,positivefb,94,hard,43,1.1328112999999576,['n'],0,left,['3'],4,0.4662893999998232,,,36,19,Vrouw,Links,1,
,dotcolour,dotcolour,xotask,3,1,63,363,training,positivefb,77,hard,37,1.166859899999963,['c'],0,right,['3'],4,0.26415480000014213,,,36,19,Vrouw,Links,1,
,dotcolour,dotcolour,xotask,4,1,64,364,training,positivefb,84,hard,36,0.9163880000000972,['c'],0,right,['2'],5,0.4178114999999707,,,36,19,Vrouw,Links,1,
,dotcolour,dotcolour,xotask,5,1,65,365,training,positivefb,65,hard,39,2.799289399999907,['n'],1,right,['2'],5,1.4826130999999805,,,36,19,Vrouw,Links,1,
,dotcolour,dotcolour,xotask,6,1,66,366,training,positivefb,88,easy,17,1.1842108000000735,['n'],1,right,['2'],5,0.23859200000015335,,,36,19,Vrouw,Links,1,
,dotcolour,dotcolour,xotask,7,1,67,367,training,positivefb,92,hard,36,0.9325906999997642,['n'],1,right,['2'],5,0.20066600000018298,,,36,19,Vrouw,Links,1,
,dotcolour,dotcolour,xotask,8,1,68,368,training,positivefb,63,average,52,1.0498556000002282,['n'],0,left,['8'],3,1.3593473000000813,,,36,19,Vrouw,Links,1,
,dotcolour,dotcolour,xotask,9,1,69,369,training,positivefb,75,hard,44,3.699774400000024,['n'],0,left,['2'],5,0.307963700000073,,,36,19,Vrouw,Links,1,
,dotcolour,dotcolour,xotask,10,1,70,370,training,positivefb,96,average,27,3.3840072000002692,['n'],1,right,['1'],6,1.0655805999999757,,,36,19,Vrouw,Links,1,
,dotcolour,dotcolour,xotask,11,1,71,371,training,positivefb,92,easy,18,2.0331703000001653,['n'],1,right,['1'],6,0.23668869999983144,,,36,19,Vrouw,Links,1,
,dotcolour,dotcolour,xotask,12,1,72,372,training,positivefb,42,hard,43,0.9661882999998852,['n'],0,left,['3'],4,0.6447693000000072,,,36,19,Vrouw,Links,1,
,dotcolour,dotcolour,xotask,13,1,73,373,training,positivefb,77,hard,37,1.2998971000001802,['n'],1,right,['3'],4,0.3366284999997333,,,36,19,Vrouw,Links,1,
,dotcolour,dotcolour,xotask,14,1,74,374,training,positivefb,93,average,51,1.3999416000001474,['c'],1,left,['2'],5,0.3782743000001574,,,36,19,Vrouw,Links,1,
,dotcolour,dotcolour,xotask,15,1,75,375,training,positivefb,91,average,28,1.133248900000126,['n'],1,right,['2'],5,0.3437558999999055,,,36,19,Vrouw,Links,1,
,dotcolour,dotcolour,xotask,16,1,76,376,training,positivefb,87,easy,64,1.6006356000002597,['n'],0,left,['2'],5,0.37772960000029343,,,36,19,Vrouw,Links,1,
,dotcolour,dotcolour,xotask,17,1,77,377,training,positivefb,93,average,29,1.0001440000000912,['n'],1,right,['2'],5,0.22685209999963263,,,36,19,Vrouw,Links,1,
,dotcolour,dotcolour,xotask,18,1,78,378,training,positivefb,92,easy,17,1.1830368000000817,['n'],1,right,['2'],5,0.1711025999998128,,,36,19,Vrouw,Links,1,
,dotcolour,dotcolour,xotask,19,1,79,379,training,positivefb,78,hard,35,0.9174173000001247,['n'],1,right,['2'],5,0.31940030000032493,,,36,19,Vrouw,Links,1,
,dotcolour,dotcolour,xotask,20,1,80,380,training,positivefb,87,average,28,0.9325020000001132,['n'],1,right,['2'],5,0.31038589999980104,,,36,19,Vrouw,Links,1,
,dotcolour,dotcolour,xotask,21,1,81,381,training,positivefb,87,easy,62,1.1832384999997885,['c'],1,left,['1'],6,0.5383595999996942,,,36,19,Vrouw,Links,1,
,dotcolour,dotcolour,xotask,22,1,82,382,training,positivefb,92,hard,35,1.7161949999999706,['n'],1,right,['2'],5,0.46451010000009774,,,36,19,Vrouw,Links,1,
,dotcolour,dotcolour,xotask,23,1,83,383,training,positivefb,99,average,54,0.7335063000000446,['c'],1,left,['1'],6,0.6899449000002278,,,36,19,Vrouw,Links,1,
,dotcolour,dotcolour,xotask,24,1,84,384,training,positivefb,100,easy,15,0.7174447000002147,['n'],1,right,['2'],5,1.5617723000000296,,,36,19,Vrouw,Links,1,
,dotcolour,dotcolour,xotask,25,1,85,385,training,positivefb,96,easy,63,0.900263300000006,['c'],1,left,['1'],6,0.3992355000000316,,,36,19,Vrouw,Links,1,
,dotcolour,dotcolour,xotask,26,1,86,386,training,positivefb,85,hard,45,1.717222999999649,['n'],0,left,['2'],5,0.3713336000000709,,,36,19,Vrouw,Links,1,
,dotcolour,dotcolour,xotask,27,1,87,387,training,positivefb,96,average,28,0.950233400000343,['n'],1,right,['2'],5,0.294293199999629,,,36,19,Vrouw,Links,1,
,dotcolour,dotcolour,xotask,28,1,88,388,training,positivefb,43,hard,36,1.200155199999699,['c'],0,right,['9'],2,1.6673734999999397,,,36,19,Vrouw,Links,1,
,dotcolour,dotcolour,xotask,29,1,89,389,training,positivefb,62,easy,62,0.9838884999999209,['n'],0,left,['8'],3,1.5136697999996613,,,36,19,Vrouw,Links,1,
,dotcolour,dotcolour,xotask,30,1,90,390,training,positivefb,37,hard,35,1.36730260000013,['c'],0,right,['8'],3,6.214665299999979,,,36,19,Vrouw,Links,1,
,dotcolour,dotcolour,xotask,31,1,91,391,training,positivefb,87,hard,41,2.2999644000001354,['n'],0,left,['3'],4,0.31221869999990304,,,36,19,Vrouw,Links,1,
,dotcolour,dotcolour,xotask,32,1,92,392,training,positivefb,79,average,53,2.3839748000000327,['c'],1,left,['2'],5,0.46188519999986966,,,36,19,Vrouw,Links,1,
,dotcolour,dotcolour,xotask,33,1,93,393,training,positivefb,98,average,25,1.25071539999999,['n'],1,right,['2'],5,0.4255238000000645,,,36,19,Vrouw,Links,1,
,dotcolour,dotcolour,xotask,34,1,94,394,training,positivefb,93,easy,16,1.0679399999999077,['n'],1,right,['1'],6,0.2937856999997166,,,36,19,Vrouw,Links,1,
,dotcolour,dotcolour,xotask,35,1,95,395,training,positivefb,91,easy,16,0.7504982999998902,['n'],1,right,['1'],6,0.14914459999999963,,,36,19,Vrouw,Links,1,
,dotcolour,dotcolour,xotask,36,1,96,396,training,positivefb,96,easy,19,0.898442800000339,['n'],1,right,['1'],6,0.23459980000006908,,,36,19,Vrouw,Links,1,
,dotcolour,dotcolour,xotask,37,1,97,397,training,positivefb,92,hard,44,1.2681499999998778,['c'],1,left,['2'],5,0.47857169999997495,,,36,19,Vrouw,Links,1,
,dotcolour,dotcolour,xotask,38,1,98,398,training,positivefb,96,easy,19,0.8843096000000514,['n'],1,right,['1'],6,0.2890895000000455,,,36,19,Vrouw,Links,1,
,dotcolour,dotcolour,xotask,39,1,99,399,training,positivefb,79,easy,65,1.4827009000000544,['c'],1,left,['2'],5,0.4180203999999321,,,36,19,Vrouw,Links,1,
,dotcolour,dotcolour,xotask,40,1,100,400,training,positivefb,92,average,54,2.2998837999998614,['c'],1,left,['3'],4,0.45460640000010244,,,36,19,Vrouw,Links,1,
,dotcolour,dotcolour,xotask,41,1,101,401,training,positivefb,74,hard,35,2.1338073000001714,['n'],1,right,['3'],4,0.7830159999998614,,,36,19,Vrouw,Links,1,
,dotcolour,dotcolour,xotask,42,1,102,402,training,positivefb,89,hard,41,3.2324005000000398,['c'],1,left,['2'],5,0.48610869999993156,,,36,19,Vrouw,Links,1,
,dotcolour,dotcolour,xotask,43,1,103,403,training,positivefb,86,hard,43,2.1157876999996006,['c'],1,left,['3'],4,0.2946701999999277,,,36,19,Vrouw,Links,1,
,dotcolour,dotcolour,xotask,44,1,104,404,training,positivefb,86,hard,42,4.065966199999821,['c'],1,left,['3'],4,0.376148700000158,,,36,19,Vrouw,Links,1,
,dotcolour,dotcolour,xotask,45,1,105,405,training,positivefb,98,easy,61,1.0658942000000025,['c'],1,left,['3'],4,0.43067940000037197,,,36,19,Vrouw,Links,1,
,dotcolour,dotcolour,xotask,46,1,106,406,training,positivefb,98,easy,19,1.0506173999997372,['n'],1,right,['1'],6,0.7566139000000476,,,36,19,Vrouw,Links,1,
,dotcolour,dotcolour,xotask,47,1,107,407,training,positivefb,1,average,53,1.2661442000003262,['n'],0,left,['8'],3,2.2847593000001325,,,36,19,Vrouw,Links,1,
,dotcolour,dotcolour,xotask,48,1,108,408,training,positivefb,100,easy,62,0.8506994999997914,['c'],1,left,['2'],5,1.0463540000000648,,,36,19,Vrouw,Links,1,
,dotcolour,dotcolour,xotask,49,1,109,409,training,positivefb,91,average,53,1.1834396000003835,['c'],1,left,['2'],5,0.3173938999998427,,,36,19,Vrouw,Links,1,
,dotcolour,dotcolour,xotask,50,1,110,410,training,positivefb,98,easy,61,0.9664127000000917,['c'],1,left,['2'],5,0.30641259999993053,,,36,19,Vrouw,Links,1,
,dotcolour,dotcolour,xotask,51,1,111,411,training,positivefb,77,hard,42,3.0324721000001773,['c'],1,left,['3'],4,0.7168087000000014,,,36,19,Vrouw,Links,1,
,dotcolour,dotcolour,xotask,52,1,112,412,training,positivefb,86,average,25,2.3659447,['n'],1,right,['2'],5,0.33795429999963744,,,36,19,Vrouw,Links,1,
,dotcolour,dotcolour,xotask,53,1,113,413,training,positivefb,92,average,52,3.5668844000001627,['c'],1,left,['2'],5,0.6057318999996824,,,36,19,Vrouw,Links,1,
,dotcolour,dotcolour,xotask,54,1,114,414,training,positivefb,99,easy,62,0.9674437999997281,['c'],1,left,['1'],6,0.20778410000002623,,,36,19,Vrouw,Links,1,
,dotcolour,dotcolour,xotask,55,1,115,415,training,positivefb,96,average,29,1.3009095999996134,['n'],1,right,['2'],5,0.30764600000020437,,,36,19,Vrouw,Links,1,
,dotcolour,dotcolour,xotask,56,1,116,416,training,positivefb,95,average,26,0.6330898000001071,['n'],1,right,['2'],5,0.21382610000000568,,,36,19,Vrouw,Links,1,
,dotcolour,dotcolour,xotask,57,1,117,417,training,positivefb,93,average,51,0.8828114999996615,['c'],1,left,['2'],5,0.3873663999997916,,,36,19,Vrouw,Links,1,
,dotcolour,dotcolour,xotask,58,1,118,418,training,positivefb,92,average,28,1.4501863999998932,['n'],1,right,['2'],5,0.3452259000000595,,,36,19,Vrouw,Links,1,
,dotcolour,dotcolour,xotask,59,1,119,419,training,positivefb,76,easy,16,1.5502489000000423,['n'],1,right,['2'],5,0.7741506000002119,,,36,19,Vrouw,Links,1,
,dotcolour,dotcolour,xotask,0,2,120,420,main,positivefb,-99,easy,63,1.5669339000000946,['c'],1,left,['1'],6,0.4926955999999336,,,36,19,Vrouw,Links,1,
,dotcolour,dotcolour,xotask,1,2,121,421,main,positivefb,-99,hard,35,1.3006565999999111,['n'],1,right,['2'],5,1.6689978999997948,,,36,19,Vrouw,Links,1,
,dotcolour,dotcolour,xotask,2,2,122,422,main,positivefb,-99,easy,65,0.8668680000000677,['c'],1,left,['1'],6,0.34506629999987126,,,36,19,Vrouw,Links,1,
,dotcolour,dotcolour,xotask,3,2,123,423,main,positivefb,-99,hard,43,1.6673359000001255,['c'],1,left,['2'],5,0.3049196000001757,,,36,19,Vrouw,Links,1,
,dotcolour,dotcolour,xotask,4,2,124,424,main,positivefb,-99,easy,65,0.5851794000000154,['c'],1,left,['1'],6,0.3347254999998768,,,36,19,Vrouw,Links,1,
,dotcolour,dotcolour,xotask,5,2,125,425,main,positivefb,-99,average,54,0.6009014999999636,['c'],1,left,['1'],6,0.3781483000002481,,,36,19,Vrouw,Links,1,
,dotcolour,dotcolour,xotask,6,2,126,426,main,positivefb,-99,hard,43,1.5834267000000182,['c'],1,left,['3'],4,0.43717590000005657,,,36,19,Vrouw,Links,1,
,dotcolour,dotcolour,xotask,7,2,127,427,main,positivefb,-99,easy,61,0.8171253999998953,['c'],1,left,['2'],5,0.4030142000001433,,,36,19,Vrouw,Links,1,
,dotcolour,dotcolour,xotask,8,2,128,428,main,positivefb,-99,easy,64,0.6839423000001261,['c'],1,left,['2'],5,0.44063249999999243,,,36,19,Vrouw,Links,1,
,dotcolour,dotcolour,xotask,9,2,129,429,main,positivefb,-99,hard,36,1.6000192000001334,['n'],1,right,['2'],5,0.9606051999999181,,,36,19,Vrouw,Links,1,
,dotcolour,dotcolour,xotask,10,2,130,430,main,positivefb,-99,average,26,0.8172489999997197,['n'],1,right,['2'],5,0.523022200000014,,,36,19,Vrouw,Links,1,
,dotcolour,dotcolour,xotask,11,2,131,431,main,positivefb,-99,average,27,0.984414999999899,['n'],1,right,['2'],5,0.35937820000026477,,,36,19,Vrouw,Links,1,
,dotcolour,dotcolour,xotask,12,2,132,432,main,positivefb,-99,average,52,1.2338544999997794,['c'],1,left,['1'],6,0.32804600000008577,,,36,19,Vrouw,Links,1,
,dotcolour,dotcolour,xotask,13,2,133,433,main,positivefb,-99,average,53,0.8844742999999653,['c'],1,left,['2'],5,0.4089200999997047,,,36,19,Vrouw,Links,1,
,dotcolour,dotcolour,xotask,14,2,134,434,main,positivefb,-99,average,52,0.9672774999999092,['c'],1,left,['3'],4,1.2505851999999322,,,36,19,Vrouw,Links,1,
,dotcolour,dotcolour,xotask,15,2,135,435,main,positivefb,-99,hard,39,0.9000631999997495,['c'],0,right,['0'],1,2.3099152999998296,,,36,19,Vrouw,Links,1,
,dotcolour,dotcolour,xotask,16,2,136,436,main,positivefb,-99,easy,15,1.1020249000002877,['n'],1,right,['2'],5,1.0952242000003025,,,36,19,Vrouw,Links,1,
,dotcolour,dotcolour,xotask,17,2,137,437,main,positivefb,-99,hard,43,1.5166503000000375,['n'],0,left,['3'],4,1.1037221999999929,,,36,19,Vrouw,Links,1,
,dotcolour,dotcolour,xotask,18,2,138,438,main,positivefb,-99,hard,38,1.200408299999708,['n'],1,right,['3'],4,0.3322195999999167,,,36,19,Vrouw,Links,1,
,dotcolour,dotcolour,xotask,19,2,139,439,main,positivefb,-99,easy,19,0.7843679000002339,['n'],1,right,['2'],5,0.4164237999998477,,,36,19,Vrouw,Links,1,
,dotcolour,dotcolour,xotask,20,2,140,440,main,positivefb,-99,hard,35,1.617913199999748,['n'],1,right,['2'],5,0.48706570000013016,,,36,19,Vrouw,Links,1,
,dotcolour,dotcolour,xotask,21,2,141,441,main,positivefb,-99,easy,64,1.2002268000001095,['c'],1,left,['2'],5,1.0208775999999489,,,36,19,Vrouw,Links,1,
,dotcolour,dotcolour,xotask,22,2,142,442,main,positivefb,-99,average,52,2.0678695999999945,['c'],1,left,['2'],5,0.3870998999996118,,,36,19,Vrouw,Links,1,
,dotcolour,dotcolour,xotask,23,2,143,443,main,positivefb,-99,easy,15,1.0337280000003375,['n'],1,right,['2'],5,0.2425198000000819,,,36,19,Vrouw,Links,1,
,dotcolour,dotcolour,xotask,24,2,144,444,main,positivefb,-99,average,26,0.8834368999996514,['n'],1,right,['2'],5,0.14252749999968728,,,36,19,Vrouw,Links,1,
,dotcolour,dotcolour,xotask,25,2,145,445,main,positivefb,-99,hard,43,1.0008161999999174,['c'],1,left,['2'],5,0.2663962999999967,,,36,19,Vrouw,Links,1,
,dotcolour,dotcolour,xotask,26,2,146,446,main,positivefb,-99,average,52,0.7011595999997553,['c'],1,left,['2'],5,0.2594871000001149,,,36,19,Vrouw,Links,1,
,dotcolour,dotcolour,xotask,27,2,147,447,main,positivefb,-99,hard,39,1.0001978000000236,['n'],1,right,['2'],5,0.5384229999999661,,,36,19,Vrouw,Links,1,
,dotcolour,dotcolour,xotask,28,2,148,448,main,positivefb,-99,average,26,1.3004178000001048,['n'],1,right,['2'],5,0.2656032999998388,,,36,19,Vrouw,Links,1,
,dotcolour,dotcolour,xotask,29,2,149,449,main,positivefb,-99,hard,37,1.0506877000002532,['n'],1,right,['2'],5,0.3654378999999608,,,36,19,Vrouw,Links,1,
,dotcolour,dotcolour,xotask,30,2,150,450,main,positivefb,-99,easy,63,1.3676619999996547,['c'],1,left,['1'],6,1.689702600000146,,,36,19,Vrouw,Links,1,
,dotcolour,dotcolour,xotask,31,2,151,451,main,positivefb,-99,average,27,1.2500847000001158,['n'],1,right,['2'],5,3.8209813999997095,,,36,19,Vrouw,Links,1,
,dotcolour,dotcolour,xotask,32,2,152,452,main,positivefb,-99,hard,43,2.3840314000003673,['c'],1,left,['2'],5,0.341041099999984,,,36,19,Vrouw,Links,1,
,dotcolour,dotcolour,xotask,33,2,153,453,main,positivefb,-99,average,28,0.8679082000003291,['n'],1,right,['1'],6,0.3422733999996126,,,36,19,Vrouw,Links,1,
,dotcolour,dotcolour,xotask,34,2,154,454,main,positivefb,-99,hard,38,1.3338627999996788,['n'],1,right,['1'],6,0.34815500000013344,,,36,19,Vrouw,Links,1,
,dotcolour,dotcolour,xotask,35,2,155,455,main,positivefb,-99,average,26,1.9837056999999731,['n'],1,right,['1'],6,0.31257000000005064,,,36,19,Vrouw,Links,1,
,dotcolour,dotcolour,xotask,36,2,156,456,main,positivefb,-99,easy,18,0.7849840999997468,['n'],1,right,['1'],6,0.5977962000001753,,,36,19,Vrouw,Links,1,
,dotcolour,dotcolour,xotask,37,2,157,457,main,positivefb,-99,average,55,2.3173531999996158,['c'],1,left,['2'],5,0.5378861999997753,,,36,19,Vrouw,Links,1,
,dotcolour,dotcolour,xotask,38,2,158,458,main,positivefb,-99,easy,17,0.8340912999997272,['n'],1,right,['1'],6,0.396950299999844,,,36,19,Vrouw,Links,1,
,dotcolour,dotcolour,xotask,39,2,159,459,main,positivefb,-99,average,53,0.8006522999999106,['c'],1,left,['2'],5,0.2852479000002859,,,36,19,Vrouw,Links,1,
,dotcolour,dotcolour,xotask,40,2,160,460,main,positivefb,-99,easy,16,1.2999202999999397,['n'],1,right,['1'],6,1.6384715999997752,,,36,19,Vrouw,Links,1,
,dotcolour,dotcolour,xotask,41,2,161,461,main,positivefb,-99,hard,44,1.2001141999999163,['n'],0,left,['1'],6,0.2065069999998741,,,36,19,Vrouw,Links,1,
,dotcolour,dotcolour,xotask,42,2,162,462,main,positivefb,-99,average,53,0.8841443999999683,['c'],1,left,['2'],5,0.3483304000001226,,,36,19,Vrouw,Links,1,
,dotcolour,dotcolour,xotask,43,2,163,463,main,positivefb,-99,easy,61,0.833790399999998,['c'],1,left,['2'],5,0.2542475000000195,,,36,19,Vrouw,Links,1,
,dotcolour,dotcolour,xotask,44,2,164,464,main,positivefb,-99,hard,45,1.2171330000001035,['c'],1,left,['2'],5,0.3163179000002856,,,36,19,Vrouw,Links,1,
,dotcolour,dotcolour,xotask,45,2,165,465,main,positivefb,-99,easy,17,0.6180148000003101,['n'],1,right,['2'],5,1.095672100000229,,,36,19,Vrouw,Links,1,
,dotcolour,dotcolour,xotask,46,2,166,466,main,positivefb,-99,easy,63,0.7013001000000259,['n'],0,left,['1'],6,0.8962075999997978,,,36,19,Vrouw,Links,1,
,dotcolour,dotcolour,xotask,47,2,167,467,main,positivefb,-99,hard,41,1.7509172999998555,['n'],0,left,['2'],5,0.4555942000001778,,,36,19,Vrouw,Links,1,
,dotcolour,dotcolour,xotask,48,2,168,468,main,positivefb,-99,average,52,0.9001262000001589,['c'],1,left,['2'],5,0.554247800000212,,,36,19,Vrouw,Links,1,
,dotcolour,dotcolour,xotask,49,2,169,469,main,positivefb,-99,hard,44,1.05137139999988,['c'],1,left,['2'],5,0.3472801000002619,,,36,19,Vrouw,Links,1,
,dotcolour,dotcolour,xotask,50,2,170,470,main,positivefb,-99,hard,38,1.6492032000001018,['c'],0,right,['3'],4,0.5326214000001528,,,36,19,Vrouw,Links,1,
,dotcolour,dotcolour,xotask,51,2,171,471,main,positivefb,-99,average,28,1.2008230000001276,['n'],1,right,['2'],5,0.3763448000004246,,,36,19,Vrouw,Links,1,
,dotcolour,dotcolour,xotask,52,2,172,472,main,positivefb,-99,easy,65,1.2667067000002135,['c'],1,left,['2'],5,1.5200108000003638,,,36,19,Vrouw,Links,1,
,dotcolour,dotcolour,xotask,53,2,173,473,main,positivefb,-99,easy,17,0.8169465999999375,['n'],1,right,['2'],5,0.36252680000006876,,,36,19,Vrouw,Links,1,
,dotcolour,dotcolour,xotask,54,2,174,474,main,positivefb,-99,easy,19,0.7671219999997447,['n'],1,right,['2'],5,0.24718050000001313,,,36,19,Vrouw,Links,1,
,dotcolour,dotcolour,xotask,55,2,175,475,main,positivefb,-99,average,29,0.717857599999661,['n'],1,right,['2'],5,0.18590760000006412,,,36,19,Vrouw,Links,1,
,dotcolour,dotcolour,xotask,56,2,176,476,main,positivefb,-99,hard,45,0.7010018999999375,['c'],1,left,['2'],5,0.3104773000000023,,,36,19,Vrouw,Links,1,
,dotcolour,dotcolour,xotask,57,2,177,477,main,positivefb,-99,easy,15,0.7343268999998145,['n'],1,right,['2'],5,0.2620792999996411,,,36,19,Vrouw,Links,1,
,dotcolour,dotcolour,xotask,58,2,178,478,main,positivefb,-99,hard,36,1.2508127999999488,['n'],1,right,['2'],5,1.843751699999757,,,36,19,Vrouw,Links,1,
,dotcolour,dotcolour,xotask,59,2,179,479,main,positivefb,-99,average,26,1.601248299999952,['n'],1,right,['2'],5,0.2660221000001002,,,36,19,Vrouw,Links,1,
,dotcolour,dotcolour,xotask,0,3,180,480,main,positivefb,-99,easy,61,2.0671744000001127,['c'],1,left,['2'],5,0.25425459999996747,,,36,19,Vrouw,Links,1,
,dotcolour,dotcolour,xotask,1,3,181,481,main,positivefb,-99,average,25,0.6839716999998018,['n'],1,right,['2'],5,0.25726429999986067,,,36,19,Vrouw,Links,1,
,dotcolour,dotcolour,xotask,2,3,182,482,main,positivefb,-99,easy,16,0.6845871000000443,['n'],1,right,['2'],5,0.1965940000000046,,,36,19,Vrouw,Links,1,
,dotcolour,dotcolour,xotask,3,3,183,483,main,positivefb,-99,average,26,0.6173105000002579,['n'],1,right,['2'],5,0.24636829999963084,,,36,19,Vrouw,Links,1,
,dotcolour,dotcolour,xotask,4,3,184,484,main,positivefb,-99,average,25,0.6340658999997686,['n'],1,right,['2'],5,0.38763669999980266,,,36,19,Vrouw,Links,1,
,dotcolour,dotcolour,xotask,5,3,185,485,main,positivefb,-99,easy,64,1.6839632999999594,['c'],1,left,['2'],5,0.3382270000001881,,,36,19,Vrouw,Links,1,
,dotcolour,dotcolour,xotask,6,3,186,486,main,positivefb,-99,hard,38,0.6173138000003746,['n'],1,right,['2'],5,0.252589899999748,,,36,19,Vrouw,Links,1,
,dotcolour,dotcolour,xotask,7,3,187,487,main,positivefb,-99,hard,44,0.8842005999999856,['n'],0,left,['3'],4,0.5197555999998258,,,36,19,Vrouw,Links,1,
,dotcolour,dotcolour,xotask,8,3,188,488,main,positivefb,-99,average,28,0.650467800000115,['n'],1,right,['2'],5,0.38569269999970857,,,36,19,Vrouw,Links,1,
,dotcolour,dotcolour,xotask,9,3,189,489,main,positivefb,-99,hard,42,1.699652799999967,['n'],0,left,['2'],5,0.551533400000153,,,36,19,Vrouw,Links,1,
,dotcolour,dotcolour,xotask,10,3,190,490,main,positivefb,-99,average,25,1.0669929999999113,['n'],1,right,['3'],4,0.6313208000001396,,,36,19,Vrouw,Links,1,
,dotcolour,dotcolour,xotask,11,3,191,491,main,positivefb,-99,average,53,2.3008333000002494,['c'],1,left,['3'],4,0.3233257000001686,,,36,19,Vrouw,Links,1,
,dotcolour,dotcolour,xotask,12,3,192,492,main,positivefb,-99,hard,35,0.7009846999999354,['n'],1,right,['3'],4,0.5305315999999038,,,36,19,Vrouw,Links,1,
,dotcolour,dotcolour,xotask,13,3,193,493,main,positivefb,-99,average,25,2.217048899999554,['n'],1,right,['3'],4,0.494271800000206,,,36,19,Vrouw,Links,1,
,dotcolour,dotcolour,xotask,14,3,194,494,main,positivefb,-99,average,28,1.2012439000000086,['n'],1,right,['3'],4,10.420005000000401,,,36,19,Vrouw,Links,1,
,dotcolour,dotcolour,xotask,15,3,195,495,main,positivefb,-99,hard,39,2.500489900000048,['n'],1,right,['2'],5,0.2792450000001736,,,36,19,Vrouw,Links,1,
,dotcolour,dotcolour,xotask,16,3,196,496,main,positivefb,-99,hard,41,0.9175476000000344,['n'],0,left,['2'],5,0.29641350000019884,,,36,19,Vrouw,Links,1,
,dotcolour,dotcolour,xotask,17,3,197,497,main,positivefb,-99,average,27,0.6506014999999934,['n'],1,right,['2'],5,0.46073180000030334,,,36,19,Vrouw,Links,1,
,dotcolour,dotcolour,xotask,18,3,198,498,main,positivefb,-99,easy,19,0.6166713000002346,['n'],1,right,['2'],5,0.48232069999994565,,,36,19,Vrouw,Links,1,
,dotcolour,dotcolour,xotask,19,3,199,499,main,positivefb,-99,easy,64,0.6002902000000176,['c'],1,left,['2'],5,0.8721404999996594,,,36,19,Vrouw,Links,1,
,dotcolour,dotcolour,xotask,20,3,200,500,main,positivefb,-99,easy,64,1.2839674999995623,['c'],1,left,['2'],5,0.3625317000000905,,,36,19,Vrouw,Links,1,
,dotcolour,dotcolour,xotask,21,3,201,501,main,positivefb,-99,hard,38,6.334972600000128,['n'],1,right,['2'],5,0.4081919000000198,,,36,19,Vrouw,Links,1,
,dotcolour,dotcolour,xotask,22,3,202,502,main,positivefb,-99,average,54,1.1166991000000053,['c'],1,left,['2'],5,0.34763250000014523,,,36,19,Vrouw,Links,1,
,dotcolour,dotcolour,xotask,23,3,203,503,main,positivefb,-99,easy,18,0.8165615999996589,['n'],1,right,['2'],5,0.3029197999999269,,,36,19,Vrouw,Links,1,
,dotcolour,dotcolour,xotask,24,3,204,504,main,positivefb,-99,easy,61,1.2330425999998624,['c'],1,left,['1'],6,0.32281920000013997,,,36,19,Vrouw,Links,1,
,dotcolour,dotcolour,xotask,25,3,205,505,main,positivefb,-99,hard,42,1.1343743000002178,['n'],0,left,['3'],4,0.5848958000001403,,,36,19,Vrouw,Links,1,
,dotcolour,dotcolour,xotask,26,3,206,506,main,positivefb,-99,hard,38,1.383512299999893,['n'],1,right,['3'],4,0.24259389999997438,,,36,19,Vrouw,Links,1,
,dotcolour,dotcolour,xotask,27,3,207,507,main,positivefb,-99,easy,62,1.3334982000001219,['c'],1,left,['3'],4,0.6525197000000844,,,36,19,Vrouw,Links,1,
,dotcolour,dotcolour,xotask,28,3,208,508,main,positivefb,-99,hard,41,1.3170006000000285,['n'],0,left,['3'],4,0.47070099999973536,,,36,19,Vrouw,Links,1,
,dotcolour,dotcolour,xotask,29,3,209,509,main,positivefb,-99,hard,43,1.451496500000303,['c'],1,left,['3'],4,0.603005999999823,,,36,19,Vrouw,Links,1,
,dotcolour,dotcolour,xotask,30,3,210,510,main,positivefb,-99,easy,61,0.9509827000001678,['n'],0,left,['0'],1,1.9334122999998726,,,36,19,Vrouw,Links,1,
,dotcolour,dotcolour,xotask,31,3,211,511,main,positivefb,-99,average,26,2.7000018000003365,['n'],1,right,['3'],4,8.533280900000136,,,36,19,Vrouw,Links,1,
,dotcolour,dotcolour,xotask,32,3,212,512,main,positivefb,-99,average,53,1.6675107999999454,['c'],1,left,['3'],4,0.35825649999969755,,,36,19,Vrouw,Links,1,
,dotcolour,dotcolour,xotask,33,3,213,513,main,positivefb,-99,easy,16,0.7835998000000473,['n'],1,right,['2'],5,0.625227200000154,,,36,19,Vrouw,Links,1,
,dotcolour,dotcolour,xotask,34,3,214,514,main,positivefb,-99,average,29,0.9842364999999518,['n'],1,right,['2'],5,0.2976097999999183,,,36,19,Vrouw,Links,1,
,dotcolour,dotcolour,xotask,35,3,215,515,main,positivefb,-99,hard,36,0.9996817000001101,['n'],1,right,['2'],5,0.19935480000003736,,,36,19,Vrouw,Links,1,
,dotcolour,dotcolour,xotask,36,3,216,516,main,positivefb,-99,average,52,0.6669546000002811,['c'],1,left,['2'],5,0.26195949999964796,,,36,19,Vrouw,Links,1,
,dotcolour,dotcolour,xotask,37,3,217,517,main,positivefb,-99,hard,36,0.8166657000001578,['n'],1,right,['2'],5,0.21131839999998192,,,36,19,Vrouw,Links,1,
,dotcolour,dotcolour,xotask,38,3,218,518,main,positivefb,-99,average,55,0.8346081999998205,['c'],1,left,['2'],5,0.20966750000025058,,,36,19,Vrouw,Links,1,
,dotcolour,dotcolour,xotask,39,3,219,519,main,positivefb,-99,hard,37,0.7498225999997885,['n'],1,right,['3'],4,0.277773100000104,,,36,19,Vrouw,Links,1,
,dotcolour,dotcolour,xotask,40,3,220,520,main,positivefb,-99,easy,17,0.7337680999999066,['n'],1,right,['2'],5,0.2712467999999717,,,36,19,Vrouw,Links,1,
,dotcolour,dotcolour,xotask,41,3,221,521,main,positivefb,-99,easy,15,0.7675945999999385,['n'],1,right,['1'],6,0.24622920000001614,,,36,19,Vrouw,Links,1,
,dotcolour,dotcolour,xotask,42,3,222,522,main,positivefb,-99,easy,63,0.8511914000000615,['n'],0,left,['0'],1,0.9790415000002213,,,36,19,Vrouw,Links,1,
,dotcolour,dotcolour,xotask,43,3,223,523,main,positivefb,-99,easy,62,1.183676099999957,['c'],1,left,['1'],6,0.3096181000000797,,,36,19,Vrouw,Links,1,
,dotcolour,dotcolour,xotask,44,3,224,524,main,positivefb,-99,hard,44,1.0174660999996377,['n'],0,left,['2'],5,0.28193800000008196,,,36,19,Vrouw,Links,1,
,dotcolour,dotcolour,xotask,45,3,225,525,main,positivefb,-99,easy,19,0.849507999999787,['n'],1,right,['2'],5,0.38233820000004926,,,36,19,Vrouw,Links,1,
,dotcolour,dotcolour,xotask,46,3,226,526,main,positivefb,-99,hard,45,1.3998888999999508,['c'],1,left,['1'],6,0.3762826000001951,,,36,19,Vrouw,Links,1,
,dotcolour,dotcolour,xotask,47,3,227,527,main,positivefb,-99,average,51,1.317174299999806,['c'],1,left,['1'],6,0.26961979999987307,,,36,19,Vrouw,Links,1,
,dotcolour,dotcolour,xotask,48,3,228,528,main,positivefb,-99,hard,37,0.8666097000000264,['n'],1,right,['1'],6,0.28892229999974006,,,36,19,Vrouw,Links,1,
,dotcolour,dotcolour,xotask,49,3,229,529,main,positivefb,-99,easy,18,0.7165555999999924,['n'],1,right,['1'],6,0.2663043999996262,,,36,19,Vrouw,Links,1,
,dotcolour,dotcolour,xotask,50,3,230,530,main,positivefb,-99,average,51,1.151072699999986,['c'],1,left,['1'],6,0.2890164000000368,,,36,19,Vrouw,Links,1,
,dotcolour,dotcolour,xotask,51,3,231,531,main,positivefb,-99,average,54,2.1175054999998792,['c'],1,left,['1'],6,0.3224118000002818,,,36,19,Vrouw,Links,1,
,dotcolour,dotcolour,xotask,52,3,232,532,main,positivefb,-99,hard,36,3.4332038000002285,['n'],1,right,['3'],4,1.0211819999999534,,,36,19,Vrouw,Links,1,
,dotcolour,dotcolour,xotask,53,3,233,533,main,positivefb,-99,easy,63,1.2669303999996373,['c'],1,left,['2'],5,0.5863190000000031,,,36,19,Vrouw,Links,1,
,dotcolour,dotcolour,xotask,54,3,234,534,main,positivefb,-99,hard,43,3.78363760000002,['n'],0,left,['3'],4,0.3963752000004206,,,36,19,Vrouw,Links,1,
,dotcolour,dotcolour,xotask,55,3,235,535,main,positivefb,-99,easy,15,0.8339298000000781,['n'],1,right,['3'],4,0.2280974000000242,,,36,19,Vrouw,Links,1,
,dotcolour,dotcolour,xotask,56,3,236,536,main,positivefb,-99,average,53,0.8848588000000746,['n'],0,left,['2'],5,0.2975357999998778,,,36,19,Vrouw,Links,1,
,dotcolour,dotcolour,xotask,57,3,237,537,main,positivefb,-99,hard,44,1.3673524000000725,['n'],0,left,['3'],4,0.33543250000002445,,,36,19,Vrouw,Links,1,
,dotcolour,dotcolour,xotask,58,3,238,538,main,positivefb,-99,average,51,0.9849312000001191,['n'],0,left,['2'],5,0.24379030000000057,,,36,19,Vrouw,Links,1,
,dotcolour,dotcolour,xotask,59,3,239,539,main,positivefb,-99,easy,17,0.7340865000001031,['n'],1,right,['3'],4,0.246392300000025,,,36,19,Vrouw,Links,1,
,dotcolour,dotcolour,xotask,0,4,240,540,main,positivefb,-99,hard,37,1.1993107999996937,['n'],1,right,['2'],5,0.19230199999992692,,,36,19,Vrouw,Links,1,
,dotcolour,dotcolour,xotask,1,4,241,541,main,positivefb,-99,average,51,0.6009745999999723,['c'],1,left,['2'],5,0.1940865000001395,,,36,19,Vrouw,Links,1,
,dotcolour,dotcolour,xotask,2,4,242,542,main,positivefb,-99,easy,18,0.5178216000003886,['n'],1,right,['2'],5,0.23830830000042624,,,36,19,Vrouw,Links,1,
,dotcolour,dotcolour,xotask,3,4,243,543,main,positivefb,-99,hard,37,1.3338067999998202,['n'],1,right,['3'],4,0.19224050000002535,,,36,19,Vrouw,Links,1,
,dotcolour,dotcolour,xotask,4,4,244,544,main,positivefb,-99,easy,17,0.7502643000002536,['n'],1,right,['2'],5,0.14762710000013612,,,36,19,Vrouw,Links,1,
,dotcolour,dotcolour,xotask,5,4,245,545,main,positivefb,-99,average,54,0.5000830999997561,['c'],1,left,['2'],5,0.2585705000001326,,,36,19,Vrouw,Links,1,
,dotcolour,dotcolour,xotask,6,4,246,546,main,positivefb,-99,hard,42,1.1836283000002368,['c'],1,left,['2'],5,0.8269137000002047,,,36,19,Vrouw,Links,1,
,dotcolour,dotcolour,xotask,7,4,247,547,main,positivefb,-99,average,54,0.8009594000000106,['c'],1,left,['3'],4,0.482406500000252,,,36,19,Vrouw,Links,1,
,dotcolour,dotcolour,xotask,8,4,248,548,main,positivefb,-99,easy,64,0.700779500000408,['c'],1,left,['1'],6,0.475147200000265,,,36,19,Vrouw,Links,1,
,dotcolour,dotcolour,xotask,9,4,249,549,main,positivefb,-99,easy,61,0.7337741000001188,['c'],1,left,['1'],6,0.34888649999993504,,,36,19,Vrouw,Links,1,
,dotcolour,dotcolour,xotask,10,4,250,550,main,positivefb,-99,hard,45,0.6840501000001495,['c'],1,left,['1'],6,0.8284374999998363,,,36,19,Vrouw,Links,1,
,dotcolour,dotcolour,xotask,11,4,251,551,main,positivefb,-99,hard,43,0.7167939999999362,['c'],1,left,['2'],5,0.5118683000000601,,,36,19,Vrouw,Links,1,
,dotcolour,dotcolour,xotask,12,4,252,552,main,positivefb,-99,hard,45,0.8173344000001634,['c'],1,left,['2'],5,0.32350469999983034,,,36,19,Vrouw,Links,1,
,dotcolour,dotcolour,xotask,13,4,253,553,main,positivefb,-99,average,26,1.1169210999996722,['n'],1,right,['2'],5,0.291441500000019,,,36,19,Vrouw,Links,1,
,dotcolour,dotcolour,xotask,14,4,254,554,main,positivefb,-99,hard,43,1.000248400000146,['n'],0,left,['2'],5,0.2314165999996476,,,36,19,Vrouw,Links,1,
,dotcolour,dotcolour,xotask,15,4,255,555,main,positivefb,-99,average,55,0.7683431000000382,['c'],1,left,['2'],5,0.29657189999988987,,,36,19,Vrouw,Links,1,
,dotcolour,dotcolour,xotask,16,4,256,556,main,positivefb,-99,easy,65,0.7842118000003211,['c'],1,left,['2'],5,0.3668280000001687,,,36,19,Vrouw,Links,1,
,dotcolour,dotcolour,xotask,17,4,257,557,main,positivefb,-99,easy,17,0.6504872000000432,['n'],1,right,['2'],5,0.4066341000002467,,,36,19,Vrouw,Links,1,
,dotcolour,dotcolour,xotask,18,4,258,558,main,positivefb,-99,average,54,2.86753009999984,['c'],1,left,['3'],4,1.9170960999999807,,,36,19,Vrouw,Links,1,
,dotcolour,dotcolour,xotask,19,4,259,559,main,positivefb,-99,easy,64,5.217459299999973,['n'],0,left,['2'],5,0.22452389999989464,,,36,19,Vrouw,Links,1,
,dotcolour,dotcolour,xotask,20,4,260,560,main,positivefb,-99,hard,39,1.0182997000001706,['n'],1,right,['3'],4,0.16738260000010996,,,36,19,Vrouw,Links,1,
,dotcolour,dotcolour,xotask,21,4,261,561,main,positivefb,-99,hard,35,1.600668399999904,['n'],1,right,['3'],4,0.2341273999995792,,,36,19,Vrouw,Links,1,
,dotcolour,dotcolour,xotask,22,4,262,562,main,positivefb,-99,easy,64,0.6005480000003445,['c'],1,left,['2'],5,0.4574845000001915,,,36,19,Vrouw,Links,1,
,dotcolour,dotcolour,xotask,23,4,263,563,main,positivefb,-99,average,28,1.366942999999992,['n'],1,right,['2'],5,0.3611767000002146,,,36,19,Vrouw,Links,1,
,dotcolour,dotcolour,xotask,24,4,264,564,main,positivefb,-99,average,25,0.9347520000001168,['n'],1,right,['2'],5,0.4301692999997613,,,36,19,Vrouw,Links,1,
,dotcolour,dotcolour,xotask,25,4,265,565,main,positivefb,-99,hard,42,3.6837209999998777,['n'],0,left,['1'],6,0.33942830000023605,,,36,19,Vrouw,Links,1,
,dotcolour,dotcolour,xotask,26,4,266,566,main,positivefb,-99,average,54,1.1011938000001464,['c'],1,left,['2'],5,0.47441440000011426,,,36,19,Vrouw,Links,1,
,dotcolour,dotcolour,xotask,27,4,267,567,main,positivefb,-99,hard,37,1.5844898000000285,['n'],1,right,['2'],5,0.32130929999993896,,,36,19,Vrouw,Links,1,
,dotcolour,dotcolour,xotask,28,4,268,568,main,positivefb,-99,average,28,0.6507732000000033,['n'],1,right,['2'],5,0.2518732999997155,,,36,19,Vrouw,Links,1,
,dotcolour,dotcolour,xotask,29,4,269,569,main,positivefb,-99,easy,18,0.6501837000000705,['n'],1,right,['2'],5,0.2802624000000833,,,36,19,Vrouw,Links,1,
,dotcolour,dotcolour,xotask,30,4,270,570,main,positivefb,-99,easy,16,0.601339199999984,['n'],1,right,['1'],6,0.4700600999999551,,,36,19,Vrouw,Links,1,
,dotcolour,dotcolour,xotask,31,4,271,571,main,positivefb,-99,easy,17,0.5510076000000481,['n'],1,right,['1'],6,0.31799679999994623,,,36,19,Vrouw,Links,1,
,dotcolour,dotcolour,xotask,32,4,272,572,main,positivefb,-99,hard,45,1.167373100000077,['c'],1,left,['2'],5,0.2914221000000907,,,36,19,Vrouw,Links,1,
,dotcolour,dotcolour,xotask,33,4,273,573,main,positivefb,-99,easy,63,0.5677236999999877,['c'],1,left,['1'],6,0.345870499999819,,,36,19,Vrouw,Links,1,
,dotcolour,dotcolour,xotask,34,4,274,574,main,positivefb,-99,average,51,0.6676081000000522,['c'],1,left,['2'],5,0.6913160999997672,,,36,19,Vrouw,Links,1,
,dotcolour,dotcolour,xotask,35,4,275,575,main,positivefb,-99,easy,18,1.3671831000001475,['n'],1,right,['1'],6,0.8979518999999527,,,36,19,Vrouw,Links,1,
,dotcolour,dotcolour,xotask,36,4,276,576,main,positivefb,-99,average,26,0.7825010000001384,['n'],1,right,['2'],5,0.8557015999999749,,,36,19,Vrouw,Links,1,
,dotcolour,dotcolour,xotask,37,4,277,577,main,positivefb,-99,average,27,2.8842005000001336,['n'],1,right,['2'],5,0.2826838000000862,,,36,19,Vrouw,Links,1,
,dotcolour,dotcolour,xotask,38,4,278,578,main,positivefb,-99,hard,39,0.6515015999998468,['n'],1,right,['2'],5,0.3025447999998505,,,36,19,Vrouw,Links,1,
,dotcolour,dotcolour,xotask,39,4,279,579,main,positivefb,-99,average,29,0.7008501999998771,['n'],1,right,['2'],5,0.286608900000374,,,36,19,Vrouw,Links,1,
,dotcolour,dotcolour,xotask,40,4,280,580,main,positivefb,-99,average,26,1.2009720000000925,['n'],1,right,['1'],6,0.2362794999999096,,,36,19,Vrouw,Links,1,
,dotcolour,dotcolour,xotask,41,4,281,581,main,positivefb,-99,hard,36,3.3503090000003795,['n'],1,right,['3'],4,1.0385248999996293,,,36,19,Vrouw,Links,1,
,dotcolour,dotcolour,xotask,42,4,282,582,main,positivefb,-99,average,52,1.1165722000000642,['c'],1,left,['1'],6,0.3603164999999535,,,36,19,Vrouw,Links,1,
,dotcolour,dotcolour,xotask,43,4,283,583,main,positivefb,-99,average,26,1.0347037999999884,['n'],1,right,['1'],6,0.338159700000233,,,36,19,Vrouw,Links,1,
,dotcolour,dotcolour,xotask,44,4,284,584,main,positivefb,-99,easy,63,0.7002227000002677,['c'],1,left,['1'],6,0.2975279000002047,,,36,19,Vrouw,Links,1,
,dotcolour,dotcolour,xotask,45,4,285,585,main,positivefb,-99,easy,15,0.9172803000001295,['n'],1,right,['1'],6,0.42673439999998664,,,36,19,Vrouw,Links,1,
,dotcolour,dotcolour,xotask,46,4,286,586,main,positivefb,-99,average,53,1.2835962999997719,['c'],1,left,['1'],6,0.2952090000003409,,,36,19,Vrouw,Links,1,
,dotcolour,dotcolour,xotask,47,4,287,587,main,positivefb,-99,average,29,3.20040999999992,['n'],1,right,['1'],6,0.3487972000002628,,,36,19,Vrouw,Links,1,
,dotcolour,dotcolour,xotask,48,4,288,588,main,positivefb,-99,easy,62,0.7325339000003623,['c'],1,left,['1'],6,0.2983558000000812,,,36,19,Vrouw,Links,1,
,dotcolour,dotcolour,xotask,49,4,289,589,main,positivefb,-99,easy,64,0.5837576000003537,['c'],1,left,['1'],6,0.21507880000035584,,,36,19,Vrouw,Links,1,
,dotcolour,dotcolour,xotask,50,4,290,590,main,positivefb,-99,hard,45,1.2513842999996996,['c'],1,left,['2'],5,0.4129272000000128,,,36,19,Vrouw,Links,1,
,dotcolour,dotcolour,xotask,51,4,291,591,main,positivefb,-99,easy,65,0.6349641000001611,['c'],1,left,['2'],5,0.3249713000000156,,,36,19,Vrouw,Links,1,
,dotcolour,dotcolour,xotask,52,4,292,592,main,positivefb,-99,hard,38,0.8175353000001451,['n'],1,right,['3'],4,0.5762968999997611,,,36,19,Vrouw,Links,1,
,dotcolour,dotcolour,xotask,53,4,293,593,main,positivefb,-99,easy,17,1.0344623000000865,['n'],1,right,['1'],6,0.3849003000000266,,,36,19,Vrouw,Links,1,
,dotcolour,dotcolour,xotask,54,4,294,594,main,positivefb,-99,easy,17,0.6337618999996266,['n'],1,right,['1'],6,0.3290385000000242,,,36,19,Vrouw,Links,1,
,dotcolour,dotcolour,xotask,55,4,295,595,main,positivefb,-99,hard,42,1.166686000000027,['c'],1,left,['2'],5,0.4788776999998845,,,36,19,Vrouw,Links,1,
,dotcolour,dotcolour,xotask,56,4,296,596,main,positivefb,-99,hard,36,2.16785820000041,['n'],1,right,['3'],4,1.1261223999999856,,,36,19,Vrouw,Links,1,
,dotcolour,dotcolour,xotask,57,4,297,597,main,positivefb,-99,average,52,0.8171981000000414,['c'],1,left,['2'],5,0.2494648000001689,,,36,19,Vrouw,Links,1,
,dotcolour,dotcolour,xotask,58,4,298,598,main,positivefb,-99,hard,41,0.9835697000003165,['c'],1,left,['3'],4,0.3846784000002117,,,36,19,Vrouw,Links,1,
,dotcolour,dotcolour,xotask,59,4,299,599,main,positivefb,-99,hard,38,1.0336692999999286,['n'],1,right,['3'],4,0.3042571000000862,,,36,19,Vrouw,Links,1,
,dotcolour,dotcolour,xotask,0,0,0,600,training,positivefb,93,easy,65,1.001841599999807,['c'],1,left,['2'],5,0.23081109999975524,,,36,19,Vrouw,Links,1,
,dotcolour,dotcolour,xotask,1,0,1,601,training,positivefb,23,hard,41,0.8668974000001981,['n'],0,left,['2'],5,0.9549343000003319,,,36,19,Vrouw,Links,1,
,dotcolour,dotcolour,xotask,2,0,2,602,training,positivefb,93,hard,43,1.7829144000002088,['c'],1,left,['3'],4,0.27848420000009355,,,36,19,Vrouw,Links,1,
,dotcolour,dotcolour,xotask,3,0,3,603,training,positivefb,78,hard,38,1.333846700000322,['n'],1,right,['3'],4,0.18147839999983262,,,36,19,Vrouw,Links,1,
,dotcolour,dotcolour,xotask,4,0,4,604,training,positivefb,87,average,55,1.0162334000001465,['c'],1,left,['2'],5,0.26982920000000377,,,36,19,Vrouw,Links,1,
,dotcolour,dotcolour,xotask,5,0,5,605,training,positivefb,84,average,27,1.249411699999655,['n'],1,right,['2'],5,0.4893716999999924,,,36,19,Vrouw,Links,1,
,dotcolour,dotcolour,xotask,6,0,6,606,training,positivefb,68,average,55,0.9663713999998436,['n'],0,left,['0'],1,1.0870976000001065,,,36,19,Vrouw,Links,1,
,dotcolour,dotcolour,xotask,7,0,7,607,training,positivefb,34,hard,36,1.6661183999999594,['c'],0,right,['3'],4,1.3936180999999124,,,36,19,Vrouw,Links,1,
,dotcolour,dotcolour,xotask,8,0,8,608,training,positivefb,92,average,52,2.000208399999792,['c'],1,left,['3'],4,0.3456670000000486,,,36,19,Vrouw,Links,1,
,dotcolour,dotcolour,xotask,9,0,9,609,training,positivefb,78,hard,36,3.483259299999645,['n'],1,right,['3'],4,0.2974098000004233,,,36,19,Vrouw,Links,1,
,dotcolour,dotcolour,xotask,10,0,10,610,training,positivefb,91,average,53,1.9827375999998367,['c'],1,left,['2'],5,1.039113300000281,,,36,19,Vrouw,Links,1,
,dotcolour,dotcolour,xotask,11,0,11,611,training,positivefb,97,easy,17,1.2675389000000905,['n'],1,right,['1'],6,1.0279067999999825,,,36,19,Vrouw,Links,1,
,dotcolour,dotcolour,xotask,12,0,12,612,training,positivefb,98,easy,65,0.7655503999999382,['c'],1,left,['1'],6,0.23607349999974758,,,36,19,Vrouw,Links,1,
,dotcolour,dotcolour,xotask,13,0,13,613,training,positivefb,97,easy,18,0.7992612999996709,['n'],1,right,['1'],6,0.3224746999999297,,,36,19,Vrouw,Links,1,
,dotcolour,dotcolour,xotask,14,0,14,614,training,positivefb,99,easy,16,2.217738499999996,['n'],1,right,['3'],4,1.213593000000401,,,36,19,Vrouw,Links,1,
,dotcolour,dotcolour,xotask,15,0,15,615,training,positivefb,94,hard,45,1.0498207999999067,['c'],1,left,['2'],5,0.5561266999998224,,,36,19,Vrouw,Links,1,
,dotcolour,dotcolour,xotask,16,0,16,616,training,positivefb,86,hard,36,4.482990499999687,['c'],0,right,['3'],4,0.5462592999997469,,,36,19,Vrouw,Links,1,
,dotcolour,dotcolour,xotask,17,0,17,617,training,positivefb,89,easy,62,0.7159542999997939,['c'],1,left,['2'],5,0.3209017999997741,,,36,19,Vrouw,Links,1,
,dotcolour,dotcolour,xotask,18,0,18,618,training,positivefb,99,easy,62,0.5834248000001026,['c'],1,left,['2'],5,0.25193609999996625,,,36,19,Vrouw,Links,1,
,dotcolour,dotcolour,xotask,19,0,19,619,training,positivefb,84,average,29,0.933544499999698,['n'],1,right,['2'],5,0.27701139999999214,,,36,19,Vrouw,Links,1,
,dotcolour,dotcolour,xotask,20,0,20,620,training,positivefb,93,easy,64,0.6502511000003324,['c'],1,left,['2'],5,0.2803308999996261,,,36,19,Vrouw,Links,1,
,dotcolour,dotcolour,xotask,21,0,21,621,training,positivefb,95,hard,37,0.866722899999786,['n'],1,right,['2'],5,0.2033000000001266,,,36,19,Vrouw,Links,1,
,dotcolour,dotcolour,xotask,22,0,22,622,training,positivefb,100,average,55,0.6670889999995779,['c'],1,left,['2'],5,0.3046604000001025,,,36,19,Vrouw,Links,1,
,dotcolour,dotcolour,xotask,23,0,23,623,training,positivefb,89,hard,43,1.6834795999998278,['n'],0,left,['2'],5,0.19262979999984964,,,36,19,Vrouw,Links,1,
,dotcolour,dotcolour,xotask,24,0,24,624,training,positivefb,86,hard,39,1.8005711000000701,['c'],0,right,['3'],4,0.2900232000001779,,,36,19,Vrouw,Links,1,
,dotcolour,dotcolour,xotask,25,0,25,625,training,positivefb,63,easy,19,0.7164628999998968,['n'],1,right,['2'],5,0.3222178000000895,,,36,19,Vrouw,Links,1,
,dotcolour,dotcolour,xotask,26,0,26,626,training,positivefb,62,hard,43,7.100400400000126,['n'],0,left,['2'],5,0.32126659999994445,,,36,19,Vrouw,Links,1,
,dotcolour,dotcolour,xotask,27,0,27,627,training,positivefb,94,easy,61,0.6157149999999092,['n'],0,left,['2'],5,0.24440030000005208,,,36,19,Vrouw,Links,1,
,dotcolour,dotcolour,xotask,28,0,28,628,training,positivefb,90,easy,15,1.1667327000000114,['n'],1,right,['2'],5,0.18065449999994598,,,36,19,Vrouw,Links,1,
,dotcolour,dotcolour,xotask,29,0,29,629,training,positivefb,97,average,28,0.6667897000002085,['n'],1,right,['2'],5,0.23463649999985137,,,36,19,Vrouw,Links,1,
,dotcolour,dotcolour,xotask,30,0,30,630,training,positivefb,81,average,55,1.417549599999802,['n'],0,left,['2'],5,0.4657273000002533,,,36,19,Vrouw,Links,1,
,dotcolour,dotcolour,xotask,31,0,31,631,training,positivefb,85,hard,39,2.2323559999999816,['n'],1,right,['2'],5,0.27684580000004644,,,36,19,Vrouw,Links,1,
,dotcolour,dotcolour,xotask,32,0,32,632,training,positivefb,91,average,26,2.2336099999997714,['n'],1,right,['2'],5,0.30472009999994043,,,36,19,Vrouw,Links,1,
,dotcolour,dotcolour,xotask,33,0,33,633,training,positivefb,97,hard,44,1.3004420000002028,['c'],1,left,['2'],5,0.482310200000029,,,36,19,Vrouw,Links,1,
,dotcolour,dotcolour,xotask,34,0,34,634,training,positivefb,70,easy,15,1.7003813999999693,['c'],0,right,['3'],4,0.8105312999996386,,,36,19,Vrouw,Links,1,
,dotcolour,dotcolour,xotask,35,0,35,635,training,positivefb,58,average,52,3.4337742000002436,['c'],1,left,['3'],4,0.5528490000001511,,,36,19,Vrouw,Links,1,
,dotcolour,dotcolour,xotask,36,0,36,636,training,positivefb,96,average,55,0.8494966000002933,['c'],1,left,['2'],5,0.3693708999999217,,,36,19,Vrouw,Links,1,
,dotcolour,dotcolour,xotask,37,0,37,637,training,positivefb,88,easy,16,0.7324670000002698,['n'],1,right,['2'],5,0.2529336000002331,,,36,19,Vrouw,Links,1,
,dotcolour,dotcolour,xotask,38,0,38,638,training,positivefb,79,hard,45,1.5170564999998533,['c'],1,left,['2'],5,0.23835879999978715,,,36,19,Vrouw,Links,1,
,dotcolour,dotcolour,xotask,39,0,39,639,training,positivefb,97,hard,42,1.2668950000002042,['n'],0,left,['3'],4,0.3946458000000348,,,36,19,Vrouw,Links,1,
,dotcolour,dotcolour,xotask,40,0,40,640,training,positivefb,96,average,29,0.7825166000002355,['n'],1,right,['3'],4,0.3232662000000346,,,36,19,Vrouw,Links,1,
,dotcolour,dotcolour,xotask,41,0,41,641,training,positivefb,99,easy,15,0.6001811999999518,['n'],1,right,['2'],5,0.27141000000028725,,,36,19,Vrouw,Links,1,
,dotcolour,dotcolour,xotask,42,0,42,642,training,positivefb,97,average,25,0.6334305999998833,['n'],1,right,['1'],6,0.33906459999980143,,,36,19,Vrouw,Links,1,
,dotcolour,dotcolour,xotask,43,0,43,643,training,positivefb,98,easy,64,1.350481800000125,['c'],1,left,['1'],6,1.5196341000000757,,,36,19,Vrouw,Links,1,
,dotcolour,dotcolour,xotask,44,0,44,644,training,positivefb,72,hard,38,1.1990516999999272,['c'],0,right,['2'],5,0.8830251999997927,,,36,19,Vrouw,Links,1,
,dotcolour,dotcolour,xotask,45,0,45,645,training,positivefb,96,easy,63,0.9500309000000016,['c'],1,left,['1'],6,0.2740251999998691,,,36,19,Vrouw,Links,1,
,dotcolour,dotcolour,xotask,46,0,46,646,training,positivefb,92,average,25,0.6328317000002244,['n'],1,right,['1'],6,0.2856406999999308,,,36,19,Vrouw,Links,1,
,dotcolour,dotcolour,xotask,47,0,47,647,training,positivefb,96,easy,62,0.8671899999999368,['c'],1,left,['1'],6,0.26380760000029113,,,36,19,Vrouw,Links,1,
,dotcolour,dotcolour,xotask,48,0,48,648,training,positivefb,77,average,54,1.8007408000003124,['c'],1,left,['1'],6,0.3576933999997891,,,36,19,Vrouw,Links,1,
,dotcolour,dotcolour,xotask,49,0,49,649,training,positivefb,82,average,26,5.650971000000027,['n'],1,right,['2'],5,0.8467393000000811,,,36,19,Vrouw,Links,1,
,dotcolour,dotcolour,xotask,50,0,50,650,training,positivefb,92,easy,64,0.7171524000000318,['c'],1,left,['2'],5,0.26480949999995573,,,36,19,Vrouw,Links,1,
,dotcolour,dotcolour,xotask,51,0,51,651,training,positivefb,90,average,55,1.033437000000049,['c'],1,left,['1'],6,0.5326519000000189,,,36,19,Vrouw,Links,1,
,dotcolour,dotcolour,xotask,52,0,52,652,training,positivefb,100,easy,18,0.9497102000000268,['n'],1,right,['2'],5,0.5943563000000722,,,36,19,Vrouw,Links,1,
,dotcolour,dotcolour,xotask,53,0,53,653,training,positivefb,68,hard,44,1.1158945999995922,['n'],0,left,['1'],6,1.918546100000185,,,36,19,Vrouw,Links,1,
,dotcolour,dotcolour,xotask,54,0,54,654,training,positivefb,87,easy,18,0.7350917000003392,['n'],1,right,['1'],6,0.5408017999998265,,,36,19,Vrouw,Links,1,
,dotcolour,dotcolour,xotask,55,0,55,655,training,positivefb,98,average,27,0.6489559999999983,['n'],1,right,['2'],5,0.3412247999999636,,,36,19,Vrouw,Links,1,
