starttime,task,fbtask,firsttask,withinblocktrial,block,withintasktrial,trial,running,feedback,fbscore,difflevel,reddots,rt,resp,cor,cresp,conf_press,cj,RTconf,n_xes,post1,post2,post3,post4,post5,stoptime,sub,age,gender,handedness,session,
1715675570,dotcolour,dotcolour,dotcolour,0,0,0,0,training,positivefb,94,easy,15,0.7179265000004307,['n'],1,right,['1'],6,0.3518711999995503,,,,,,,,23,0,Man,Rechts,2,
,dotcolour,dotcolour,dotcolour,1,0,1,1,training,positivefb,97,average,51,0.6829686000000947,['c'],1,left,['1'],6,0.16657969999960187,,,,,,,,23,0,Man,Rechts,2,
,dotcolour,dotcolour,dotcolour,2,0,2,2,training,positivefb,66,hard,38,2.650353500000165,['c'],0,right,['2'],5,0.5820623999998134,,,,,,,,23,0,Man,Rechts,2,
,dotcolour,dotcolour,dotcolour,3,0,3,3,training,positivefb,88,hard,45,0.9331754000004366,['c'],1,left,['1'],6,0.16096999999990658,,,,,,,,23,0,Man,Rechts,2,
,dotcolour,dotcolour,dotcolour,4,0,4,4,training,positivefb,97,average,52,0.6162862000001041,['c'],1,left,['1'],6,0.09870749999936379,,,,,,,,23,0,Man,Rechts,2,
,dotcolour,dotcolour,dotcolour,5,0,5,5,training,positivefb,81,hard,35,0.6009076000000277,['n'],1,right,['1'],6,0.13466800000060175,,,,,,,,23,0,Man,Rechts,2,
,dotcolour,dotcolour,dotcolour,6,0,6,6,training,positivefb,96,hard,39,0.7331215000003795,['c'],0,right,['1'],6,0.03547829999934038,,,,,,,,23,0,Man,Rechts,2,
,dotcolour,dotcolour,dotcolour,7,0,7,7,training,positivefb,94,average,51,0.5017438000004404,['c'],1,left,['1'],6,0.09463330000016867,,,,,,,,23,0,Man,Rechts,2,
,dotcolour,dotcolour,dotcolour,8,0,8,8,training,positivefb,95,hard,45,0.5334008999998332,['c'],1,left,['1'],6,0.08573299999989104,,,,,,,,23,0,Man,Rechts,2,
,dotcolour,dotcolour,dotcolour,9,0,9,9,training,positivefb,96,easy,17,0.6339015000003201,['n'],1,right,['1'],6,0.09777389999999286,,,,,,,,23,0,Man,Rechts,2,
,dotcolour,dotcolour,dotcolour,10,0,10,10,training,positivefb,33,average,26,0.5502096999998685,['c'],0,right,['9'],2,3.544086700000662,,,,,,,,23,0,Man,Rechts,2,
,dotcolour,dotcolour,dotcolour,11,0,11,11,training,positivefb,98,average,25,3.017095199999858,['n'],1,right,['3'],4,1.8568013000003702,,,,,,,,23,0,Man,Rechts,2,
,dotcolour,dotcolour,dotcolour,12,0,12,12,training,positivefb,86,easy,62,0.7336365000001024,['c'],1,left,['1'],6,0.11279459999968822,,,,,,,,23,0,Man,Rechts,2,
,dotcolour,dotcolour,dotcolour,13,0,13,13,training,positivefb,91,easy,16,0.5652915999999095,['n'],1,right,['1'],6,0.029412399999273475,,,,,,,,23,0,Man,Rechts,2,
,dotcolour,dotcolour,dotcolour,14,0,14,14,training,positivefb,0,easy,62,0.6175177999994048,['n'],0,left,['0'],1,2.316257499999665,,,,,,,,23,0,Man,Rechts,2,
,dotcolour,dotcolour,dotcolour,15,0,15,15,training,positivefb,78,average,29,2.599892799999907,['n'],1,right,['1'],6,0.1348889999999301,,,,,,,,23,0,Man,Rechts,2,
,dotcolour,dotcolour,dotcolour,16,0,16,16,training,positivefb,96,average,26,1.099733400000332,['n'],1,right,['1'],6,0.093507700000373,,,,,,,,23,0,Man,Rechts,2,
,dotcolour,dotcolour,dotcolour,17,0,17,17,training,positivefb,95,average,55,0.6673774999999296,['c'],1,left,['1'],6,0.08004720000008092,,,,,,,,23,0,Man,Rechts,2,
,dotcolour,dotcolour,dotcolour,18,0,18,18,training,positivefb,94,easy,16,0.6004835000003368,['n'],1,right,['1'],6,0.0537384999997812,,,,,,,,23,0,Man,Rechts,2,
,dotcolour,dotcolour,dotcolour,19,0,19,19,training,positivefb,94,average,25,0.7844187999999122,['n'],1,right,['1'],6,0.028024899999763875,,,,,,,,23,0,Man,Rechts,2,
,dotcolour,dotcolour,dotcolour,20,0,20,20,training,positivefb,92,easy,19,1.1343716999999742,['n'],1,right,['1'],6,0.47807120000015857,,,,,,,,23,0,Man,Rechts,2,
,dotcolour,dotcolour,dotcolour,21,0,21,21,training,positivefb,96,hard,41,0.7166471000000456,['c'],1,left,['1'],6,0.14309680000042135,,,,,,,,23,0,Man,Rechts,2,
,dotcolour,dotcolour,dotcolour,22,0,22,22,training,positivefb,95,hard,43,0.6662590999994791,['c'],1,left,['2'],5,0.278834700000516,,,,,,,,23,0,Man,Rechts,2,
,dotcolour,dotcolour,dotcolour,23,0,23,23,training,positivefb,95,average,53,0.6993496000004598,['c'],1,left,['1'],6,0.11246650000066438,,,,,,,,23,0,Man,Rechts,2,
,dotcolour,dotcolour,dotcolour,24,0,24,24,training,positivefb,87,hard,45,0.8001215000003867,['c'],1,left,['2'],5,0.2037491000000955,,,,,,,,23,0,Man,Rechts,2,
,dotcolour,dotcolour,dotcolour,25,0,25,25,training,positivefb,93,average,54,1.3325322000000597,['c'],1,left,['1'],6,0.10243269999955373,,,,,,,,23,0,Man,Rechts,2,
,dotcolour,dotcolour,dotcolour,26,0,26,26,training,positivefb,93,easy,64,1.1341906999996354,['c'],1,left,['1'],6,0.08494969999992463,,,,,,,,23,0,Man,Rechts,2,
,dotcolour,dotcolour,dotcolour,27,0,27,27,training,positivefb,78,hard,37,2.8009238999993613,['c'],0,right,['2'],5,0.057652600000437815,,,,,,,,23,0,Man,Rechts,2,
,dotcolour,dotcolour,dotcolour,28,0,28,28,training,positivefb,89,average,55,0.6840100999997958,['c'],1,left,['1'],6,0.04469309999967663,,,,,,,,23,0,Man,Rechts,2,
,dotcolour,dotcolour,dotcolour,29,0,29,29,training,positivefb,94,hard,38,1.0169063999992431,['c'],0,right,['2'],5,0.10680539999975736,,,,,,,,23,0,Man,Rechts,2,
,dotcolour,dotcolour,dotcolour,30,0,30,30,training,positivefb,94,easy,62,0.8172527000006085,['c'],1,left,['1'],6,0.05434220000006462,,,,,,,,23,0,Man,Rechts,2,
,dotcolour,dotcolour,dotcolour,31,0,31,31,training,positivefb,66,hard,37,1.550253100000191,['n'],1,right,['2'],5,0.2859244999999646,,,,,,,,23,0,Man,Rechts,2,
,dotcolour,dotcolour,dotcolour,32,0,32,32,training,positivefb,89,hard,42,0.883768699999564,['c'],1,left,['2'],5,0.20735979999972187,,,,,,,,23,0,Man,Rechts,2,
,dotcolour,dotcolour,dotcolour,33,0,33,33,training,positivefb,92,average,29,1.0168118999999933,['n'],1,right,['1'],6,0.20665989999997691,,,,,,,,23,0,Man,Rechts,2,
,dotcolour,dotcolour,dotcolour,34,0,34,34,training,positivefb,84,hard,36,1.066510599999674,['n'],1,right,['2'],5,0.10061930000028951,,,,,,,,23,0,Man,Rechts,2,
,dotcolour,dotcolour,dotcolour,35,0,35,35,training,positivefb,89,easy,15,0.9668941999998424,['n'],1,right,['1'],6,0.017288800000642368,,,,,,,,23,0,Man,Rechts,2,
,dotcolour,dotcolour,dotcolour,36,0,36,36,training,positivefb,86,hard,44,1.0827214999999342,['c'],1,left,['2'],5,0.12497509999957401,,,,,,,,23,0,Man,Rechts,2,
,dotcolour,dotcolour,dotcolour,37,0,37,37,training,positivefb,92,average,28,0.6331288000001223,['n'],1,right,['1'],6,0.023390800000015588,,,,,,,,23,0,Man,Rechts,2,
,dotcolour,dotcolour,dotcolour,38,0,38,38,training,positivefb,96,hard,41,0.8162374999992608,['c'],1,left,['2'],5,0.07010119999995368,,,,,,,,23,0,Man,Rechts,2,
,dotcolour,dotcolour,dotcolour,39,0,39,39,training,positivefb,94,easy,65,0.5339734999997745,['c'],1,left,['1'],6,0.03018089999932272,,,,,,,,23,0,Man,Rechts,2,
,dotcolour,dotcolour,dotcolour,40,0,40,40,training,positivefb,96,easy,18,0.5495981000003667,['n'],1,right,['1'],6,0.031402100000377686,,,,,,,,23,0,Man,Rechts,2,
,dotcolour,dotcolour,dotcolour,41,0,41,41,training,positivefb,92,hard,39,0.7506249999996726,['c'],0,right,['1'],6,0.04871780000030412,,,,,,,,23,0,Man,Rechts,2,
,dotcolour,dotcolour,dotcolour,42,0,42,42,training,positivefb,93,hard,43,1.2179313000006005,['c'],1,left,['2'],5,0.1652802000007796,,,,,,,,23,0,Man,Rechts,2,
,dotcolour,dotcolour,dotcolour,43,0,43,43,training,positivefb,92,hard,42,0.9509117999996306,['c'],1,left,['1'],6,0.06486070000028121,,,,,,,,23,0,Man,Rechts,2,
,dotcolour,dotcolour,dotcolour,44,0,44,44,training,positivefb,97,average,29,0.5837574999995923,['n'],1,right,['1'],6,0.0947251999996297,,,,,,,,23,0,Man,Rechts,2,
,dotcolour,dotcolour,dotcolour,45,0,45,45,training,positivefb,83,easy,65,0.8669425999996747,['c'],1,left,['1'],6,0.07313059999978577,,,,,,,,23,0,Man,Rechts,2,
,dotcolour,dotcolour,dotcolour,46,0,46,46,training,positivefb,94,easy,63,0.6831435000003694,['c'],1,left,['1'],6,0.0749231999998301,,,,,,,,23,0,Man,Rechts,2,
,dotcolour,dotcolour,dotcolour,47,0,47,47,training,positivefb,96,hard,38,0.6512143999998443,['n'],1,right,['2'],5,0.40632970000024216,,,,,,,,23,0,Man,Rechts,2,
,dotcolour,dotcolour,dotcolour,48,0,48,48,training,positivefb,96,easy,62,0.6168681999997716,['c'],1,left,['1'],6,0.10987539999950968,,,,,,,,23,0,Man,Rechts,2,
,dotcolour,dotcolour,dotcolour,49,0,49,49,training,positivefb,95,average,25,0.7666202999998859,['n'],1,right,['1'],6,0.05932759999996051,,,,,,,,23,0,Man,Rechts,2,
,dotcolour,dotcolour,dotcolour,50,0,50,50,training,positivefb,94,easy,65,0.5837492000000566,['c'],1,left,['1'],6,0.01698130000022502,,,,,,,,23,0,Man,Rechts,2,
,dotcolour,dotcolour,dotcolour,51,0,51,51,training,positivefb,85,easy,15,0.6838782000004358,['n'],1,right,['1'],6,0.08502260000022943,,,,,,,,23,0,Man,Rechts,2,
,dotcolour,dotcolour,dotcolour,52,0,52,52,training,positivefb,96,average,54,0.7174275000006674,['c'],1,left,['1'],6,0.061926800000037474,,,,,,,,23,0,Man,Rechts,2,
,dotcolour,dotcolour,dotcolour,53,0,53,53,training,positivefb,97,average,54,0.8333212999996249,['c'],1,left,['1'],6,0.1465909999997166,,,,,,,,23,0,Man,Rechts,2,
,dotcolour,dotcolour,dotcolour,54,0,54,54,training,positivefb,94,easy,19,0.7340981999996075,['n'],1,right,['1'],6,0.07105379999939032,,,,,,,,23,0,Man,Rechts,2,
,dotcolour,dotcolour,dotcolour,55,0,55,55,training,positivefb,94,average,54,0.5169856000002255,['c'],1,left,['1'],6,0.03971159999946394,,,,,,,,23,0,Man,Rechts,2,
,dotcolour,dotcolour,dotcolour,56,0,56,56,training,positivefb,93,easy,19,0.5838159000004453,['n'],1,right,['1'],6,0.05547709999973449,,,,,,,,23,0,Man,Rechts,2,
,dotcolour,dotcolour,dotcolour,57,0,57,57,training,positivefb,97,easy,65,0.5837983000001259,['c'],1,left,['1'],6,0.06994889999987208,,,,,,,,23,0,Man,Rechts,2,
,dotcolour,dotcolour,dotcolour,58,0,58,58,training,positivefb,95,hard,37,1.833532099999502,['n'],1,right,['2'],5,0.41874790000019857,,,,,,,,23,0,Man,Rechts,2,
,dotcolour,dotcolour,dotcolour,59,0,59,59,training,positivefb,98,average,27,0.6662491000006412,['n'],1,right,['1'],6,0.15070840000043972,,,,,,,,23,0,Man,Rechts,2,
,dotcolour,dotcolour,dotcolour,0,1,60,60,training,positivefb,75,hard,35,1.8844469999994544,['n'],1,right,['2'],5,0.10404250000010506,,,,,,,,23,0,Man,Rechts,2,
,dotcolour,dotcolour,dotcolour,1,1,61,61,training,positivefb,93,easy,17,0.6165517999997974,['n'],1,right,['1'],6,0.11503970000012487,,,,,,,,23,0,Man,Rechts,2,
,dotcolour,dotcolour,dotcolour,2,1,62,62,training,positivefb,91,average,29,0.5500214000003325,['n'],1,right,['1'],6,0.13665820000005624,,,,,,,,23,0,Man,Rechts,2,
,dotcolour,dotcolour,dotcolour,3,1,63,63,training,positivefb,93,average,55,0.6494315999998435,['c'],1,left,['1'],6,0.05735869999989518,,,,,,,,23,0,Man,Rechts,2,
,dotcolour,dotcolour,dotcolour,4,1,64,64,training,positivefb,96,average,55,0.5673680999998396,['c'],1,left,['1'],6,0.032521400000405265,,,,,,,,23,0,Man,Rechts,2,
,dotcolour,dotcolour,dotcolour,5,1,65,65,training,positivefb,98,easy,19,0.6330747000001793,['n'],1,right,['1'],6,2.1740621000008105,,,,,,,,23,0,Man,Rechts,2,
,dotcolour,dotcolour,dotcolour,6,1,66,66,training,positivefb,96,average,53,0.6662685999999667,['c'],1,left,['1'],6,0.6045296000002054,,,,,,,,23,0,Man,Rechts,2,
,dotcolour,dotcolour,dotcolour,7,1,67,67,training,positivefb,94,average,55,0.5505053999995653,['c'],1,left,['1'],6,0.0940669000001435,,,,,,,,23,0,Man,Rechts,2,
,dotcolour,dotcolour,dotcolour,8,1,68,68,training,positivefb,89,hard,36,1.332640700000411,['c'],0,right,['2'],5,0.28529449999950884,,,,,,,,23,0,Man,Rechts,2,
,dotcolour,dotcolour,dotcolour,9,1,69,69,training,positivefb,97,average,26,0.5997070999992502,['n'],1,right,['1'],6,0.410699800000657,,,,,,,,23,0,Man,Rechts,2,
,dotcolour,dotcolour,dotcolour,10,1,70,70,training,positivefb,83,easy,64,0.5004043999997521,['c'],1,left,['1'],6,0.13406430000031833,,,,,,,,23,0,Man,Rechts,2,
,dotcolour,dotcolour,dotcolour,11,1,71,71,training,positivefb,87,easy,65,0.483957499999633,['c'],1,left,['1'],6,0.03775500000028842,,,,,,,,23,0,Man,Rechts,2,
,dotcolour,dotcolour,dotcolour,12,1,72,72,training,positivefb,78,hard,42,2.650189500000124,['c'],1,left,['2'],5,0.2742428999999902,,,,,,,,23,0,Man,Rechts,2,
,dotcolour,dotcolour,dotcolour,13,1,73,73,training,positivefb,91,easy,18,0.7677991000000475,['n'],1,right,['1'],6,0.45729430000028515,,,,,,,,23,0,Man,Rechts,2,
,dotcolour,dotcolour,dotcolour,14,1,74,74,training,positivefb,89,easy,64,0.583653200000299,['c'],1,left,['1'],6,0.06321699999989505,,,,,,,,23,0,Man,Rechts,2,
,dotcolour,dotcolour,dotcolour,15,1,75,75,training,positivefb,98,easy,16,0.533290900000793,['n'],1,right,['1'],6,0.08066259999941394,,,,,,,,23,0,Man,Rechts,2,
,dotcolour,dotcolour,dotcolour,16,1,76,76,training,positivefb,92,hard,35,0.9006093999996665,['n'],1,right,['2'],5,0.20951920000061364,,,,,,,,23,0,Man,Rechts,2,
,dotcolour,dotcolour,dotcolour,17,1,77,77,training,positivefb,92,average,55,0.5675455999999031,['c'],1,left,['1'],6,0.05824560000019119,,,,,,,,23,0,Man,Rechts,2,
,dotcolour,dotcolour,dotcolour,18,1,78,78,training,positivefb,93,average,52,0.5166779000001043,['c'],1,left,['1'],6,0.07637930000055349,,,,,,,,23,0,Man,Rechts,2,
,dotcolour,dotcolour,dotcolour,19,1,79,79,training,positivefb,94,average,27,0.533531099999891,['n'],1,right,['1'],6,0.04422489999979007,,,,,,,,23,0,Man,Rechts,2,
,dotcolour,dotcolour,dotcolour,20,1,80,80,training,positivefb,87,average,29,1.3836078000003909,['n'],1,right,['2'],5,0.19612620000043535,,,,,,,,23,0,Man,Rechts,2,
,dotcolour,dotcolour,dotcolour,21,1,81,81,training,positivefb,98,hard,43,0.5168352000000596,['c'],1,left,['1'],6,0.10327820000020438,,,,,,,,23,0,Man,Rechts,2,
,dotcolour,dotcolour,dotcolour,22,1,82,82,training,positivefb,98,hard,39,0.9657318999998097,['n'],1,right,['8'],3,1.836394900000414,,,,,,,,23,0,Man,Rechts,2,
,dotcolour,dotcolour,dotcolour,23,1,83,83,training,positivefb,89,average,26,0.9334920999999667,['n'],1,right,['1'],6,0.08641280000028928,,,,,,,,23,0,Man,Rechts,2,
,dotcolour,dotcolour,dotcolour,24,1,84,84,training,positivefb,90,hard,45,1.0996298000000024,['c'],1,left,['1'],6,0.07834379999985686,,,,,,,,23,0,Man,Rechts,2,
,dotcolour,dotcolour,dotcolour,25,1,85,85,training,positivefb,96,easy,18,0.700424099999509,['n'],1,right,['1'],6,0.031941700000061246,,,,,,,,23,0,Man,Rechts,2,
,dotcolour,dotcolour,dotcolour,26,1,86,86,training,positivefb,95,hard,42,1.249343299999964,['n'],0,left,['1'],6,0.35588929999994434,,,,,,,,23,0,Man,Rechts,2,
,dotcolour,dotcolour,dotcolour,27,1,87,87,training,positivefb,90,easy,62,0.7997474000003422,['c'],1,left,['1'],6,0.08628870000029565,,,,,,,,23,0,Man,Rechts,2,
,dotcolour,dotcolour,dotcolour,28,1,88,88,training,positivefb,79,average,51,3.0160244999997303,['c'],1,left,['2'],5,0.1144825999999739,,,,,,,,23,0,Man,Rechts,2,
,dotcolour,dotcolour,dotcolour,29,1,89,89,training,positivefb,95,average,55,0.6844559000001027,['c'],1,left,['1'],6,0.05067270000017743,,,,,,,,23,0,Man,Rechts,2,
,dotcolour,dotcolour,dotcolour,30,1,90,90,training,positivefb,90,average,52,1.2168351999998777,['c'],1,left,['1'],6,0.04047950000040146,,,,,,,,23,0,Man,Rechts,2,
,dotcolour,dotcolour,dotcolour,31,1,91,91,training,positivefb,97,easy,19,0.732895400000416,['n'],1,right,['1'],6,0.09692500000073778,,,,,,,,23,0,Man,Rechts,2,
,dotcolour,dotcolour,dotcolour,32,1,92,92,training,positivefb,86,average,29,1.5165514999998777,['n'],1,right,['2'],5,0.6018574999998236,,,,,,,,23,0,Man,Rechts,2,
,dotcolour,dotcolour,dotcolour,33,1,93,93,training,positivefb,94,easy,15,0.5491002999997363,['n'],1,right,['1'],6,0.11513530000047467,,,,,,,,23,0,Man,Rechts,2,
,dotcolour,dotcolour,dotcolour,34,1,94,94,training,positivefb,96,hard,36,0.6657772999997178,['n'],1,right,['1'],6,0.0844786000006934,,,,,,,,23,0,Man,Rechts,2,
,dotcolour,dotcolour,dotcolour,35,1,95,95,training,positivefb,83,hard,37,0.9175233000005392,['c'],0,right,['2'],5,0.4205545000004349,,,,,,,,23,0,Man,Rechts,2,
,dotcolour,dotcolour,dotcolour,36,1,96,96,training,positivefb,89,average,27,0.6664128000002165,['n'],1,right,['1'],6,0.11297030000059749,,,,,,,,23,0,Man,Rechts,2,
,dotcolour,dotcolour,dotcolour,37,1,97,97,training,positivefb,95,easy,62,0.7160465999995722,['c'],1,left,['1'],6,0.16876409999986208,,,,,,,,23,0,Man,Rechts,2,
,dotcolour,dotcolour,dotcolour,38,1,98,98,training,positivefb,97,easy,16,0.5160433999999441,['n'],1,right,['1'],6,0.10867399999915506,,,,,,,,23,0,Man,Rechts,2,
,dotcolour,dotcolour,dotcolour,39,1,99,99,training,positivefb,93,hard,41,1.5159714999999778,['n'],0,left,['2'],5,0.13228060000074038,,,,,,,,23,0,Man,Rechts,2,
,dotcolour,dotcolour,dotcolour,40,1,100,100,training,positivefb,96,easy,65,0.5669500000003609,['c'],1,left,['1'],6,0.08071349999954691,,,,,,,,23,0,Man,Rechts,2,
,dotcolour,dotcolour,dotcolour,41,1,101,101,training,positivefb,93,easy,18,0.9667447999991055,['n'],1,right,['1'],6,0.062270499999613094,,,,,,,,23,0,Man,Rechts,2,
,dotcolour,dotcolour,dotcolour,42,1,102,102,training,positivefb,72,hard,45,5.002430799999274,['n'],0,left,['2'],5,0.1408473999999842,,,,,,,,23,0,Man,Rechts,2,
,dotcolour,dotcolour,dotcolour,43,1,103,103,training,positivefb,96,easy,65,0.6503511000000799,['c'],1,left,['1'],6,0.021624799999699462,,,,,,,,23,0,Man,Rechts,2,
,dotcolour,dotcolour,dotcolour,44,1,104,104,training,positivefb,85,hard,35,1.4338409000001775,['n'],1,right,['1'],6,0.06800879999991594,,,,,,,,23,0,Man,Rechts,2,
,dotcolour,dotcolour,dotcolour,45,1,105,105,training,positivefb,89,average,28,1.0168974999996863,['c'],0,right,['1'],6,0.06442380000044068,,,,,,,,23,0,Man,Rechts,2,
,dotcolour,dotcolour,dotcolour,46,1,106,106,training,positivefb,88,average,27,0.9163629000004221,['n'],1,right,['1'],6,0.025445099999160448,,,,,,,,23,0,Man,Rechts,2,
,dotcolour,dotcolour,dotcolour,47,1,107,107,training,positivefb,94,easy,62,0.6339269999998578,['c'],1,left,['1'],6,0.006400299999768322,,,,,,,,23,0,Man,Rechts,2,
,dotcolour,dotcolour,dotcolour,48,1,108,108,training,positivefb,87,hard,43,1.866166499999963,['c'],1,left,['2'],5,0.06850839999970049,,,,,,,,23,0,Man,Rechts,2,
,dotcolour,dotcolour,dotcolour,49,1,109,109,training,positivefb,96,easy,64,0.6159488000002966,['c'],1,left,['1'],6,0.0484201999997822,,,,,,,,23,0,Man,Rechts,2,
,dotcolour,dotcolour,dotcolour,50,1,110,110,training,positivefb,71,hard,42,1.61765270000069,['c'],1,left,['2'],5,0.5904442000000927,,,,,,,,23,0,Man,Rechts,2,
,dotcolour,dotcolour,dotcolour,51,1,111,111,training,positivefb,89,hard,36,0.8002554999993663,['n'],1,right,['2'],5,0.29498340000009193,,,,,,,,23,0,Man,Rechts,2,
,dotcolour,dotcolour,dotcolour,52,1,112,112,training,positivefb,95,hard,43,0.6838800000004994,['c'],1,left,['1'],6,0.03978759999972681,,,,,,,,23,0,Man,Rechts,2,
,dotcolour,dotcolour,dotcolour,53,1,113,113,training,positivefb,87,easy,15,0.866888999999901,['n'],1,right,['2'],5,1.0758027000001675,,,,,,,,23,0,Man,Rechts,2,
,dotcolour,dotcolour,dotcolour,54,1,114,114,training,positivefb,38,hard,37,0.8839861999995264,['n'],1,right,['2'],5,0.7026093000004039,,,,,,,,23,0,Man,Rechts,2,
,dotcolour,dotcolour,dotcolour,55,1,115,115,training,positivefb,93,average,53,0.6836323999996239,['c'],1,left,['1'],6,0.3508274999994683,,,,,,,,23,0,Man,Rechts,2,
,dotcolour,dotcolour,dotcolour,56,1,116,116,training,positivefb,83,hard,43,2.749626200000421,['c'],1,left,['2'],5,0.5788829000002806,,,,,,,,23,0,Man,Rechts,2,
,dotcolour,dotcolour,dotcolour,57,1,117,117,training,positivefb,85,hard,38,0.8498577999998815,['n'],1,right,['1'],6,0.14620920000015758,,,,,,,,23,0,Man,Rechts,2,
,dotcolour,dotcolour,dotcolour,58,1,118,118,training,positivefb,88,average,27,0.9680369000006976,['n'],1,right,['1'],6,0.06260269999984303,,,,,,,,23,0,Man,Rechts,2,
,dotcolour,dotcolour,dotcolour,59,1,119,119,training,positivefb,99,easy,65,0.5663885000003575,['c'],1,left,['1'],6,0.06213740000021062,,,,,,,,23,0,Man,Rechts,2,
,dotcolour,dotcolour,dotcolour,0,2,120,120,main,positivefb,-99,hard,44,1.0681484999995519,['c'],1,left,['2'],5,0.10105539999949542,,,,,,,,23,0,Man,Rechts,2,
,dotcolour,dotcolour,dotcolour,1,2,121,121,main,positivefb,-99,average,53,0.6341902000003756,['c'],1,left,['1'],6,0.040861499999664375,,,,,,,,23,0,Man,Rechts,2,
,dotcolour,dotcolour,dotcolour,2,2,122,122,main,positivefb,-99,hard,41,0.9336491000003662,['c'],1,left,['2'],5,0.06693100000029517,,,,,,,,23,0,Man,Rechts,2,
,dotcolour,dotcolour,dotcolour,3,2,123,123,main,positivefb,-99,easy,16,0.7489507000000231,['n'],1,right,['1'],6,0.05097810000006575,,,,,,,,23,0,Man,Rechts,2,
,dotcolour,dotcolour,dotcolour,4,2,124,124,main,positivefb,-99,easy,15,0.5178994999996576,['n'],1,right,['1'],6,0.08438469999964582,,,,,,,,23,0,Man,Rechts,2,
,dotcolour,dotcolour,dotcolour,5,2,125,125,main,positivefb,-99,average,52,0.5514289000002464,['c'],1,left,['1'],6,0.04383819999929983,,,,,,,,23,0,Man,Rechts,2,
,dotcolour,dotcolour,dotcolour,6,2,126,126,main,positivefb,-99,average,25,0.8012655000002269,['n'],1,right,['2'],5,0.15529419999984384,,,,,,,,23,0,Man,Rechts,2,
,dotcolour,dotcolour,dotcolour,7,2,127,127,main,positivefb,-99,hard,37,1.6175701000001936,['n'],1,right,['1'],6,0.08552350000081788,,,,,,,,23,0,Man,Rechts,2,
,dotcolour,dotcolour,dotcolour,8,2,128,128,main,positivefb,-99,average,26,0.6165217000007033,['n'],1,right,['1'],6,0.05075899999974354,,,,,,,,23,0,Man,Rechts,2,
,dotcolour,dotcolour,dotcolour,9,2,129,129,main,positivefb,-99,hard,39,3.5686846999997215,['n'],1,right,['2'],5,0.24228039999979956,,,,,,,,23,0,Man,Rechts,2,
,dotcolour,dotcolour,dotcolour,10,2,130,130,main,positivefb,-99,easy,63,0.6687879999999495,['c'],1,left,['1'],6,0.07117850000031467,,,,,,,,23,0,Man,Rechts,2,
,dotcolour,dotcolour,dotcolour,11,2,131,131,main,positivefb,-99,hard,43,0.8009597000000213,['c'],1,left,['1'],6,0.06848280000031082,,,,,,,,23,0,Man,Rechts,2,
,dotcolour,dotcolour,dotcolour,12,2,132,132,main,positivefb,-99,hard,45,0.5679822000001877,['c'],1,left,['1'],6,0.07612419999986741,,,,,,,,23,0,Man,Rechts,2,
,dotcolour,dotcolour,dotcolour,13,2,133,133,main,positivefb,-99,average,29,0.5346905999995215,['n'],1,right,['1'],6,0.0769722000004549,,,,,,,,23,0,Man,Rechts,2,
,dotcolour,dotcolour,dotcolour,14,2,134,134,main,positivefb,-99,easy,16,0.5159848999992391,['n'],1,right,['1'],6,0.05404420000013488,,,,,,,,23,0,Man,Rechts,2,
,dotcolour,dotcolour,dotcolour,15,2,135,135,main,positivefb,-99,easy,15,0.48355200000059995,['n'],1,right,['1'],6,0.074407500000234,,,,,,,,23,0,Man,Rechts,2,
,dotcolour,dotcolour,dotcolour,16,2,136,136,main,positivefb,-99,hard,41,0.9685902999999598,['c'],1,left,['1'],6,0.5052003000000695,,,,,,,,23,0,Man,Rechts,2,
,dotcolour,dotcolour,dotcolour,17,2,137,137,main,positivefb,-99,easy,19,0.5674252999997407,['n'],1,right,['1'],6,0.11179069999980129,,,,,,,,23,0,Man,Rechts,2,
,dotcolour,dotcolour,dotcolour,18,2,138,138,main,positivefb,-99,average,52,0.5838267999997697,['c'],1,left,['1'],6,0.012030199999571778,,,,,,,,23,0,Man,Rechts,2,
,dotcolour,dotcolour,dotcolour,19,2,139,139,main,positivefb,-99,easy,64,0.5501194999997097,['c'],1,left,['1'],6,0.055079700000533194,,,,,,,,23,0,Man,Rechts,2,
,dotcolour,dotcolour,dotcolour,20,2,140,140,main,positivefb,-99,average,25,0.5504950000004101,['n'],1,right,['1'],6,0.0796024999999645,,,,,,,,23,0,Man,Rechts,2,
,dotcolour,dotcolour,dotcolour,21,2,141,141,main,positivefb,-99,average,52,0.851220800000192,['c'],1,left,['1'],6,0.0838902000004964,,,,,,,,23,0,Man,Rechts,2,
,dotcolour,dotcolour,dotcolour,22,2,142,142,main,positivefb,-99,average,54,0.6834226999999373,['c'],1,left,['1'],6,0.06172409999999218,,,,,,,,23,0,Man,Rechts,2,
,dotcolour,dotcolour,dotcolour,23,2,143,143,main,positivefb,-99,easy,16,0.5000956000003498,['n'],1,right,['1'],6,0.08782519999931537,,,,,,,,23,0,Man,Rechts,2,
,dotcolour,dotcolour,dotcolour,24,2,144,144,main,positivefb,-99,easy,61,0.5165325999996639,['c'],1,left,['1'],6,0.09682249999968917,,,,,,,,23,0,Man,Rechts,2,
,dotcolour,dotcolour,dotcolour,25,2,145,145,main,positivefb,-99,average,55,0.6168397999999797,['c'],1,left,['1'],6,0.10961110000062035,,,,,,,,23,0,Man,Rechts,2,
,dotcolour,dotcolour,dotcolour,26,2,146,146,main,positivefb,-99,hard,43,0.6675207999996928,['c'],1,left,['1'],6,0.10371719999966444,,,,,,,,23,0,Man,Rechts,2,
,dotcolour,dotcolour,dotcolour,27,2,147,147,main,positivefb,-99,average,27,0.5839608999995107,['n'],1,right,['1'],6,0.0690545999996175,,,,,,,,23,0,Man,Rechts,2,
,dotcolour,dotcolour,dotcolour,28,2,148,148,main,positivefb,-99,hard,39,0.6339861999995264,['c'],0,right,['1'],6,0.07323489999998856,,,,,,,,23,0,Man,Rechts,2,
,dotcolour,dotcolour,dotcolour,29,2,149,149,main,positivefb,-99,hard,36,0.5500487999997858,['n'],1,right,['1'],6,0.08979840000029071,,,,,,,,23,0,Man,Rechts,2,
,dotcolour,dotcolour,dotcolour,30,2,150,150,main,positivefb,-99,average,53,0.5010150999996767,['c'],1,left,['1'],6,0.09107239999957528,,,,,,,,23,0,Man,Rechts,2,
,dotcolour,dotcolour,dotcolour,31,2,151,151,main,positivefb,-99,easy,64,0.5496246000002429,['c'],1,left,['1'],6,0.09844020000036835,,,,,,,,23,0,Man,Rechts,2,
,dotcolour,dotcolour,dotcolour,32,2,152,152,main,positivefb,-99,average,27,0.48406860000068264,['n'],1,right,['1'],6,0.09163280000029772,,,,,,,,23,0,Man,Rechts,2,
,dotcolour,dotcolour,dotcolour,33,2,153,153,main,positivefb,-99,easy,63,0.434172999999646,['c'],1,left,['1'],6,0.05558050000036019,,,,,,,,23,0,Man,Rechts,2,
,dotcolour,dotcolour,dotcolour,34,2,154,154,main,positivefb,-99,hard,38,0.5333823000000848,['n'],1,right,['1'],6,0.11377639999955136,,,,,,,,23,0,Man,Rechts,2,
,dotcolour,dotcolour,dotcolour,35,2,155,155,main,positivefb,-99,average,29,0.38400430000001506,['c'],0,right,['1'],6,0.5266806999998153,,,,,,,,23,0,Man,Rechts,2,
,dotcolour,dotcolour,dotcolour,36,2,156,156,main,positivefb,-99,easy,63,0.5010968999995384,['c'],1,left,['1'],6,0.07070070000008855,,,,,,,,23,0,Man,Rechts,2,
,dotcolour,dotcolour,dotcolour,37,2,157,157,main,positivefb,-99,hard,43,0.6515268000002834,['c'],1,left,['1'],6,0.14598519999981363,,,,,,,,23,0,Man,Rechts,2,
,dotcolour,dotcolour,dotcolour,38,2,158,158,main,positivefb,-99,hard,41,0.9017034999997122,['c'],1,left,['1'],6,0.09765909999987343,,,,,,,,23,0,Man,Rechts,2,
,dotcolour,dotcolour,dotcolour,39,2,159,159,main,positivefb,-99,easy,65,0.5184562000004007,['c'],1,left,['1'],6,0.09775850000005448,,,,,,,,23,0,Man,Rechts,2,
,dotcolour,dotcolour,dotcolour,40,2,160,160,main,positivefb,-99,hard,41,0.7009646000005887,['c'],1,left,['1'],6,0.21882300000015675,,,,,,,,23,0,Man,Rechts,2,
,dotcolour,dotcolour,dotcolour,41,2,161,161,main,positivefb,-99,hard,39,0.5171195999992051,['n'],1,right,['2'],5,0.5492122999994535,,,,,,,,23,0,Man,Rechts,2,
,dotcolour,dotcolour,dotcolour,42,2,162,162,main,positivefb,-99,hard,44,2.56744290000006,['n'],0,left,['2'],5,0.12968290000026172,,,,,,,,23,0,Man,Rechts,2,
,dotcolour,dotcolour,dotcolour,43,2,163,163,main,positivefb,-99,easy,19,0.7021359999998822,['n'],1,right,['2'],5,0.19407630000023346,,,,,,,,23,0,Man,Rechts,2,
,dotcolour,dotcolour,dotcolour,44,2,164,164,main,positivefb,-99,easy,65,0.6342144000000189,['c'],1,left,['1'],6,0.08133560000078432,,,,,,,,23,0,Man,Rechts,2,
,dotcolour,dotcolour,dotcolour,45,2,165,165,main,positivefb,-99,hard,37,1.5334242999997514,['n'],1,right,['1'],6,0.12985549999939394,,,,,,,,23,0,Man,Rechts,2,
,dotcolour,dotcolour,dotcolour,46,2,166,166,main,positivefb,-99,easy,65,0.5520285000002332,['c'],1,left,['1'],6,0.12834710000061023,,,,,,,,23,0,Man,Rechts,2,
,dotcolour,dotcolour,dotcolour,47,2,167,167,main,positivefb,-99,hard,38,1.1353955000004134,['n'],1,right,['1'],6,0.09398079999937181,,,,,,,,23,0,Man,Rechts,2,
,dotcolour,dotcolour,dotcolour,48,2,168,168,main,positivefb,-99,hard,38,1.1171243999997387,['c'],0,right,['1'],6,0.08694180000020424,,,,,,,,23,0,Man,Rechts,2,
,dotcolour,dotcolour,dotcolour,49,2,169,169,main,positivefb,-99,hard,38,1.367841700000099,['c'],0,right,['1'],6,0.07726869999987684,,,,,,,,23,0,Man,Rechts,2,
,dotcolour,dotcolour,dotcolour,50,2,170,170,main,positivefb,-99,easy,65,0.617070799999965,['c'],1,left,['1'],6,0.06706599999961327,,,,,,,,23,0,Man,Rechts,2,
,dotcolour,dotcolour,dotcolour,51,2,171,171,main,positivefb,-99,easy,17,0.5010997999997926,['n'],1,right,['1'],6,0.11763369999971474,,,,,,,,23,0,Man,Rechts,2,
,dotcolour,dotcolour,dotcolour,52,2,172,172,main,positivefb,-99,average,25,0.66796179999983,['n'],1,right,['1'],6,0.12716060000002471,,,,,,,,23,0,Man,Rechts,2,
,dotcolour,dotcolour,dotcolour,53,2,173,173,main,positivefb,-99,average,26,0.651401199999782,['n'],1,right,['1'],6,0.12042889999975159,,,,,,,,23,0,Man,Rechts,2,
,dotcolour,dotcolour,dotcolour,54,2,174,174,main,positivefb,-99,average,54,0.5329088000007687,['c'],1,left,['1'],6,0.1265666000008423,,,,,,,,23,0,Man,Rechts,2,
,dotcolour,dotcolour,dotcolour,55,2,175,175,main,positivefb,-99,average,53,0.5010087999999087,['c'],1,left,['1'],6,0.11114079999970272,,,,,,,,23,0,Man,Rechts,2,
,dotcolour,dotcolour,dotcolour,56,2,176,176,main,positivefb,-99,easy,15,0.5347613000003548,['n'],1,right,['1'],6,0.11870360000011715,,,,,,,,23,0,Man,Rechts,2,
,dotcolour,dotcolour,dotcolour,57,2,177,177,main,positivefb,-99,average,54,0.6345043000001169,['c'],1,left,['1'],6,0.1451337999997122,,,,,,,,23,0,Man,Rechts,2,
,dotcolour,dotcolour,dotcolour,58,2,178,178,main,positivefb,-99,easy,15,0.5515998999999283,['n'],1,right,['1'],6,0.2061853000004703,,,,,,,,23,0,Man,Rechts,2,
,dotcolour,dotcolour,dotcolour,59,2,179,179,main,positivefb,-99,average,25,0.7851034000004802,['n'],1,right,['1'],6,0.14316990000043006,,,,,,,,23,0,Man,Rechts,2,
,dotcolour,dotcolour,dotcolour,0,3,180,180,main,positivefb,-99,easy,19,0.6507300000002942,['n'],1,right,['1'],6,0.16343489999962912,,,,,,,,23,0,Man,Rechts,2,
,dotcolour,dotcolour,dotcolour,1,3,181,181,main,positivefb,-99,average,54,0.967179600000236,['c'],1,left,['1'],6,0.08725670000058017,,,,,,,,23,0,Man,Rechts,2,
,dotcolour,dotcolour,dotcolour,2,3,182,182,main,positivefb,-99,average,52,0.5682500000002619,['c'],1,left,['1'],6,0.10991879999983212,,,,,,,,23,0,Man,Rechts,2,
,dotcolour,dotcolour,dotcolour,3,3,183,183,main,positivefb,-99,hard,38,0.5006768000002921,['n'],1,right,['1'],6,0.16686079999999492,,,,,,,,23,0,Man,Rechts,2,
,dotcolour,dotcolour,dotcolour,4,3,184,184,main,positivefb,-99,average,26,0.6180146999995486,['n'],1,right,['1'],6,0.11175350000030448,,,,,,,,23,0,Man,Rechts,2,
,dotcolour,dotcolour,dotcolour,5,3,185,185,main,positivefb,-99,average,25,0.6679352999999537,['n'],1,right,['1'],6,0.11333329999979469,,,,,,,,23,0,Man,Rechts,2,
,dotcolour,dotcolour,dotcolour,6,3,186,186,main,positivefb,-99,hard,45,1.0167602000001352,['c'],1,left,['1'],6,0.0772833000000901,,,,,,,,23,0,Man,Rechts,2,
,dotcolour,dotcolour,dotcolour,7,3,187,187,main,positivefb,-99,hard,41,0.5172318000004452,['c'],1,left,['1'],6,0.10264720000031957,,,,,,,,23,0,Man,Rechts,2,
,dotcolour,dotcolour,dotcolour,8,3,188,188,main,positivefb,-99,hard,37,0.4837931000001845,['n'],1,right,['1'],6,0.16027840000060678,,,,,,,,23,0,Man,Rechts,2,
,dotcolour,dotcolour,dotcolour,9,3,189,189,main,positivefb,-99,hard,39,0.800217199999679,['c'],0,right,['1'],6,0.1550044000005073,,,,,,,,23,0,Man,Rechts,2,
,dotcolour,dotcolour,dotcolour,10,3,190,190,main,positivefb,-99,hard,35,1.2014319999998406,['n'],1,right,['1'],6,0.07792069999959494,,,,,,,,23,0,Man,Rechts,2,
,dotcolour,dotcolour,dotcolour,11,3,191,191,main,positivefb,-99,easy,16,0.6014033000001291,['n'],1,right,['1'],6,0.06781820000014704,,,,,,,,23,0,Man,Rechts,2,
,dotcolour,dotcolour,dotcolour,12,3,192,192,main,positivefb,-99,hard,36,0.5844330999998419,['c'],0,right,['1'],6,0.06622590000006312,,,,,,,,23,0,Man,Rechts,2,
,dotcolour,dotcolour,dotcolour,13,3,193,193,main,positivefb,-99,average,55,0.5511218999999983,['c'],1,left,['1'],6,0.18692749999991065,,,,,,,,23,0,Man,Rechts,2,
,dotcolour,dotcolour,dotcolour,14,3,194,194,main,positivefb,-99,hard,35,1.0676535000002332,['n'],1,right,['2'],5,0.16078919999927166,,,,,,,,23,0,Man,Rechts,2,
,dotcolour,dotcolour,dotcolour,15,3,195,195,main,positivefb,-99,average,26,0.7008724999996048,['n'],1,right,['1'],6,0.23930010000003676,,,,,,,,23,0,Man,Rechts,2,
,dotcolour,dotcolour,dotcolour,16,3,196,196,main,positivefb,-99,average,26,1.0519011000005776,['c'],0,right,['2'],5,0.5495111000000179,,,,,,,,23,0,Man,Rechts,2,
,dotcolour,dotcolour,dotcolour,17,3,197,197,main,positivefb,-99,easy,15,0.5170457000003807,['n'],1,right,['1'],6,0.12298470000041561,,,,,,,,23,0,Man,Rechts,2,
,dotcolour,dotcolour,dotcolour,18,3,198,198,main,positivefb,-99,hard,42,1.6505493000004208,['c'],1,left,['2'],5,0.18111570000019128,,,,,,,,23,0,Man,Rechts,2,
,dotcolour,dotcolour,dotcolour,19,3,199,199,main,positivefb,-99,easy,62,0.6161789999996472,['c'],1,left,['1'],6,0.10196639999958279,,,,,,,,23,0,Man,Rechts,2,
,dotcolour,dotcolour,dotcolour,20,3,200,200,main,positivefb,-99,average,51,0.582857000000331,['c'],1,left,['1'],6,0.10754569999971864,,,,,,,,23,0,Man,Rechts,2,
,dotcolour,dotcolour,dotcolour,21,3,201,201,main,positivefb,-99,average,52,0.6008111000001009,['c'],1,left,['1'],6,0.13577560000067024,,,,,,,,23,0,Man,Rechts,2,
,dotcolour,dotcolour,dotcolour,22,3,202,202,main,positivefb,-99,easy,62,0.5849994000000152,['c'],1,left,['1'],6,0.2278483000000051,,,,,,,,23,0,Man,Rechts,2,
,dotcolour,dotcolour,dotcolour,23,3,203,203,main,positivefb,-99,easy,62,0.6842913000000408,['c'],1,left,['1'],6,0.11234460000014224,,,,,,,,23,0,Man,Rechts,2,
,dotcolour,dotcolour,dotcolour,24,3,204,204,main,positivefb,-99,hard,44,2.0510990000002494,['c'],1,left,['2'],5,0.13927570000032574,,,,,,,,23,0,Man,Rechts,2,
,dotcolour,dotcolour,dotcolour,25,3,205,205,main,positivefb,-99,average,52,0.6671611000001576,['c'],1,left,['1'],6,0.06755139999950188,,,,,,,,23,0,Man,Rechts,2,
,dotcolour,dotcolour,dotcolour,26,3,206,206,main,positivefb,-99,easy,18,1.7001130999997258,['n'],1,right,['1'],6,0.08542959999977029,,,,,,,,23,0,Man,Rechts,2,
,dotcolour,dotcolour,dotcolour,27,3,207,207,main,positivefb,-99,easy,65,0.5182329999997819,['c'],1,left,['1'],6,0.07063800000014453,,,,,,,,23,0,Man,Rechts,2,
,dotcolour,dotcolour,dotcolour,28,3,208,208,main,positivefb,-99,hard,44,1.0336833000001207,['c'],1,left,['1'],6,0.14681349999955273,,,,,,,,23,0,Man,Rechts,2,
,dotcolour,dotcolour,dotcolour,29,3,209,209,main,positivefb,-99,easy,65,0.4500379000000976,['c'],1,left,['1'],6,0.07597699999951146,,,,,,,,23,0,Man,Rechts,2,
,dotcolour,dotcolour,dotcolour,30,3,210,210,main,positivefb,-99,easy,61,0.5354801000003135,['c'],1,left,['1'],6,0.1495559000004505,,,,,,,,23,0,Man,Rechts,2,
,dotcolour,dotcolour,dotcolour,31,3,211,211,main,positivefb,-99,hard,44,0.8512523999997939,['c'],1,left,['1'],6,0.1093765000005078,,,,,,,,23,0,Man,Rechts,2,
,dotcolour,dotcolour,dotcolour,32,3,212,212,main,positivefb,-99,hard,39,1.601056299999982,['c'],0,right,['2'],5,0.15527079999992566,,,,,,,,23,0,Man,Rechts,2,
,dotcolour,dotcolour,dotcolour,33,3,213,213,main,positivefb,-99,average,29,0.6170331000002989,['n'],1,right,['1'],6,0.10846849999961705,,,,,,,,23,0,Man,Rechts,2,
,dotcolour,dotcolour,dotcolour,34,3,214,214,main,positivefb,-99,average,55,0.6011425999995481,['c'],1,left,['1'],6,0.12893559999974968,,,,,,,,23,0,Man,Rechts,2,
,dotcolour,dotcolour,dotcolour,35,3,215,215,main,positivefb,-99,easy,17,0.5499951000001602,['n'],1,right,['1'],6,0.14285110000037093,,,,,,,,23,0,Man,Rechts,2,
,dotcolour,dotcolour,dotcolour,36,3,216,216,main,positivefb,-99,hard,39,1.6681322000004002,['n'],1,right,['2'],5,0.21584339999935764,,,,,,,,23,0,Man,Rechts,2,
,dotcolour,dotcolour,dotcolour,37,3,217,217,main,positivefb,-99,average,26,1.4666707999995197,['c'],0,right,['1'],6,0.10852849999992031,,,,,,,,23,0,Man,Rechts,2,
,dotcolour,dotcolour,dotcolour,38,3,218,218,main,positivefb,-99,easy,61,0.5174802000001364,['c'],1,left,['1'],6,0.09270159999960015,,,,,,,,23,0,Man,Rechts,2,
,dotcolour,dotcolour,dotcolour,39,3,219,219,main,positivefb,-99,easy,19,0.5666428000004089,['n'],1,right,['1'],6,0.11580610000055458,,,,,,,,23,0,Man,Rechts,2,
,dotcolour,dotcolour,dotcolour,40,3,220,220,main,positivefb,-99,hard,45,2.117498599999635,['c'],1,left,['2'],5,0.1795865000003687,,,,,,,,23,0,Man,Rechts,2,
,dotcolour,dotcolour,dotcolour,41,3,221,221,main,positivefb,-99,average,27,0.6513129000004483,['n'],1,right,['1'],6,0.29142510000019684,,,,,,,,23,0,Man,Rechts,2,
,dotcolour,dotcolour,dotcolour,42,3,222,222,main,positivefb,-99,average,51,1.48322619999999,['c'],1,left,['1'],6,0.1731699000001754,,,,,,,,23,0,Man,Rechts,2,
,dotcolour,dotcolour,dotcolour,43,3,223,223,main,positivefb,-99,easy,18,0.5504953999998179,['n'],1,right,['1'],6,0.1134780000002138,,,,,,,,23,0,Man,Rechts,2,
,dotcolour,dotcolour,dotcolour,44,3,224,224,main,positivefb,-99,average,26,0.5513909999999669,['n'],1,right,['1'],6,0.10397529999954713,,,,,,,,23,0,Man,Rechts,2,
,dotcolour,dotcolour,dotcolour,45,3,225,225,main,positivefb,-99,easy,19,0.7011800999998741,['n'],1,right,['1'],6,0.056553100000201084,,,,,,,,23,0,Man,Rechts,2,
,dotcolour,dotcolour,dotcolour,46,3,226,226,main,positivefb,-99,hard,43,0.951188999999431,['n'],0,left,['1'],6,0.08092020000003686,,,,,,,,23,0,Man,Rechts,2,
,dotcolour,dotcolour,dotcolour,47,3,227,227,main,positivefb,-99,average,52,0.6662870999998631,['c'],1,left,['1'],6,0.6837483999997858,,,,,,,,23,0,Man,Rechts,2,
,dotcolour,dotcolour,dotcolour,48,3,228,228,main,positivefb,-99,average,53,0.4844782000000123,['c'],1,left,['1'],6,0.12553159999970376,,,,,,,,23,0,Man,Rechts,2,
,dotcolour,dotcolour,dotcolour,49,3,229,229,main,positivefb,-99,hard,42,1.6513218999998571,['n'],0,left,['2'],5,0.11175060000005033,,,,,,,,23,0,Man,Rechts,2,
,dotcolour,dotcolour,dotcolour,50,3,230,230,main,positivefb,-99,average,29,3.6011086999997133,['n'],1,right,['2'],5,0.08406410000043252,,,,,,,,23,0,Man,Rechts,2,
,dotcolour,dotcolour,dotcolour,51,3,231,231,main,positivefb,-99,easy,16,0.56804319999992,['n'],1,right,['1'],6,0.16288709999935236,,,,,,,,23,0,Man,Rechts,2,
,dotcolour,dotcolour,dotcolour,52,3,232,232,main,positivefb,-99,easy,65,0.5181797000004735,['c'],1,left,['1'],6,0.048910600000453996,,,,,,,,23,0,Man,Rechts,2,
,dotcolour,dotcolour,dotcolour,53,3,233,233,main,positivefb,-99,easy,61,0.9180856000002677,['c'],1,left,['1'],6,0.07469300000047951,,,,,,,,23,0,Man,Rechts,2,
,dotcolour,dotcolour,dotcolour,54,3,234,234,main,positivefb,-99,average,27,0.5168234000002485,['n'],1,right,['1'],6,0.04435449999982666,,,,,,,,23,0,Man,Rechts,2,
,dotcolour,dotcolour,dotcolour,55,3,235,235,main,positivefb,-99,easy,16,0.600786899999548,['n'],1,right,['1'],6,0.09112629999981436,,,,,,,,23,0,Man,Rechts,2,
,dotcolour,dotcolour,dotcolour,56,3,236,236,main,positivefb,-99,hard,36,1.0179693000000043,['n'],1,right,['2'],5,0.4405082000002949,,,,,,,,23,0,Man,Rechts,2,
,dotcolour,dotcolour,dotcolour,57,3,237,237,main,positivefb,-99,easy,61,0.5835353000002215,['c'],1,left,['1'],6,0.10449969999990572,,,,,,,,23,0,Man,Rechts,2,
,dotcolour,dotcolour,dotcolour,58,3,238,238,main,positivefb,-99,hard,42,0.8507478000001356,['c'],1,left,['1'],6,0.12264760000016395,,,,,,,,23,0,Man,Rechts,2,
,dotcolour,dotcolour,dotcolour,59,3,239,239,main,positivefb,-99,hard,35,0.6669965000000957,['n'],1,right,['1'],6,0.1484122000001662,,,,,,,,23,0,Man,Rechts,2,
,dotcolour,dotcolour,dotcolour,0,4,240,240,main,positivefb,-99,hard,36,3.034085000000232,['n'],1,right,['2'],5,0.1567416999996567,,,,,,,,23,0,Man,Rechts,2,
,dotcolour,dotcolour,dotcolour,1,4,241,241,main,positivefb,-99,hard,35,0.9845854999994117,['n'],1,right,['2'],5,0.15252719999989495,,,,,,,,23,0,Man,Rechts,2,
,dotcolour,dotcolour,dotcolour,2,4,242,242,main,positivefb,-99,easy,65,0.501589000000422,['c'],1,left,['1'],6,0.09438829999999143,,,,,,,,23,0,Man,Rechts,2,
,dotcolour,dotcolour,dotcolour,3,4,243,243,main,positivefb,-99,average,25,0.5512357999996311,['n'],1,right,['1'],6,0.08586139999988518,,,,,,,,23,0,Man,Rechts,2,
,dotcolour,dotcolour,dotcolour,4,4,244,244,main,positivefb,-99,hard,36,1.2008773999996265,['n'],1,right,['1'],6,0.25894870000047376,,,,,,,,23,0,Man,Rechts,2,
,dotcolour,dotcolour,dotcolour,5,4,245,245,main,positivefb,-99,hard,44,0.551285900000039,['c'],1,left,['1'],6,0.09191859999918961,,,,,,,,23,0,Man,Rechts,2,
,dotcolour,dotcolour,dotcolour,6,4,246,246,main,positivefb,-99,easy,65,0.5176464999995005,['c'],1,left,['1'],6,0.11595159999978932,,,,,,,,23,0,Man,Rechts,2,
,dotcolour,dotcolour,dotcolour,7,4,247,247,main,positivefb,-99,average,52,0.6679345000002286,['c'],1,left,['1'],6,0.06167390000064188,,,,,,,,23,0,Man,Rechts,2,
,dotcolour,dotcolour,dotcolour,8,4,248,248,main,positivefb,-99,hard,37,0.7159467000001314,['n'],1,right,['3'],4,0.7437394999997196,,,,,,,,23,0,Man,Rechts,2,
,dotcolour,dotcolour,dotcolour,9,4,249,249,main,positivefb,-99,easy,18,4.034811599999557,['n'],1,right,['2'],5,0.2662750999998025,,,,,,,,23,0,Man,Rechts,2,
,dotcolour,dotcolour,dotcolour,10,4,250,250,main,positivefb,-99,hard,42,2.034060899999531,['c'],1,left,['2'],5,0.08667100000002392,,,,,,,,23,0,Man,Rechts,2,
,dotcolour,dotcolour,dotcolour,11,4,251,251,main,positivefb,-99,easy,63,0.6838315000004513,['c'],1,left,['1'],6,0.3607704999994894,,,,,,,,23,0,Man,Rechts,2,
,dotcolour,dotcolour,dotcolour,12,4,252,252,main,positivefb,-99,average,53,0.733266399999593,['c'],1,left,['1'],6,0.06133219999992434,,,,,,,,23,0,Man,Rechts,2,
,dotcolour,dotcolour,dotcolour,13,4,253,253,main,positivefb,-99,average,55,0.6344331999998758,['c'],1,left,['1'],6,0.19577989999925194,,,,,,,,23,0,Man,Rechts,2,
,dotcolour,dotcolour,dotcolour,14,4,254,254,main,positivefb,-99,hard,35,1.383950200000072,['c'],0,right,['2'],5,0.38967520000005607,,,,,,,,23,0,Man,Rechts,2,
,dotcolour,dotcolour,dotcolour,15,4,255,255,main,positivefb,-99,average,52,0.5671333000000232,['c'],1,left,['1'],6,0.11168859999997949,,,,,,,,23,0,Man,Rechts,2,
,dotcolour,dotcolour,dotcolour,16,4,256,256,main,positivefb,-99,average,26,0.5838616999999431,['n'],1,right,['1'],6,0.13314639999953215,,,,,,,,23,0,Man,Rechts,2,
,dotcolour,dotcolour,dotcolour,17,4,257,257,main,positivefb,-99,average,26,0.4846552999997584,['n'],1,right,['1'],6,0.11671710000064195,,,,,,,,23,0,Man,Rechts,2,
,dotcolour,dotcolour,dotcolour,18,4,258,258,main,positivefb,-99,easy,61,0.5177319999993415,['c'],1,left,['1'],6,0.06070520000048418,,,,,,,,23,0,Man,Rechts,2,
,dotcolour,dotcolour,dotcolour,19,4,259,259,main,positivefb,-99,hard,36,3.1678920000003927,['c'],0,right,['2'],5,0.08487960000002204,,,,,,,,23,0,Man,Rechts,2,
,dotcolour,dotcolour,dotcolour,20,4,260,260,main,positivefb,-99,hard,38,1.2330675000002884,['n'],1,right,['2'],5,0.3127100000001519,,,,,,,,23,0,Man,Rechts,2,
,dotcolour,dotcolour,dotcolour,21,4,261,261,main,positivefb,-99,hard,44,0.9006401000006008,['c'],1,left,['1'],6,0.08927479999965726,,,,,,,,23,0,Man,Rechts,2,
,dotcolour,dotcolour,dotcolour,22,4,262,262,main,positivefb,-99,hard,41,2.2336037999994005,['n'],0,left,['1'],6,0.1093284999997195,,,,,,,,23,0,Man,Rechts,2,
,dotcolour,dotcolour,dotcolour,23,4,263,263,main,positivefb,-99,average,52,0.7177541999999448,['c'],1,left,['1'],6,0.061009899999589834,,,,,,,,23,0,Man,Rechts,2,
,dotcolour,dotcolour,dotcolour,24,4,264,264,main,positivefb,-99,average,55,0.8168922999993811,['c'],1,left,['1'],6,0.059171900000364985,,,,,,,,23,0,Man,Rechts,2,
,dotcolour,dotcolour,dotcolour,25,4,265,265,main,positivefb,-99,easy,15,0.6834496999999828,['n'],1,right,['1'],6,0.09475919999931648,,,,,,,,23,0,Man,Rechts,2,
,dotcolour,dotcolour,dotcolour,26,4,266,266,main,positivefb,-99,average,55,0.6835941999997885,['c'],1,left,['1'],6,0.048671700000340934,,,,,,,,23,0,Man,Rechts,2,
,dotcolour,dotcolour,dotcolour,27,4,267,267,main,positivefb,-99,hard,43,1.5501383999999234,['c'],1,left,['1'],6,0.3208193999998912,,,,,,,,23,0,Man,Rechts,2,
,dotcolour,dotcolour,dotcolour,28,4,268,268,main,positivefb,-99,hard,42,0.7506312000004982,['c'],1,left,['1'],6,0.03883339999993041,,,,,,,,23,0,Man,Rechts,2,
,dotcolour,dotcolour,dotcolour,29,4,269,269,main,positivefb,-99,average,54,0.6345529999998689,['c'],1,left,['1'],6,0.061295200000131445,,,,,,,,23,0,Man,Rechts,2,
,dotcolour,dotcolour,dotcolour,30,4,270,270,main,positivefb,-99,easy,62,0.617429799999627,['c'],1,left,['1'],6,0.018502799999623676,,,,,,,,23,0,Man,Rechts,2,
,dotcolour,dotcolour,dotcolour,31,4,271,271,main,positivefb,-99,easy,62,0.5658051999998861,['c'],1,left,['1'],6,0.060461799999757204,,,,,,,,23,0,Man,Rechts,2,
,dotcolour,dotcolour,dotcolour,32,4,272,272,main,positivefb,-99,easy,17,0.5173891000004005,['n'],1,right,['1'],6,0.11117079999985435,,,,,,,,23,0,Man,Rechts,2,
,dotcolour,dotcolour,dotcolour,33,4,273,273,main,positivefb,-99,average,25,0.45053680000000895,['n'],1,right,['1'],6,0.09730270000000019,,,,,,,,23,0,Man,Rechts,2,
,dotcolour,dotcolour,dotcolour,34,4,274,274,main,positivefb,-99,hard,45,0.6676747000001342,['c'],1,left,['1'],6,0.11572890000024927,,,,,,,,23,0,Man,Rechts,2,
,dotcolour,dotcolour,dotcolour,35,4,275,275,main,positivefb,-99,easy,15,0.5170979000004081,['n'],1,right,['1'],6,0.22685739999997168,,,,,,,,23,0,Man,Rechts,2,
,dotcolour,dotcolour,dotcolour,36,4,276,276,main,positivefb,-99,easy,61,0.5333922999998322,['c'],1,left,['1'],6,0.16552859999956127,,,,,,,,23,0,Man,Rechts,2,
,dotcolour,dotcolour,dotcolour,37,4,277,277,main,positivefb,-99,average,29,0.5007693999996263,['n'],1,right,['1'],6,0.17958270000053744,,,,,,,,23,0,Man,Rechts,2,
,dotcolour,dotcolour,dotcolour,38,4,278,278,main,positivefb,-99,hard,38,0.5843951999995625,['n'],1,right,['2'],5,0.45459610000034445,,,,,,,,23,0,Man,Rechts,2,
,dotcolour,dotcolour,dotcolour,39,4,279,279,main,positivefb,-99,easy,61,0.484499400000459,['c'],1,left,['1'],6,0.10610249999990629,,,,,,,,23,0,Man,Rechts,2,
,dotcolour,dotcolour,dotcolour,40,4,280,280,main,positivefb,-99,hard,37,0.6850157999997464,['n'],1,right,['2'],5,0.09955230000014126,,,,,,,,23,0,Man,Rechts,2,
,dotcolour,dotcolour,dotcolour,41,4,281,281,main,positivefb,-99,hard,44,0.7495575000002646,['c'],1,left,['2'],5,0.6181993000000148,,,,,,,,23,0,Man,Rechts,2,
,dotcolour,dotcolour,dotcolour,42,4,282,282,main,positivefb,-99,hard,41,0.7846429000001081,['c'],1,left,['1'],6,0.13008350000018254,,,,,,,,23,0,Man,Rechts,2,
,dotcolour,dotcolour,dotcolour,43,4,283,283,main,positivefb,-99,average,28,0.6512119999997594,['n'],1,right,['2'],5,0.22906000000057247,,,,,,,,23,0,Man,Rechts,2,
,dotcolour,dotcolour,dotcolour,44,4,284,284,main,positivefb,-99,hard,45,0.6180758000000424,['c'],1,left,['2'],5,0.14010919999964244,,,,,,,,23,0,Man,Rechts,2,
,dotcolour,dotcolour,dotcolour,45,4,285,285,main,positivefb,-99,easy,15,0.5016090999997687,['n'],1,right,['1'],6,0.23474050000004354,,,,,,,,23,0,Man,Rechts,2,
,dotcolour,dotcolour,dotcolour,46,4,286,286,main,positivefb,-99,easy,17,0.6175376000001052,['n'],1,right,['1'],6,0.13769430000047578,,,,,,,,23,0,Man,Rechts,2,
,dotcolour,dotcolour,dotcolour,47,4,287,287,main,positivefb,-99,average,26,0.5009879999997793,['n'],1,right,['1'],6,0.05719070000031934,,,,,,,,23,0,Man,Rechts,2,
,dotcolour,dotcolour,dotcolour,48,4,288,288,main,positivefb,-99,hard,39,0.7672217999997883,['n'],1,right,['1'],6,0.11331239999981335,,,,,,,,23,0,Man,Rechts,2,
,dotcolour,dotcolour,dotcolour,49,4,289,289,main,positivefb,-99,easy,61,0.4662680999999793,['c'],1,left,['1'],6,0.05915439999989758,,,,,,,,23,0,Man,Rechts,2,
,dotcolour,dotcolour,dotcolour,50,4,290,290,main,positivefb,-99,easy,16,0.5337576000001718,['n'],1,right,['1'],6,0.10075379999943834,,,,,,,,23,0,Man,Rechts,2,
,dotcolour,dotcolour,dotcolour,51,4,291,291,main,positivefb,-99,easy,65,0.534367100000054,['c'],1,left,['1'],6,0.15577469999971072,,,,,,,,23,0,Man,Rechts,2,
,dotcolour,dotcolour,dotcolour,52,4,292,292,main,positivefb,-99,easy,18,0.7844334999999774,['n'],1,right,['1'],6,0.11094019999927696,,,,,,,,23,0,Man,Rechts,2,
,dotcolour,dotcolour,dotcolour,53,4,293,293,main,positivefb,-99,average,54,0.48522630000024947,['c'],1,left,['1'],6,0.06438990000060585,,,,,,,,23,0,Man,Rechts,2,
,dotcolour,dotcolour,dotcolour,54,4,294,294,main,positivefb,-99,average,27,0.6827677999999651,['n'],1,right,['1'],6,0.0829505000001518,,,,,,,,23,0,Man,Rechts,2,
,dotcolour,dotcolour,dotcolour,55,4,295,295,main,positivefb,-99,average,52,0.6509029999997438,['c'],1,left,['1'],6,0.11860650000016904,,,,,,,,23,0,Man,Rechts,2,
,dotcolour,dotcolour,dotcolour,56,4,296,296,main,positivefb,-99,average,25,0.517672599999969,['n'],1,right,['1'],6,0.10940930000015214,,,,,,,,23,0,Man,Rechts,2,
,dotcolour,dotcolour,dotcolour,57,4,297,297,main,positivefb,-99,easy,15,0.551050099999884,['c'],0,right,['0'],1,1.476127599999927,,,,,,,,23,0,Man,Rechts,2,
,dotcolour,dotcolour,dotcolour,58,4,298,298,main,positivefb,-99,average,27,2.9336280999996234,['n'],1,right,['3'],4,1.8696119000005638,,,,,,,,23,0,Man,Rechts,2,
,dotcolour,dotcolour,dotcolour,59,4,299,299,main,positivefb,-99,easy,18,1.6178843000006964,['n'],1,right,['3'],4,4.498277400000006,,,,,,,,23,0,Man,Rechts,2,
,dotcolour,dotcolour,dotcolour,0,0,0,300,training,positivefb,88,easy,64,1.7837414999994508,['c'],1,left,['1'],6,0.26627129999997123,,,,,,,,23,0,Man,Rechts,2,
,dotcolour,dotcolour,dotcolour,1,0,1,301,training,positivefb,83,average,28,0.6996005999999397,['n'],1,right,['1'],6,0.09213910000016767,,,,,,,,23,0,Man,Rechts,2,
,dotcolour,dotcolour,dotcolour,2,0,2,302,training,positivefb,91,easy,63,0.5668778999997812,['c'],1,left,['1'],6,0.08157899999969231,,,,,,,,23,0,Man,Rechts,2,
,dotcolour,dotcolour,dotcolour,3,0,3,303,training,positivefb,99,average,54,0.5663546999994651,['c'],1,left,['2'],5,0.27159449999999197,,,,,,,,23,0,Man,Rechts,2,
,dotcolour,dotcolour,dotcolour,4,0,4,304,training,positivefb,98,easy,18,0.46769399999993766,['n'],1,right,['1'],6,0.04279880000012781,,,,,,,,23,0,Man,Rechts,2,
,dotcolour,dotcolour,dotcolour,5,0,5,305,training,positivefb,92,hard,35,0.7162123000007341,['n'],1,right,['1'],6,0.06056449999960023,,,,,,,,23,0,Man,Rechts,2,
,dotcolour,dotcolour,dotcolour,6,0,6,306,training,positivefb,95,average,25,0.5011515000005602,['n'],1,right,['1'],6,0.030896299999767507,,,,,,,,23,0,Man,Rechts,2,
,dotcolour,dotcolour,dotcolour,7,0,7,307,training,positivefb,94,hard,35,0.6000336000006428,['n'],1,right,['1'],6,0.014235900000130641,,,,,,,,23,0,Man,Rechts,2,
,dotcolour,dotcolour,dotcolour,8,0,8,308,training,positivefb,97,easy,63,0.5498236000003089,['c'],1,left,['1'],6,0.0479512000001705,,,,,,,,23,0,Man,Rechts,2,
,dotcolour,dotcolour,dotcolour,9,0,9,309,training,positivefb,97,easy,15,0.4330629999994926,['n'],1,right,['1'],6,0.020236800000020594,,,,,,,,23,0,Man,Rechts,2,
,dotcolour,dotcolour,dotcolour,10,0,10,310,training,positivefb,98,average,53,0.4670489999998608,['c'],1,left,['1'],6,0.04123489999983576,,,,,,,,23,0,Man,Rechts,2,
,dotcolour,dotcolour,dotcolour,11,0,11,311,training,positivefb,44,easy,16,0.5005945999992036,['c'],0,right,['0'],1,0.996268500000042,,,,,,,,23,0,Man,Rechts,2,
,dotcolour,dotcolour,dotcolour,12,0,12,312,training,positivefb,51,average,55,2.7507552999995823,['n'],0,left,['3'],4,1.8875207000000955,,,,,,,,23,0,Man,Rechts,2,
,dotcolour,dotcolour,dotcolour,13,0,13,313,training,positivefb,89,average,53,0.833565500000077,['c'],1,left,['1'],6,0.057318499999382766,,,,,,,,23,0,Man,Rechts,2,
,dotcolour,dotcolour,dotcolour,14,0,14,314,training,positivefb,93,hard,37,0.8497579000004407,['c'],0,right,['1'],6,0.04586569999992207,,,,,,,,23,0,Man,Rechts,2,
,dotcolour,dotcolour,dotcolour,15,0,15,315,training,positivefb,96,easy,18,0.4840140000005704,['n'],1,right,['1'],6,0.05681899999945017,,,,,,,,23,0,Man,Rechts,2,
,dotcolour,dotcolour,dotcolour,16,0,16,316,training,positivefb,77,average,26,0.8679233000002569,['n'],1,right,['3'],4,1.204629599999862,,,,,,,,23,0,Man,Rechts,2,
,dotcolour,dotcolour,dotcolour,17,0,17,317,training,positivefb,87,average,27,1.367144200000439,['n'],1,right,['1'],6,1.1979041000004145,,,,,,,,23,0,Man,Rechts,2,
,dotcolour,dotcolour,dotcolour,18,0,18,318,training,positivefb,85,average,29,2.351716899999701,['n'],1,right,['1'],6,0.11207050000029994,,,,,,,,23,0,Man,Rechts,2,
,dotcolour,dotcolour,dotcolour,19,0,19,319,training,positivefb,98,easy,17,1.8997796999992715,['n'],1,right,['1'],6,2.0082188999995196,,,,,,,,23,0,Man,Rechts,2,
,dotcolour,dotcolour,dotcolour,20,0,20,320,training,positivefb,89,hard,43,0.6334154000005583,['c'],1,left,['1'],6,0.11055630000009842,,,,,,,,23,0,Man,Rechts,2,
,dotcolour,dotcolour,dotcolour,21,0,21,321,training,positivefb,89,hard,37,1.0158138000006147,['c'],0,right,['2'],5,0.19280780000008235,,,,,,,,23,0,Man,Rechts,2,
,dotcolour,dotcolour,dotcolour,22,0,22,322,training,positivefb,85,hard,38,0.8669977999998082,['n'],1,right,['3'],4,0.735358200000519,,,,,,,,23,0,Man,Rechts,2,
,dotcolour,dotcolour,dotcolour,23,0,23,323,training,positivefb,90,average,55,0.8337197999999262,['n'],0,left,['1'],6,0.08066280000002735,,,,,,,,23,0,Man,Rechts,2,
,dotcolour,dotcolour,dotcolour,24,0,24,324,training,positivefb,66,hard,43,0.7338278999995964,['n'],0,left,['2'],5,0.7045705000000453,,,,,,,,23,0,Man,Rechts,2,
,dotcolour,dotcolour,dotcolour,25,0,25,325,training,positivefb,91,hard,44,0.7986974999994345,['n'],0,left,['3'],4,0.3644386999994822,,,,,,,,23,0,Man,Rechts,2,
,dotcolour,dotcolour,dotcolour,26,0,26,326,training,positivefb,90,average,55,1.2824828000002526,['c'],1,left,['1'],6,0.16298319999987143,,,,,,,,23,0,Man,Rechts,2,
,dotcolour,dotcolour,dotcolour,27,0,27,327,training,positivefb,94,average,26,0.7997774999994363,['n'],1,right,['2'],5,0.1402023000000554,,,,,,,,23,0,Man,Rechts,2,
,dotcolour,dotcolour,dotcolour,28,0,28,328,training,positivefb,98,easy,61,0.48450510000020586,['c'],1,left,['1'],6,0.06798199999957433,,,,,,,,23,0,Man,Rechts,2,
,dotcolour,dotcolour,dotcolour,29,0,29,329,training,positivefb,93,easy,15,0.4998516000005111,['n'],1,right,['1'],6,0.0850138000005245,,,,,,,,23,0,Man,Rechts,2,
,dotcolour,dotcolour,dotcolour,30,0,30,330,training,positivefb,97,hard,41,0.7675106000006053,['c'],1,left,['1'],6,0.09108120000018971,,,,,,,,23,0,Man,Rechts,2,
,dotcolour,dotcolour,dotcolour,31,0,31,331,training,positivefb,96,average,28,0.567189999999755,['n'],1,right,['1'],6,0.04902120000042487,,,,,,,,23,0,Man,Rechts,2,
,dotcolour,dotcolour,dotcolour,32,0,32,332,training,positivefb,97,easy,63,0.6335182000002533,['c'],1,left,['1'],6,0.05381459999989602,,,,,,,,23,0,Man,Rechts,2,
,dotcolour,dotcolour,dotcolour,33,0,33,333,training,positivefb,93,hard,45,0.6169546000000992,['c'],1,left,['1'],6,0.051117400000293856,,,,,,,,23,0,Man,Rechts,2,
,dotcolour,dotcolour,dotcolour,34,0,34,334,training,positivefb,91,average,55,0.9837003000002369,['c'],1,left,['1'],6,0.18583869999929448,,,,,,,,23,0,Man,Rechts,2,
,dotcolour,dotcolour,dotcolour,35,0,35,335,training,positivefb,96,average,28,0.9172210000006089,['n'],1,right,['1'],6,0.10195799999928568,,,,,,,,23,0,Man,Rechts,2,
,dotcolour,dotcolour,dotcolour,36,0,36,336,training,positivefb,95,easy,62,0.5834635999999591,['c'],1,left,['1'],6,0.002937700000074983,,,,,,,,23,0,Man,Rechts,2,
,dotcolour,dotcolour,dotcolour,37,0,37,337,training,positivefb,90,hard,43,2.899675299999217,['c'],1,left,['3'],4,0.9988734999997178,,,,,,,,23,0,Man,Rechts,2,
,dotcolour,dotcolour,dotcolour,38,0,38,338,training,positivefb,69,hard,42,1.7337625999998636,['n'],0,left,['2'],5,0.37721239999973477,,,,,,,,23,0,Man,Rechts,2,
,dotcolour,dotcolour,dotcolour,39,0,39,339,training,positivefb,72,hard,38,3.4335848000000624,['c'],0,right,['2'],5,0.1694219000000885,,,,,,,,23,0,Man,Rechts,2,
,dotcolour,dotcolour,dotcolour,40,0,40,340,training,positivefb,98,average,55,0.599427299999661,['c'],1,left,['1'],6,0.058469900000091,,,,,,,,23,0,Man,Rechts,2,
,dotcolour,dotcolour,dotcolour,41,0,41,341,training,positivefb,96,easy,17,0.7500060000002122,['n'],1,right,['1'],6,0.04297630000019126,,,,,,,,23,0,Man,Rechts,2,
,dotcolour,dotcolour,dotcolour,42,0,42,342,training,positivefb,98,hard,45,0.6324795000000449,['c'],1,left,['1'],6,0.08803889999944658,,,,,,,,23,0,Man,Rechts,2,
,dotcolour,dotcolour,dotcolour,43,0,43,343,training,positivefb,74,hard,39,3.566731900000377,['n'],1,right,['3'],4,0.406244599999809,,,,,,,,23,0,Man,Rechts,2,
,dotcolour,dotcolour,dotcolour,44,0,44,344,training,positivefb,96,easy,65,0.8669985999995333,['c'],1,left,['1'],6,0.5230413999997836,,,,,,,,23,0,Man,Rechts,2,
,dotcolour,dotcolour,dotcolour,45,0,45,345,training,positivefb,93,hard,43,0.7840022000000317,['c'],1,left,['1'],6,0.0398111999993489,,,,,,,,23,0,Man,Rechts,2,
,dotcolour,dotcolour,dotcolour,46,0,46,346,training,positivefb,97,average,54,0.516666599999553,['c'],1,left,['1'],6,0.041305600000669074,,,,,,,,23,0,Man,Rechts,2,
,dotcolour,dotcolour,dotcolour,47,0,47,347,training,positivefb,87,easy,15,0.5670159999999669,['n'],1,right,['1'],6,0.10532450000027893,,,,,,,,23,0,Man,Rechts,2,
,dotcolour,dotcolour,dotcolour,48,0,48,348,training,positivefb,97,easy,61,0.6673676000000341,['c'],1,left,['1'],6,0.09080400000038935,,,,,,,,23,0,Man,Rechts,2,
,dotcolour,dotcolour,dotcolour,49,0,49,349,training,positivefb,92,easy,61,0.6321281999998973,['c'],1,left,['1'],6,0.022157200000037847,,,,,,,,23,0,Man,Rechts,2,
,dotcolour,dotcolour,dotcolour,50,0,50,350,training,positivefb,96,average,28,0.7999611000004734,['n'],1,right,['1'],6,0.06154690000039409,,,,,,,,23,0,Man,Rechts,2,
,dotcolour,dotcolour,dotcolour,51,0,51,351,training,positivefb,96,average,26,0.6998961999997846,['n'],1,right,['1'],6,0.06320690000029572,,,,,,,,23,0,Man,Rechts,2,
,dotcolour,dotcolour,dotcolour,52,0,52,352,training,positivefb,98,easy,15,0.5169689000003928,['n'],1,right,['1'],6,0.07293720000052417,,,,,,,,23,0,Man,Rechts,2,
,dotcolour,dotcolour,dotcolour,53,0,53,353,training,positivefb,97,easy,19,0.5825136999992537,['n'],1,right,['1'],6,0.07820240000000922,,,,,,,,23,0,Man,Rechts,2,
,dotcolour,dotcolour,dotcolour,54,0,54,354,training,positivefb,91,hard,37,1.4669549000000188,['n'],1,right,['3'],4,0.21728199999961362,,,,,,,,23,0,Man,Rechts,2,
,dotcolour,dotcolour,dotcolour,55,0,55,355,training,positivefb,84,hard,38,0.8662850000000617,['n'],1,right,['3'],4,0.33417720000034024,,,,,,,,23,0,Man,Rechts,2,
,dotcolour,dotcolour,dotcolour,56,0,56,356,training,positivefb,74,hard,37,1.6171263000005638,['c'],0,right,['3'],4,0.17605989999992744,,,,,,,,23,0,Man,Rechts,2,
,dotcolour,dotcolour,dotcolour,57,0,57,357,training,positivefb,86,easy,63,0.6834999000002426,['c'],1,left,['1'],6,0.07747289999952045,,,,,,,,23,0,Man,Rechts,2,
,dotcolour,dotcolour,dotcolour,58,0,58,358,training,positivefb,88,average,54,1.483501100000467,['c'],1,left,['2'],5,0.12826500000028318,,,,,,,,23,0,Man,Rechts,2,
,dotcolour,dotcolour,dotcolour,59,0,59,359,training,positivefb,87,hard,44,0.6843257999998968,['c'],1,left,['1'],6,0.2718614000004891,,,,,,,,23,0,Man,Rechts,2,
,dotcolour,dotcolour,dotcolour,0,1,60,360,training,positivefb,97,easy,61,0.651343800000177,['c'],1,left,['1'],6,0.088837300000705,,,,,,,,23,0,Man,Rechts,2,
,dotcolour,dotcolour,dotcolour,1,1,61,361,training,positivefb,95,easy,19,0.5340384999999515,['n'],1,right,['1'],6,0.07271119999950315,,,,,,,,23,0,Man,Rechts,2,
,dotcolour,dotcolour,dotcolour,2,1,62,362,training,positivefb,91,hard,41,0.9830366999995022,['c'],1,left,['2'],5,0.12648069999977452,,,,,,,,23,0,Man,Rechts,2,
,dotcolour,dotcolour,dotcolour,3,1,63,363,training,positivefb,97,easy,18,0.6333351000002949,['n'],1,right,['1'],6,0.15191890000005515,,,,,,,,23,0,Man,Rechts,2,
,dotcolour,dotcolour,dotcolour,4,1,64,364,training,positivefb,86,hard,41,0.7003090000007433,['c'],1,left,['2'],5,0.21442639999986568,,,,,,,,23,0,Man,Rechts,2,
,dotcolour,dotcolour,dotcolour,5,1,65,365,training,positivefb,92,easy,17,0.8166730000002644,['n'],1,right,['1'],6,0.10933620000014344,,,,,,,,23,0,Man,Rechts,2,
,dotcolour,dotcolour,dotcolour,6,1,66,366,training,positivefb,69,hard,41,0.6837091000006694,['n'],0,left,['1'],6,0.2862390000000232,,,,,,,,23,0,Man,Rechts,2,
,dotcolour,dotcolour,dotcolour,7,1,67,367,training,positivefb,89,hard,36,0.7161599000000933,['c'],0,right,['1'],6,0.1420813000004273,,,,,,,,23,0,Man,Rechts,2,
,dotcolour,dotcolour,dotcolour,8,1,68,368,training,positivefb,94,easy,17,0.7489661999998134,['n'],1,right,['1'],6,0.41836609999973007,,,,,,,,23,0,Man,Rechts,2,
,dotcolour,dotcolour,dotcolour,9,1,69,369,training,positivefb,91,average,27,0.6505475999992996,['n'],1,right,['1'],6,0.11246080000000802,,,,,,,,23,0,Man,Rechts,2,
,dotcolour,dotcolour,dotcolour,10,1,70,370,training,positivefb,89,hard,41,1.867586599999413,['c'],1,left,['2'],5,0.2817801999999574,,,,,,,,23,0,Man,Rechts,2,
,dotcolour,dotcolour,dotcolour,11,1,71,371,training,positivefb,95,average,25,0.5510029999995822,['n'],1,right,['1'],6,0.07140660000004573,,,,,,,,23,0,Man,Rechts,2,
,dotcolour,dotcolour,dotcolour,12,1,72,372,training,positivefb,95,easy,65,0.5173523000003115,['c'],1,left,['1'],6,0.07297159999961877,,,,,,,,23,0,Man,Rechts,2,
,dotcolour,dotcolour,dotcolour,13,1,73,373,training,positivefb,98,easy,65,0.4335292000005211,['c'],1,left,['1'],6,0.05222630000025674,,,,,,,,23,0,Man,Rechts,2,
,dotcolour,dotcolour,dotcolour,14,1,74,374,training,positivefb,94,easy,18,0.6167279999999664,['n'],1,right,['1'],6,0.106769400000303,,,,,,,,23,0,Man,Rechts,2,
,dotcolour,dotcolour,dotcolour,15,1,75,375,training,positivefb,95,average,53,0.516399499999352,['c'],1,left,['1'],6,0.08935039999960281,,,,,,,,23,0,Man,Rechts,2,
,dotcolour,dotcolour,dotcolour,16,1,76,376,training,positivefb,96,average,25,0.4004021000000648,['n'],1,right,['1'],6,0.1101662999999462,,,,,,,,23,0,Man,Rechts,2,
,dotcolour,dotcolour,dotcolour,17,1,77,377,training,positivefb,93,average,26,0.48244720000002417,['n'],1,right,['1'],6,0.07062669999959326,,,,,,,,23,0,Man,Rechts,2,
,dotcolour,dotcolour,dotcolour,18,1,78,378,training,positivefb,96,average,53,0.4497449999998935,['c'],1,left,['1'],6,0.06594769999992423,,,,,,,,23,0,Man,Rechts,2,
,dotcolour,dotcolour,dotcolour,19,1,79,379,training,positivefb,94,average,51,0.7329457999994702,['c'],1,left,['1'],6,0.07429640000009385,,,,,,,,23,0,Man,Rechts,2,
,dotcolour,dotcolour,dotcolour,20,1,80,380,training,positivefb,89,hard,39,0.7841134999998758,['c'],0,right,['2'],5,0.19279310000001715,,,,,,,,23,0,Man,Rechts,2,
,dotcolour,dotcolour,dotcolour,21,1,81,381,training,positivefb,96,easy,64,0.48351889999958075,['c'],1,left,['1'],6,0.0771762000003946,,,,,,,,23,0,Man,Rechts,2,
,dotcolour,dotcolour,dotcolour,22,1,82,382,training,positivefb,97,hard,35,0.4672344999999041,['n'],1,right,['1'],6,0.08765649999986636,,,,,,,,23,0,Man,Rechts,2,
,dotcolour,dotcolour,dotcolour,23,1,83,383,training,positivefb,92,hard,35,0.41701110000030894,['c'],0,right,['8'],3,1.0686536000002889,,,,,,,,23,0,Man,Rechts,2,
,dotcolour,dotcolour,dotcolour,24,1,84,384,training,positivefb,56,hard,35,2.3510253000004013,['c'],0,right,['3'],4,1.6992227999999159,,,,,,,,23,0,Man,Rechts,2,
,dotcolour,dotcolour,dotcolour,25,1,85,385,training,positivefb,95,easy,61,0.6337908999994397,['c'],1,left,['1'],6,0.10139309999976831,,,,,,,,23,0,Man,Rechts,2,
,dotcolour,dotcolour,dotcolour,26,1,86,386,training,positivefb,97,easy,17,0.5514160000002448,['n'],1,right,['1'],6,0.13915540000016335,,,,,,,,23,0,Man,Rechts,2,
,dotcolour,dotcolour,dotcolour,27,1,87,387,training,positivefb,55,average,25,1.4005854000006366,['n'],1,right,['2'],5,0.6782984000001306,,,,,,,,23,0,Man,Rechts,2,
,dotcolour,dotcolour,dotcolour,28,1,88,388,training,positivefb,98,average,27,0.5342133999993166,['n'],1,right,['1'],6,0.09360130000004574,,,,,,,,23,0,Man,Rechts,2,
,dotcolour,dotcolour,dotcolour,29,1,89,389,training,positivefb,93,average,54,0.515961399999469,['c'],1,left,['1'],6,0.09417279999979655,,,,,,,,23,0,Man,Rechts,2,
,dotcolour,dotcolour,dotcolour,30,1,90,390,training,positivefb,98,easy,64,0.5167136000000028,['c'],1,left,['1'],6,0.07859300000018266,,,,,,,,23,0,Man,Rechts,2,
,dotcolour,dotcolour,dotcolour,31,1,91,391,training,positivefb,94,average,55,0.5328346999995119,['c'],1,left,['1'],6,0.07036219999918103,,,,,,,,23,0,Man,Rechts,2,
,dotcolour,dotcolour,dotcolour,32,1,92,392,training,positivefb,92,average,25,0.6163755999996283,['n'],1,right,['1'],6,0.06717740000021877,,,,,,,,23,0,Man,Rechts,2,
,dotcolour,dotcolour,dotcolour,33,1,93,393,training,positivefb,79,average,25,0.9009404999997059,['n'],1,right,['2'],5,0.3003931000002922,,,,,,,,23,0,Man,Rechts,2,
,dotcolour,dotcolour,dotcolour,34,1,94,394,training,positivefb,95,hard,43,0.48289569999997184,['c'],1,left,['1'],6,0.11716960000012477,,,,,,,,23,0,Man,Rechts,2,
,dotcolour,dotcolour,dotcolour,35,1,95,395,training,positivefb,97,easy,61,0.6333755000005112,['c'],1,left,['1'],6,0.10334599999987404,,,,,,,,23,0,Man,Rechts,2,
,dotcolour,dotcolour,dotcolour,36,1,96,396,training,positivefb,97,hard,41,0.6332005000003846,['c'],1,left,['1'],6,0.1375345999995261,,,,,,,,23,0,Man,Rechts,2,
,dotcolour,dotcolour,dotcolour,37,1,97,397,training,positivefb,96,average,52,0.5179745999994338,['c'],1,left,['1'],6,0.01562130000002071,,,,,,,,23,0,Man,Rechts,2,
,dotcolour,dotcolour,dotcolour,38,1,98,398,training,positivefb,93,easy,17,0.4832301999995252,['n'],1,right,['1'],6,0.10717440000007628,,,,,,,,23,0,Man,Rechts,2,
,dotcolour,dotcolour,dotcolour,39,1,99,399,training,positivefb,90,hard,42,0.9327303000000029,['c'],1,left,['1'],6,0.010189300000092771,,,,,,,,23,0,Man,Rechts,2,
,dotcolour,dotcolour,dotcolour,40,1,100,400,training,positivefb,92,hard,36,1.2502753999997367,['n'],1,right,['2'],5,0.1362434000002395,,,,,,,,23,0,Man,Rechts,2,
,dotcolour,dotcolour,dotcolour,41,1,101,401,training,positivefb,95,easy,63,0.5165171999997256,['c'],1,left,['1'],6,0.11046840000017255,,,,,,,,23,0,Man,Rechts,2,
,dotcolour,dotcolour,dotcolour,42,1,102,402,training,positivefb,91,average,51,0.48396000000047934,['c'],1,left,['1'],6,0.1267655999999988,,,,,,,,23,0,Man,Rechts,2,
,dotcolour,dotcolour,dotcolour,43,1,103,403,training,positivefb,93,average,53,0.5338801000007152,['c'],1,left,['1'],6,0.020505100000264065,,,,,,,,23,0,Man,Rechts,2,
,dotcolour,dotcolour,dotcolour,44,1,104,404,training,positivefb,94,hard,41,0.6494330000004993,['c'],1,left,['2'],5,0.22635209999953076,,,,,,,,23,0,Man,Rechts,2,
,dotcolour,dotcolour,dotcolour,45,1,105,405,training,positivefb,40,hard,38,2.200804099999914,['c'],0,right,['3'],4,0.19404770000073768,,,,,,,,23,0,Man,Rechts,2,
,dotcolour,dotcolour,dotcolour,46,1,106,406,training,positivefb,96,easy,16,0.7330875999996351,['n'],1,right,['1'],6,0.26051539999934903,,,,,,,,23,0,Man,Rechts,2,
,dotcolour,dotcolour,dotcolour,47,1,107,407,training,positivefb,98,easy,62,0.5502932999997938,['c'],1,left,['1'],6,0.05295229999956064,,,,,,,,23,0,Man,Rechts,2,
,dotcolour,dotcolour,dotcolour,48,1,108,408,training,positivefb,86,hard,45,0.9168079000000944,['c'],1,left,['1'],6,0.10300139999981184,,,,,,,,23,0,Man,Rechts,2,
,dotcolour,dotcolour,dotcolour,49,1,109,409,training,positivefb,97,hard,35,0.6006485999996585,['n'],1,right,['2'],5,0.33779239999967103,,,,,,,,23,0,Man,Rechts,2,
,dotcolour,dotcolour,dotcolour,50,1,110,410,training,positivefb,94,average,54,0.5677340000002005,['c'],1,left,['1'],6,0.07028059999993275,,,,,,,,23,0,Man,Rechts,2,
,dotcolour,dotcolour,dotcolour,51,1,111,411,training,positivefb,72,hard,35,2.700775100000101,['n'],1,right,['3'],4,0.40768579999985377,,,,,,,,23,0,Man,Rechts,2,
,dotcolour,dotcolour,dotcolour,52,1,112,412,training,positivefb,78,hard,35,1.8675675999993473,['c'],0,right,['2'],5,0.10038639999947918,,,,,,,,23,0,Man,Rechts,2,
,dotcolour,dotcolour,dotcolour,53,1,113,413,training,positivefb,95,average,29,0.6335549999994328,['n'],1,right,['2'],5,0.10357410000051459,,,,,,,,23,0,Man,Rechts,2,
,dotcolour,dotcolour,dotcolour,54,1,114,414,training,positivefb,73,hard,44,0.716719799999737,['c'],1,left,['2'],5,0.28670380000039586,,,,,,,,23,0,Man,Rechts,2,
,dotcolour,dotcolour,dotcolour,55,1,115,415,training,positivefb,97,average,25,0.566860099999758,['n'],1,right,['2'],5,0.069447200000468,,,,,,,,23,0,Man,Rechts,2,
,dotcolour,dotcolour,dotcolour,56,1,116,416,training,positivefb,95,easy,16,0.518300900000213,['n'],1,right,['2'],5,0.04584439999962342,,,,,,,,23,0,Man,Rechts,2,
,dotcolour,dotcolour,dotcolour,57,1,117,417,training,positivefb,98,easy,62,0.6667586999992636,['c'],1,left,['1'],6,0.11350000000038563,,,,,,,,23,0,Man,Rechts,2,
,dotcolour,dotcolour,dotcolour,58,1,118,418,training,positivefb,98,easy,17,0.5833431000000928,['n'],1,right,['1'],6,0.15812469999946188,,,,,,,,23,0,Man,Rechts,2,
,dotcolour,dotcolour,dotcolour,59,1,119,419,training,positivefb,95,average,52,0.5498510000006718,['c'],1,left,['1'],6,0.03445280000050843,,,,,,,,23,0,Man,Rechts,2,
,xotask,dotcolour,dotcolour,0,2,120,420,main,positivefb,-99,hard,,1.5011549000000741,['c'],1,left,['1'],6,0.8082864999996673,53,,,,,,,23,0,Man,Rechts,2,
,xotask,dotcolour,dotcolour,1,2,121,421,main,positivefb,-99,easy,,0.6180263000005652,['c'],1,left,['1'],6,0.05584999999973661,71,,,,,,,23,0,Man,Rechts,2,
,xotask,dotcolour,dotcolour,2,2,122,422,main,positivefb,-99,hard,,0.9333100999992894,['c'],0,right,['1'],6,0.3694835999995121,27,,,,,,,23,0,Man,Rechts,2,
,xotask,dotcolour,dotcolour,3,2,123,423,main,positivefb,-99,hard,,0.7675484999999753,['n'],1,right,['2'],5,0.3810193999997864,26,,,,,,,23,0,Man,Rechts,2,
,xotask,dotcolour,dotcolour,4,2,124,424,main,positivefb,-99,average,,1.1844241999997394,['c'],0,right,['1'],6,0.06367839999984426,17,,,,,,,23,0,Man,Rechts,2,
,xotask,dotcolour,dotcolour,5,2,125,425,main,positivefb,-99,easy,,0.7007916000002297,['c'],1,left,['1'],6,0.05002049999893643,73,,,,,,,23,0,Man,Rechts,2,
,xotask,dotcolour,dotcolour,6,2,126,426,main,positivefb,-99,easy,,0.6337109000014607,['n'],1,right,['1'],6,0.030890600000930135,6,,,,,,,23,0,Man,Rechts,2,
,xotask,dotcolour,dotcolour,7,2,127,427,main,positivefb,-99,hard,,0.967979999999443,['c'],1,left,['1'],6,0.04739229999904637,53,,,,,,,23,0,Man,Rechts,2,
,xotask,dotcolour,dotcolour,8,2,128,428,main,positivefb,-99,average,,4.084164300000339,['c'],0,right,['2'],5,0.04399319999902218,16,,,,,,,23,0,Man,Rechts,2,
,xotask,dotcolour,dotcolour,9,2,129,429,main,positivefb,-99,average,,0.700247999999192,['c'],1,left,['1'],6,0.1984441999993578,63,,,,,,,23,0,Man,Rechts,2,
,xotask,dotcolour,dotcolour,10,2,130,430,main,positivefb,-99,easy,,0.5341886000005616,['n'],1,right,['1'],6,0.04231970000000729,7,,,,,,,23,0,Man,Rechts,2,
,xotask,dotcolour,dotcolour,11,2,131,431,main,positivefb,-99,easy,,0.6669132000006357,['c'],1,left,['1'],6,0.05546110000068438,71,,,,,,,23,0,Man,Rechts,2,
,xotask,dotcolour,dotcolour,12,2,132,432,main,positivefb,-99,hard,,0.7842706000010367,['n'],1,right,['2'],5,0.17394710000007763,26,,,,,,,23,0,Man,Rechts,2,
,xotask,dotcolour,dotcolour,13,2,133,433,main,positivefb,-99,hard,,1.9675879000005807,['c'],1,left,['2'],5,0.06518659999892407,50,,,,,,,23,0,Man,Rechts,2,
,xotask,dotcolour,dotcolour,14,2,134,434,main,positivefb,-99,average,,0.9688289999994595,['c'],1,left,['2'],5,0.15314669999861508,63,,,,,,,23,0,Man,Rechts,2,
,xotask,dotcolour,dotcolour,15,2,135,435,main,positivefb,-99,easy,,1.017917999999554,['n'],1,right,['1'],6,0.03466650000154914,6,,,,,,,23,0,Man,Rechts,2,
,xotask,dotcolour,dotcolour,16,2,136,436,main,positivefb,-99,easy,,0.6658022000010533,['n'],1,right,['1'],6,0.16787010000007285,6,,,,,,,23,0,Man,Rechts,2,
,xotask,dotcolour,dotcolour,17,2,137,437,main,positivefb,-99,easy,,0.6671153999996022,['c'],1,left,['1'],6,0.022331199999825913,73,,,,,,,23,0,Man,Rechts,2,
,xotask,dotcolour,dotcolour,18,2,138,438,main,positivefb,-99,hard,,0.9661668999997346,['n'],1,right,['2'],5,0.4243791000008059,28,,,,,,,23,0,Man,Rechts,2,
,xotask,dotcolour,dotcolour,19,2,139,439,main,positivefb,-99,hard,,0.667286800000511,['n'],1,right,['2'],5,0.06944709999879706,28,,,,,,,23,0,Man,Rechts,2,
,xotask,dotcolour,dotcolour,20,2,140,440,main,positivefb,-99,easy,,0.7679294000008667,['n'],1,right,['2'],5,0.021179199999096454,8,,,,,,,23,0,Man,Rechts,2,
,xotask,dotcolour,dotcolour,21,2,141,441,main,positivefb,-99,average,,2.5328682999988814,['c'],1,left,['2'],5,0.07147939999958908,60,,,,,,,23,0,Man,Rechts,2,
,xotask,dotcolour,dotcolour,22,2,142,442,main,positivefb,-99,easy,,0.7342434000001958,['c'],1,left,['1'],6,0.01589590000003227,74,,,,,,,23,0,Man,Rechts,2,
,xotask,dotcolour,dotcolour,23,2,143,443,main,positivefb,-99,average,,0.7004194000001007,['n'],1,right,['1'],6,0.07635960000152409,18,,,,,,,23,0,Man,Rechts,2,
,xotask,dotcolour,dotcolour,24,2,144,444,main,positivefb,-99,average,,0.6346622999990359,['c'],1,left,['1'],6,0.08100480000030075,60,,,,,,,23,0,Man,Rechts,2,
,xotask,dotcolour,dotcolour,25,2,145,445,main,positivefb,-99,average,,0.7676276000001963,['n'],1,right,['2'],5,0.2156131000010646,16,,,,,,,23,0,Man,Rechts,2,
,xotask,dotcolour,dotcolour,26,2,146,446,main,positivefb,-99,hard,,0.7844352000010986,['c'],1,left,['1'],6,0.032127100001162034,54,,,,,,,23,0,Man,Rechts,2,
,xotask,dotcolour,dotcolour,27,2,147,447,main,positivefb,-99,easy,,0.7829228999999032,['n'],1,right,['1'],6,0.1362353999993502,9,,,,,,,23,0,Man,Rechts,2,
,xotask,dotcolour,dotcolour,28,2,148,448,main,positivefb,-99,average,,0.6006873000005726,['n'],1,right,['1'],6,0.06022289999964414,17,,,,,,,23,0,Man,Rechts,2,
,xotask,dotcolour,dotcolour,29,2,149,449,main,positivefb,-99,average,,0.9340102000005572,['c'],1,left,['1'],6,0.06880730000011681,62,,,,,,,23,0,Man,Rechts,2,
,xotask,dotcolour,dotcolour,30,2,150,450,main,positivefb,-99,easy,,0.5181340000017371,['n'],1,right,['1'],6,0.04644399999961024,8,,,,,,,23,0,Man,Rechts,2,
,xotask,dotcolour,dotcolour,31,2,151,451,main,positivefb,-99,easy,,0.9337519000000611,['c'],1,left,['1'],6,0.08034509999924921,74,,,,,,,23,0,Man,Rechts,2,
,xotask,dotcolour,dotcolour,32,2,152,452,main,positivefb,-99,average,,0.9833220999989862,['n'],1,right,['2'],5,0.17493959999956132,18,,,,,,,23,0,Man,Rechts,2,
,xotask,dotcolour,dotcolour,33,2,153,453,main,positivefb,-99,hard,,0.7505664000000252,['c'],1,left,['1'],6,0.1072652000002563,50,,,,,,,23,0,Man,Rechts,2,
,xotask,dotcolour,dotcolour,34,2,154,454,main,positivefb,-99,average,,2.50095599999986,['n'],1,right,['2'],5,0.03528999999980442,18,,,,,,,23,0,Man,Rechts,2,
,xotask,dotcolour,dotcolour,35,2,155,455,main,positivefb,-99,easy,,0.6171778999996604,['c'],1,left,['2'],5,0.11453089999849908,73,,,,,,,23,0,Man,Rechts,2,
,xotask,dotcolour,dotcolour,36,2,156,456,main,positivefb,-99,easy,,0.7162236999993183,['n'],1,right,['2'],5,0.12178470000071684,6,,,,,,,23,0,Man,Rechts,2,
,xotask,dotcolour,dotcolour,37,2,157,457,main,positivefb,-99,hard,,0.8676511000012397,['n'],1,right,['1'],6,0.41916350000064995,25,,,,,,,23,0,Man,Rechts,2,
,xotask,dotcolour,dotcolour,38,2,158,458,main,positivefb,-99,hard,,0.9843968999994104,['n'],1,right,['1'],6,0.5313487999992503,29,,,,,,,23,0,Man,Rechts,2,
,xotask,dotcolour,dotcolour,39,2,159,459,main,positivefb,-99,average,,0.6500432000011642,['c'],1,left,['1'],6,0.06081040000026405,64,,,,,,,23,0,Man,Rechts,2,
,xotask,dotcolour,dotcolour,40,2,160,460,main,positivefb,-99,average,,1.3174390000003768,['c'],1,left,['1'],6,0.0069162999989202945,63,,,,,,,23,0,Man,Rechts,2,
,xotask,dotcolour,dotcolour,41,2,161,461,main,positivefb,-99,easy,,0.6330261999992217,['n'],1,right,['1'],6,0.030092599999989034,7,,,,,,,23,0,Man,Rechts,2,
,xotask,dotcolour,dotcolour,42,2,162,462,main,positivefb,-99,easy,,0.7004527999997663,['c'],1,left,['1'],6,0.03412970000135829,72,,,,,,,23,0,Man,Rechts,2,
,xotask,dotcolour,dotcolour,43,2,163,463,main,positivefb,-99,hard,,0.9170615000002726,['c'],1,left,['1'],6,0.01334080000015092,52,,,,,,,23,0,Man,Rechts,2,
,xotask,dotcolour,dotcolour,44,2,164,464,main,positivefb,-99,average,,0.7338586999994732,['n'],1,right,['1'],6,0.01553559999956633,17,,,,,,,23,0,Man,Rechts,2,
,xotask,dotcolour,dotcolour,45,2,165,465,main,positivefb,-99,hard,,0.8996881999992183,['c'],1,left,['1'],6,0.5323193999993237,54,,,,,,,23,0,Man,Rechts,2,
,xotask,dotcolour,dotcolour,46,2,166,466,main,positivefb,-99,hard,,1.3173795999991853,['c'],1,left,['1'],6,0.050989699999263394,51,,,,,,,23,0,Man,Rechts,2,
,xotask,dotcolour,dotcolour,47,2,167,467,main,positivefb,-99,hard,,0.9341478999995161,['c'],1,left,['1'],6,0.036753399999724934,52,,,,,,,23,0,Man,Rechts,2,
,xotask,dotcolour,dotcolour,48,2,168,468,main,positivefb,-99,average,,0.6008976000011899,['c'],1,left,['1'],6,0.035223899998527486,64,,,,,,,23,0,Man,Rechts,2,
,xotask,dotcolour,dotcolour,49,2,169,469,main,positivefb,-99,hard,,1.1679028000016842,['c'],1,left,['1'],6,0.5004990999987058,53,,,,,,,23,0,Man,Rechts,2,
,xotask,dotcolour,dotcolour,50,2,170,470,main,positivefb,-99,average,,0.5173897000004217,['n'],1,right,['1'],6,0.15583730000071228,15,,,,,,,23,0,Man,Rechts,2,
,xotask,dotcolour,dotcolour,51,2,171,471,main,positivefb,-99,easy,,0.5848863999999594,['c'],1,left,['1'],6,0.5277853999996296,74,,,,,,,23,0,Man,Rechts,2,
,xotask,dotcolour,dotcolour,52,2,172,472,main,positivefb,-99,average,,0.6175652000001719,['c'],1,left,['1'],6,0.05102249999981723,64,,,,,,,23,0,Man,Rechts,2,
,xotask,dotcolour,dotcolour,53,2,173,473,main,positivefb,-99,average,,0.46707029999925,['n'],1,right,['1'],6,0.09520220000013069,18,,,,,,,23,0,Man,Rechts,2,
,xotask,dotcolour,dotcolour,54,2,174,474,main,positivefb,-99,easy,,0.5335591000002751,['n'],1,right,['1'],6,0.06333929999891552,7,,,,,,,23,0,Man,Rechts,2,
,xotask,dotcolour,dotcolour,55,2,175,475,main,positivefb,-99,average,,1.117505500000334,['c'],1,left,['1'],6,0.5368999000002077,64,,,,,,,23,0,Man,Rechts,2,
,xotask,dotcolour,dotcolour,56,2,176,476,main,positivefb,-99,hard,,0.6339769999995042,['n'],1,right,['1'],6,0.04304419999971287,29,,,,,,,23,0,Man,Rechts,2,
,xotask,dotcolour,dotcolour,57,2,177,477,main,positivefb,-99,hard,,0.7168934000001173,['n'],1,right,['1'],6,0.41367300000092655,26,,,,,,,23,0,Man,Rechts,2,
,xotask,dotcolour,dotcolour,58,2,178,478,main,positivefb,-99,easy,,0.8180534999992233,['c'],1,left,['1'],6,0.029806700000335695,74,,,,,,,23,0,Man,Rechts,2,
,xotask,dotcolour,dotcolour,59,2,179,479,main,positivefb,-99,hard,,0.5846074000000954,['n'],1,right,['1'],6,0.07827150000048277,25,,,,,,,23,0,Man,Rechts,2,
,xotask,dotcolour,dotcolour,0,3,180,480,main,positivefb,-99,hard,,1.4835659000000305,['n'],1,right,['2'],5,0.10160499999983585,28,,,,,,,23,0,Man,Rechts,2,
,xotask,dotcolour,dotcolour,1,3,181,481,main,positivefb,-99,average,,0.6504581000008329,['n'],1,right,['1'],6,0.2733201999999437,19,,,,,,,23,0,Man,Rechts,2,
,xotask,dotcolour,dotcolour,2,3,182,482,main,positivefb,-99,average,,0.6838377000003675,['c'],1,left,['1'],6,0.0356409000014537,61,,,,,,,23,0,Man,Rechts,2,
,xotask,dotcolour,dotcolour,3,3,183,483,main,positivefb,-99,easy,,0.5337147999998706,['n'],1,right,['1'],6,0.04542630000105419,5,,,,,,,23,0,Man,Rechts,2,
,xotask,dotcolour,dotcolour,4,3,184,484,main,positivefb,-99,easy,,0.716624500000762,['c'],0,right,['0'],1,0.8882013000002189,6,,,,,,,23,0,Man,Rechts,2,
,xotask,dotcolour,dotcolour,5,3,185,485,main,positivefb,-99,easy,,0.7342815000010887,['n'],0,left,['1'],6,0.11204720000023372,74,,,,,,,23,0,Man,Rechts,2,
,xotask,dotcolour,dotcolour,6,3,186,486,main,positivefb,-99,hard,,1.9840472000014415,['c'],1,left,['1'],6,0.06900499999937892,51,,,,,,,23,0,Man,Rechts,2,
,xotask,dotcolour,dotcolour,7,3,187,487,main,positivefb,-99,average,,0.6669440000005125,['n'],1,right,['1'],6,0.08000540000102774,15,,,,,,,23,0,Man,Rechts,2,
,xotask,dotcolour,dotcolour,8,3,188,488,main,positivefb,-99,hard,,2.267423699999199,['n'],0,left,['3'],4,0.555439200001274,54,,,,,,,23,0,Man,Rechts,2,
,xotask,dotcolour,dotcolour,9,3,189,489,main,positivefb,-99,hard,,0.6834316000004037,['n'],1,right,['1'],6,0.18649010000081034,28,,,,,,,23,0,Man,Rechts,2,
,xotask,dotcolour,dotcolour,10,3,190,490,main,positivefb,-99,average,,1.0347166000010475,['c'],1,left,['1'],6,0.059253999999782536,60,,,,,,,23,0,Man,Rechts,2,
,xotask,dotcolour,dotcolour,11,3,191,491,main,positivefb,-99,average,,0.5839039000002231,['n'],1,right,['1'],6,0.09825640000053681,18,,,,,,,23,0,Man,Rechts,2,
,xotask,dotcolour,dotcolour,12,3,192,492,main,positivefb,-99,hard,,1.3343898999992234,['c'],1,left,['2'],5,0.11319809999986319,54,,,,,,,23,0,Man,Rechts,2,
,xotask,dotcolour,dotcolour,13,3,193,493,main,positivefb,-99,average,,0.8000916999990295,['n'],1,right,['1'],6,0.07060830000045826,18,,,,,,,23,0,Man,Rechts,2,
,xotask,dotcolour,dotcolour,14,3,194,494,main,positivefb,-99,hard,,1.2513694999997824,['n'],1,right,['1'],6,0.05836330000056478,28,,,,,,,23,0,Man,Rechts,2,
,xotask,dotcolour,dotcolour,15,3,195,495,main,positivefb,-99,hard,,0.567162900000767,['c'],1,left,['2'],5,0.6021340999996028,52,,,,,,,23,0,Man,Rechts,2,
,xotask,dotcolour,dotcolour,16,3,196,496,main,positivefb,-99,hard,,0.6845681000013428,['n'],1,right,['1'],6,0.25594640000053914,28,,,,,,,23,0,Man,Rechts,2,
,xotask,dotcolour,dotcolour,17,3,197,497,main,positivefb,-99,hard,,0.8014538000006723,['c'],1,left,['2'],5,0.28699869999945804,50,,,,,,,23,0,Man,Rechts,2,
,xotask,dotcolour,dotcolour,18,3,198,498,main,positivefb,-99,easy,,0.8002338000005693,['c'],1,left,['1'],6,0.1631954999993468,72,,,,,,,23,0,Man,Rechts,2,
,xotask,dotcolour,dotcolour,19,3,199,499,main,positivefb,-99,average,,0.7839844999998604,['n'],0,left,['2'],5,0.33545049999884213,63,,,,,,,23,0,Man,Rechts,2,
,xotask,dotcolour,dotcolour,20,3,200,500,main,positivefb,-99,hard,,0.45107500000085565,['n'],1,right,['1'],6,0.528689900000245,25,,,,,,,23,0,Man,Rechts,2,
,xotask,dotcolour,dotcolour,21,3,201,501,main,positivefb,-99,hard,,1.2008979000002,['n'],1,right,['1'],6,0.7326474000001326,29,,,,,,,23,0,Man,Rechts,2,
,xotask,dotcolour,dotcolour,22,3,202,502,main,positivefb,-99,average,,0.9685121999991679,['n'],1,right,['2'],5,0.7208372999994026,16,,,,,,,23,0,Man,Rechts,2,
,xotask,dotcolour,dotcolour,23,3,203,503,main,positivefb,-99,average,,0.6515433000004123,['n'],1,right,['1'],6,0.22750559999985853,19,,,,,,,23,0,Man,Rechts,2,
,xotask,dotcolour,dotcolour,24,3,204,504,main,positivefb,-99,easy,,0.8846897999992507,['c'],1,left,['1'],6,0.13616689999980736,74,,,,,,,23,0,Man,Rechts,2,
,xotask,dotcolour,dotcolour,25,3,205,505,main,positivefb,-99,average,,0.6003906999994797,['n'],1,right,['1'],6,0.14759820000108448,16,,,,,,,23,0,Man,Rechts,2,
,xotask,dotcolour,dotcolour,26,3,206,506,main,positivefb,-99,hard,,0.867926199998692,['c'],1,left,['1'],6,0.04392009999901347,54,,,,,,,23,0,Man,Rechts,2,
,xotask,dotcolour,dotcolour,27,3,207,507,main,positivefb,-99,average,,0.7339425999998639,['c'],1,left,['1'],6,0.061898699999801465,63,,,,,,,23,0,Man,Rechts,2,
,xotask,dotcolour,dotcolour,28,3,208,508,main,positivefb,-99,easy,,0.6168639000006806,['c'],1,left,['1'],6,0.04341329999988375,70,,,,,,,23,0,Man,Rechts,2,
,xotask,dotcolour,dotcolour,29,3,209,509,main,positivefb,-99,hard,,0.7339567999988503,['n'],1,right,['1'],6,0.19818250000025728,28,,,,,,,23,0,Man,Rechts,2,
,xotask,dotcolour,dotcolour,30,3,210,510,main,positivefb,-99,average,,0.8673062000016216,['c'],1,left,['1'],6,0.07547340000019176,63,,,,,,,23,0,Man,Rechts,2,
,xotask,dotcolour,dotcolour,31,3,211,511,main,positivefb,-99,easy,,0.8346098000001803,['n'],1,right,['1'],6,0.0160916000004363,9,,,,,,,23,0,Man,Rechts,2,
,xotask,dotcolour,dotcolour,32,3,212,512,main,positivefb,-99,easy,,0.7822871000007581,['n'],1,right,['1'],6,0.02542179999909422,7,,,,,,,23,0,Man,Rechts,2,
,xotask,dotcolour,dotcolour,33,3,213,513,main,positivefb,-99,hard,,1.0996998000009626,['c'],1,left,['1'],6,0.08563229999890609,54,,,,,,,23,0,Man,Rechts,2,
,xotask,dotcolour,dotcolour,34,3,214,514,main,positivefb,-99,average,,1.0342784999993455,['c'],1,left,['1'],6,0.03301559999999881,62,,,,,,,23,0,Man,Rechts,2,
,xotask,dotcolour,dotcolour,35,3,215,515,main,positivefb,-99,average,,0.7008081000003585,['n'],1,right,['1'],6,0.15634250000039174,19,,,,,,,23,0,Man,Rechts,2,
,xotask,dotcolour,dotcolour,36,3,216,516,main,positivefb,-99,easy,,0.9839848000010534,['n'],1,right,['1'],6,0.3764524000016536,7,,,,,,,23,0,Man,Rechts,2,
,xotask,dotcolour,dotcolour,37,3,217,517,main,positivefb,-99,easy,,0.6842636000001221,['c'],1,left,['1'],6,0.014506100000289734,70,,,,,,,23,0,Man,Rechts,2,
,xotask,dotcolour,dotcolour,38,3,218,518,main,positivefb,-99,hard,,0.9996546000002127,['n'],0,left,['1'],6,0.03882379999959085,50,,,,,,,23,0,Man,Rechts,2,
,xotask,dotcolour,dotcolour,39,3,219,519,main,positivefb,-99,easy,,0.7345365999990463,['c'],1,left,['1'],6,0.04012030000012601,72,,,,,,,23,0,Man,Rechts,2,
,xotask,dotcolour,dotcolour,40,3,220,520,main,positivefb,-99,hard,,0.6170110999992175,['n'],1,right,['1'],6,0.03977669999949285,29,,,,,,,23,0,Man,Rechts,2,
,xotask,dotcolour,dotcolour,41,3,221,521,main,positivefb,-99,average,,0.817427800000587,['n'],1,right,['1'],6,0.006067899999834481,17,,,,,,,23,0,Man,Rechts,2,
,xotask,dotcolour,dotcolour,42,3,222,522,main,positivefb,-99,easy,,1.8343088999990869,['n'],1,right,['1'],6,0.02072040000166453,9,,,,,,,23,0,Man,Rechts,2,
,xotask,dotcolour,dotcolour,43,3,223,523,main,positivefb,-99,easy,,0.6172110999996221,['c'],1,left,['1'],6,0.08485509999991336,73,,,,,,,23,0,Man,Rechts,2,
,xotask,dotcolour,dotcolour,44,3,224,524,main,positivefb,-99,average,,0.6994637999996485,['c'],1,left,['1'],6,0.07778499999949418,62,,,,,,,23,0,Man,Rechts,2,
,xotask,dotcolour,dotcolour,45,3,225,525,main,positivefb,-99,easy,,0.5842770999988716,['n'],1,right,['1'],6,0.0601872999995976,5,,,,,,,23,0,Man,Rechts,2,
,xotask,dotcolour,dotcolour,46,3,226,526,main,positivefb,-99,easy,,0.5506127999997261,['c'],1,left,['1'],6,0.020903799999359762,73,,,,,,,23,0,Man,Rechts,2,
,xotask,dotcolour,dotcolour,47,3,227,527,main,positivefb,-99,hard,,0.8658818000003521,['c'],0,right,['1'],6,0.05861719999847992,25,,,,,,,23,0,Man,Rechts,2,
,xotask,dotcolour,dotcolour,48,3,228,528,main,positivefb,-99,easy,,0.9518633999996382,['c'],0,right,['1'],6,0.010949899999104673,7,,,,,,,23,0,Man,Rechts,2,
,xotask,dotcolour,dotcolour,49,3,229,529,main,positivefb,-99,average,,1.4830778999985341,['n'],1,right,['1'],6,0.0006487999999080785,16,,,,,,,23,0,Man,Rechts,2,
,xotask,dotcolour,dotcolour,50,3,230,530,main,positivefb,-99,easy,,0.8167689000001701,['n'],1,right,['1'],6,0.4558983000006265,8,,,,,,,23,0,Man,Rechts,2,
,xotask,dotcolour,dotcolour,51,3,231,531,main,positivefb,-99,average,,0.7509274999993067,['c'],1,left,['1'],6,0.025679100001070765,60,,,,,,,23,0,Man,Rechts,2,
,xotask,dotcolour,dotcolour,52,3,232,532,main,positivefb,-99,average,,0.6001873999994132,['n'],0,left,['1'],6,0.0005655000004480826,64,,,,,,,23,0,Man,Rechts,2,
,xotask,dotcolour,dotcolour,53,3,233,533,main,positivefb,-99,easy,,0.6325212000010652,['c'],1,left,['1'],6,0.06445129999883648,70,,,,,,,23,0,Man,Rechts,2,
,xotask,dotcolour,dotcolour,54,3,234,534,main,positivefb,-99,hard,,0.7167217000005621,['c'],1,left,['1'],6,0.02563159999954223,53,,,,,,,23,0,Man,Rechts,2,
,xotask,dotcolour,dotcolour,55,3,235,535,main,positivefb,-99,hard,,1.400442699999985,['c'],1,left,['1'],6,0.06555649999972957,52,,,,,,,23,0,Man,Rechts,2,
,xotask,dotcolour,dotcolour,56,3,236,536,main,positivefb,-99,average,,0.9177846999991743,['c'],1,left,['1'],6,0.21112449999964156,64,,,,,,,23,0,Man,Rechts,2,
,xotask,dotcolour,dotcolour,57,3,237,537,main,positivefb,-99,easy,,0.6842830000005051,['c'],1,left,['1'],6,0.00040350000017497223,70,,,,,,,23,0,Man,Rechts,2,
,xotask,dotcolour,dotcolour,58,3,238,538,main,positivefb,-99,easy,,0.6331380999999965,['n'],1,right,['1'],6,0.039913099999466795,7,,,,,,,23,0,Man,Rechts,2,
,xotask,dotcolour,dotcolour,59,3,239,539,main,positivefb,-99,hard,,0.5012225999998918,['n'],1,right,['1'],6,0.03521309999996447,27,,,,,,,23,0,Man,Rechts,2,
,xotask,dotcolour,dotcolour,0,4,240,540,main,positivefb,-99,average,,0.5841822999991564,['n'],1,right,['1'],6,0.39962089999971795,19,,,,,,,23,0,Man,Rechts,2,
,xotask,dotcolour,dotcolour,1,4,241,541,main,positivefb,-99,hard,,0.9681082999995851,['n'],1,right,['1'],6,0.001403099999151891,25,,,,,,,23,0,Man,Rechts,2,
,xotask,dotcolour,dotcolour,2,4,242,542,main,positivefb,-99,average,,0.6160789000005025,['n'],1,right,['1'],6,0.057393400000364636,16,,,,,,,23,0,Man,Rechts,2,
,xotask,dotcolour,dotcolour,3,4,243,543,main,positivefb,-99,hard,,0.5014811000000918,['n'],1,right,['1'],6,0.05962760000147682,29,,,,,,,23,0,Man,Rechts,2,
,xotask,dotcolour,dotcolour,4,4,244,544,main,positivefb,-99,easy,,0.5016217000011238,['n'],1,right,['1'],6,0.046774499998718966,6,,,,,,,23,0,Man,Rechts,2,
,xotask,dotcolour,dotcolour,5,4,245,545,main,positivefb,-99,average,,0.6497168999994756,['c'],1,left,['1'],6,0.004613799999788171,61,,,,,,,23,0,Man,Rechts,2,
,xotask,dotcolour,dotcolour,6,4,246,546,main,positivefb,-99,average,,0.5339079000004858,['n'],1,right,['1'],6,0.022775599998567486,16,,,,,,,23,0,Man,Rechts,2,
,xotask,dotcolour,dotcolour,7,4,247,547,main,positivefb,-99,hard,,1.2830371000000014,['c'],1,left,['2'],5,0.060057299999243696,53,,,,,,,23,0,Man,Rechts,2,
,xotask,dotcolour,dotcolour,8,4,248,548,main,positivefb,-99,average,,0.9169636000005994,['c'],1,left,['1'],6,0.029915999999502674,62,,,,,,,23,0,Man,Rechts,2,
,xotask,dotcolour,dotcolour,9,4,249,549,main,positivefb,-99,easy,,0.41555890000017826,['n'],1,right,['1'],6,0.05321809999986726,6,,,,,,,23,0,Man,Rechts,2,
,xotask,dotcolour,dotcolour,10,4,250,550,main,positivefb,-99,average,,0.5179141000007803,['n'],1,right,['1'],6,0.2871833000008337,19,,,,,,,23,0,Man,Rechts,2,
,xotask,dotcolour,dotcolour,11,4,251,551,main,positivefb,-99,easy,,0.5507663999997021,['n'],1,right,['1'],6,0.11078549999911047,9,,,,,,,23,0,Man,Rechts,2,
,xotask,dotcolour,dotcolour,12,4,252,552,main,positivefb,-99,hard,,1.0844586000002892,['n'],0,left,['2'],5,0.2237700000005134,51,,,,,,,23,0,Man,Rechts,2,
,xotask,dotcolour,dotcolour,13,4,253,553,main,positivefb,-99,hard,,0.9680133999991085,['n'],1,right,['2'],5,0.06474300000081712,29,,,,,,,23,0,Man,Rechts,2,
,xotask,dotcolour,dotcolour,14,4,254,554,main,positivefb,-99,average,,0.6840586000016629,['c'],1,left,['1'],6,0.08426040000085777,64,,,,,,,23,0,Man,Rechts,2,
,xotask,dotcolour,dotcolour,15,4,255,555,main,positivefb,-99,easy,,0.6336621999998897,['n'],1,right,['1'],6,0.15971730000092066,8,,,,,,,23,0,Man,Rechts,2,
,xotask,dotcolour,dotcolour,16,4,256,556,main,positivefb,-99,hard,,0.9008859000005032,['c'],1,left,['1'],6,0.5428823000002012,51,,,,,,,23,0,Man,Rechts,2,
,xotask,dotcolour,dotcolour,17,4,257,557,main,positivefb,-99,hard,,0.6343665000003966,['c'],1,left,['1'],6,0.04908419999992475,50,,,,,,,23,0,Man,Rechts,2,
,xotask,dotcolour,dotcolour,18,4,258,558,main,positivefb,-99,average,,0.73316689999956,['c'],1,left,['1'],6,0.0019136999999318505,64,,,,,,,23,0,Man,Rechts,2,
,xotask,dotcolour,dotcolour,19,4,259,559,main,positivefb,-99,average,,0.7336479999994481,['c'],1,left,['1'],6,0.06125810000048659,62,,,,,,,23,0,Man,Rechts,2,
,xotask,dotcolour,dotcolour,20,4,260,560,main,positivefb,-99,easy,,0.8177711000007548,['c'],1,left,['1'],6,0.05924010000126145,72,,,,,,,23,0,Man,Rechts,2,
,xotask,dotcolour,dotcolour,21,4,261,561,main,positivefb,-99,average,,2.700644900000043,['c'],0,right,['2'],5,0.4703257000001031,19,,,,,,,23,0,Man,Rechts,2,
,xotask,dotcolour,dotcolour,22,4,262,562,main,positivefb,-99,hard,,1.0180862999986857,['c'],0,right,['1'],6,0.08270179999999527,28,,,,,,,23,0,Man,Rechts,2,
,xotask,dotcolour,dotcolour,23,4,263,563,main,positivefb,-99,easy,,0.6169078999992053,['c'],1,left,['1'],6,0.04760349999924074,74,,,,,,,23,0,Man,Rechts,2,
,xotask,dotcolour,dotcolour,24,4,264,564,main,positivefb,-99,hard,,0.5507156000003306,['c'],0,right,['1'],6,0.008529000000635278,25,,,,,,,23,0,Man,Rechts,2,
,xotask,dotcolour,dotcolour,25,4,265,565,main,positivefb,-99,hard,,0.7671083999994153,['c'],1,left,['1'],6,0.07443659999989904,52,,,,,,,23,0,Man,Rechts,2,
,xotask,dotcolour,dotcolour,26,4,266,566,main,positivefb,-99,easy,,0.6838952000016434,['c'],1,left,['1'],6,0.517301399999269,71,,,,,,,23,0,Man,Rechts,2,
,xotask,dotcolour,dotcolour,27,4,267,567,main,positivefb,-99,average,,0.8670656000012968,['c'],0,right,['1'],6,0.07856670000001031,19,,,,,,,23,0,Man,Rechts,2,
,xotask,dotcolour,dotcolour,28,4,268,568,main,positivefb,-99,easy,,1.1012902000002214,['n'],1,right,['1'],6,0.056501000000935164,9,,,,,,,23,0,Man,Rechts,2,
,xotask,dotcolour,dotcolour,29,4,269,569,main,positivefb,-99,easy,,1.250698800000464,['n'],1,right,['1'],6,0.0848375000005035,9,,,,,,,23,0,Man,Rechts,2,
,xotask,dotcolour,dotcolour,30,4,270,570,main,positivefb,-99,average,,2.033595900000364,['c'],0,right,['2'],5,0.5853683999994246,18,,,,,,,23,0,Man,Rechts,2,
,xotask,dotcolour,dotcolour,31,4,271,571,main,positivefb,-99,easy,,1.0839216999993369,['c'],1,left,['1'],6,0.08671110000068438,70,,,,,,,23,0,Man,Rechts,2,
,xotask,dotcolour,dotcolour,32,4,272,572,main,positivefb,-99,hard,,0.7836368000007496,['n'],1,right,['1'],6,0.09363779999875987,29,,,,,,,23,0,Man,Rechts,2,
,xotask,dotcolour,dotcolour,33,4,273,573,main,positivefb,-99,average,,0.7171612000001915,['c'],1,left,['1'],6,0.014040099998965161,63,,,,,,,23,0,Man,Rechts,2,
,xotask,dotcolour,dotcolour,34,4,274,574,main,positivefb,-99,easy,,1.2504146999999648,['c'],1,left,['1'],6,0.772632899999735,73,,,,,,,23,0,Man,Rechts,2,
,xotask,dotcolour,dotcolour,35,4,275,575,main,positivefb,-99,average,,0.767808700000387,['n'],1,right,['1'],6,0.07183479999912379,16,,,,,,,23,0,Man,Rechts,2,
,xotask,dotcolour,dotcolour,36,4,276,576,main,positivefb,-99,easy,,0.5503071000002819,['n'],1,right,['1'],6,0.016218100001424318,7,,,,,,,23,0,Man,Rechts,2,
,xotask,dotcolour,dotcolour,37,4,277,577,main,positivefb,-99,easy,,0.43438179999975546,['n'],1,right,['1'],6,0.0228305000000546,8,,,,,,,23,0,Man,Rechts,2,
,xotask,dotcolour,dotcolour,38,4,278,578,main,positivefb,-99,easy,,0.7330113999996684,['c'],1,left,['1'],6,0.03255710000121326,71,,,,,,,23,0,Man,Rechts,2,
,xotask,dotcolour,dotcolour,39,4,279,579,main,positivefb,-99,easy,,0.566599399999177,['c'],1,left,['1'],6,0.0501406000003044,72,,,,,,,23,0,Man,Rechts,2,
,xotask,dotcolour,dotcolour,40,4,280,580,main,positivefb,-99,hard,,0.483092200000101,['n'],1,right,['1'],6,0.061170599999968545,26,,,,,,,23,0,Man,Rechts,2,
,xotask,dotcolour,dotcolour,41,4,281,581,main,positivefb,-99,hard,,1.3177943999999115,['n'],0,left,['1'],6,0.023168599998825812,53,,,,,,,23,0,Man,Rechts,2,
,xotask,dotcolour,dotcolour,42,4,282,582,main,positivefb,-99,easy,,0.5176952999991045,['c'],1,left,['1'],6,0.09915649999857123,70,,,,,,,23,0,Man,Rechts,2,
,xotask,dotcolour,dotcolour,43,4,283,583,main,positivefb,-99,easy,,0.5508718999990379,['c'],1,left,['1'],6,0.06570670000110113,70,,,,,,,23,0,Man,Rechts,2,
,xotask,dotcolour,dotcolour,44,4,284,584,main,positivefb,-99,average,,0.5175096999992093,['c'],1,left,['1'],6,0.0900471999993897,60,,,,,,,23,0,Man,Rechts,2,
,xotask,dotcolour,dotcolour,45,4,285,585,main,positivefb,-99,hard,,0.5012559000006149,['c'],1,left,['1'],6,0.07632090000151948,50,,,,,,,23,0,Man,Rechts,2,
,xotask,dotcolour,dotcolour,46,4,286,586,main,positivefb,-99,easy,,1.4679175000001123,['n'],1,right,['2'],5,0.07119360000069719,9,,,,,,,23,0,Man,Rechts,2,
,xotask,dotcolour,dotcolour,47,4,287,587,main,positivefb,-99,hard,,0.6676730999988649,['n'],1,right,['2'],5,0.19471510000039416,28,,,,,,,23,0,Man,Rechts,2,
,xotask,dotcolour,dotcolour,48,4,288,588,main,positivefb,-99,hard,,0.6335808000003453,['n'],1,right,['2'],5,0.1221973000010621,26,,,,,,,23,0,Man,Rechts,2,
,xotask,dotcolour,dotcolour,49,4,289,589,main,positivefb,-99,hard,,0.9008965000011813,['c'],1,left,['2'],5,0.1301459000005707,53,,,,,,,23,0,Man,Rechts,2,
,xotask,dotcolour,dotcolour,50,4,290,590,main,positivefb,-99,average,,0.65147799999977,['n'],1,right,['2'],5,0.10003370000049472,17,,,,,,,23,0,Man,Rechts,2,
,xotask,dotcolour,dotcolour,51,4,291,591,main,positivefb,-99,easy,,1.083981900001163,['c'],1,left,['2'],5,0.1021853000002011,74,,,,,,,23,0,Man,Rechts,2,
,xotask,dotcolour,dotcolour,52,4,292,592,main,positivefb,-99,hard,,0.633088200000202,['n'],1,right,['2'],5,0.13731120000011288,28,,,,,,,23,0,Man,Rechts,2,
,xotask,dotcolour,dotcolour,53,4,293,593,main,positivefb,-99,average,,1.1675563999997394,['c'],1,left,['2'],5,0.13397259999874223,64,,,,,,,23,0,Man,Rechts,2,
,xotask,dotcolour,dotcolour,54,4,294,594,main,positivefb,-99,hard,,2.467189299999518,['c'],1,left,['2'],5,0.6140424000004714,53,,,,,,,23,0,Man,Rechts,2,
,xotask,dotcolour,dotcolour,55,4,295,595,main,positivefb,-99,average,,0.9837752000003093,['c'],1,left,['2'],5,0.5194069999997737,62,,,,,,,23,0,Man,Rechts,2,
,xotask,dotcolour,dotcolour,56,4,296,596,main,positivefb,-99,hard,,0.5345307999996294,['n'],0,left,['2'],5,0.0784096999996109,51,,,,,,,23,0,Man,Rechts,2,
,xotask,dotcolour,dotcolour,57,4,297,597,main,positivefb,-99,average,,0.6846335999998701,['c'],1,left,['2'],5,0.09605050000027404,63,,,,,,,23,0,Man,Rechts,2,
,xotask,dotcolour,dotcolour,58,4,298,598,main,positivefb,-99,easy,,0.5517546999999468,['n'],1,right,['2'],5,0.055847699999503675,6,,,,,,,23,0,Man,Rechts,2,
,xotask,dotcolour,dotcolour,59,4,299,599,main,positivefb,-99,average,,1.284102300000086,['n'],1,right,['1'],6,0.011261199999353266,18,,,,,,,23,0,Man,Rechts,2,
,dotcolour,dotcolour,dotcolour,0,0,0,600,training,positivefb,91,average,54,1.3172403999997186,['c'],1,left,['1'],6,0.09562019999975746,,,,,,,,23,0,Man,Rechts,2,
,dotcolour,dotcolour,dotcolour,1,0,1,601,training,positivefb,90,average,52,0.4835778000015125,['c'],1,left,['1'],6,0.04869639999924402,,,,,,,,23,0,Man,Rechts,2,
,dotcolour,dotcolour,dotcolour,2,0,2,602,training,positivefb,96,average,51,0.517271200000323,['c'],1,left,['1'],6,0.03383930000018154,,,,,,,,23,0,Man,Rechts,2,
,dotcolour,dotcolour,dotcolour,3,0,3,603,training,positivefb,98,easy,65,0.4835186000000249,['c'],1,left,['1'],6,0.06178630000067642,,,,,,,,23,0,Man,Rechts,2,
,dotcolour,dotcolour,dotcolour,4,0,4,604,training,positivefb,97,easy,65,0.4333315000003495,['c'],1,left,['1'],6,0.0661510999998427,,,,,,,,23,0,Man,Rechts,2,
,dotcolour,dotcolour,dotcolour,5,0,5,605,training,positivefb,96,average,51,0.48412309999912395,['c'],1,left,['1'],6,0.06832650000069407,,,,,,,,23,0,Man,Rechts,2,
,dotcolour,dotcolour,dotcolour,6,0,6,606,training,positivefb,98,average,28,0.45031850000123086,['n'],1,right,['1'],6,0.08758380000108446,,,,,,,,23,0,Man,Rechts,2,
,dotcolour,dotcolour,dotcolour,7,0,7,607,training,positivefb,97,easy,17,0.41611530000045605,['n'],1,right,['1'],6,0.08356970000022557,,,,,,,,23,0,Man,Rechts,2,
,dotcolour,dotcolour,dotcolour,8,0,8,608,training,positivefb,98,average,26,0.3663250000008702,['n'],1,right,['1'],6,0.08895020000090881,,,,,,,,23,0,Man,Rechts,2,
,dotcolour,dotcolour,dotcolour,9,0,9,609,training,positivefb,95,hard,35,0.517232199999853,['n'],1,right,['1'],6,0.04143560000011348,,,,,,,,23,0,Man,Rechts,2,
,dotcolour,dotcolour,dotcolour,10,0,10,610,training,positivefb,99,average,52,0.41667710000001534,['c'],1,left,['1'],6,0.04003279999960796,,,,,,,,23,0,Man,Rechts,2,
,dotcolour,dotcolour,dotcolour,11,0,11,611,training,positivefb,85,hard,37,0.5339364000010391,['n'],1,right,['1'],6,0.08060359999944922,,,,,,,,23,0,Man,Rechts,2,
,dotcolour,dotcolour,dotcolour,12,0,12,612,training,positivefb,93,hard,43,0.5493673999990278,['c'],1,left,['1'],6,0.4319108999989112,,,,,,,,23,0,Man,Rechts,2,
,dotcolour,dotcolour,dotcolour,13,0,13,613,training,positivefb,96,average,28,0.4664487000009103,['n'],1,right,['1'],6,0.027656099999148864,,,,,,,,23,0,Man,Rechts,2,
,dotcolour,dotcolour,dotcolour,14,0,14,614,training,positivefb,96,easy,65,0.6676096999999572,['c'],1,left,['1'],6,0.07254699999975855,,,,,,,,23,0,Man,Rechts,2,
,dotcolour,dotcolour,dotcolour,15,0,15,615,training,positivefb,96,hard,43,0.6165780999999697,['n'],0,left,['1'],6,0.06139419999999518,,,,,,,,23,0,Man,Rechts,2,
,dotcolour,dotcolour,dotcolour,16,0,16,616,training,positivefb,96,hard,35,0.8509426000000531,['n'],1,right,['2'],5,0.209619000001112,,,,,,,,23,0,Man,Rechts,2,
,dotcolour,dotcolour,dotcolour,17,0,17,617,training,positivefb,94,hard,45,1.3172187000000122,['c'],1,left,['2'],5,0.22041300000091724,,,,,,,,23,0,Man,Rechts,2,
,dotcolour,dotcolour,dotcolour,18,0,18,618,training,positivefb,94,average,55,0.5989059000003181,['c'],1,left,['2'],5,0.24407330000030925,,,,,,,,23,0,Man,Rechts,2,
,dotcolour,dotcolour,dotcolour,19,0,19,619,training,positivefb,77,average,26,5.533409100000426,['c'],0,right,['2'],5,0.10938340000029712,,,,,,,,23,0,Man,Rechts,2,
,dotcolour,dotcolour,dotcolour,20,0,20,620,training,positivefb,92,hard,42,0.633516599998984,['c'],1,left,['2'],5,0.03962390000015148,,,,,,,,23,0,Man,Rechts,2,
,dotcolour,dotcolour,dotcolour,21,0,21,621,training,positivefb,98,hard,38,0.5498740999992151,['c'],0,right,['1'],6,0.07300089999989723,,,,,,,,23,0,Man,Rechts,2,
,dotcolour,dotcolour,dotcolour,22,0,22,622,training,positivefb,95,easy,16,0.6168662999989465,['n'],1,right,['1'],6,0.1336886000008235,,,,,,,,23,0,Man,Rechts,2,
,dotcolour,dotcolour,dotcolour,23,0,23,623,training,positivefb,93,easy,16,0.5013196999989304,['n'],1,right,['1'],6,0.45241619999978866,,,,,,,,23,0,Man,Rechts,2,
,dotcolour,dotcolour,dotcolour,24,0,24,624,training,positivefb,96,easy,16,0.6505231999999523,['n'],1,right,['1'],6,0.14400129999921774,,,,,,,,23,0,Man,Rechts,2,
,dotcolour,dotcolour,dotcolour,25,0,25,625,training,positivefb,92,easy,64,0.8500695000002452,['c'],1,left,['1'],6,0.7128424000002269,,,,,,,,23,0,Man,Rechts,2,
,dotcolour,dotcolour,dotcolour,26,0,26,626,training,positivefb,89,average,29,1.4003589999992982,['c'],0,right,['1'],6,0.020690299999841955,,,,,,,,23,0,Man,Rechts,2,
,dotcolour,dotcolour,dotcolour,27,0,27,627,training,positivefb,97,hard,44,0.4504099000005226,['n'],0,left,['3'],4,1.0658530999990035,,,,,,,,23,0,Man,Rechts,2,
