starttime,task,fbtask,firsttask,withinblocktrial,block,withintasktrial,trial,running,feedback,fbscore,difflevel,n_xes,rt,resp,cor,cresp,conf_press,cj,RTconf,reddots,stoptime,sub,age,gender,handedness,session,
1714978727,xotask,xotask,xotask,0,0,0,0,training,positivefb,99,average,61,6.716368999999986,['c'],1,left,['2'],5,9.263975300000084,,,16,21,Vrouw,Rechts,1,
,xotask,xotask,xotask,1,0,1,1,training,positivefb,92,easy,73,3.133299900000111,['c'],1,left,['2'],5,1.557774800000061,,,16,21,Vrouw,Rechts,1,
,xotask,xotask,xotask,2,0,2,2,training,positivefb,96,easy,73,3.1677243000001454,['c'],1,left,['2'],5,1.456372999999985,,,16,21,Vrouw,Rechts,1,
,xotask,xotask,xotask,3,0,3,3,training,positivefb,48,hard,50,2.6674308999999994,['n'],0,left,['3'],4,2.14705529999992,,,16,21,Vrouw,Rechts,1,
,xotask,xotask,xotask,4,0,4,4,training,positivefb,58,average,62,1.6831657000000178,['c'],1,left,['2'],5,0.7697710999998435,,,16,21,Vrouw,Rechts,1,
,xotask,xotask,xotask,5,0,5,5,training,positivefb,86,average,19,2.083247300000039,['n'],1,right,['2'],5,1.927891099999897,,,16,21,Vrouw,Rechts,1,
,xotask,xotask,xotask,6,0,6,6,training,positivefb,78,average,61,1.4331222000000707,['c'],1,left,['2'],5,0.8810611999999765,,,16,21,Vrouw,Rechts,1,
,xotask,xotask,xotask,7,0,7,7,training,positivefb,86,average,60,4.184750599999916,['c'],1,left,['2'],5,0.7749696999999287,,,16,21,Vrouw,Rechts,1,
,xotask,xotask,xotask,8,0,8,8,training,positivefb,98,easy,6,1.3511756000000332,['n'],1,right,['2'],5,0.7304991000000882,,,16,21,Vrouw,Rechts,1,
,xotask,xotask,xotask,9,0,9,9,training,positivefb,94,easy,9,1.43434400000001,['n'],1,right,['2'],5,0.38041690000000017,,,16,21,Vrouw,Rechts,1,
,xotask,xotask,xotask,10,0,10,10,training,positivefb,77,average,61,1.6662684000000354,['n'],0,left,['2'],5,0.6109722000001057,,,16,21,Vrouw,Rechts,1,
,xotask,xotask,xotask,11,0,11,11,training,positivefb,82,hard,29,1.4333716999999524,['n'],1,right,['2'],5,0.3619613000000754,,,16,21,Vrouw,Rechts,1,
,xotask,xotask,xotask,12,0,12,12,training,positivefb,49,easy,70,1.8167759000000387,['c'],1,left,['2'],5,0.44313709999983075,,,16,21,Vrouw,Rechts,1,
,xotask,xotask,xotask,13,0,13,13,training,positivefb,98,hard,26,1.2011552000001302,['n'],1,right,['2'],5,0.5940461999998661,,,16,21,Vrouw,Rechts,1,
,xotask,xotask,xotask,14,0,14,14,training,positivefb,93,average,16,2.350740099999939,['n'],1,right,['2'],5,0.6204780999999002,,,16,21,Vrouw,Rechts,1,
,xotask,xotask,xotask,15,0,15,15,training,positivefb,98,easy,5,1.1680899000000409,['n'],1,right,['2'],5,0.3249369999998635,,,16,21,Vrouw,Rechts,1,
,xotask,xotask,xotask,16,0,16,16,training,positivefb,96,easy,5,1.2175962000001164,['n'],1,right,['1'],6,0.9918314000001374,,,16,21,Vrouw,Rechts,1,
,xotask,xotask,xotask,17,0,17,17,training,positivefb,30,average,16,3.133011599999918,['c'],0,right,['2'],5,0.44314780000013343,,,16,21,Vrouw,Rechts,1,
,xotask,xotask,xotask,18,0,18,18,training,positivefb,92,hard,25,0.9003376999999091,['n'],1,right,['2'],5,0.8775567000000137,,,16,21,Vrouw,Rechts,1,
,xotask,xotask,xotask,19,0,19,19,training,positivefb,76,average,18,1.0671566999999413,['n'],1,right,['1'],6,1.2405745999999453,,,16,21,Vrouw,Rechts,1,
,xotask,xotask,xotask,20,0,20,20,training,positivefb,84,hard,29,1.150410999999849,['n'],1,right,['2'],5,0.4250733000001219,,,16,21,Vrouw,Rechts,1,
,xotask,xotask,xotask,21,0,21,21,training,positivefb,99,easy,6,1.0501010999998925,['n'],1,right,['2'],5,2.8227206999999908,,,16,21,Vrouw,Rechts,1,
,xotask,xotask,xotask,22,0,22,22,training,positivefb,96,average,18,0.9169772999998713,['n'],1,right,['2'],5,0.5206129000000601,,,16,21,Vrouw,Rechts,1,
,xotask,xotask,xotask,23,0,23,23,training,positivefb,94,easy,9,0.8833716999999979,['n'],1,right,['2'],5,0.32849480000004405,,,16,21,Vrouw,Rechts,1,
,xotask,xotask,xotask,24,0,24,24,training,positivefb,91,average,64,2.267097700000022,['c'],1,left,['3'],4,2.2652658000001793,,,16,21,Vrouw,Rechts,1,
,xotask,xotask,xotask,25,0,25,25,training,positivefb,99,average,62,1.1166897000000517,['c'],1,left,['2'],5,0.7372402999999395,,,16,21,Vrouw,Rechts,1,
,xotask,xotask,xotask,26,0,26,26,training,positivefb,96,hard,25,1.2345417999999881,['n'],1,right,['2'],5,0.8265773000000536,,,16,21,Vrouw,Rechts,1,
,xotask,xotask,xotask,27,0,27,27,training,positivefb,97,hard,26,0.9499078000001191,['n'],1,right,['2'],5,0.3718684000000394,,,16,21,Vrouw,Rechts,1,
,xotask,xotask,xotask,28,0,28,28,training,positivefb,92,hard,52,1.633324200000061,['c'],1,left,['2'],5,0.42789059999995516,,,16,21,Vrouw,Rechts,1,
,xotask,xotask,xotask,29,0,29,29,training,positivefb,65,hard,51,1.5674431000002187,['c'],1,left,['2'],5,0.4845611999999164,,,16,21,Vrouw,Rechts,1,
,xotask,xotask,xotask,30,0,30,30,training,positivefb,98,easy,74,1.6671010999998543,['c'],1,left,['2'],5,0.5659370000000763,,,16,21,Vrouw,Rechts,1,
,xotask,xotask,xotask,31,0,31,31,training,positivefb,95,easy,7,1.1665572000001703,['n'],1,right,['2'],5,0.42490299999985837,,,16,21,Vrouw,Rechts,1,
,xotask,xotask,xotask,32,0,32,32,training,positivefb,93,average,17,0.799755100000084,['n'],1,right,['2'],5,0.35257590000014716,,,16,21,Vrouw,Rechts,1,
,xotask,xotask,xotask,33,0,33,33,training,positivefb,94,easy,7,1.0168883000001188,['n'],1,right,['2'],5,0.7539612000000488,,,16,21,Vrouw,Rechts,1,
,xotask,xotask,xotask,34,0,34,34,training,positivefb,83,hard,52,3.5335377000001245,['c'],1,left,['2'],5,0.5104890000000069,,,16,21,Vrouw,Rechts,1,
,xotask,xotask,xotask,35,0,35,35,training,positivefb,97,easy,6,0.916725599999836,['n'],1,right,['2'],5,0.5579158000000461,,,16,21,Vrouw,Rechts,1,
,xotask,xotask,xotask,36,0,36,36,training,positivefb,87,hard,27,3.5846257999999125,['c'],0,right,['2'],5,0.4887026999999762,,,16,21,Vrouw,Rechts,1,
,xotask,xotask,xotask,37,0,37,37,training,positivefb,97,easy,73,0.9675095000000056,['c'],1,left,['2'],5,0.454599799999869,,,16,21,Vrouw,Rechts,1,
,xotask,xotask,xotask,38,0,38,38,training,positivefb,85,average,19,2.08376659999999,['c'],0,right,['2'],5,0.2730248999998821,,,16,21,Vrouw,Rechts,1,
,xotask,xotask,xotask,39,0,39,39,training,positivefb,96,average,16,1.2344693000000007,['n'],1,right,['2'],5,0.6212983000000349,,,16,21,Vrouw,Rechts,1,
,xotask,xotask,xotask,40,0,40,40,training,positivefb,70,hard,53,0.9675909000000047,['c'],1,left,['2'],5,0.3739018000001124,,,16,21,Vrouw,Rechts,1,
,xotask,xotask,xotask,41,0,41,41,training,positivefb,92,easy,74,0.9670577999997931,['c'],1,left,['2'],5,0.37601169999993544,,,16,21,Vrouw,Rechts,1,
,xotask,xotask,xotask,42,0,42,42,training,positivefb,98,easy,71,1.3172521999999844,['c'],1,left,['1'],6,0.8692098999999871,,,16,21,Vrouw,Rechts,1,
,xotask,xotask,xotask,43,0,43,43,training,positivefb,97,hard,26,0.8671194999999443,['n'],1,right,['2'],5,0.38361349999991035,,,16,21,Vrouw,Rechts,1,
,xotask,xotask,xotask,44,0,44,44,training,positivefb,95,easy,73,0.8336638000000676,['c'],1,left,['1'],6,0.7029849000000468,,,16,21,Vrouw,Rechts,1,
,xotask,xotask,xotask,45,0,45,45,training,positivefb,93,hard,53,1.3007866000000377,['c'],1,left,['2'],5,0.3993077000000085,,,16,21,Vrouw,Rechts,1,
,xotask,xotask,xotask,46,0,46,46,training,positivefb,95,easy,5,0.9671006000000943,['n'],1,right,['1'],6,0.3367776000000049,,,16,21,Vrouw,Rechts,1,
,xotask,xotask,xotask,47,0,47,47,training,positivefb,79,average,16,1.6333432999999786,['n'],1,right,['2'],5,0.3541088000001764,,,16,21,Vrouw,Rechts,1,
,xotask,xotask,xotask,48,0,48,48,training,positivefb,81,average,62,1.0353500999999596,['c'],1,left,['2'],5,0.3777070000001004,,,16,21,Vrouw,Rechts,1,
,xotask,xotask,xotask,49,0,49,49,training,positivefb,91,hard,52,1.3833022999999685,['c'],1,left,['2'],5,0.3325824000000921,,,16,21,Vrouw,Rechts,1,
,xotask,xotask,xotask,50,0,50,50,training,positivefb,76,easy,72,1.1506792000000132,['c'],1,left,['2'],5,0.4403704999999718,,,16,21,Vrouw,Rechts,1,
,xotask,xotask,xotask,51,0,51,51,training,positivefb,97,easy,70,0.9004386999999952,['c'],1,left,['2'],5,0.4430570000001808,,,16,21,Vrouw,Rechts,1,
,xotask,xotask,xotask,52,0,52,52,training,positivefb,97,average,64,1.0339029000001574,['c'],1,left,['2'],5,0.4410502999999153,,,16,21,Vrouw,Rechts,1,
,xotask,xotask,xotask,53,0,53,53,training,positivefb,70,hard,54,1.0160660000001371,['c'],1,left,['3'],4,1.4794939999999315,,,16,21,Vrouw,Rechts,1,
,xotask,xotask,xotask,54,0,54,54,training,positivefb,90,hard,52,0.833083600000009,['c'],1,left,['2'],5,0.36255839999989803,,,16,21,Vrouw,Rechts,1,
,xotask,xotask,xotask,55,0,55,55,training,positivefb,38,hard,53,0.9323812999998609,['n'],0,left,['2'],5,0.34381409999991774,,,16,21,Vrouw,Rechts,1,
,xotask,xotask,xotask,56,0,56,56,training,positivefb,97,average,62,0.8844091000000844,['c'],1,left,['2'],5,0.3825538000000961,,,16,21,Vrouw,Rechts,1,
,xotask,xotask,xotask,57,0,57,57,training,positivefb,90,hard,25,0.8006069999998999,['n'],1,right,['2'],5,0.3352617000000464,,,16,21,Vrouw,Rechts,1,
,xotask,xotask,xotask,58,0,58,58,training,positivefb,97,hard,27,0.7003319000000374,['n'],1,right,['2'],5,0.3101827000000412,,,16,21,Vrouw,Rechts,1,
,xotask,xotask,xotask,59,0,59,59,training,positivefb,92,average,16,0.8673415999999179,['n'],1,right,['2'],5,0.22334630000000288,,,16,21,Vrouw,Rechts,1,
,xotask,xotask,xotask,0,1,60,60,training,positivefb,82,easy,70,1.4170463999998901,['n'],0,left,['2'],5,0.24690689999988535,,,16,21,Vrouw,Rechts,1,
,xotask,xotask,xotask,1,1,61,61,training,positivefb,70,hard,26,0.8331150999999863,['n'],1,right,['2'],5,0.2197634999999991,,,16,21,Vrouw,Rechts,1,
,xotask,xotask,xotask,2,1,62,62,training,positivefb,69,hard,25,1.7994783999999981,['n'],1,right,['2'],5,0.18010000000003856,,,16,21,Vrouw,Rechts,1,
,xotask,xotask,xotask,3,1,63,63,training,positivefb,96,hard,25,0.732990799999925,['n'],1,right,['2'],5,0.5038156999999046,,,16,21,Vrouw,Rechts,1,
,xotask,xotask,xotask,4,1,64,64,training,positivefb,93,easy,70,1.0824910000001182,['c'],1,left,['2'],5,0.3202092999999877,,,16,21,Vrouw,Rechts,1,
,xotask,xotask,xotask,5,1,65,65,training,positivefb,98,average,18,0.8997812999998587,['n'],1,right,['2'],5,0.3109285999998974,,,16,21,Vrouw,Rechts,1,
,xotask,xotask,xotask,6,1,66,66,training,positivefb,95,easy,9,0.6822023999998237,['n'],1,right,['2'],5,0.47250480000002426,,,16,21,Vrouw,Rechts,1,
,xotask,xotask,xotask,7,1,67,67,training,positivefb,94,hard,28,1.5175217999999404,['n'],1,right,['2'],5,0.2975010999998631,,,16,21,Vrouw,Rechts,1,
,xotask,xotask,xotask,8,1,68,68,training,positivefb,94,hard,52,1.9669910999998592,['c'],1,left,['2'],5,0.5834325000000717,,,16,21,Vrouw,Rechts,1,
,xotask,xotask,xotask,9,1,69,69,training,positivefb,97,easy,5,0.7338081000000329,['n'],1,right,['2'],5,0.2987576000000445,,,16,21,Vrouw,Rechts,1,
,xotask,xotask,xotask,10,1,70,70,training,positivefb,90,average,60,1.3495788000000175,['c'],1,left,['2'],5,0.2796435999998721,,,16,21,Vrouw,Rechts,1,
,xotask,xotask,xotask,11,1,71,71,training,positivefb,91,easy,70,0.8512507999998888,['c'],1,left,['2'],5,0.2591227999998864,,,16,21,Vrouw,Rechts,1,
,xotask,xotask,xotask,12,1,72,72,training,positivefb,77,hard,50,0.9170976999998857,['c'],1,left,['2'],5,0.24542059999998855,,,16,21,Vrouw,Rechts,1,
,xotask,xotask,xotask,13,1,73,73,training,positivefb,96,average,19,1.0834572999999637,['n'],1,right,['2'],5,0.3128544999999576,,,16,21,Vrouw,Rechts,1,
,xotask,xotask,xotask,14,1,74,74,training,positivefb,92,average,19,0.9827348000001166,['n'],1,right,['2'],5,0.22111530000006496,,,16,21,Vrouw,Rechts,1,
,xotask,xotask,xotask,15,1,75,75,training,positivefb,95,hard,25,0.767250200000035,['c'],0,right,['2'],5,0.19743229999994583,,,16,21,Vrouw,Rechts,1,
,xotask,xotask,xotask,16,1,76,76,training,positivefb,92,hard,29,0.7844254999999976,['n'],1,right,['2'],5,0.1742435999999543,,,16,21,Vrouw,Rechts,1,
,xotask,xotask,xotask,17,1,77,77,training,positivefb,80,hard,54,1.6327839000000495,['n'],0,left,['3'],4,0.5909771000001456,,,16,21,Vrouw,Rechts,1,
,xotask,xotask,xotask,18,1,78,78,training,positivefb,89,average,16,1.017812400000139,['n'],1,right,['2'],5,0.26188669999987724,,,16,21,Vrouw,Rechts,1,
,xotask,xotask,xotask,19,1,79,79,training,positivefb,73,easy,70,1.2669859000000088,['c'],1,left,['2'],5,0.186096900000166,,,16,21,Vrouw,Rechts,1,
,xotask,xotask,xotask,20,1,80,80,training,positivefb,95,easy,7,0.7333094000000528,['n'],1,right,['1'],6,0.541490500000009,,,16,21,Vrouw,Rechts,1,
,xotask,xotask,xotask,21,1,81,81,training,positivefb,98,easy,72,0.9666145000001052,['c'],1,left,['1'],6,0.46549610000010944,,,16,21,Vrouw,Rechts,1,
,xotask,xotask,xotask,22,1,82,82,training,positivefb,83,easy,73,0.7325619999999162,['c'],1,left,['1'],6,0.34464870000010706,,,16,21,Vrouw,Rechts,1,
,xotask,xotask,xotask,23,1,83,83,training,positivefb,95,easy,9,0.9012534000000869,['n'],1,right,['1'],6,0.2951118000000861,,,16,21,Vrouw,Rechts,1,
,xotask,xotask,xotask,24,1,84,84,training,positivefb,91,easy,9,0.7664009000000078,['n'],1,right,['1'],6,0.30217130000005454,,,16,21,Vrouw,Rechts,1,
,xotask,xotask,xotask,25,1,85,85,training,positivefb,96,hard,54,1.2999583000000712,['c'],1,left,['2'],5,0.4463180000000193,,,16,21,Vrouw,Rechts,1,
,xotask,xotask,xotask,26,1,86,86,training,positivefb,85,easy,70,1.0996119999999792,['c'],1,left,['1'],6,0.336255200000096,,,16,21,Vrouw,Rechts,1,
,xotask,xotask,xotask,27,1,87,87,training,positivefb,97,easy,9,0.6325145000000703,['n'],1,right,['1'],6,0.30557329999987815,,,16,21,Vrouw,Rechts,1,
,xotask,xotask,xotask,28,1,88,88,training,positivefb,51,hard,26,1.9171719999999368,['n'],1,right,['1'],6,0.40096939999989445,,,16,21,Vrouw,Rechts,1,
,xotask,xotask,xotask,29,1,89,89,training,positivefb,100,easy,73,0.8837352000000465,['c'],1,left,['2'],5,0.38193329999990056,,,16,21,Vrouw,Rechts,1,
,xotask,xotask,xotask,30,1,90,90,training,positivefb,91,average,63,1.5666651999999885,['c'],1,left,['2'],5,0.35958129999994526,,,16,21,Vrouw,Rechts,1,
,xotask,xotask,xotask,31,1,91,91,training,positivefb,77,hard,51,3.550608000000011,['n'],0,left,['2'],5,0.5955202999998619,,,16,21,Vrouw,Rechts,1,
,xotask,xotask,xotask,32,1,92,92,training,positivefb,92,easy,6,1.5668251000001874,['n'],1,right,['2'],5,0.42245930000012777,,,16,21,Vrouw,Rechts,1,
,xotask,xotask,xotask,33,1,93,93,training,positivefb,97,average,16,0.8332110999999713,['n'],1,right,['2'],5,0.5557725999999548,,,16,21,Vrouw,Rechts,1,
,xotask,xotask,xotask,34,1,94,94,training,positivefb,83,average,64,1.483542400000033,['c'],1,left,['2'],5,0.39514260000009926,,,16,21,Vrouw,Rechts,1,
,xotask,xotask,xotask,35,1,95,95,training,positivefb,89,average,18,0.7494285000000218,['n'],1,right,['2'],5,0.3494772000001376,,,16,21,Vrouw,Rechts,1,
,xotask,xotask,xotask,36,1,96,96,training,positivefb,87,hard,52,1.350707100000136,['c'],1,left,['2'],5,0.2656672000000526,,,16,21,Vrouw,Rechts,1,
,xotask,xotask,xotask,37,1,97,97,training,positivefb,95,hard,29,0.7669250999999804,['n'],1,right,['2'],5,0.2562656000000061,,,16,21,Vrouw,Rechts,1,
,xotask,xotask,xotask,38,1,98,98,training,positivefb,98,easy,8,0.6340495999997984,['n'],1,right,['2'],5,0.14090469999996458,,,16,21,Vrouw,Rechts,1,
,xotask,xotask,xotask,39,1,99,99,training,positivefb,73,average,61,0.9831607999999505,['n'],0,left,['2'],5,0.2086632999998983,,,16,21,Vrouw,Rechts,1,
,xotask,xotask,xotask,40,1,100,100,training,positivefb,70,easy,73,0.8489973000000646,['c'],1,left,['2'],5,0.30148860000008426,,,16,21,Vrouw,Rechts,1,
,xotask,xotask,xotask,41,1,101,101,training,positivefb,99,average,16,0.75076439999998,['n'],1,right,['2'],5,0.6362536999999975,,,16,21,Vrouw,Rechts,1,
,xotask,xotask,xotask,42,1,102,102,training,positivefb,93,easy,70,1.6511026000000584,['c'],1,left,['2'],5,0.28903250000007574,,,16,21,Vrouw,Rechts,1,
,xotask,xotask,xotask,43,1,103,103,training,positivefb,96,average,15,0.9004399000000376,['n'],1,right,['2'],5,0.32905619999996816,,,16,21,Vrouw,Rechts,1,
,xotask,xotask,xotask,44,1,104,104,training,positivefb,72,hard,25,1.6329126999999062,['n'],1,right,['3'],4,0.22769500000003973,,,16,21,Vrouw,Rechts,1,
,xotask,xotask,xotask,45,1,105,105,training,positivefb,85,average,62,1.2502559000001838,['c'],1,left,['3'],4,0.31301639999992403,,,16,21,Vrouw,Rechts,1,
,xotask,xotask,xotask,46,1,106,106,training,positivefb,91,hard,25,1.1504926999998588,['n'],1,right,['2'],5,0.29460649999987254,,,16,21,Vrouw,Rechts,1,
,xotask,xotask,xotask,47,1,107,107,training,positivefb,96,hard,53,0.8326518999999735,['c'],1,left,['2'],5,0.32225160000007236,,,16,21,Vrouw,Rechts,1,
,xotask,xotask,xotask,48,1,108,108,training,positivefb,98,average,60,0.8841143000001921,['c'],1,left,['2'],5,0.30564090000007127,,,16,21,Vrouw,Rechts,1,
,xotask,xotask,xotask,49,1,109,109,training,positivefb,97,easy,8,0.96536059999994,['n'],1,right,['1'],6,0.19953000000009524,,,16,21,Vrouw,Rechts,1,
,xotask,xotask,xotask,50,1,110,110,training,positivefb,74,average,15,1.1325473000001693,['n'],1,right,['2'],5,0.2411819999999807,,,16,21,Vrouw,Rechts,1,
,xotask,xotask,xotask,51,1,111,111,training,positivefb,91,hard,53,0.8000050000000556,['c'],1,left,['2'],5,0.28907740000022386,,,16,21,Vrouw,Rechts,1,
,xotask,xotask,xotask,52,1,112,112,training,positivefb,67,average,64,1.8160095999999157,['n'],0,left,['3'],4,0.18833370000015748,,,16,21,Vrouw,Rechts,1,
,xotask,xotask,xotask,53,1,113,113,training,positivefb,98,hard,50,1.016623299999992,['c'],1,left,['2'],5,0.5248643999998421,,,16,21,Vrouw,Rechts,1,
,xotask,xotask,xotask,54,1,114,114,training,positivefb,87,average,63,1.266255400000091,['c'],1,left,['2'],5,0.6617272000000867,,,16,21,Vrouw,Rechts,1,
,xotask,xotask,xotask,55,1,115,115,training,positivefb,84,easy,6,0.7341403000000355,['n'],1,right,['2'],5,0.35822220000000016,,,16,21,Vrouw,Rechts,1,
,xotask,xotask,xotask,56,1,116,116,training,positivefb,97,average,63,1.049833099999887,['c'],1,left,['2'],5,0.3259295000000293,,,16,21,Vrouw,Rechts,1,
,xotask,xotask,xotask,57,1,117,117,training,positivefb,77,hard,51,1.383494699999801,['c'],1,left,['2'],5,0.43420259999993505,,,16,21,Vrouw,Rechts,1,
,xotask,xotask,xotask,58,1,118,118,training,positivefb,83,average,18,0.9670403000000078,['n'],1,right,['2'],5,0.3855148999998619,,,16,21,Vrouw,Rechts,1,
,xotask,xotask,xotask,59,1,119,119,training,positivefb,98,average,62,1.2671027000001231,['c'],1,left,['2'],5,0.5596714999999222,,,16,21,Vrouw,Rechts,1,
,xotask,xotask,xotask,0,2,120,120,main,positivefb,-99,average,17,1.0339131999999154,['n'],1,right,['2'],5,0.41463450000014745,,,16,21,Vrouw,Rechts,1,
,xotask,xotask,xotask,1,2,121,121,main,positivefb,-99,hard,53,1.800437200000033,['c'],1,left,['2'],5,0.9348726999999144,,,16,21,Vrouw,Rechts,1,
,xotask,xotask,xotask,2,2,122,122,main,positivefb,-99,hard,27,1.750864300000103,['n'],1,right,['2'],5,0.8044208000001163,,,16,21,Vrouw,Rechts,1,
,xotask,xotask,xotask,3,2,123,123,main,positivefb,-99,hard,51,0.9014662000001863,['c'],1,left,['2'],5,0.38381779999986065,,,16,21,Vrouw,Rechts,1,
,xotask,xotask,xotask,4,2,124,124,main,positivefb,-99,hard,27,1.5349310000001424,['n'],1,right,['2'],5,0.26004650000004403,,,16,21,Vrouw,Rechts,1,
,xotask,xotask,xotask,5,2,125,125,main,positivefb,-99,easy,74,1.4175285999999687,['c'],1,left,['2'],5,0.28270909999992,,,16,21,Vrouw,Rechts,1,
,xotask,xotask,xotask,6,2,126,126,main,positivefb,-99,average,17,1.7169512999998915,['n'],1,right,['2'],5,0.25178989999994883,,,16,21,Vrouw,Rechts,1,
,xotask,xotask,xotask,7,2,127,127,main,positivefb,-99,hard,50,1.1336244999999963,['c'],1,left,['2'],5,0.30861300000015035,,,16,21,Vrouw,Rechts,1,
,xotask,xotask,xotask,8,2,128,128,main,positivefb,-99,hard,27,0.8163564000001315,['n'],1,right,['2'],5,0.2649418999999398,,,16,21,Vrouw,Rechts,1,
,xotask,xotask,xotask,9,2,129,129,main,positivefb,-99,easy,8,0.8508221000001868,['n'],1,right,['1'],6,0.5646487000001343,,,16,21,Vrouw,Rechts,1,
,xotask,xotask,xotask,10,2,130,130,main,positivefb,-99,easy,72,2.2498487999998815,['c'],1,left,['2'],5,0.45323389999998653,,,16,21,Vrouw,Rechts,1,
,xotask,xotask,xotask,11,2,131,131,main,positivefb,-99,average,64,2.2665276000000176,['c'],1,left,['2'],5,0.24897589999977754,,,16,21,Vrouw,Rechts,1,
,xotask,xotask,xotask,12,2,132,132,main,positivefb,-99,average,15,1.4179031999999552,['n'],1,right,['2'],5,0.23124589999997625,,,16,21,Vrouw,Rechts,1,
,xotask,xotask,xotask,13,2,133,133,main,positivefb,-99,hard,54,1.150250700000015,['c'],1,left,['2'],5,0.2331219999998666,,,16,21,Vrouw,Rechts,1,
,xotask,xotask,xotask,14,2,134,134,main,positivefb,-99,easy,73,1.050000799999907,['c'],1,left,['2'],5,0.15769840000007207,,,16,21,Vrouw,Rechts,1,
,xotask,xotask,xotask,15,2,135,135,main,positivefb,-99,easy,72,1.5832562000000507,['c'],1,left,['2'],5,0.20155990000012025,,,16,21,Vrouw,Rechts,1,
,xotask,xotask,xotask,16,2,136,136,main,positivefb,-99,average,17,0.7003999000000931,['n'],1,right,['2'],5,0.22988869999994677,,,16,21,Vrouw,Rechts,1,
,xotask,xotask,xotask,17,2,137,137,main,positivefb,-99,hard,50,1.8505087000000913,['c'],1,left,['3'],4,0.36394719999998415,,,16,21,Vrouw,Rechts,1,
,xotask,xotask,xotask,18,2,138,138,main,positivefb,-99,hard,27,0.7680217999998149,['n'],1,right,['2'],5,0.22406309999996665,,,16,21,Vrouw,Rechts,1,
,xotask,xotask,xotask,19,2,139,139,main,positivefb,-99,average,64,1.5168747000000167,['n'],0,left,['2'],5,0.20360789999995177,,,16,21,Vrouw,Rechts,1,
,xotask,xotask,xotask,20,2,140,140,main,positivefb,-99,hard,26,2.117117200000166,['n'],1,right,['2'],5,0.1913213000000269,,,16,21,Vrouw,Rechts,1,
,xotask,xotask,xotask,21,2,141,141,main,positivefb,-99,average,60,0.8505012000000534,['c'],1,left,['2'],5,0.16623630000003686,,,16,21,Vrouw,Rechts,1,
,xotask,xotask,xotask,22,2,142,142,main,positivefb,-99,hard,51,1.8165157999999337,['c'],1,left,['2'],5,0.3287149000000227,,,16,21,Vrouw,Rechts,1,
,xotask,xotask,xotask,23,2,143,143,main,positivefb,-99,easy,73,0.8516294000000926,['c'],1,left,['2'],5,0.20206700000017008,,,16,21,Vrouw,Rechts,1,
,xotask,xotask,xotask,24,2,144,144,main,positivefb,-99,hard,53,1.4673721999999998,['c'],1,left,['3'],4,0.27156540000009954,,,16,21,Vrouw,Rechts,1,
,xotask,xotask,xotask,25,2,145,145,main,positivefb,-99,hard,28,0.8172635999999329,['n'],1,right,['2'],5,0.2778315999998995,,,16,21,Vrouw,Rechts,1,
,xotask,xotask,xotask,26,2,146,146,main,positivefb,-99,easy,5,1.316568400000051,['n'],1,right,['2'],5,0.23895919999995385,,,16,21,Vrouw,Rechts,1,
,xotask,xotask,xotask,27,2,147,147,main,positivefb,-99,average,19,2.1011680000001434,['n'],1,right,['3'],4,0.3223646999999801,,,16,21,Vrouw,Rechts,1,
,xotask,xotask,xotask,28,2,148,148,main,positivefb,-99,easy,9,0.7336637999999311,['n'],1,right,['2'],5,0.35247800000001916,,,16,21,Vrouw,Rechts,1,
,xotask,xotask,xotask,29,2,149,149,main,positivefb,-99,average,63,1.8831491000000824,['c'],1,left,['2'],5,0.2961130000001049,,,16,21,Vrouw,Rechts,1,
,xotask,xotask,xotask,30,2,150,150,main,positivefb,-99,hard,27,1.5341895999999906,['n'],1,right,['2'],5,0.3359969999999066,,,16,21,Vrouw,Rechts,1,
,xotask,xotask,xotask,31,2,151,151,main,positivefb,-99,average,15,1.7348484999999982,['n'],1,right,['3'],4,0.47011489999999867,,,16,21,Vrouw,Rechts,1,
,xotask,xotask,xotask,32,2,152,152,main,positivefb,-99,average,19,0.8846243000000413,['n'],1,right,['2'],5,0.28852499999993597,,,16,21,Vrouw,Rechts,1,
,xotask,xotask,xotask,33,2,153,153,main,positivefb,-99,average,16,0.749543999999787,['n'],1,right,['3'],4,0.3123855999999705,,,16,21,Vrouw,Rechts,1,
,xotask,xotask,xotask,34,2,154,154,main,positivefb,-99,easy,73,1.2508676000002197,['c'],1,left,['2'],5,0.7632826999999907,,,16,21,Vrouw,Rechts,1,
,xotask,xotask,xotask,35,2,155,155,main,positivefb,-99,easy,70,1.2335311000001639,['c'],1,left,['2'],5,0.3397549000001163,,,16,21,Vrouw,Rechts,1,
,xotask,xotask,xotask,36,2,156,156,main,positivefb,-99,hard,25,0.7512025000000904,['n'],1,right,['3'],4,0.2806777000000693,,,16,21,Vrouw,Rechts,1,
,xotask,xotask,xotask,37,2,157,157,main,positivefb,-99,easy,5,1.5842044999999416,['n'],1,right,['2'],5,0.27167899999994916,,,16,21,Vrouw,Rechts,1,
,xotask,xotask,xotask,38,2,158,158,main,positivefb,-99,hard,53,1.8676268000001528,['c'],1,left,['3'],4,0.6426225000000159,,,16,21,Vrouw,Rechts,1,
,xotask,xotask,xotask,39,2,159,159,main,positivefb,-99,average,62,1.4011577999999645,['n'],0,left,['8'],3,0.6814327999998113,,,16,21,Vrouw,Rechts,1,
,xotask,xotask,xotask,40,2,160,160,main,positivefb,-99,easy,8,1.118276700000024,['n'],1,right,['1'],6,0.2671176999999716,,,16,21,Vrouw,Rechts,1,
,xotask,xotask,xotask,41,2,161,161,main,positivefb,-99,easy,8,0.9176383999999871,['n'],1,right,['1'],6,0.25178649999998015,,,16,21,Vrouw,Rechts,1,
,xotask,xotask,xotask,42,2,162,162,main,positivefb,-99,average,62,1.2667555000000448,['c'],1,left,['3'],4,0.3680062999999336,,,16,21,Vrouw,Rechts,1,
,xotask,xotask,xotask,43,2,163,163,main,positivefb,-99,easy,6,0.7006059999998797,['n'],1,right,['1'],6,0.4145359000001463,,,16,21,Vrouw,Rechts,1,
,xotask,xotask,xotask,44,2,164,164,main,positivefb,-99,average,61,2.199934600000006,['c'],1,left,['3'],4,0.35848459999988336,,,16,21,Vrouw,Rechts,1,
,xotask,xotask,xotask,45,2,165,165,main,positivefb,-99,average,60,2.516975300000013,['n'],0,left,['3'],4,0.38830959999995684,,,16,21,Vrouw,Rechts,1,
,xotask,xotask,xotask,46,2,166,166,main,positivefb,-99,easy,74,1.067759100000103,['c'],1,left,['2'],5,0.5220716000001175,,,16,21,Vrouw,Rechts,1,
,xotask,xotask,xotask,47,2,167,167,main,positivefb,-99,easy,6,1.5667272999999113,['c'],0,right,['2'],5,0.27143530000012106,,,16,21,Vrouw,Rechts,1,
,xotask,xotask,xotask,48,2,168,168,main,positivefb,-99,easy,70,1.9171682000001056,['c'],1,left,['2'],5,0.6098953999999139,,,16,21,Vrouw,Rechts,1,
,xotask,xotask,xotask,49,2,169,169,main,positivefb,-99,average,64,1.8175069999999778,['n'],0,left,['8'],3,0.313235000000077,,,16,21,Vrouw,Rechts,1,
,xotask,xotask,xotask,50,2,170,170,main,positivefb,-99,average,60,0.9179377000000386,['c'],1,left,['2'],5,0.24974790000010216,,,16,21,Vrouw,Rechts,1,
,xotask,xotask,xotask,51,2,171,171,main,positivefb,-99,average,17,0.8166736999999102,['n'],1,right,['2'],5,1.0630690000000413,,,16,21,Vrouw,Rechts,1,
,xotask,xotask,xotask,52,2,172,172,main,positivefb,-99,easy,73,1.5518376999998509,['c'],1,left,['2'],5,0.30383389999997235,,,16,21,Vrouw,Rechts,1,
,xotask,xotask,xotask,53,2,173,173,main,positivefb,-99,easy,5,0.7672867000001133,['n'],1,right,['1'],6,0.32646550000004027,,,16,21,Vrouw,Rechts,1,
,xotask,xotask,xotask,54,2,174,174,main,positivefb,-99,average,15,1.0180129999998826,['n'],1,right,['1'],6,0.28184699999997065,,,16,21,Vrouw,Rechts,1,
,xotask,xotask,xotask,55,2,175,175,main,positivefb,-99,hard,28,1.33433500000001,['n'],1,right,['2'],5,0.2895215000000917,,,16,21,Vrouw,Rechts,1,
,xotask,xotask,xotask,56,2,176,176,main,positivefb,-99,hard,29,1.0338524999999663,['n'],1,right,['2'],5,0.3258124000001317,,,16,21,Vrouw,Rechts,1,
,xotask,xotask,xotask,57,2,177,177,main,positivefb,-99,hard,51,1.1174068000000261,['n'],0,left,['2'],5,0.31608219999998255,,,16,21,Vrouw,Rechts,1,
,xotask,xotask,xotask,58,2,178,178,main,positivefb,-99,easy,9,0.7506938000001355,['n'],1,right,['2'],5,0.24991130000012163,,,16,21,Vrouw,Rechts,1,
,xotask,xotask,xotask,59,2,179,179,main,positivefb,-99,hard,50,1.0509640999998737,['c'],1,left,['3'],4,0.32711539999991146,,,16,21,Vrouw,Rechts,1,
,xotask,xotask,xotask,0,3,180,180,main,positivefb,-99,hard,26,2.7346612000001187,['n'],1,right,['2'],5,0.2353168000001915,,,16,21,Vrouw,Rechts,1,
,xotask,xotask,xotask,1,3,181,181,main,positivefb,-99,hard,53,2.3838025999998536,['c'],1,left,['2'],5,0.7305533999999625,,,16,21,Vrouw,Rechts,1,
,xotask,xotask,xotask,2,3,182,182,main,positivefb,-99,hard,29,1.4671219000001656,['n'],1,right,['2'],5,0.5325984000000972,,,16,21,Vrouw,Rechts,1,
,xotask,xotask,xotask,3,3,183,183,main,positivefb,-99,average,19,2.250739000000067,['c'],0,right,['9'],2,0.3258462999999665,,,16,21,Vrouw,Rechts,1,
,xotask,xotask,xotask,4,3,184,184,main,positivefb,-99,hard,51,1.016939599999887,['n'],0,left,['2'],5,0.2725648000000547,,,16,21,Vrouw,Rechts,1,
,xotask,xotask,xotask,5,3,185,185,main,positivefb,-99,easy,6,0.6668321000001924,['n'],1,right,['1'],6,0.34786579999990863,,,16,21,Vrouw,Rechts,1,
,xotask,xotask,xotask,6,3,186,186,main,positivefb,-99,easy,5,0.701164800000015,['n'],1,right,['1'],6,0.25102170000013757,,,16,21,Vrouw,Rechts,1,
,xotask,xotask,xotask,7,3,187,187,main,positivefb,-99,average,18,1.1332182999999532,['n'],1,right,['1'],6,0.23546540000006644,,,16,21,Vrouw,Rechts,1,
,xotask,xotask,xotask,8,3,188,188,main,positivefb,-99,easy,71,1.534180699999979,['c'],1,left,['1'],6,0.23015459999987797,,,16,21,Vrouw,Rechts,1,
,xotask,xotask,xotask,9,3,189,189,main,positivefb,-99,average,15,1.0838698000000022,['n'],1,right,['1'],6,0.7472121999999217,,,16,21,Vrouw,Rechts,1,
,xotask,xotask,xotask,10,3,190,190,main,positivefb,-99,average,19,1.101068899999973,['n'],1,right,['2'],5,0.48256510000010167,,,16,21,Vrouw,Rechts,1,
,xotask,xotask,xotask,11,3,191,191,main,positivefb,-99,easy,71,1.1332915000000412,['c'],1,left,['2'],5,0.31425239999998666,,,16,21,Vrouw,Rechts,1,
,xotask,xotask,xotask,12,3,192,192,main,positivefb,-99,easy,71,1.533361399999876,['c'],1,left,['2'],5,0.22593929999993634,,,16,21,Vrouw,Rechts,1,
,xotask,xotask,xotask,13,3,193,193,main,positivefb,-99,average,19,0.7509092999998757,['n'],1,right,['2'],5,0.2518941000000723,,,16,21,Vrouw,Rechts,1,
,xotask,xotask,xotask,14,3,194,194,main,positivefb,-99,hard,53,1.4500244000000748,['c'],1,left,['2'],5,0.19272210000008272,,,16,21,Vrouw,Rechts,1,
,xotask,xotask,xotask,15,3,195,195,main,positivefb,-99,hard,54,0.9499373000001015,['c'],1,left,['2'],5,0.2110098000000562,,,16,21,Vrouw,Rechts,1,
,xotask,xotask,xotask,16,3,196,196,main,positivefb,-99,average,19,0.7349025000000893,['n'],1,right,['2'],5,0.2708255999998528,,,16,21,Vrouw,Rechts,1,
,xotask,xotask,xotask,17,3,197,197,main,positivefb,-99,easy,74,0.7169444000001022,['c'],1,left,['2'],5,0.19240079999985937,,,16,21,Vrouw,Rechts,1,
,xotask,xotask,xotask,18,3,198,198,main,positivefb,-99,hard,27,1.0669219999999768,['n'],1,right,['2'],5,0.2553186000000096,,,16,21,Vrouw,Rechts,1,
,xotask,xotask,xotask,19,3,199,199,main,positivefb,-99,easy,6,0.7338389000001371,['n'],1,right,['2'],5,0.30410920000008446,,,16,21,Vrouw,Rechts,1,
,xotask,xotask,xotask,20,3,200,200,main,positivefb,-99,easy,73,0.8175977000000785,['c'],1,left,['2'],5,0.21137670000007347,,,16,21,Vrouw,Rechts,1,
,xotask,xotask,xotask,21,3,201,201,main,positivefb,-99,easy,9,0.6508993999998438,['n'],1,right,['2'],5,0.3154199000000517,,,16,21,Vrouw,Rechts,1,
,xotask,xotask,xotask,22,3,202,202,main,positivefb,-99,average,17,1.6996495999999297,['n'],1,right,['2'],5,0.2913261000001057,,,16,21,Vrouw,Rechts,1,
,xotask,xotask,xotask,23,3,203,203,main,positivefb,-99,easy,5,0.6670148999999128,['n'],1,right,['2'],5,0.3414048999998158,,,16,21,Vrouw,Rechts,1,
,xotask,xotask,xotask,24,3,204,204,main,positivefb,-99,average,63,0.9671744000002036,['c'],1,left,['2'],5,0.30564559999993435,,,16,21,Vrouw,Rechts,1,
,xotask,xotask,xotask,25,3,205,205,main,positivefb,-99,hard,26,0.9677348999998685,['n'],1,right,['2'],5,0.2480892999999469,,,16,21,Vrouw,Rechts,1,
,xotask,xotask,xotask,26,3,206,206,main,positivefb,-99,easy,9,0.6515927000000374,['n'],1,right,['2'],5,0.3244838999999047,,,16,21,Vrouw,Rechts,1,
,xotask,xotask,xotask,27,3,207,207,main,positivefb,-99,hard,28,1.1835476000001108,['n'],1,right,['2'],5,0.35275849999993625,,,16,21,Vrouw,Rechts,1,
,xotask,xotask,xotask,28,3,208,208,main,positivefb,-99,average,61,0.6842085999999199,['c'],1,left,['2'],5,0.2883703999998488,,,16,21,Vrouw,Rechts,1,
,xotask,xotask,xotask,29,3,209,209,main,positivefb,-99,hard,53,0.8839253999999528,['c'],1,left,['2'],5,0.3626230000002124,,,16,21,Vrouw,Rechts,1,
,xotask,xotask,xotask,30,3,210,210,main,positivefb,-99,average,64,1.1000563000000056,['c'],1,left,['2'],5,0.24970319999988533,,,16,21,Vrouw,Rechts,1,
,xotask,xotask,xotask,31,3,211,211,main,positivefb,-99,average,61,1.500745699999925,['n'],0,left,['8'],3,0.844353700000056,,,16,21,Vrouw,Rechts,1,
,xotask,xotask,xotask,32,3,212,212,main,positivefb,-99,easy,9,0.8667921000001115,['n'],1,right,['1'],6,0.4326244000001225,,,16,21,Vrouw,Rechts,1,
,xotask,xotask,xotask,33,3,213,213,main,positivefb,-99,average,62,0.9339603000000807,['c'],1,left,['1'],6,0.37856110000006993,,,16,21,Vrouw,Rechts,1,
,xotask,xotask,xotask,34,3,214,214,main,positivefb,-99,easy,70,1.2340639999999894,['c'],1,left,['2'],5,0.2832673000000341,,,16,21,Vrouw,Rechts,1,
,xotask,xotask,xotask,35,3,215,215,main,positivefb,-99,hard,29,2.4850814000001265,['n'],1,right,['3'],4,0.2848425000001953,,,16,21,Vrouw,Rechts,1,
,xotask,xotask,xotask,36,3,216,216,main,positivefb,-99,average,16,0.7183285999999498,['n'],1,right,['2'],5,0.32588920000011967,,,16,21,Vrouw,Rechts,1,
,xotask,xotask,xotask,37,3,217,217,main,positivefb,-99,average,15,1.3185298000000785,['n'],1,right,['2'],5,0.3417001000000255,,,16,21,Vrouw,Rechts,1,
,xotask,xotask,xotask,38,3,218,218,main,positivefb,-99,hard,51,1.2001723000000766,['c'],1,left,['1'],6,0.4889236000001347,,,16,21,Vrouw,Rechts,1,
,xotask,xotask,xotask,39,3,219,219,main,positivefb,-99,hard,50,1.5180155000000468,['n'],0,left,['3'],4,0.2808743999999024,,,16,21,Vrouw,Rechts,1,
,xotask,xotask,xotask,40,3,220,220,main,positivefb,-99,hard,28,1.5684748000001036,['n'],1,right,['3'],4,0.28000989999986814,,,16,21,Vrouw,Rechts,1,
,xotask,xotask,xotask,41,3,221,221,main,positivefb,-99,easy,5,1.0171095000000605,['n'],1,right,['1'],6,0.5176539000001412,,,16,21,Vrouw,Rechts,1,
,xotask,xotask,xotask,42,3,222,222,main,positivefb,-99,easy,70,1.6681114999998954,['c'],1,left,['3'],4,0.37443099999995866,,,16,21,Vrouw,Rechts,1,
,xotask,xotask,xotask,43,3,223,223,main,positivefb,-99,average,63,2.1674410000000535,['c'],1,left,['3'],4,0.2574296999998751,,,16,21,Vrouw,Rechts,1,
,xotask,xotask,xotask,44,3,224,224,main,positivefb,-99,hard,51,1.6013269999998556,['c'],1,left,['2'],5,0.3920557999999801,,,16,21,Vrouw,Rechts,1,
,xotask,xotask,xotask,45,3,225,225,main,positivefb,-99,hard,26,0.9345292000000427,['n'],1,right,['3'],4,0.5486002000000099,,,16,21,Vrouw,Rechts,1,
,xotask,xotask,xotask,46,3,226,226,main,positivefb,-99,average,64,2.2348214000001008,['n'],0,left,['2'],5,0.20652250000011918,,,16,21,Vrouw,Rechts,1,
,xotask,xotask,xotask,47,3,227,227,main,positivefb,-99,average,16,1.1353079000000434,['n'],1,right,['2'],5,0.33759109999982684,,,16,21,Vrouw,Rechts,1,
,xotask,xotask,xotask,48,3,228,228,main,positivefb,-99,easy,74,1.3681639999999788,['c'],1,left,['2'],5,0.3501820999999836,,,16,21,Vrouw,Rechts,1,
,xotask,xotask,xotask,49,3,229,229,main,positivefb,-99,average,63,1.6675662000000102,['c'],1,left,['2'],5,0.30170109999994565,,,16,21,Vrouw,Rechts,1,
,xotask,xotask,xotask,50,3,230,230,main,positivefb,-99,easy,5,0.7682320000001255,['n'],1,right,['2'],5,0.2608559999998761,,,16,21,Vrouw,Rechts,1,
,xotask,xotask,xotask,51,3,231,231,main,positivefb,-99,hard,25,0.8682905000000574,['n'],1,right,['2'],5,0.28022059999989324,,,16,21,Vrouw,Rechts,1,
,xotask,xotask,xotask,52,3,232,232,main,positivefb,-99,easy,6,0.6013688000000457,['n'],1,right,['1'],6,0.26219159999982367,,,16,21,Vrouw,Rechts,1,
,xotask,xotask,xotask,53,3,233,233,main,positivefb,-99,easy,74,1.1007128999999622,['c'],1,left,['1'],6,0.41662059999998746,,,16,21,Vrouw,Rechts,1,
,xotask,xotask,xotask,54,3,234,234,main,positivefb,-99,hard,29,1.8352224000000206,['n'],1,right,['1'],6,0.36673259999997754,,,16,21,Vrouw,Rechts,1,
,xotask,xotask,xotask,55,3,235,235,main,positivefb,-99,hard,52,1.4510413000000426,['c'],1,left,['3'],4,0.26324030000000675,,,16,21,Vrouw,Rechts,1,
,xotask,xotask,xotask,56,3,236,236,main,positivefb,-99,average,64,1.0671452999999929,['c'],1,left,['2'],5,0.2749602999999752,,,16,21,Vrouw,Rechts,1,
,xotask,xotask,xotask,57,3,237,237,main,positivefb,-99,average,64,1.0005911000000651,['c'],1,left,['1'],6,0.22562440000001516,,,16,21,Vrouw,Rechts,1,
,xotask,xotask,xotask,58,3,238,238,main,positivefb,-99,easy,71,0.7347520999999233,['c'],1,left,['1'],6,0.32362880000005134,,,16,21,Vrouw,Rechts,1,
,xotask,xotask,xotask,59,3,239,239,main,positivefb,-99,hard,52,1.0006364999999278,['c'],1,left,['1'],6,0.3522490000000289,,,16,21,Vrouw,Rechts,1,
,xotask,xotask,xotask,0,4,240,240,main,positivefb,-99,average,16,2.7183476000000155,['n'],1,right,['3'],4,0.6355381000000762,,,16,21,Vrouw,Rechts,1,
,xotask,xotask,xotask,1,4,241,241,main,positivefb,-99,average,60,1.3177174999998442,['c'],1,left,['2'],5,0.27057749999994485,,,16,21,Vrouw,Rechts,1,
,xotask,xotask,xotask,2,4,242,242,main,positivefb,-99,hard,29,1.3011547000000974,['c'],0,right,['2'],5,0.3040272000000641,,,16,21,Vrouw,Rechts,1,
,xotask,xotask,xotask,3,4,243,243,main,positivefb,-99,easy,74,1.050931300000002,['c'],1,left,['1'],6,0.3473343999999088,,,16,21,Vrouw,Rechts,1,
,xotask,xotask,xotask,4,4,244,244,main,positivefb,-99,hard,51,0.8510282000002007,['n'],0,left,['1'],6,0.29943630000002486,,,16,21,Vrouw,Rechts,1,
,xotask,xotask,xotask,5,4,245,245,main,positivefb,-99,hard,50,2.867704799999956,['c'],1,left,['2'],5,0.6140219999999772,,,16,21,Vrouw,Rechts,1,
,xotask,xotask,xotask,6,4,246,246,main,positivefb,-99,average,60,0.834834600000022,['c'],1,left,['2'],5,0.2367680999998356,,,16,21,Vrouw,Rechts,1,
,xotask,xotask,xotask,7,4,247,247,main,positivefb,-99,hard,29,2.1847126000000117,['c'],0,right,['2'],5,0.3008360999999695,,,16,21,Vrouw,Rechts,1,
,xotask,xotask,xotask,8,4,248,248,main,positivefb,-99,easy,5,0.8179198999998789,['n'],1,right,['2'],5,0.257285199999842,,,16,21,Vrouw,Rechts,1,
,xotask,xotask,xotask,9,4,249,249,main,positivefb,-99,average,60,1.450326799999857,['c'],1,left,['2'],5,0.32609229999980016,,,16,21,Vrouw,Rechts,1,
,xotask,xotask,xotask,10,4,250,250,main,positivefb,-99,hard,28,1.0342474000001403,['c'],0,right,['3'],4,0.26400699999999233,,,16,21,Vrouw,Rechts,1,
,xotask,xotask,xotask,11,4,251,251,main,positivefb,-99,easy,5,0.6341848999998092,['n'],1,right,['1'],6,0.3329667000000427,,,16,21,Vrouw,Rechts,1,
,xotask,xotask,xotask,12,4,252,252,main,positivefb,-99,easy,70,1.0523158000000876,['c'],1,left,['1'],6,0.286168699999962,,,16,21,Vrouw,Rechts,1,
,xotask,xotask,xotask,13,4,253,253,main,positivefb,-99,average,15,0.6347118000001046,['n'],1,right,['1'],6,0.22671179999997548,,,16,21,Vrouw,Rechts,1,
,xotask,xotask,xotask,14,4,254,254,main,positivefb,-99,average,16,0.8849569000001338,['n'],1,right,['1'],6,0.2235109000000648,,,16,21,Vrouw,Rechts,1,
,xotask,xotask,xotask,15,4,255,255,main,positivefb,-99,hard,51,1.100082200000088,['c'],1,left,['2'],5,0.3953105000000505,,,16,21,Vrouw,Rechts,1,
,xotask,xotask,xotask,16,4,256,256,main,positivefb,-99,average,19,1.1013236999999663,['c'],0,right,['2'],5,0.3521461999998792,,,16,21,Vrouw,Rechts,1,
,xotask,xotask,xotask,17,4,257,257,main,positivefb,-99,average,62,2.73423559999992,['c'],1,left,['3'],4,0.31016440000007606,,,16,21,Vrouw,Rechts,1,
,xotask,xotask,xotask,18,4,258,258,main,positivefb,-99,easy,74,1.0012773999999354,['c'],1,left,['2'],5,0.38695559999996476,,,16,21,Vrouw,Rechts,1,
,xotask,xotask,xotask,19,4,259,259,main,positivefb,-99,hard,27,1.8680062000000817,['c'],0,right,['3'],4,0.4971903000000566,,,16,21,Vrouw,Rechts,1,
,xotask,xotask,xotask,20,4,260,260,main,positivefb,-99,hard,25,0.9176592999999684,['n'],1,right,['1'],6,0.3139036000000033,,,16,21,Vrouw,Rechts,1,
,xotask,xotask,xotask,21,4,261,261,main,positivefb,-99,hard,29,1.1677789000000303,['n'],1,right,['2'],5,0.3432792999999492,,,16,21,Vrouw,Rechts,1,
,xotask,xotask,xotask,22,4,262,262,main,positivefb,-99,average,64,1.200620200000003,['c'],1,left,['2'],5,0.3066317000000254,,,16,21,Vrouw,Rechts,1,
,xotask,xotask,xotask,23,4,263,263,main,positivefb,-99,easy,9,0.7509615999999824,['n'],1,right,['1'],6,0.2089251999998396,,,16,21,Vrouw,Rechts,1,
,xotask,xotask,xotask,24,4,264,264,main,positivefb,-99,easy,7,0.7006839999999102,['n'],1,right,['1'],6,0.2946469999999408,,,16,21,Vrouw,Rechts,1,
,xotask,xotask,xotask,25,4,265,265,main,positivefb,-99,hard,26,1.6516200999999455,['n'],1,right,['1'],6,0.18515200000001641,,,16,21,Vrouw,Rechts,1,
,xotask,xotask,xotask,26,4,266,266,main,positivefb,-99,hard,53,1.4348651000000245,['c'],1,left,['3'],4,0.6496589999999287,,,16,21,Vrouw,Rechts,1,
,xotask,xotask,xotask,27,4,267,267,main,positivefb,-99,average,17,2.3672736999999415,['c'],0,right,['2'],5,0.4339416000000256,,,16,21,Vrouw,Rechts,1,
,xotask,xotask,xotask,28,4,268,268,main,positivefb,-99,average,64,1.0170943000000534,['c'],1,left,['2'],5,0.6637808000000405,,,16,21,Vrouw,Rechts,1,
,xotask,xotask,xotask,29,4,269,269,main,positivefb,-99,average,19,0.6169958999998926,['n'],1,right,['1'],6,0.2698350999999093,,,16,21,Vrouw,Rechts,1,
,xotask,xotask,xotask,30,4,270,270,main,positivefb,-99,easy,7,0.6176315999998678,['n'],1,right,['1'],6,0.2590107999999418,,,16,21,Vrouw,Rechts,1,
,xotask,xotask,xotask,31,4,271,271,main,positivefb,-99,average,19,0.7334679999999025,['n'],1,right,['1'],6,0.21253959999990002,,,16,21,Vrouw,Rechts,1,
,xotask,xotask,xotask,32,4,272,272,main,positivefb,-99,easy,9,0.5187605999999505,['n'],1,right,['1'],6,0.31973840000000564,,,16,21,Vrouw,Rechts,1,
,xotask,xotask,xotask,33,4,273,273,main,positivefb,-99,average,61,0.9516468000001623,['n'],0,left,['1'],6,1.4294351999999435,,,16,21,Vrouw,Rechts,1,
,xotask,xotask,xotask,34,4,274,274,main,positivefb,-99,easy,73,1.3006537999999637,['c'],1,left,['1'],6,0.2737051999999949,,,16,21,Vrouw,Rechts,1,
,xotask,xotask,xotask,35,4,275,275,main,positivefb,-99,hard,50,0.7329842999999983,['c'],1,left,['1'],6,0.3547726000001603,,,16,21,Vrouw,Rechts,1,
,xotask,xotask,xotask,36,4,276,276,main,positivefb,-99,easy,71,1.5348609000000124,['c'],1,left,['2'],5,0.5121695000000273,,,16,21,Vrouw,Rechts,1,
,xotask,xotask,xotask,37,4,277,277,main,positivefb,-99,average,61,0.9005721999999423,['c'],1,left,['1'],6,0.3366742000000613,,,16,21,Vrouw,Rechts,1,
,xotask,xotask,xotask,38,4,278,278,main,positivefb,-99,average,18,0.7179298000000927,['n'],1,right,['1'],6,0.22359080000001086,,,16,21,Vrouw,Rechts,1,
,xotask,xotask,xotask,39,4,279,279,main,positivefb,-99,hard,54,1.3341297999998005,['n'],0,left,['2'],5,0.49773929999992106,,,16,21,Vrouw,Rechts,1,
,xotask,xotask,xotask,40,4,280,280,main,positivefb,-99,average,16,0.6682175999999345,['n'],1,right,['1'],6,0.2764233000000331,,,16,21,Vrouw,Rechts,1,
,xotask,xotask,xotask,41,4,281,281,main,positivefb,-99,average,63,1.2511878000000252,['c'],1,left,['2'],5,0.6076811000000362,,,16,21,Vrouw,Rechts,1,
,xotask,xotask,xotask,42,4,282,282,main,positivefb,-99,hard,51,1.1168452000001707,['c'],1,left,['2'],5,0.332219699999996,,,16,21,Vrouw,Rechts,1,
,xotask,xotask,xotask,43,4,283,283,main,positivefb,-99,easy,74,0.7842444999998861,['c'],1,left,['1'],6,0.40774439999995593,,,16,21,Vrouw,Rechts,1,
,xotask,xotask,xotask,44,4,284,284,main,positivefb,-99,average,16,1.0510320000000775,['n'],1,right,['2'],5,0.36664120000000366,,,16,21,Vrouw,Rechts,1,
,xotask,xotask,xotask,45,4,285,285,main,positivefb,-99,hard,52,0.8676808999998684,['c'],1,left,['2'],5,0.2539252999999917,,,16,21,Vrouw,Rechts,1,
,xotask,xotask,xotask,46,4,286,286,main,positivefb,-99,easy,6,0.5510889000001953,['n'],1,right,['1'],6,0.24656559999993988,,,16,21,Vrouw,Rechts,1,
,xotask,xotask,xotask,47,4,287,287,main,positivefb,-99,hard,53,0.9669248000000152,['c'],1,left,['1'],6,0.2547027000000526,,,16,21,Vrouw,Rechts,1,
,xotask,xotask,xotask,48,4,288,288,main,positivefb,-99,hard,52,1.6174760999999762,['c'],1,left,['3'],4,0.34910549999995055,,,16,21,Vrouw,Rechts,1,
,xotask,xotask,xotask,49,4,289,289,main,positivefb,-99,easy,9,0.7509701999999834,['n'],1,right,['2'],5,0.4099982000000182,,,16,21,Vrouw,Rechts,1,
,xotask,xotask,xotask,50,4,290,290,main,positivefb,-99,easy,71,1.8177055999999538,['c'],1,left,['1'],6,0.26575389999993604,,,16,21,Vrouw,Rechts,1,
,xotask,xotask,xotask,51,4,291,291,main,positivefb,-99,easy,72,0.9178411999998843,['c'],1,left,['1'],6,0.2438984000000346,,,16,21,Vrouw,Rechts,1,
,xotask,xotask,xotask,52,4,292,292,main,positivefb,-99,easy,72,0.8342971000001853,['c'],1,left,['1'],6,0.20998080000003938,,,16,21,Vrouw,Rechts,1,
,xotask,xotask,xotask,53,4,293,293,main,positivefb,-99,average,61,0.6994098000000122,['c'],1,left,['1'],6,0.23834680000004482,,,16,21,Vrouw,Rechts,1,
,xotask,xotask,xotask,54,4,294,294,main,positivefb,-99,hard,25,0.8340232999998989,['n'],1,right,['1'],6,0.2441211000000294,,,16,21,Vrouw,Rechts,1,
,xotask,xotask,xotask,55,4,295,295,main,positivefb,-99,easy,73,0.8507589000000735,['c'],1,left,['1'],6,0.2974355999999716,,,16,21,Vrouw,Rechts,1,
,xotask,xotask,xotask,56,4,296,296,main,positivefb,-99,easy,8,0.783955300000116,['n'],1,right,['1'],6,0.21568939999997383,,,16,21,Vrouw,Rechts,1,
,xotask,xotask,xotask,57,4,297,297,main,positivefb,-99,hard,25,0.7849692999998297,['n'],1,right,['1'],6,0.24036610000007386,,,16,21,Vrouw,Rechts,1,
,xotask,xotask,xotask,58,4,298,298,main,positivefb,-99,hard,25,0.7008835999999974,['n'],1,right,['1'],6,0.6915312999999514,,,16,21,Vrouw,Rechts,1,
,xotask,xotask,xotask,59,4,299,299,main,positivefb,-99,easy,7,1.3009214999999585,['c'],0,right,['2'],5,0.4280175000001236,,,16,21,Vrouw,Rechts,1,
,xotask,xotask,xotask,0,0,0,300,training,positivefb,91,easy,8,1.9841888000000836,['n'],1,right,['1'],6,0.4795796999999311,,,16,21,Vrouw,Rechts,1,
,xotask,xotask,xotask,1,0,1,301,training,positivefb,97,hard,25,0.8670424000001731,['n'],1,right,['1'],6,0.20216690000006565,,,16,21,Vrouw,Rechts,1,
,xotask,xotask,xotask,2,0,2,302,training,positivefb,88,hard,53,1.1659030000000712,['c'],1,left,['1'],6,0.31544559999997546,,,16,21,Vrouw,Rechts,1,
,xotask,xotask,xotask,3,0,3,303,training,positivefb,95,average,60,1.199203099999977,['c'],1,left,['2'],5,0.2465517999999065,,,16,21,Vrouw,Rechts,1,
,xotask,xotask,xotask,4,0,4,304,training,positivefb,92,hard,50,1.1165686000001642,['c'],1,left,['2'],5,0.25643510000008973,,,16,21,Vrouw,Rechts,1,
,xotask,xotask,xotask,5,0,5,305,training,positivefb,91,hard,51,1.0498810000001413,['c'],1,left,['2'],5,0.2126549999998133,,,16,21,Vrouw,Rechts,1,
,xotask,xotask,xotask,6,0,6,306,training,positivefb,89,hard,28,0.7002598999999918,['n'],1,right,['1'],6,0.5129899999999452,,,16,21,Vrouw,Rechts,1,
,xotask,xotask,xotask,7,0,7,307,training,positivefb,93,easy,7,1.017073099999834,['n'],1,right,['1'],6,0.19579290000001492,,,16,21,Vrouw,Rechts,1,
,xotask,xotask,xotask,8,0,8,308,training,positivefb,99,average,16,0.6505995000002258,['n'],1,right,['1'],6,0.17026660000010452,,,16,21,Vrouw,Rechts,1,
,xotask,xotask,xotask,9,0,9,309,training,positivefb,99,hard,26,0.667186799999854,['n'],1,right,['1'],6,0.19292300000006435,,,16,21,Vrouw,Rechts,1,
,xotask,xotask,xotask,10,0,10,310,training,positivefb,78,average,62,0.6177605999996558,['c'],1,left,['1'],6,0.1856140999998388,,,16,21,Vrouw,Rechts,1,
,xotask,xotask,xotask,11,0,11,311,training,positivefb,95,easy,9,0.6997675000002346,['n'],1,right,['1'],6,0.18157820000033098,,,16,21,Vrouw,Rechts,1,
,xotask,xotask,xotask,12,0,12,312,training,positivefb,99,average,16,0.532730100000208,['n'],1,right,['1'],6,0.16099380000014207,,,16,21,Vrouw,Rechts,1,
,xotask,xotask,xotask,13,0,13,313,training,positivefb,91,easy,73,0.7337297999997645,['c'],1,left,['1'],6,0.15821229999983188,,,16,21,Vrouw,Rechts,1,
,xotask,xotask,xotask,14,0,14,314,training,positivefb,97,easy,74,0.699871499999972,['c'],1,left,['1'],6,0.13205020000032164,,,16,21,Vrouw,Rechts,1,
,xotask,xotask,xotask,15,0,15,315,training,positivefb,97,easy,5,0.5841298000000279,['n'],1,right,['1'],6,0.09532010000020819,,,16,21,Vrouw,Rechts,1,
,xotask,xotask,xotask,16,0,16,316,training,positivefb,90,hard,54,0.7336837000002561,['c'],1,left,['1'],6,0.1663499999999658,,,16,21,Vrouw,Rechts,1,
,xotask,xotask,xotask,17,0,17,317,training,positivefb,99,average,64,0.5500352999997631,['c'],1,left,['1'],6,0.19361950000029537,,,16,21,Vrouw,Rechts,1,
,xotask,xotask,xotask,18,0,18,318,training,positivefb,95,easy,7,0.5334123999996336,['n'],1,right,['1'],6,0.15687609999986307,,,16,21,Vrouw,Rechts,1,
,xotask,xotask,xotask,19,0,19,319,training,positivefb,90,easy,71,0.6829453000000285,['c'],1,left,['1'],6,0.1239583000001403,,,16,21,Vrouw,Rechts,1,
,xotask,xotask,xotask,20,0,20,320,training,positivefb,95,easy,70,0.5832780000000639,['c'],1,left,['1'],6,0.14429289999998218,,,16,21,Vrouw,Rechts,1,
,xotask,xotask,xotask,21,0,21,321,training,positivefb,92,hard,27,0.6506970999998885,['n'],1,right,['1'],6,0.15288049999981013,,,16,21,Vrouw,Rechts,1,
,xotask,xotask,xotask,22,0,22,322,training,positivefb,91,hard,51,1.2839813000000504,['c'],1,left,['2'],5,0.17513859999962733,,,16,21,Vrouw,Rechts,1,
,xotask,xotask,xotask,23,0,23,323,training,positivefb,97,average,62,0.7164468999999372,['c'],1,left,['2'],5,0.21266109999987748,,,16,21,Vrouw,Rechts,1,
,xotask,xotask,xotask,24,0,24,324,training,positivefb,99,average,19,0.43321970000033616,['n'],1,right,['1'],6,0.21123889999989842,,,16,21,Vrouw,Rechts,1,
,xotask,xotask,xotask,25,0,25,325,training,positivefb,90,average,18,0.5006510000002891,['n'],1,right,['1'],6,0.1912201999998615,,,16,21,Vrouw,Rechts,1,
,xotask,xotask,xotask,26,0,26,326,training,positivefb,98,easy,8,0.5343070000003536,['n'],1,right,['1'],6,0.19409779999978127,,,16,21,Vrouw,Rechts,1,
,xotask,xotask,xotask,27,0,27,327,training,positivefb,95,easy,72,0.5003636999999799,['c'],1,left,['1'],6,0.18242640000016763,,,16,21,Vrouw,Rechts,1,
,xotask,xotask,xotask,28,0,28,328,training,positivefb,97,easy,70,0.5339450999999826,['c'],1,left,['1'],6,0.18607669999983045,,,16,21,Vrouw,Rechts,1,
,xotask,xotask,xotask,29,0,29,329,training,positivefb,98,average,17,0.48398090000000593,['n'],1,right,['1'],6,0.21545000000014625,,,16,21,Vrouw,Rechts,1,
,xotask,xotask,xotask,30,0,30,330,training,positivefb,96,easy,9,0.4337449999998171,['n'],1,right,['1'],6,0.21298539999997956,,,16,21,Vrouw,Rechts,1,
,xotask,xotask,xotask,31,0,31,331,training,positivefb,99,hard,25,0.5008818000001156,['n'],1,right,['2'],5,0.4728632999999718,,,16,21,Vrouw,Rechts,1,
,xotask,xotask,xotask,32,0,32,332,training,positivefb,77,easy,5,0.5334000000002561,['n'],1,right,['1'],6,0.78517359999978,,,16,21,Vrouw,Rechts,1,
,xotask,xotask,xotask,33,0,33,333,training,positivefb,100,hard,52,0.8335516000001917,['c'],1,left,['2'],5,0.21588699999983874,,,16,21,Vrouw,Rechts,1,
,xotask,xotask,xotask,34,0,34,334,training,positivefb,91,average,63,0.950466299999789,['c'],1,left,['2'],5,0.38606679999975313,,,16,21,Vrouw,Rechts,1,
,xotask,xotask,xotask,35,0,35,335,training,positivefb,95,hard,26,0.7330362000002424,['n'],1,right,['1'],6,0.12530440000000453,,,16,21,Vrouw,Rechts,1,
,xotask,xotask,xotask,36,0,36,336,training,positivefb,99,average,61,0.6660514000000148,['c'],1,left,['1'],6,0.09495120000019597,,,16,21,Vrouw,Rechts,1,
,xotask,xotask,xotask,37,0,37,337,training,positivefb,92,easy,71,1.4677255999999943,['c'],1,left,['3'],4,0.19252430000005916,,,16,21,Vrouw,Rechts,1,
,xotask,xotask,xotask,38,0,38,338,training,positivefb,91,average,15,1.035079400000086,['n'],1,right,['1'],6,0.07113930000014079,,,16,21,Vrouw,Rechts,1,
,xotask,xotask,xotask,39,0,39,339,training,positivefb,91,hard,26,0.5338934999999765,['n'],1,right,['1'],6,0.11936579999974128,,,16,21,Vrouw,Rechts,1,
,xotask,xotask,xotask,40,0,40,340,training,positivefb,97,easy,70,0.6163915000001907,['c'],1,left,['1'],6,0.13788790000035078,,,16,21,Vrouw,Rechts,1,
,xotask,xotask,xotask,41,0,41,341,training,positivefb,91,average,62,0.782080799999676,['c'],1,left,['1'],6,0.11778259999982765,,,16,21,Vrouw,Rechts,1,
,xotask,xotask,xotask,42,0,42,342,training,positivefb,97,easy,6,0.3995943999998417,['n'],1,right,['1'],6,0.18438740000010512,,,16,21,Vrouw,Rechts,1,
,xotask,xotask,xotask,43,0,43,343,training,positivefb,91,average,15,0.5338004000000183,['n'],1,right,['1'],6,0.06800999999995838,,,16,21,Vrouw,Rechts,1,
,xotask,xotask,xotask,44,0,44,344,training,positivefb,92,hard,26,0.4835590000002412,['n'],1,right,['1'],6,0.07813050000004296,,,16,21,Vrouw,Rechts,1,
,xotask,xotask,xotask,45,0,45,345,training,positivefb,83,hard,53,0.9339414000000943,['n'],0,left,['2'],5,0.2145000999998956,,,16,21,Vrouw,Rechts,1,
,xotask,xotask,xotask,46,0,46,346,training,positivefb,96,hard,26,0.6994371999999203,['n'],1,right,['2'],5,0.23429500000020198,,,16,21,Vrouw,Rechts,1,
,xotask,xotask,xotask,47,0,47,347,training,positivefb,89,average,63,0.7997549000001527,['c'],1,left,['2'],5,0.16842369999994844,,,16,21,Vrouw,Rechts,1,
,xotask,xotask,xotask,48,0,48,348,training,positivefb,95,easy,71,1.1499282999998286,['c'],1,left,['1'],6,0.22831200000018725,,,16,21,Vrouw,Rechts,1,
,xotask,xotask,xotask,49,0,49,349,training,positivefb,97,average,17,0.46725419999984297,['n'],1,right,['1'],6,0.1123661000001448,,,16,21,Vrouw,Rechts,1,
,xotask,xotask,xotask,50,0,50,350,training,positivefb,97,hard,50,0.9324510999999802,['c'],1,left,['2'],5,0.22302200000012817,,,16,21,Vrouw,Rechts,1,
,xotask,xotask,xotask,51,0,51,351,training,positivefb,92,hard,51,0.933392499999627,['c'],1,left,['2'],5,0.16164930000013555,,,16,21,Vrouw,Rechts,1,
,xotask,xotask,xotask,52,0,52,352,training,positivefb,96,average,19,0.6498974000000999,['n'],1,right,['1'],6,0.17763349999995626,,,16,21,Vrouw,Rechts,1,
,xotask,xotask,xotask,53,0,53,353,training,positivefb,94,average,17,0.46548840000014025,['n'],1,right,['1'],6,0.12826080000013462,,,16,21,Vrouw,Rechts,1,
,xotask,xotask,xotask,54,0,54,354,training,positivefb,96,easy,5,0.5011478999999781,['n'],1,right,['1'],6,0.13523680000025706,,,16,21,Vrouw,Rechts,1,
,xotask,xotask,xotask,55,0,55,355,training,positivefb,96,average,63,0.7834648999996716,['c'],1,left,['2'],5,0.21050230000037118,,,16,21,Vrouw,Rechts,1,
,xotask,xotask,xotask,56,0,56,356,training,positivefb,95,average,60,0.6513165999999728,['c'],1,left,['1'],6,0.19321720000016285,,,16,21,Vrouw,Rechts,1,
,xotask,xotask,xotask,57,0,57,357,training,positivefb,72,hard,29,0.7850441000000501,['n'],1,right,['1'],6,0.14589740000019447,,,16,21,Vrouw,Rechts,1,
,xotask,xotask,xotask,58,0,58,358,training,positivefb,48,hard,50,0.850932499999999,['c'],1,left,['2'],5,0.17889319999994768,,,16,21,Vrouw,Rechts,1,
,xotask,xotask,xotask,59,0,59,359,training,positivefb,98,easy,74,0.6655771000000641,['c'],1,left,['1'],6,0.24191529999961858,,,16,21,Vrouw,Rechts,1,
,xotask,xotask,xotask,0,1,60,360,training,positivefb,95,easy,7,1.701185699999769,['n'],1,right,['1'],6,0.34349810000003345,,,16,21,Vrouw,Rechts,1,
,xotask,xotask,xotask,1,1,61,361,training,positivefb,96,hard,51,0.6661041000002115,['c'],1,left,['1'],6,0.2548243999999613,,,16,21,Vrouw,Rechts,1,
,xotask,xotask,xotask,2,1,62,362,training,positivefb,89,average,60,0.9162286999999196,['c'],1,left,['2'],5,0.2321126000001641,,,16,21,Vrouw,Rechts,1,
,xotask,xotask,xotask,3,1,63,363,training,positivefb,93,hard,54,0.833162199999606,['c'],1,left,['2'],5,0.2696067000001676,,,16,21,Vrouw,Rechts,1,
,xotask,xotask,xotask,4,1,64,364,training,positivefb,81,hard,28,0.5500013000000763,['n'],1,right,['2'],5,0.28493639999987863,,,16,21,Vrouw,Rechts,1,
,xotask,xotask,xotask,5,1,65,365,training,positivefb,86,easy,6,0.8166243000000577,['c'],0,right,['2'],5,0.24094819999982064,,,16,21,Vrouw,Rechts,1,
,xotask,xotask,xotask,6,1,66,366,training,positivefb,49,easy,71,0.6170471000000362,['n'],0,left,['2'],5,0.3185275000000729,,,16,21,Vrouw,Rechts,1,
,xotask,xotask,xotask,7,1,67,367,training,positivefb,98,average,60,0.699709299999995,['c'],1,left,['2'],5,0.1900719999998728,,,16,21,Vrouw,Rechts,1,
,xotask,xotask,xotask,8,1,68,368,training,positivefb,96,easy,74,0.6005921000000853,['c'],1,left,['2'],5,0.231940300000133,,,16,21,Vrouw,Rechts,1,
,xotask,xotask,xotask,9,1,69,369,training,positivefb,98,hard,53,0.5831173999999919,['c'],1,left,['2'],5,0.39827040000000125,,,16,21,Vrouw,Rechts,1,
,xotask,xotask,xotask,10,1,70,370,training,positivefb,94,average,15,0.5836636000003637,['n'],1,right,['2'],5,0.1509657999999945,,,16,21,Vrouw,Rechts,1,
,xotask,xotask,xotask,11,1,71,371,training,positivefb,97,hard,29,0.8670357999999396,['n'],1,right,['2'],5,0.15781379999998535,,,16,21,Vrouw,Rechts,1,
,xotask,xotask,xotask,12,1,72,372,training,positivefb,96,easy,71,0.6664525000001049,['c'],1,left,['1'],6,0.18908690000034767,,,16,21,Vrouw,Rechts,1,
,xotask,xotask,xotask,13,1,73,373,training,positivefb,71,hard,53,1.033455899999808,['c'],1,left,['1'],6,0.1728248999997959,,,16,21,Vrouw,Rechts,1,
,xotask,xotask,xotask,14,1,74,374,training,positivefb,93,average,62,0.7341185000000223,['c'],1,left,['1'],6,0.15277439999999842,,,16,21,Vrouw,Rechts,1,
,xotask,xotask,xotask,15,1,75,375,training,positivefb,94,average,16,0.6504024999999274,['n'],1,right,['2'],5,0.16881009999997332,,,16,21,Vrouw,Rechts,1,
,xotask,xotask,xotask,16,1,76,376,training,positivefb,93,average,60,0.9162955000001602,['c'],1,left,['2'],5,0.14950260000023263,,,16,21,Vrouw,Rechts,1,
,xotask,xotask,xotask,17,1,77,377,training,positivefb,94,easy,8,0.5827663999998549,['n'],1,right,['1'],6,0.09575410000024931,,,16,21,Vrouw,Rechts,1,
,xotask,xotask,xotask,18,1,78,378,training,positivefb,99,easy,71,0.4338436999996702,['c'],1,left,['1'],6,0.12364630000001853,,,16,21,Vrouw,Rechts,1,
,xotask,xotask,xotask,19,1,79,379,training,positivefb,98,easy,7,0.467997700000069,['n'],1,right,['1'],6,0.14807479999990392,,,16,21,Vrouw,Rechts,1,
,xotask,xotask,xotask,20,1,80,380,training,positivefb,98,average,64,0.5000824000003377,['c'],1,left,['1'],6,0.1296997000004012,,,16,21,Vrouw,Rechts,1,
,xotask,xotask,xotask,21,1,81,381,training,positivefb,95,easy,70,0.43369350000011764,['c'],1,left,['1'],6,0.1246024000001853,,,16,21,Vrouw,Rechts,1,
,xotask,xotask,xotask,22,1,82,382,training,positivefb,95,average,16,0.5003501999999571,['n'],1,right,['1'],6,0.13936310000008234,,,16,21,Vrouw,Rechts,1,
,xotask,xotask,xotask,23,1,83,383,training,positivefb,96,hard,50,0.8004665000003115,['c'],1,left,['1'],6,0.16567399999985355,,,16,21,Vrouw,Rechts,1,
,xotask,xotask,xotask,24,1,84,384,training,positivefb,96,easy,5,0.5853080000001682,['n'],1,right,['1'],6,0.09599789999992936,,,16,21,Vrouw,Rechts,1,
,xotask,xotask,xotask,25,1,85,385,training,positivefb,79,hard,50,0.48288289999982226,['c'],1,left,['1'],6,0.15343910000001415,,,16,21,Vrouw,Rechts,1,
,xotask,xotask,xotask,26,1,86,386,training,positivefb,94,average,16,0.516974300000129,['n'],1,right,['1'],6,0.11940400000003137,,,16,21,Vrouw,Rechts,1,
,xotask,xotask,xotask,27,1,87,387,training,positivefb,94,easy,70,0.7001006999998935,['c'],1,left,['2'],5,0.17355140000017855,,,16,21,Vrouw,Rechts,1,
,xotask,xotask,xotask,28,1,88,388,training,positivefb,96,easy,5,0.4827845999998317,['n'],1,right,['1'],6,0.12376589999985299,,,16,21,Vrouw,Rechts,1,
,xotask,xotask,xotask,29,1,89,389,training,positivefb,92,average,60,0.5167907999998533,['c'],1,left,['2'],5,0.17058959999985746,,,16,21,Vrouw,Rechts,1,
,xotask,xotask,xotask,30,1,90,390,training,positivefb,92,hard,51,0.9165521999998418,['c'],1,left,['3'],4,0.2556496000001971,,,16,21,Vrouw,Rechts,1,
,xotask,xotask,xotask,31,1,91,391,training,positivefb,90,average,15,0.5842314000001352,['n'],1,right,['1'],6,0.11879030000000057,,,16,21,Vrouw,Rechts,1,
,xotask,xotask,xotask,32,1,92,392,training,positivefb,90,hard,53,0.6502868000002309,['n'],0,left,['2'],5,0.19261349999987942,,,16,21,Vrouw,Rechts,1,
,xotask,xotask,xotask,33,1,93,393,training,positivefb,97,easy,9,0.5006857000003038,['n'],1,right,['1'],6,0.13187539999989895,,,16,21,Vrouw,Rechts,1,
,xotask,xotask,xotask,34,1,94,394,training,positivefb,94,hard,27,0.4162175000001298,['n'],1,right,['2'],5,0.5817844000002879,,,16,21,Vrouw,Rechts,1,
,xotask,xotask,xotask,35,1,95,395,training,positivefb,100,hard,25,0.5000451000000794,['n'],1,right,['1'],6,0.24310280000008788,,,16,21,Vrouw,Rechts,1,
,xotask,xotask,xotask,36,1,96,396,training,positivefb,96,easy,70,0.7340183999999681,['c'],1,left,['1'],6,0.15588999999999942,,,16,21,Vrouw,Rechts,1,
,xotask,xotask,xotask,37,1,97,397,training,positivefb,86,hard,25,1.201513900000009,['n'],1,right,['3'],4,0.5103833999996823,,,16,21,Vrouw,Rechts,1,
,xotask,xotask,xotask,38,1,98,398,training,positivefb,91,hard,28,0.5676159999998163,['n'],1,right,['2'],5,0.22770949999994627,,,16,21,Vrouw,Rechts,1,
,xotask,xotask,xotask,39,1,99,399,training,positivefb,91,hard,29,0.516101400000025,['n'],1,right,['2'],5,0.1581307999999808,,,16,21,Vrouw,Rechts,1,
,xotask,xotask,xotask,40,1,100,400,training,positivefb,93,hard,50,1.6490005000000565,['c'],1,left,['3'],4,0.24559570000019448,,,16,21,Vrouw,Rechts,1,
,xotask,xotask,xotask,41,1,101,401,training,positivefb,97,average,63,0.9671499000000949,['c'],1,left,['2'],5,0.17354459999978644,,,16,21,Vrouw,Rechts,1,
,xotask,xotask,xotask,42,1,102,402,training,positivefb,98,easy,72,0.7161663000001681,['c'],1,left,['1'],6,0.16294539999989865,,,16,21,Vrouw,Rechts,1,
,xotask,xotask,xotask,43,1,103,403,training,positivefb,92,easy,70,0.5665719000003264,['c'],1,left,['1'],6,0.1580536999999822,,,16,21,Vrouw,Rechts,1,
,xotask,xotask,xotask,44,1,104,404,training,positivefb,80,average,62,0.8170491000000766,['c'],1,left,['2'],5,0.16764160000002448,,,16,21,Vrouw,Rechts,1,
,xotask,xotask,xotask,45,1,105,405,training,positivefb,96,easy,71,0.6673642000000655,['c'],1,left,['2'],5,0.14249329999984184,,,16,21,Vrouw,Rechts,1,
,xotask,xotask,xotask,46,1,106,406,training,positivefb,93,average,17,0.8507652999996935,['n'],1,right,['2'],5,0.1593284999999014,,,16,21,Vrouw,Rechts,1,
,xotask,xotask,xotask,47,1,107,407,training,positivefb,90,average,61,0.8333652999999686,['c'],1,left,['3'],4,0.3674937000000682,,,16,21,Vrouw,Rechts,1,
,xotask,xotask,xotask,48,1,108,408,training,positivefb,99,easy,8,0.6336678999996366,['n'],1,right,['2'],5,0.15958599999976286,,,16,21,Vrouw,Rechts,1,
,xotask,xotask,xotask,49,1,109,409,training,positivefb,95,average,17,0.4826129999996738,['n'],1,right,['1'],6,0.19016190000002098,,,16,21,Vrouw,Rechts,1,
,xotask,xotask,xotask,50,1,110,410,training,positivefb,95,easy,7,0.48393050000004223,['n'],1,right,['1'],6,0.17106469999998808,,,16,21,Vrouw,Rechts,1,
,xotask,xotask,xotask,51,1,111,411,training,positivefb,96,easy,6,0.4492536000002474,['n'],1,right,['1'],6,0.10717160000012882,,,16,21,Vrouw,Rechts,1,
,xotask,xotask,xotask,52,1,112,412,training,positivefb,97,hard,28,0.41736130000026606,['n'],1,right,['1'],6,0.19821659999979602,,,16,21,Vrouw,Rechts,1,
,xotask,xotask,xotask,53,1,113,413,training,positivefb,95,hard,52,0.9173051000002488,['c'],1,left,['3'],4,0.1293932999997196,,,16,21,Vrouw,Rechts,1,
,xotask,xotask,xotask,54,1,114,414,training,positivefb,97,hard,28,0.7338618999997379,['n'],1,right,['1'],6,0.19980089999990014,,,16,21,Vrouw,Rechts,1,
,xotask,xotask,xotask,55,1,115,415,training,positivefb,97,average,17,0.8007987000000867,['n'],1,right,['2'],5,0.12705959999993865,,,16,21,Vrouw,Rechts,1,
,xotask,xotask,xotask,56,1,116,416,training,positivefb,95,average,61,0.9324071999999433,['c'],1,left,['2'],5,0.29316930000004504,,,16,21,Vrouw,Rechts,1,
,xotask,xotask,xotask,57,1,117,417,training,positivefb,98,average,19,0.4671581000002334,['c'],0,right,['2'],5,0.13496959999974933,,,16,21,Vrouw,Rechts,1,
,xotask,xotask,xotask,58,1,118,418,training,positivefb,90,hard,27,1.1996730000000753,['n'],1,right,['3'],4,0.30597919999991063,,,16,21,Vrouw,Rechts,1,
,xotask,xotask,xotask,59,1,119,419,training,positivefb,84,average,19,0.5494549000000006,['n'],1,right,['1'],6,0.1838199999997414,,,16,21,Vrouw,Rechts,1,
,dotcolour,xotask,xotask,0,2,120,420,main,positivefb,-99,hard,,2.1001628999997592,['c'],1,left,['1'],6,1.210195499999827,44,,16,21,Vrouw,Rechts,1,
,dotcolour,xotask,xotask,1,2,121,421,main,positivefb,-99,easy,,0.9001299000001382,['c'],1,left,['1'],6,0.23850210000000516,61,,16,21,Vrouw,Rechts,1,
,dotcolour,xotask,xotask,2,2,122,422,main,positivefb,-99,average,,0.934862399999929,['n'],1,right,['2'],5,1.0012311999998929,26,,16,21,Vrouw,Rechts,1,
,dotcolour,xotask,xotask,3,2,123,423,main,positivefb,-99,average,,1.5840715999997883,['c'],1,left,['2'],5,0.18574390000003405,52,,16,21,Vrouw,Rechts,1,
,dotcolour,xotask,xotask,4,2,124,424,main,positivefb,-99,easy,,0.5506015999999363,['n'],1,right,['2'],5,0.2458955000001879,15,,16,21,Vrouw,Rechts,1,
,dotcolour,xotask,xotask,5,2,125,425,main,positivefb,-99,hard,,1.0675818999998228,['c'],1,left,['2'],5,0.13817000000017288,42,,16,21,Vrouw,Rechts,1,
,dotcolour,xotask,xotask,6,2,126,426,main,positivefb,-99,average,,0.6016610000001492,['c'],1,left,['2'],5,0.19715390000010302,51,,16,21,Vrouw,Rechts,1,
,dotcolour,xotask,xotask,7,2,127,427,main,positivefb,-99,easy,,0.7011902999997801,['c'],1,left,['2'],5,0.16163159999996424,61,,16,21,Vrouw,Rechts,1,
,dotcolour,xotask,xotask,8,2,128,428,main,positivefb,-99,easy,,0.4669184999997924,['c'],1,left,['1'],6,0.2268644000000677,62,,16,21,Vrouw,Rechts,1,
,dotcolour,xotask,xotask,9,2,129,429,main,positivefb,-99,average,,1.2511638999999377,['c'],1,left,['1'],6,0.18413490000011734,51,,16,21,Vrouw,Rechts,1,
,dotcolour,xotask,xotask,10,2,130,430,main,positivefb,-99,hard,,1.3001027999998769,['n'],0,left,['2'],5,0.20508729999983188,45,,16,21,Vrouw,Rechts,1,
,dotcolour,xotask,xotask,11,2,131,431,main,positivefb,-99,easy,,0.5182647999999972,['n'],1,right,['1'],6,0.24121019999984128,15,,16,21,Vrouw,Rechts,1,
,dotcolour,xotask,xotask,12,2,132,432,main,positivefb,-99,hard,,0.5348542000001544,['n'],1,right,['1'],6,0.22024729999975534,36,,16,21,Vrouw,Rechts,1,
,dotcolour,xotask,xotask,13,2,133,433,main,positivefb,-99,easy,,0.9847712999999203,['c'],1,left,['1'],6,0.24447250000002896,63,,16,21,Vrouw,Rechts,1,
,dotcolour,xotask,xotask,14,2,134,434,main,positivefb,-99,average,,0.6676808000001984,['n'],1,right,['1'],6,0.21656050000001414,27,,16,21,Vrouw,Rechts,1,
,dotcolour,xotask,xotask,15,2,135,435,main,positivefb,-99,easy,,0.584228499999881,['n'],1,right,['1'],6,0.17728390000002037,16,,16,21,Vrouw,Rechts,1,
,dotcolour,xotask,xotask,16,2,136,436,main,positivefb,-99,hard,,1.0677880000002915,['c'],1,left,['1'],6,0.1846557999997458,45,,16,21,Vrouw,Rechts,1,
,dotcolour,xotask,xotask,17,2,137,437,main,positivefb,-99,hard,,1.3851205999999365,['n'],1,right,['1'],6,0.20378809999965597,35,,16,21,Vrouw,Rechts,1,
,dotcolour,xotask,xotask,18,2,138,438,main,positivefb,-99,hard,,0.8846051000000443,['c'],1,left,['1'],6,0.1841549999999188,45,,16,21,Vrouw,Rechts,1,
,dotcolour,xotask,xotask,19,2,139,439,main,positivefb,-99,average,,0.5507462000000487,['n'],1,right,['1'],6,0.17923719999998866,25,,16,21,Vrouw,Rechts,1,
,dotcolour,xotask,xotask,20,2,140,440,main,positivefb,-99,easy,,0.6672410999999556,['c'],1,left,['1'],6,0.17851290000044173,63,,16,21,Vrouw,Rechts,1,
,dotcolour,xotask,xotask,21,2,141,441,main,positivefb,-99,easy,,0.7672551000000567,['n'],1,right,['1'],6,0.15827160000026197,19,,16,21,Vrouw,Rechts,1,
,dotcolour,xotask,xotask,22,2,142,442,main,positivefb,-99,average,,0.7174062999997659,['n'],1,right,['1'],6,0.2042916000000332,26,,16,21,Vrouw,Rechts,1,
,dotcolour,xotask,xotask,23,2,143,443,main,positivefb,-99,average,,1.451371399999971,['c'],1,left,['1'],6,0.18638629999986733,54,,16,21,Vrouw,Rechts,1,
,dotcolour,xotask,xotask,24,2,144,444,main,positivefb,-99,hard,,1.2174047999997128,['c'],0,right,['1'],6,0.32340839999960735,39,,16,21,Vrouw,Rechts,1,
,dotcolour,xotask,xotask,25,2,145,445,main,positivefb,-99,hard,,0.5999716000001172,['n'],1,right,['1'],6,0.17506030000004102,38,,16,21,Vrouw,Rechts,1,
,dotcolour,xotask,xotask,26,2,146,446,main,positivefb,-99,easy,,0.6673227999999654,['c'],0,right,['1'],6,0.2466506999999183,15,,16,21,Vrouw,Rechts,1,
,dotcolour,xotask,xotask,27,2,147,447,main,positivefb,-99,hard,,2.2004805000001397,['n'],1,right,['1'],6,0.23022649999984424,38,,16,21,Vrouw,Rechts,1,
,dotcolour,xotask,xotask,28,2,148,448,main,positivefb,-99,easy,,0.6675017000002299,['c'],1,left,['1'],6,0.22015430000010383,62,,16,21,Vrouw,Rechts,1,
,dotcolour,xotask,xotask,29,2,149,449,main,positivefb,-99,easy,,0.6518258999999489,['n'],1,right,['1'],6,0.20949209999980667,16,,16,21,Vrouw,Rechts,1,
,dotcolour,xotask,xotask,30,2,150,450,main,positivefb,-99,average,,0.7347601000001305,['c'],1,left,['1'],6,0.20531359999995402,52,,16,21,Vrouw,Rechts,1,
,dotcolour,xotask,xotask,31,2,151,451,main,positivefb,-99,hard,,1.4190161999999873,['c'],1,left,['1'],6,0.1888678999998774,43,,16,21,Vrouw,Rechts,1,
,dotcolour,xotask,xotask,32,2,152,452,main,positivefb,-99,hard,,1.6348170999999638,['n'],0,left,['1'],6,0.14085660000000644,45,,16,21,Vrouw,Rechts,1,
,dotcolour,xotask,xotask,33,2,153,453,main,positivefb,-99,hard,,1.0341377999998258,['n'],1,right,['1'],6,0.15917259999969247,38,,16,21,Vrouw,Rechts,1,
,dotcolour,xotask,xotask,34,2,154,454,main,positivefb,-99,average,,0.6839257999999973,['c'],1,left,['1'],6,0.19001470000011977,53,,16,21,Vrouw,Rechts,1,
,dotcolour,xotask,xotask,35,2,155,455,main,positivefb,-99,average,,0.7014430999997785,['n'],1,right,['1'],6,0.1795203000001493,26,,16,21,Vrouw,Rechts,1,
,dotcolour,xotask,xotask,36,2,156,456,main,positivefb,-99,easy,,0.8838525999999547,['n'],1,right,['1'],6,0.186794799999916,15,,16,21,Vrouw,Rechts,1,
,dotcolour,xotask,xotask,37,2,157,457,main,positivefb,-99,average,,0.8174300000000585,['n'],1,right,['1'],6,0.18739359999972294,26,,16,21,Vrouw,Rechts,1,
,dotcolour,xotask,xotask,38,2,158,458,main,positivefb,-99,easy,,0.6679127999996126,['c'],1,left,['1'],6,0.22590760000002774,65,,16,21,Vrouw,Rechts,1,
,dotcolour,xotask,xotask,39,2,159,459,main,positivefb,-99,hard,,1.3849138000000494,['n'],1,right,['1'],6,0.17838179999989734,37,,16,21,Vrouw,Rechts,1,
,dotcolour,xotask,xotask,40,2,160,460,main,positivefb,-99,average,,0.6846341000000393,['c'],1,left,['1'],6,0.20830989999967642,55,,16,21,Vrouw,Rechts,1,
,dotcolour,xotask,xotask,41,2,161,461,main,positivefb,-99,average,,1.0681025999997473,['n'],1,right,['1'],6,0.17481349999980011,28,,16,21,Vrouw,Rechts,1,
,dotcolour,xotask,xotask,42,2,162,462,main,positivefb,-99,easy,,0.6339081999999507,['n'],1,right,['1'],6,0.20749649999970643,15,,16,21,Vrouw,Rechts,1,
,dotcolour,xotask,xotask,43,2,163,463,main,positivefb,-99,hard,,1.116528400000334,['c'],0,right,['1'],6,1.8194162999998298,37,,16,21,Vrouw,Rechts,1,
,dotcolour,xotask,xotask,44,2,164,464,main,positivefb,-99,easy,,0.601230399999622,['c'],1,left,['1'],6,0.2756767000000764,63,,16,21,Vrouw,Rechts,1,
,dotcolour,xotask,xotask,45,2,165,465,main,positivefb,-99,average,,0.6841707000003225,['n'],1,right,['1'],6,0.19079899999996996,28,,16,21,Vrouw,Rechts,1,
,dotcolour,xotask,xotask,46,2,166,466,main,positivefb,-99,easy,,0.5851401999998416,['n'],1,right,['1'],6,0.2157187999996495,16,,16,21,Vrouw,Rechts,1,
,dotcolour,xotask,xotask,47,2,167,467,main,positivefb,-99,average,,0.6181142000000364,['n'],1,right,['1'],6,0.2477376000001641,28,,16,21,Vrouw,Rechts,1,
,dotcolour,xotask,xotask,48,2,168,468,main,positivefb,-99,hard,,1.56797349999988,['c'],1,left,['1'],6,0.2799582000002374,44,,16,21,Vrouw,Rechts,1,
,dotcolour,xotask,xotask,49,2,169,469,main,positivefb,-99,easy,,2.7509382999996888,['c'],1,left,['2'],5,0.23953649999975823,62,,16,21,Vrouw,Rechts,1,
,dotcolour,xotask,xotask,50,2,170,470,main,positivefb,-99,average,,1.3678626999999324,['c'],1,left,['1'],6,0.21674080000002505,54,,16,21,Vrouw,Rechts,1,
,dotcolour,xotask,xotask,51,2,171,471,main,positivefb,-99,average,,1.0182747000003474,['c'],1,left,['2'],5,0.35160270000005767,53,,16,21,Vrouw,Rechts,1,
,dotcolour,xotask,xotask,52,2,172,472,main,positivefb,-99,hard,,1.4675940000001901,['c'],0,right,['2'],5,0.3436016999999083,39,,16,21,Vrouw,Rechts,1,
,dotcolour,xotask,xotask,53,2,173,473,main,positivefb,-99,average,,0.6837532999998075,['n'],1,right,['2'],5,0.30386340000040946,29,,16,21,Vrouw,Rechts,1,
,dotcolour,xotask,xotask,54,2,174,474,main,positivefb,-99,hard,,1.150870699999814,['c'],0,right,['2'],5,0.2865947000000233,39,,16,21,Vrouw,Rechts,1,
,dotcolour,xotask,xotask,55,2,175,475,main,positivefb,-99,average,,0.8013271999998324,['c'],1,left,['2'],5,0.2679416000000856,53,,16,21,Vrouw,Rechts,1,
,dotcolour,xotask,xotask,56,2,176,476,main,positivefb,-99,easy,,0.7188671999997496,['n'],1,right,['2'],5,0.42054030000008424,16,,16,21,Vrouw,Rechts,1,
,dotcolour,xotask,xotask,57,2,177,477,main,positivefb,-99,easy,,0.7857294999998885,['c'],1,left,['2'],5,0.2538660999998683,63,,16,21,Vrouw,Rechts,1,
,dotcolour,xotask,xotask,58,2,178,478,main,positivefb,-99,hard,,1.2668872999997802,['c'],1,left,['2'],5,0.2811605000001691,43,,16,21,Vrouw,Rechts,1,
,dotcolour,xotask,xotask,59,2,179,479,main,positivefb,-99,hard,,1.7176665000001776,['c'],1,left,['2'],5,0.29822070000000167,43,,16,21,Vrouw,Rechts,1,
,dotcolour,xotask,xotask,0,3,180,480,main,positivefb,-99,hard,,0.9008530000000974,['n'],0,left,['2'],5,0.2855077999997775,43,,16,21,Vrouw,Rechts,1,
,dotcolour,xotask,xotask,1,3,181,481,main,positivefb,-99,easy,,1.2836968999999954,['n'],1,right,['2'],5,0.6551872000000003,19,,16,21,Vrouw,Rechts,1,
,dotcolour,xotask,xotask,2,3,182,482,main,positivefb,-99,average,,0.8327924000000166,['c'],1,left,['2'],5,0.30027389999986553,54,,16,21,Vrouw,Rechts,1,
,dotcolour,xotask,xotask,3,3,183,483,main,positivefb,-99,hard,,1.6508456999999908,['c'],1,left,['2'],5,0.33502960000032544,42,,16,21,Vrouw,Rechts,1,
,dotcolour,xotask,xotask,4,3,184,484,main,positivefb,-99,easy,,1.218195999999807,['c'],1,left,['2'],5,0.27401869999994233,63,,16,21,Vrouw,Rechts,1,
,dotcolour,xotask,xotask,5,3,185,485,main,positivefb,-99,average,,0.984214300000076,['c'],1,left,['2'],5,0.28906289999986257,54,,16,21,Vrouw,Rechts,1,
,dotcolour,xotask,xotask,6,3,186,486,main,positivefb,-99,easy,,0.6170699999997851,['n'],1,right,['2'],5,0.30121530000042185,18,,16,21,Vrouw,Rechts,1,
,dotcolour,xotask,xotask,7,3,187,487,main,positivefb,-99,hard,,1.6851566999998795,['c'],1,left,['2'],5,0.22240510000028735,42,,16,21,Vrouw,Rechts,1,
,dotcolour,xotask,xotask,8,3,188,488,main,positivefb,-99,easy,,0.6508757000001424,['n'],1,right,['2'],5,0.29283200000008947,17,,16,21,Vrouw,Rechts,1,
,dotcolour,xotask,xotask,9,3,189,489,main,positivefb,-99,average,,0.8663480999998683,['n'],1,right,['2'],5,0.29450279999991835,28,,16,21,Vrouw,Rechts,1,
,dotcolour,xotask,xotask,10,3,190,490,main,positivefb,-99,average,,0.5170975000000908,['n'],1,right,['2'],5,0.29530469999963316,27,,16,21,Vrouw,Rechts,1,
,dotcolour,xotask,xotask,11,3,191,491,main,positivefb,-99,average,,0.5682323000000906,['n'],1,right,['2'],5,0.2782081999998809,27,,16,21,Vrouw,Rechts,1,
,dotcolour,xotask,xotask,12,3,192,492,main,positivefb,-99,hard,,1.067747000000054,['n'],1,right,['2'],5,0.2655316000000312,35,,16,21,Vrouw,Rechts,1,
,dotcolour,xotask,xotask,13,3,193,493,main,positivefb,-99,average,,0.6010555000002569,['c'],1,left,['2'],5,0.2552659000002677,52,,16,21,Vrouw,Rechts,1,
,dotcolour,xotask,xotask,14,3,194,494,main,positivefb,-99,hard,,1.6019364999997379,['n'],1,right,['2'],5,0.19788789999984147,35,,16,21,Vrouw,Rechts,1,
,dotcolour,xotask,xotask,15,3,195,495,main,positivefb,-99,hard,,1.7342420999998467,['c'],0,right,['2'],5,0.24938109999993685,36,,16,21,Vrouw,Rechts,1,
,dotcolour,xotask,xotask,16,3,196,496,main,positivefb,-99,hard,,0.9845254999995632,['n'],0,left,['2'],5,0.27257300000019313,41,,16,21,Vrouw,Rechts,1,
,dotcolour,xotask,xotask,17,3,197,497,main,positivefb,-99,hard,,0.7009914999998728,['n'],1,right,['2'],5,0.2355814000002283,36,,16,21,Vrouw,Rechts,1,
,dotcolour,xotask,xotask,18,3,198,498,main,positivefb,-99,average,,0.7159753000000819,['c'],1,left,['2'],5,0.29367739999997866,53,,16,21,Vrouw,Rechts,1,
,dotcolour,xotask,xotask,19,3,199,499,main,positivefb,-99,hard,,0.9164906999999403,['c'],0,right,['2'],5,0.2380897999996705,38,,16,21,Vrouw,Rechts,1,
,dotcolour,xotask,xotask,20,3,200,500,main,positivefb,-99,average,,1.6680777000001399,['c'],1,left,['2'],5,0.2826161000002685,51,,16,21,Vrouw,Rechts,1,
,dotcolour,xotask,xotask,21,3,201,501,main,positivefb,-99,easy,,0.6673157999998693,['n'],1,right,['2'],5,0.24521610000010696,16,,16,21,Vrouw,Rechts,1,
,dotcolour,xotask,xotask,22,3,202,502,main,positivefb,-99,easy,,0.618468600000142,['c'],1,left,['2'],5,0.2517843000000539,62,,16,21,Vrouw,Rechts,1,
,dotcolour,xotask,xotask,23,3,203,503,main,positivefb,-99,hard,,1.3174743000004128,['n'],1,right,['2'],5,0.254913199999919,36,,16,21,Vrouw,Rechts,1,
,dotcolour,xotask,xotask,24,3,204,504,main,positivefb,-99,average,,0.7181162000001677,['n'],1,right,['2'],5,0.24806349999971644,29,,16,21,Vrouw,Rechts,1,
,dotcolour,xotask,xotask,25,3,205,505,main,positivefb,-99,easy,,0.9014634999998634,['c'],1,left,['1'],6,0.3149826999997458,64,,16,21,Vrouw,Rechts,1,
,dotcolour,xotask,xotask,26,3,206,506,main,positivefb,-99,average,,0.7015661000000364,['c'],1,left,['1'],6,0.31539969999994355,53,,16,21,Vrouw,Rechts,1,
,dotcolour,xotask,xotask,27,3,207,507,main,positivefb,-99,average,,0.6679333000001861,['c'],1,left,['1'],6,0.3159389000002193,52,,16,21,Vrouw,Rechts,1,
,dotcolour,xotask,xotask,28,3,208,508,main,positivefb,-99,easy,,0.9997180000000299,['c'],1,left,['1'],6,0.27237490000015896,62,,16,21,Vrouw,Rechts,1,
,dotcolour,xotask,xotask,29,3,209,509,main,positivefb,-99,hard,,1.3849331999999777,['c'],1,left,['1'],6,0.35852810000005775,42,,16,21,Vrouw,Rechts,1,
,dotcolour,xotask,xotask,30,3,210,510,main,positivefb,-99,easy,,0.6510346000000027,['c'],1,left,['1'],6,0.24001940000016475,64,,16,21,Vrouw,Rechts,1,
,dotcolour,xotask,xotask,31,3,211,511,main,positivefb,-99,average,,0.8166762999999264,['n'],1,right,['1'],6,0.3182355999997526,27,,16,21,Vrouw,Rechts,1,
,dotcolour,xotask,xotask,32,3,212,512,main,positivefb,-99,hard,,1.8681864000000132,['c'],0,right,['2'],5,0.35132849999990867,39,,16,21,Vrouw,Rechts,1,
,dotcolour,xotask,xotask,33,3,213,513,main,positivefb,-99,hard,,1.2166514000000461,['c'],1,left,['2'],5,0.2664966000002096,42,,16,21,Vrouw,Rechts,1,
,dotcolour,xotask,xotask,34,3,214,514,main,positivefb,-99,easy,,0.8494541000000027,['c'],1,left,['1'],6,0.31817050000017844,62,,16,21,Vrouw,Rechts,1,
,dotcolour,xotask,xotask,35,3,215,515,main,positivefb,-99,average,,0.6998945000000276,['n'],1,right,['1'],6,0.35022250000019994,29,,16,21,Vrouw,Rechts,1,
,dotcolour,xotask,xotask,36,3,216,516,main,positivefb,-99,average,,0.9333922999999231,['c'],1,left,['1'],6,0.4434427000001051,52,,16,21,Vrouw,Rechts,1,
,dotcolour,xotask,xotask,37,3,217,517,main,positivefb,-99,hard,,0.7505000999999538,['n'],0,left,['2'],5,0.2929736999999477,43,,16,21,Vrouw,Rechts,1,
,dotcolour,xotask,xotask,38,3,218,518,main,positivefb,-99,easy,,0.6336006999999881,['n'],1,right,['1'],6,0.27278300000034506,18,,16,21,Vrouw,Rechts,1,
,dotcolour,xotask,xotask,39,3,219,519,main,positivefb,-99,hard,,1.4671877000000677,['c'],0,right,['2'],5,0.34011299999974653,38,,16,21,Vrouw,Rechts,1,
,dotcolour,xotask,xotask,40,3,220,520,main,positivefb,-99,hard,,1.5174391999998988,['c'],1,left,['2'],5,0.8339363999998568,43,,16,21,Vrouw,Rechts,1,
,dotcolour,xotask,xotask,41,3,221,521,main,positivefb,-99,hard,,0.61700189999965,['n'],1,right,['2'],5,0.26533470000003945,36,,16,21,Vrouw,Rechts,1,
,dotcolour,xotask,xotask,42,3,222,522,main,positivefb,-99,easy,,0.6336894000000939,['n'],1,right,['2'],5,0.23813930000005712,18,,16,21,Vrouw,Rechts,1,
,dotcolour,xotask,xotask,43,3,223,523,main,positivefb,-99,hard,,1.1994434999996884,['n'],0,left,['2'],5,0.38110139999980674,41,,16,21,Vrouw,Rechts,1,
,dotcolour,xotask,xotask,44,3,224,524,main,positivefb,-99,easy,,0.6000042000000576,['c'],1,left,['2'],5,0.3271399999998721,65,,16,21,Vrouw,Rechts,1,
,dotcolour,xotask,xotask,45,3,225,525,main,positivefb,-99,easy,,0.6002757999999631,['c'],1,left,['2'],5,0.35551759999998467,64,,16,21,Vrouw,Rechts,1,
,dotcolour,xotask,xotask,46,3,226,526,main,positivefb,-99,easy,,0.6166210999999748,['n'],1,right,['2'],5,0.3333864999999605,15,,16,21,Vrouw,Rechts,1,
,dotcolour,xotask,xotask,47,3,227,527,main,positivefb,-99,average,,1.2169355000000905,['c'],1,left,['2'],5,0.28797160000021904,52,,16,21,Vrouw,Rechts,1,
,dotcolour,xotask,xotask,48,3,228,528,main,positivefb,-99,easy,,0.7674928999999793,['c'],1,left,['2'],5,0.29381459999967774,62,,16,21,Vrouw,Rechts,1,
,dotcolour,xotask,xotask,49,3,229,529,main,positivefb,-99,easy,,0.702416500000254,['n'],1,right,['2'],5,0.36072360000025583,18,,16,21,Vrouw,Rechts,1,
,dotcolour,xotask,xotask,50,3,230,530,main,positivefb,-99,easy,,1.417535399999906,['n'],1,right,['2'],5,0.3695927999997366,17,,16,21,Vrouw,Rechts,1,
,dotcolour,xotask,xotask,51,3,231,531,main,positivefb,-99,easy,,0.6011249000002863,['n'],1,right,['2'],5,0.347190099999807,15,,16,21,Vrouw,Rechts,1,
,dotcolour,xotask,xotask,52,3,232,532,main,positivefb,-99,average,,0.9350322000000233,['n'],1,right,['2'],5,0.33759329999975307,29,,16,21,Vrouw,Rechts,1,
,dotcolour,xotask,xotask,53,3,233,533,main,positivefb,-99,average,,0.6004790000001776,['c'],1,left,['2'],5,0.29326099999980215,54,,16,21,Vrouw,Rechts,1,
,dotcolour,xotask,xotask,54,3,234,534,main,positivefb,-99,average,,0.6175604000000021,['n'],1,right,['2'],5,0.3132812999997441,25,,16,21,Vrouw,Rechts,1,
,dotcolour,xotask,xotask,55,3,235,535,main,positivefb,-99,average,,1.7007111999996596,['n'],1,right,['2'],5,0.24987019999980475,28,,16,21,Vrouw,Rechts,1,
,dotcolour,xotask,xotask,56,3,236,536,main,positivefb,-99,average,,0.5836473999997907,['n'],1,right,['2'],5,0.35417899999993097,25,,16,21,Vrouw,Rechts,1,
,dotcolour,xotask,xotask,57,3,237,537,main,positivefb,-99,easy,,0.7844933999999739,['c'],1,left,['2'],5,0.5730355999999119,63,,16,21,Vrouw,Rechts,1,
,dotcolour,xotask,xotask,58,3,238,538,main,positivefb,-99,hard,,1.5503327999999783,['n'],0,left,['2'],5,0.26488179999978456,43,,16,21,Vrouw,Rechts,1,
,dotcolour,xotask,xotask,59,3,239,539,main,positivefb,-99,hard,,1.6337341000003107,['c'],0,right,['2'],5,0.2945448000000397,38,,16,21,Vrouw,Rechts,1,
,dotcolour,xotask,xotask,0,4,240,540,main,positivefb,-99,easy,,0.7845707999999831,['c'],1,left,['2'],5,0.28667270000005374,64,,16,21,Vrouw,Rechts,1,
,dotcolour,xotask,xotask,1,4,241,541,main,positivefb,-99,average,,0.9668963999997686,['c'],1,left,['2'],5,0.2605195000001004,54,,16,21,Vrouw,Rechts,1,
,dotcolour,xotask,xotask,2,4,242,542,main,positivefb,-99,hard,,0.8008740000000216,['c'],1,left,['2'],5,0.2836483999999473,45,,16,21,Vrouw,Rechts,1,
,dotcolour,xotask,xotask,3,4,243,543,main,positivefb,-99,hard,,0.6504921999999169,['c'],1,left,['2'],5,0.2395145999998931,41,,16,21,Vrouw,Rechts,1,
,dotcolour,xotask,xotask,4,4,244,544,main,positivefb,-99,hard,,1.000926900000195,['c'],1,left,['2'],5,0.27054720000023735,43,,16,21,Vrouw,Rechts,1,
,dotcolour,xotask,xotask,5,4,245,545,main,positivefb,-99,hard,,0.6844184999999925,['c'],0,right,['1'],6,0.29750319999993735,38,,16,21,Vrouw,Rechts,1,
,dotcolour,xotask,xotask,6,4,246,546,main,positivefb,-99,hard,,0.9009743999999955,['c'],0,right,['1'],6,0.6258311999999933,35,,16,21,Vrouw,Rechts,1,
,dotcolour,xotask,xotask,7,4,247,547,main,positivefb,-99,hard,,0.4844316000003346,['n'],1,right,['1'],6,0.36660029999984545,37,,16,21,Vrouw,Rechts,1,
,dotcolour,xotask,xotask,8,4,248,548,main,positivefb,-99,hard,,1.2833433999999215,['c'],0,right,['2'],5,0.28602679999994507,38,,16,21,Vrouw,Rechts,1,
,dotcolour,xotask,xotask,9,4,249,549,main,positivefb,-99,average,,0.6687732000000324,['n'],1,right,['1'],6,0.43233150000014575,28,,16,21,Vrouw,Rechts,1,
,dotcolour,xotask,xotask,10,4,250,550,main,positivefb,-99,easy,,0.6839737000000241,['c'],1,left,['1'],6,0.3010172000003877,65,,16,21,Vrouw,Rechts,1,
,dotcolour,xotask,xotask,11,4,251,551,main,positivefb,-99,average,,1.2348047999998926,['n'],1,right,['2'],5,0.30355210000016086,29,,16,21,Vrouw,Rechts,1,
,dotcolour,xotask,xotask,12,4,252,552,main,positivefb,-99,average,,0.5679867000003469,['n'],1,right,['2'],5,0.35737079999989874,25,,16,21,Vrouw,Rechts,1,
,dotcolour,xotask,xotask,13,4,253,553,main,positivefb,-99,easy,,0.6183828000002904,['n'],1,right,['2'],5,0.5999215000001641,17,,16,21,Vrouw,Rechts,1,
,dotcolour,xotask,xotask,14,4,254,554,main,positivefb,-99,average,,0.8175599999999577,['c'],1,left,['1'],6,0.2793315999997503,53,,16,21,Vrouw,Rechts,1,
,dotcolour,xotask,xotask,15,4,255,555,main,positivefb,-99,hard,,1.884973799999898,['c'],0,right,['1'],6,0.22584809999989375,38,,16,21,Vrouw,Rechts,1,
,dotcolour,xotask,xotask,16,4,256,556,main,positivefb,-99,easy,,0.89965280000024,['c'],1,left,['1'],6,0.32692069999984597,64,,16,21,Vrouw,Rechts,1,
,dotcolour,xotask,xotask,17,4,257,557,main,positivefb,-99,easy,,0.6335763999995834,['c'],1,left,['1'],6,0.36933030000000144,65,,16,21,Vrouw,Rechts,1,
,dotcolour,xotask,xotask,18,4,258,558,main,positivefb,-99,easy,,1.167634000000362,['n'],1,right,['1'],6,0.340614899999764,19,,16,21,Vrouw,Rechts,1,
,dotcolour,xotask,xotask,19,4,259,559,main,positivefb,-99,easy,,0.7176712000000407,['n'],0,left,['2'],5,1.0832179999997607,63,,16,21,Vrouw,Rechts,1,
,dotcolour,xotask,xotask,20,4,260,560,main,positivefb,-99,hard,,1.1666341000000102,['n'],1,right,['1'],6,0.2653685999998743,39,,16,21,Vrouw,Rechts,1,
,dotcolour,xotask,xotask,21,4,261,561,main,positivefb,-99,easy,,0.5507081000000653,['c'],1,left,['2'],5,0.3530915000001187,64,,16,21,Vrouw,Rechts,1,
,dotcolour,xotask,xotask,22,4,262,562,main,positivefb,-99,hard,,1.36821400000008,['c'],1,left,['3'],4,0.6141510000002199,41,,16,21,Vrouw,Rechts,1,
,dotcolour,xotask,xotask,23,4,263,563,main,positivefb,-99,average,,0.7847665999997844,['n'],1,right,['1'],6,0.21556980000013937,27,,16,21,Vrouw,Rechts,1,
,dotcolour,xotask,xotask,24,4,264,564,main,positivefb,-99,easy,,0.8351844999997411,['n'],1,right,['1'],6,0.2774944999996478,16,,16,21,Vrouw,Rechts,1,
,dotcolour,xotask,xotask,25,4,265,565,main,positivefb,-99,hard,,1.250688000000082,['c'],1,left,['1'],6,0.34524999999985084,42,,16,21,Vrouw,Rechts,1,
,dotcolour,xotask,xotask,26,4,266,566,main,positivefb,-99,average,,0.9513719999999921,['n'],1,right,['2'],5,0.3109401000001526,28,,16,21,Vrouw,Rechts,1,
,dotcolour,xotask,xotask,27,4,267,567,main,positivefb,-99,hard,,0.9338950000001205,['c'],1,left,['2'],5,0.4546714000002794,43,,16,21,Vrouw,Rechts,1,
,dotcolour,xotask,xotask,28,4,268,568,main,positivefb,-99,easy,,0.5850605000000542,['n'],1,right,['1'],6,0.29344399999990856,16,,16,21,Vrouw,Rechts,1,
,dotcolour,xotask,xotask,29,4,269,569,main,positivefb,-99,easy,,0.6181145999998989,['n'],1,right,['1'],6,0.33096260000002076,16,,16,21,Vrouw,Rechts,1,
,dotcolour,xotask,xotask,30,4,270,570,main,positivefb,-99,hard,,1.0008677999999236,['c'],1,left,['1'],6,0.3019820000004074,42,,16,21,Vrouw,Rechts,1,
,dotcolour,xotask,xotask,31,4,271,571,main,positivefb,-99,average,,0.9338339999999334,['n'],1,right,['2'],5,0.5014259999998103,26,,16,21,Vrouw,Rechts,1,
,dotcolour,xotask,xotask,32,4,272,572,main,positivefb,-99,easy,,0.867827699999907,['n'],1,right,['1'],6,0.4235521000000517,15,,16,21,Vrouw,Rechts,1,
,dotcolour,xotask,xotask,33,4,273,573,main,positivefb,-99,average,,1.2336009000000558,['c'],1,left,['1'],6,0.3179448000000775,51,,16,21,Vrouw,Rechts,1,
,dotcolour,xotask,xotask,34,4,274,574,main,positivefb,-99,easy,,0.6679100999999719,['n'],1,right,['1'],6,0.5036470000000008,19,,16,21,Vrouw,Rechts,1,
,dotcolour,xotask,xotask,35,4,275,575,main,positivefb,-99,average,,1.7336151999998037,['n'],1,right,['1'],6,0.36733379999986937,25,,16,21,Vrouw,Rechts,1,
,dotcolour,xotask,xotask,36,4,276,576,main,positivefb,-99,easy,,0.5672041000002537,['n'],1,right,['1'],6,0.3069650000002184,17,,16,21,Vrouw,Rechts,1,
,dotcolour,xotask,xotask,37,4,277,577,main,positivefb,-99,hard,,1.8174401000001126,['n'],1,right,['1'],6,0.3025394999999662,39,,16,21,Vrouw,Rechts,1,
,dotcolour,xotask,xotask,38,4,278,578,main,positivefb,-99,average,,0.8677136999999675,['c'],1,left,['2'],5,0.46428999999989173,55,,16,21,Vrouw,Rechts,1,
,dotcolour,xotask,xotask,39,4,279,579,main,positivefb,-99,average,,0.6330548999999337,['n'],0,left,['2'],5,0.3249881999995523,52,,16,21,Vrouw,Rechts,1,
,dotcolour,xotask,xotask,40,4,280,580,main,positivefb,-99,hard,,2.168811999999889,['c'],1,left,['2'],5,0.31427320000011605,43,,16,21,Vrouw,Rechts,1,
,dotcolour,xotask,xotask,41,4,281,581,main,positivefb,-99,hard,,0.8510691000001316,['c'],1,left,['2'],5,0.2844529999997576,44,,16,21,Vrouw,Rechts,1,
,dotcolour,xotask,xotask,42,4,282,582,main,positivefb,-99,average,,1.4350873000003048,['n'],1,right,['3'],4,0.7767412000002878,26,,16,21,Vrouw,Rechts,1,
,dotcolour,xotask,xotask,43,4,283,583,main,positivefb,-99,hard,,1.7173530999998547,['n'],1,right,['2'],5,0.23798230000011245,37,,16,21,Vrouw,Rechts,1,
,dotcolour,xotask,xotask,44,4,284,584,main,positivefb,-99,easy,,0.6163463999996566,['n'],1,right,['1'],6,0.39596849999998085,16,,16,21,Vrouw,Rechts,1,
,dotcolour,xotask,xotask,45,4,285,585,main,positivefb,-99,easy,,0.5846314000000348,['n'],1,right,['1'],6,0.358315599999969,15,,16,21,Vrouw,Rechts,1,
,dotcolour,xotask,xotask,46,4,286,586,main,positivefb,-99,average,,1.2006734999999935,['c'],1,left,['2'],5,0.576941700000134,51,,16,21,Vrouw,Rechts,1,
,dotcolour,xotask,xotask,47,4,287,587,main,positivefb,-99,easy,,0.9345032000001083,['c'],1,left,['1'],6,0.35733950000030745,65,,16,21,Vrouw,Rechts,1,
,dotcolour,xotask,xotask,48,4,288,588,main,positivefb,-99,easy,,0.6516578999999183,['c'],1,left,['1'],6,0.2866308000002391,64,,16,21,Vrouw,Rechts,1,
,dotcolour,xotask,xotask,49,4,289,589,main,positivefb,-99,easy,,1.7672437999999602,['c'],1,left,['1'],6,0.45305869999992865,61,,16,21,Vrouw,Rechts,1,
,dotcolour,xotask,xotask,50,4,290,590,main,positivefb,-99,average,,0.6343744999999217,['c'],1,left,['1'],6,0.5947002999996585,55,,16,21,Vrouw,Rechts,1,
,dotcolour,xotask,xotask,51,4,291,591,main,positivefb,-99,hard,,0.6681134000000384,['n'],1,right,['2'],5,0.2649349000002985,39,,16,21,Vrouw,Rechts,1,
,dotcolour,xotask,xotask,52,4,292,592,main,positivefb,-99,average,,0.7508330999999089,['c'],1,left,['2'],5,0.2813741999998456,52,,16,21,Vrouw,Rechts,1,
,dotcolour,xotask,xotask,53,4,293,593,main,positivefb,-99,average,,0.6677927999999156,['c'],1,left,['2'],5,0.25128719999975146,53,,16,21,Vrouw,Rechts,1,
,dotcolour,xotask,xotask,54,4,294,594,main,positivefb,-99,average,,1.351310999999896,['c'],1,left,['3'],4,0.5326780999998846,53,,16,21,Vrouw,Rechts,1,
,dotcolour,xotask,xotask,55,4,295,595,main,positivefb,-99,hard,,1.1002245999998195,['n'],0,left,['3'],4,0.28307139999969877,42,,16,21,Vrouw,Rechts,1,
,dotcolour,xotask,xotask,56,4,296,596,main,positivefb,-99,average,,1.251286700000037,['n'],1,right,['3'],4,0.23864679999996952,28,,16,21,Vrouw,Rechts,1,
,dotcolour,xotask,xotask,57,4,297,597,main,positivefb,-99,hard,,2.234419800000069,['n'],1,right,['3'],4,0.37261899999975867,36,,16,21,Vrouw,Rechts,1,
,dotcolour,xotask,xotask,58,4,298,598,main,positivefb,-99,average,,0.9347310000002835,['n'],1,right,['3'],4,0.257774100000006,29,,16,21,Vrouw,Rechts,1,
,dotcolour,xotask,xotask,59,4,299,599,main,positivefb,-99,easy,,0.8680800000001909,['c'],1,left,['2'],5,0.3420687999996517,65,,16,21,Vrouw,Rechts,1,
,xotask,xotask,xotask,0,0,0,600,training,positivefb,95,hard,52,1.1019780999999966,['c'],1,left,['2'],5,0.6001213999998072,,,16,21,Vrouw,Rechts,1,
,xotask,xotask,xotask,1,0,1,601,training,positivefb,98,average,16,0.9495178000001943,['n'],1,right,['2'],5,0.31410219999997935,,,16,21,Vrouw,Rechts,1,
,xotask,xotask,xotask,2,0,2,602,training,positivefb,85,hard,27,1.233521799999835,['n'],1,right,['2'],5,0.20467220000000452,,,16,21,Vrouw,Rechts,1,
,xotask,xotask,xotask,3,0,3,603,training,positivefb,96,average,19,0.7508089000002656,['n'],1,right,['3'],4,0.12627270000029966,,,16,21,Vrouw,Rechts,1,
,xotask,xotask,xotask,4,0,4,604,training,positivefb,92,average,18,0.7670580999997583,['n'],1,right,['1'],6,0.3944901999998365,,,16,21,Vrouw,Rechts,1,
,xotask,xotask,xotask,5,0,5,605,training,positivefb,97,hard,52,0.7173159999997551,['c'],1,left,['1'],6,0.2549952999997913,,,16,21,Vrouw,Rechts,1,
,xotask,xotask,xotask,6,0,6,606,training,positivefb,92,hard,53,0.9338564999998198,['c'],1,left,['3'],4,0.2798791000000165,,,16,21,Vrouw,Rechts,1,
,xotask,xotask,xotask,7,0,7,607,training,positivefb,97,hard,25,0.5513433000000987,['n'],1,right,['2'],5,0.2153785999998945,,,16,21,Vrouw,Rechts,1,
,xotask,xotask,xotask,8,0,8,608,training,positivefb,89,average,60,0.7661035000000993,['c'],1,left,['3'],4,0.24755809999987832,,,16,21,Vrouw,Rechts,1,
,xotask,xotask,xotask,9,0,9,609,training,positivefb,90,average,62,0.7996736000000055,['c'],1,left,['3'],4,0.3173222000000351,,,16,21,Vrouw,Rechts,1,
,xotask,xotask,xotask,10,0,10,610,training,positivefb,95,average,18,0.5333929000003081,['n'],1,right,['2'],5,0.22753659999989395,,,16,21,Vrouw,Rechts,1,
,xotask,xotask,xotask,11,0,11,611,training,positivefb,95,average,16,0.5328311000002941,['n'],1,right,['1'],6,0.31787149999991016,,,16,21,Vrouw,Rechts,1,
,xotask,xotask,xotask,12,0,12,612,training,positivefb,94,easy,74,1.8993751000002703,['c'],1,left,['2'],5,0.3087799999998424,,,16,21,Vrouw,Rechts,1,
,xotask,xotask,xotask,13,0,13,613,training,positivefb,96,easy,74,0.6008434999998826,['c'],1,left,['1'],6,0.2732603999997991,,,16,21,Vrouw,Rechts,1,
,xotask,xotask,xotask,14,0,14,614,training,positivefb,98,average,62,0.6675088000001779,['c'],1,left,['1'],6,0.2835314999997536,,,16,21,Vrouw,Rechts,1,
,xotask,xotask,xotask,15,0,15,615,training,positivefb,95,average,64,0.6515882999997302,['c'],1,left,['1'],6,0.2467056999998931,,,16,21,Vrouw,Rechts,1,
,xotask,xotask,xotask,16,0,16,616,training,positivefb,99,easy,7,0.5835366999999678,['n'],1,right,['1'],6,0.19795740000017759,,,16,21,Vrouw,Rechts,1,
,xotask,xotask,xotask,17,0,17,617,training,positivefb,99,easy,70,0.4338394999999764,['c'],1,left,['1'],6,0.3481609999998909,,,16,21,Vrouw,Rechts,1,
,xotask,xotask,xotask,18,0,18,618,training,positivefb,91,average,63,0.4169025999999576,['c'],1,left,['1'],6,0.23786329999984446,,,16,21,Vrouw,Rechts,1,
,xotask,xotask,xotask,19,0,19,619,training,positivefb,79,easy,73,0.4164697999999589,['c'],1,left,['1'],6,0.347804399999859,,,16,21,Vrouw,Rechts,1,
,xotask,xotask,xotask,20,0,20,620,training,positivefb,98,easy,73,0.6004760000000715,['c'],1,left,['2'],5,0.5256752999998753,,,16,21,Vrouw,Rechts,1,
,xotask,xotask,xotask,21,0,21,621,training,positivefb,94,average,19,0.5501616000001377,['n'],1,right,['2'],5,0.2593738000000485,,,16,21,Vrouw,Rechts,1,
,xotask,xotask,xotask,22,0,22,622,training,positivefb,99,easy,9,0.4662262000001647,['n'],1,right,['2'],5,0.20697419999987687,,,16,21,Vrouw,Rechts,1,
,xotask,xotask,xotask,23,0,23,623,training,positivefb,97,average,61,0.7676193000002058,['c'],1,left,['2'],5,0.2242404999997234,,,16,21,Vrouw,Rechts,1,
,xotask,xotask,xotask,24,0,24,624,training,positivefb,52,hard,27,0.6002426999998534,['n'],1,right,['3'],4,0.31070220000037807,,,16,21,Vrouw,Rechts,1,
,xotask,xotask,xotask,25,0,25,625,training,positivefb,95,easy,74,0.6835266999996747,['c'],1,left,['2'],5,0.27205000000003565,,,16,21,Vrouw,Rechts,1,
,xotask,xotask,xotask,26,0,26,626,training,positivefb,83,average,62,1.1672385000001668,['c'],1,left,['2'],5,0.2300521000001936,,,16,21,Vrouw,Rechts,1,
,xotask,xotask,xotask,27,0,27,627,training,positivefb,99,average,15,0.5511868999997205,['n'],1,right,['1'],6,0.2956421000003502,,,16,21,Vrouw,Rechts,1,
,xotask,xotask,xotask,28,0,28,628,training,positivefb,99,easy,8,0.5516977000002043,['n'],1,right,['1'],6,0.2865504999999757,,,16,21,Vrouw,Rechts,1,
,xotask,xotask,xotask,29,0,29,629,training,positivefb,98,easy,8,0.4498766000001524,['n'],1,right,['1'],6,0.19303009999975984,,,16,21,Vrouw,Rechts,1,
,xotask,xotask,xotask,30,0,30,630,training,positivefb,91,easy,72,0.5337588000002143,['c'],1,left,['1'],6,0.25183119999974224,,,16,21,Vrouw,Rechts,1,
,xotask,xotask,xotask,31,0,31,631,training,positivefb,97,hard,27,0.5829211999998734,['n'],1,right,['2'],5,0.3146707000000788,,,16,21,Vrouw,Rechts,1,
,xotask,xotask,xotask,32,0,32,632,training,positivefb,97,hard,51,0.9499658999998246,['c'],1,left,['3'],4,0.2646257000001242,,,16,21,Vrouw,Rechts,1,
,xotask,xotask,xotask,33,0,33,633,training,positivefb,77,average,19,0.5496742000000268,['n'],1,right,['2'],5,0.2801663999998709,,,16,21,Vrouw,Rechts,1,
,xotask,xotask,xotask,34,0,34,634,training,positivefb,99,hard,51,0.9682259000001068,['c'],1,left,['3'],4,0.31852589999971315,,,16,21,Vrouw,Rechts,1,
,xotask,xotask,xotask,35,0,35,635,training,positivefb,97,easy,9,0.5841679000000113,['n'],1,right,['2'],5,0.29014850000021397,,,16,21,Vrouw,Rechts,1,
,xotask,xotask,xotask,36,0,36,636,training,positivefb,94,hard,53,0.8672559999999976,['c'],1,left,['3'],4,0.42858369999976276,,,16,21,Vrouw,Rechts,1,
,xotask,xotask,xotask,37,0,37,637,training,positivefb,67,average,16,1.3333708000000115,['c'],0,right,['3'],4,0.2542914999999084,,,16,21,Vrouw,Rechts,1,
,xotask,xotask,xotask,38,0,38,638,training,positivefb,99,average,62,0.7165437000003294,['c'],1,left,['2'],5,0.2800089000002117,,,16,21,Vrouw,Rechts,1,
,xotask,xotask,xotask,39,0,39,639,training,positivefb,94,hard,54,0.6841705999995611,['c'],1,left,['2'],5,0.23370280000017374,,,16,21,Vrouw,Rechts,1,
,xotask,xotask,xotask,40,0,40,640,training,positivefb,96,hard,52,0.8660899000001336,['c'],1,left,['2'],5,0.253983000000062,,,16,21,Vrouw,Rechts,1,
,xotask,xotask,xotask,41,0,41,641,training,positivefb,97,average,19,0.7498618000004171,['n'],1,right,['2'],5,0.2539875999996184,,,16,21,Vrouw,Rechts,1,
,xotask,xotask,xotask,42,0,42,642,training,positivefb,97,easy,71,0.7174599999998463,['c'],1,left,['2'],5,0.2794547999997121,,,16,21,Vrouw,Rechts,1,
,xotask,xotask,xotask,43,0,43,643,training,positivefb,91,hard,53,0.6662590000000819,['c'],1,left,['2'],5,0.290221400000064,,,16,21,Vrouw,Rechts,1,
,xotask,xotask,xotask,44,0,44,644,training,positivefb,98,hard,28,0.8000554000000193,['n'],1,right,['2'],5,0.2621972000001733,,,16,21,Vrouw,Rechts,1,
,xotask,xotask,xotask,45,0,45,645,training,positivefb,87,hard,50,1.899622299999919,['n'],0,left,['3'],4,0.34478400000034526,,,16,21,Vrouw,Rechts,1,
,xotask,xotask,xotask,46,0,46,646,training,positivefb,98,easy,6,0.5495403999998416,['n'],1,right,['1'],6,0.34934629999997924,,,16,21,Vrouw,Rechts,1,
,xotask,xotask,xotask,47,0,47,647,training,positivefb,93,easy,6,0.58282410000038,['n'],1,right,['1'],6,0.23213540000006105,,,16,21,Vrouw,Rechts,1,
,xotask,xotask,xotask,48,0,48,648,training,positivefb,99,hard,27,0.4677273999996032,['n'],1,right,['1'],6,0.16403570000011314,,,16,21,Vrouw,Rechts,1,
,xotask,xotask,xotask,49,0,49,649,training,positivefb,73,average,64,1.3004252000000633,['c'],1,left,['2'],5,0.33035659999995914,,,16,21,Vrouw,Rechts,1,
,xotask,xotask,xotask,50,0,50,650,training,positivefb,93,average,63,0.7676730000002863,['c'],1,left,['2'],5,0.2705385000003844,,,16,21,Vrouw,Rechts,1,
,xotask,xotask,xotask,51,0,51,651,training,positivefb,96,hard,26,0.5005799000000479,['n'],1,right,['3'],4,0.5355021000000306,,,16,21,Vrouw,Rechts,1,
,xotask,xotask,xotask,52,0,52,652,training,positivefb,90,hard,28,0.9005479000002197,['n'],1,right,['2'],5,0.22292339999967226,,,16,21,Vrouw,Rechts,1,
,xotask,xotask,xotask,53,0,53,653,training,positivefb,98,easy,71,0.80017399999997,['c'],1,left,['1'],6,0.4060221999998248,,,16,21,Vrouw,Rechts,1,
,xotask,xotask,xotask,54,0,54,654,training,positivefb,94,hard,26,0.5164479999998548,['n'],1,right,['2'],5,0.2490429999998014,,,16,21,Vrouw,Rechts,1,
,xotask,xotask,xotask,55,0,55,655,training,positivefb,96,easy,73,0.6167075000003024,['c'],1,left,['2'],5,0.3100930000000517,,,16,21,Vrouw,Rechts,1,
,xotask,xotask,xotask,56,0,56,656,training,positivefb,89,easy,6,0.5506961999999476,['n'],1,right,['2'],5,0.2285744999999224,,,16,21,Vrouw,Rechts,1,
,xotask,xotask,xotask,57,0,57,657,training,positivefb,88,easy,7,0.582853299999897,['n'],1,right,['1'],6,0.1803552999999738,,,16,21,Vrouw,Rechts,1,
,xotask,xotask,xotask,58,0,58,658,training,positivefb,81,hard,25,0.9832949000001463,['n'],1,right,['3'],4,0.2708629000003384,,,16,21,Vrouw,Rechts,1,
,xotask,xotask,xotask,59,0,59,659,training,positivefb,99,easy,9,0.7163973000001533,['n'],1,right,['2'],5,0.24716350000016973,,,16,21,Vrouw,Rechts,1,
,xotask,xotask,xotask,0,1,60,660,training,positivefb,96,easy,72,1.0680034000001797,['c'],1,left,['2'],5,0.4492809000003035,,,16,21,Vrouw,Rechts,1,
,xotask,xotask,xotask,1,1,61,661,training,positivefb,77,easy,5,0.5170098000003236,['n'],1,right,['1'],6,0.35453559999996287,,,16,21,Vrouw,Rechts,1,
,xotask,xotask,xotask,2,1,62,662,training,positivefb,98,easy,72,0.9177467999998044,['c'],1,left,['2'],5,0.35189809999974386,,,16,21,Vrouw,Rechts,1,
,xotask,xotask,xotask,3,1,63,663,training,positivefb,93,hard,53,0.7676387000001341,['c'],1,left,['2'],5,0.331546100000196,,,16,21,Vrouw,Rechts,1,
,xotask,xotask,xotask,4,1,64,664,training,positivefb,96,easy,9,0.6015120000001843,['n'],1,right,['2'],5,0.28524609999976747,,,16,21,Vrouw,Rechts,1,
,xotask,xotask,xotask,5,1,65,665,training,positivefb,94,hard,53,1.3661519000002045,['n'],0,left,['2'],5,0.2594621999996889,,,16,21,Vrouw,Rechts,1,
,xotask,xotask,xotask,6,1,66,666,training,positivefb,96,hard,26,0.5997248999997282,['n'],1,right,['2'],5,0.22525980000000345,,,16,21,Vrouw,Rechts,1,
,xotask,xotask,xotask,7,1,67,667,training,positivefb,89,hard,28,1.2006906000001436,['n'],1,right,['3'],4,0.28919560000031197,,,16,21,Vrouw,Rechts,1,
,xotask,xotask,xotask,8,1,68,668,training,positivefb,99,easy,7,0.5331965000000309,['n'],1,right,['1'],6,0.3211109999997461,,,16,21,Vrouw,Rechts,1,
