starttime,task,fbtask,firsttask,withinblocktrial,block,withintasktrial,trial,running,feedback,fbscore,difflevel,n_xes,rt,resp,cor,cresp,conf_press,cj,RTconf,reddots,post1,post2,post3,post4,post5,stoptime,sub,age,gender,handedness,session,
1715681187,xotask,xotask,xotask,0,0,0,0,training,positivefb,86,easy,71,3.03484699999899,['c'],1,left,['3'],4,0.3339541999994253,,,,,,,,34,18,Man,Rechts,2,
,xotask,xotask,xotask,1,0,1,1,training,positivefb,95,easy,74,1.2674031000005925,['c'],1,left,['1'],6,0.31855090000135533,,,,,,,,34,18,Man,Rechts,2,
,xotask,xotask,xotask,2,0,2,2,training,positivefb,90,average,19,0.8992920000000595,['n'],1,right,['0'],1,0.3654064999991533,,,,,,,,34,18,Man,Rechts,2,
,xotask,xotask,xotask,3,0,3,3,training,positivefb,84,easy,74,0.9666901999989932,['c'],1,left,['1'],6,0.16787730000032752,,,,,,,,34,18,Man,Rechts,2,
,xotask,xotask,xotask,4,0,4,4,training,positivefb,74,hard,28,2.7347917999995843,['c'],0,right,['3'],4,0.3962805999999546,,,,,,,,34,18,Man,Rechts,2,
,xotask,xotask,xotask,5,0,5,5,training,positivefb,65,hard,29,2.567300000000614,['n'],1,right,['3'],4,0.422120500001256,,,,,,,,34,18,Man,Rechts,2,
,xotask,xotask,xotask,6,0,6,6,training,positivefb,76,hard,54,1.0503721000004589,['c'],1,left,['1'],6,0.13962270000047283,,,,,,,,34,18,Man,Rechts,2,
,xotask,xotask,xotask,7,0,7,7,training,positivefb,83,average,17,1.6668352000015147,['n'],1,right,['2'],5,0.16391980000116746,,,,,,,,34,18,Man,Rechts,2,
,xotask,xotask,xotask,8,0,8,8,training,positivefb,92,average,60,0.9013694000004762,['c'],1,left,['1'],6,0.11386719999973138,,,,,,,,34,18,Man,Rechts,2,
,xotask,xotask,xotask,9,0,9,9,training,positivefb,58,hard,29,2.1834822999990138,['c'],0,right,['3'],4,0.17433059999893885,,,,,,,,34,18,Man,Rechts,2,
,xotask,xotask,xotask,10,0,10,10,training,positivefb,92,easy,5,1.0156430999995791,['n'],1,right,['1'],6,0.1664942000006704,,,,,,,,34,18,Man,Rechts,2,
,xotask,xotask,xotask,11,0,11,11,training,positivefb,87,average,19,1.4497876000004908,['n'],1,right,['2'],5,0.23068339999917953,,,,,,,,34,18,Man,Rechts,2,
,xotask,xotask,xotask,12,0,12,12,training,positivefb,85,hard,53,2.86666040000091,['n'],0,left,['2'],5,0.0750819999993837,,,,,,,,34,18,Man,Rechts,2,
,xotask,xotask,xotask,13,0,13,13,training,positivefb,93,average,61,0.8832151999995403,['c'],1,left,['1'],6,0.052510800000163727,,,,,,,,34,18,Man,Rechts,2,
,xotask,xotask,xotask,14,0,14,14,training,positivefb,90,hard,28,1.3997144999993907,['n'],1,right,['3'],4,0.09143529999892053,,,,,,,,34,18,Man,Rechts,2,
,xotask,xotask,xotask,15,0,15,15,training,positivefb,85,average,61,0.9333196999996289,['c'],1,left,['2'],5,0.11486639999930048,,,,,,,,34,18,Man,Rechts,2,
,xotask,xotask,xotask,16,0,16,16,training,positivefb,89,hard,53,0.9659482999995816,['c'],1,left,['2'],5,0.039617700000235345,,,,,,,,34,18,Man,Rechts,2,
,xotask,xotask,xotask,17,0,17,17,training,positivefb,88,average,63,0.7999438999995618,['c'],1,left,['1'],6,0.05430329999944661,,,,,,,,34,18,Man,Rechts,2,
,xotask,xotask,xotask,18,0,18,18,training,positivefb,61,hard,28,3.0340658000004623,['c'],0,right,['3'],4,0.28243449999899894,,,,,,,,34,18,Man,Rechts,2,
,xotask,xotask,xotask,19,0,19,19,training,positivefb,88,hard,51,1.0837721999996575,['c'],1,left,['3'],4,0.08431580000069516,,,,,,,,34,18,Man,Rechts,2,
,xotask,xotask,xotask,20,0,20,20,training,positivefb,85,average,62,0.7837341000013112,['c'],1,left,['1'],6,0.13700500000049942,,,,,,,,34,18,Man,Rechts,2,
,xotask,xotask,xotask,21,0,21,21,training,positivefb,100,easy,70,0.6328331999993679,['c'],1,left,['2'],5,1.7702351000007184,,,,,,,,34,18,Man,Rechts,2,
,xotask,xotask,xotask,22,0,22,22,training,positivefb,90,easy,70,0.8844690000005357,['c'],1,left,['1'],6,0.04036380000070494,,,,,,,,34,18,Man,Rechts,2,
,xotask,xotask,xotask,23,0,23,23,training,positivefb,90,easy,6,1.6669555000007676,['n'],1,right,['2'],5,0.09146669999972801,,,,,,,,34,18,Man,Rechts,2,
,xotask,xotask,xotask,24,0,24,24,training,positivefb,93,average,18,1.083514699999796,['n'],1,right,['2'],5,1.9413276000013866,,,,,,,,34,18,Man,Rechts,2,
,xotask,xotask,xotask,25,0,25,25,training,positivefb,98,easy,72,0.5662040999995952,['c'],1,left,['1'],6,0.4811537000005046,,,,,,,,34,18,Man,Rechts,2,
,xotask,xotask,xotask,26,0,26,26,training,positivefb,74,hard,27,1.3994191000001592,['c'],0,right,['2'],5,0.15846310000051744,,,,,,,,34,18,Man,Rechts,2,
,xotask,xotask,xotask,27,0,27,27,training,positivefb,94,easy,8,0.7835777000000235,['n'],1,right,['1'],6,0.08825630000137608,,,,,,,,34,18,Man,Rechts,2,
,xotask,xotask,xotask,28,0,28,28,training,positivefb,89,hard,27,0.9661856999991869,['n'],1,right,['1'],6,0.06258180000077118,,,,,,,,34,18,Man,Rechts,2,
,xotask,xotask,xotask,29,0,29,29,training,positivefb,99,average,16,0.5994076999995741,['n'],1,right,['1'],6,0.08495109999967099,,,,,,,,34,18,Man,Rechts,2,
,xotask,xotask,xotask,30,0,30,30,training,positivefb,85,hard,52,1.36644349999915,['n'],0,left,['2'],5,0.09909309999966354,,,,,,,,34,18,Man,Rechts,2,
,xotask,xotask,xotask,31,0,31,31,training,positivefb,94,average,64,1.033034600000974,['c'],1,left,['2'],5,0.12586199999896053,,,,,,,,34,18,Man,Rechts,2,
,xotask,xotask,xotask,32,0,32,32,training,positivefb,90,hard,53,0.6335251000000426,['c'],1,left,['1'],6,0.04006870000011986,,,,,,,,34,18,Man,Rechts,2,
,xotask,xotask,xotask,33,0,33,33,training,positivefb,94,average,63,0.6342939999994996,['c'],1,left,['1'],6,0.22066420000010112,,,,,,,,34,18,Man,Rechts,2,
,xotask,xotask,xotask,34,0,34,34,training,positivefb,96,hard,51,0.5668433999999252,['c'],1,left,['1'],6,0.044991499999014195,,,,,,,,34,18,Man,Rechts,2,
,xotask,xotask,xotask,35,0,35,35,training,positivefb,97,hard,50,0.5663334000000759,['c'],1,left,['1'],6,0.05414849999942817,,,,,,,,34,18,Man,Rechts,2,
,xotask,xotask,xotask,36,0,36,36,training,positivefb,97,average,16,1.0669970999988436,['n'],1,right,['2'],5,0.12914989999990212,,,,,,,,34,18,Man,Rechts,2,
,xotask,xotask,xotask,37,0,37,37,training,positivefb,98,easy,6,0.5992409999998927,['n'],1,right,['1'],6,0.06848230000105104,,,,,,,,34,18,Man,Rechts,2,
,xotask,xotask,xotask,38,0,38,38,training,positivefb,91,average,15,0.5847876999996515,['n'],1,right,['1'],6,0.05026429999998072,,,,,,,,34,18,Man,Rechts,2,
,xotask,xotask,xotask,39,0,39,39,training,positivefb,95,easy,8,0.5829870999987179,['n'],1,right,['1'],6,0.057217300000047544,,,,,,,,34,18,Man,Rechts,2,
,xotask,xotask,xotask,40,0,40,40,training,positivefb,98,hard,26,0.4829866000000038,['n'],1,right,['1'],6,0.051415600000837,,,,,,,,34,18,Man,Rechts,2,
,xotask,xotask,xotask,41,0,41,41,training,positivefb,91,easy,70,0.9493585000000166,['c'],1,left,['1'],6,0.012117700000089826,,,,,,,,34,18,Man,Rechts,2,
,xotask,xotask,xotask,42,0,42,42,training,positivefb,93,easy,74,0.5165742999997747,['c'],1,left,['1'],6,0.047333300000900635,,,,,,,,34,18,Man,Rechts,2,
,xotask,xotask,xotask,43,0,43,43,training,positivefb,95,easy,6,0.6170782999997755,['n'],1,right,['1'],6,0.02891749999980675,,,,,,,,34,18,Man,Rechts,2,
,xotask,xotask,xotask,44,0,44,44,training,positivefb,87,average,18,1.5838427999988198,['n'],1,right,['2'],5,0.08491820000017469,,,,,,,,34,18,Man,Rechts,2,
,xotask,xotask,xotask,45,0,45,45,training,positivefb,89,hard,29,0.6333656999995583,['n'],1,right,['1'],6,0.0807848999993439,,,,,,,,34,18,Man,Rechts,2,
,xotask,xotask,xotask,46,0,46,46,training,positivefb,94,easy,73,0.7014717000001838,['c'],1,left,['1'],6,0.04905249999865191,,,,,,,,34,18,Man,Rechts,2,
,xotask,xotask,xotask,47,0,47,47,training,positivefb,95,average,15,0.5842837000000145,['n'],1,right,['1'],6,0.08033499999874039,,,,,,,,34,18,Man,Rechts,2,
,xotask,xotask,xotask,48,0,48,48,training,positivefb,95,easy,8,0.68354779999936,['n'],1,right,['1'],6,0.05885130000024219,,,,,,,,34,18,Man,Rechts,2,
,xotask,xotask,xotask,49,0,49,49,training,positivefb,93,average,64,0.7508679000002303,['c'],1,left,['1'],6,0.010326099998565041,,,,,,,,34,18,Man,Rechts,2,
,xotask,xotask,xotask,50,0,50,50,training,positivefb,89,easy,5,0.5170736999989458,['n'],1,right,['1'],6,0.07068410000101721,,,,,,,,34,18,Man,Rechts,2,
,xotask,xotask,xotask,51,0,51,51,training,positivefb,89,hard,51,1.1682833000013488,['c'],1,left,['2'],5,0.2684692000002542,,,,,,,,34,18,Man,Rechts,2,
,xotask,xotask,xotask,52,0,52,52,training,positivefb,92,average,15,1.2500823000009404,['n'],1,right,['2'],5,0.08023450000109733,,,,,,,,34,18,Man,Rechts,2,
,xotask,xotask,xotask,53,0,53,53,training,positivefb,85,hard,54,1.2336345000003348,['c'],1,left,['2'],5,0.0762391000007483,,,,,,,,34,18,Man,Rechts,2,
,xotask,xotask,xotask,54,0,54,54,training,positivefb,98,easy,71,0.7511018000004697,['c'],1,left,['1'],6,0.11567689999901631,,,,,,,,34,18,Man,Rechts,2,
,xotask,xotask,xotask,55,0,55,55,training,positivefb,97,hard,25,1.2658482000006188,['n'],1,right,['3'],4,0.6203613000016048,,,,,,,,34,18,Man,Rechts,2,
,xotask,xotask,xotask,56,0,56,56,training,positivefb,87,average,61,0.7833568000005471,['c'],1,left,['1'],6,1.2443622999999207,,,,,,,,34,18,Man,Rechts,2,
,xotask,xotask,xotask,57,0,57,57,training,positivefb,97,average,60,0.6666528000005201,['c'],1,left,['1'],6,0.023428799999237526,,,,,,,,34,18,Man,Rechts,2,
,xotask,xotask,xotask,58,0,58,58,training,positivefb,90,easy,8,1.500568999999814,['n'],1,right,['2'],5,0.19568700000127137,,,,,,,,34,18,Man,Rechts,2,
,xotask,xotask,xotask,59,0,59,59,training,positivefb,91,easy,8,1.20114250000006,['n'],1,right,['1'],6,0.05177960000037274,,,,,,,,34,18,Man,Rechts,2,
,xotask,xotask,xotask,0,1,60,60,training,positivefb,87,average,64,0.6171514999987266,['c'],1,left,['1'],6,0.08723819999977422,,,,,,,,34,18,Man,Rechts,2,
,xotask,xotask,xotask,1,1,61,61,training,positivefb,95,average,61,0.650444900000366,['c'],1,left,['1'],6,0.04279740000129095,,,,,,,,34,18,Man,Rechts,2,
,xotask,xotask,xotask,2,1,62,62,training,positivefb,91,easy,8,0.9002999999993335,['n'],1,right,['2'],5,0.10915000000022701,,,,,,,,34,18,Man,Rechts,2,
,xotask,xotask,xotask,3,1,63,63,training,positivefb,94,average,62,0.5669823999996879,['c'],1,left,['1'],6,0.017989400001169997,,,,,,,,34,18,Man,Rechts,2,
,xotask,xotask,xotask,4,1,64,64,training,positivefb,94,average,17,1.5349344999995083,['n'],1,right,['2'],5,0.08332730000074662,,,,,,,,34,18,Man,Rechts,2,
,xotask,xotask,xotask,5,1,65,65,training,positivefb,92,hard,53,0.8000916999990295,['c'],1,left,['1'],6,0.08117920000040613,,,,,,,,34,18,Man,Rechts,2,
,xotask,xotask,xotask,6,1,66,66,training,positivefb,87,hard,25,2.466834299999391,['n'],1,right,['2'],5,0.45951489999970363,,,,,,,,34,18,Man,Rechts,2,
,xotask,xotask,xotask,7,1,67,67,training,positivefb,92,easy,8,0.9994385999998485,['n'],1,right,['1'],6,0.08149539999976696,,,,,,,,34,18,Man,Rechts,2,
,xotask,xotask,xotask,8,1,68,68,training,positivefb,95,average,62,0.7837633999988611,['c'],1,left,['1'],6,0.0631377000008797,,,,,,,,34,18,Man,Rechts,2,
,xotask,xotask,xotask,9,1,69,69,training,positivefb,92,average,17,1.1504967999990185,['n'],1,right,['1'],6,0.07128069999998843,,,,,,,,34,18,Man,Rechts,2,
,xotask,xotask,xotask,10,1,70,70,training,positivefb,95,easy,73,0.5833294000003661,['c'],1,left,['1'],6,0.029411600000457838,,,,,,,,34,18,Man,Rechts,2,
,xotask,xotask,xotask,11,1,71,71,training,positivefb,92,average,17,0.9496722000003501,['n'],1,right,['2'],5,0.07062410000071395,,,,,,,,34,18,Man,Rechts,2,
,xotask,xotask,xotask,12,1,72,72,training,positivefb,92,easy,6,0.9163316000012856,['n'],1,right,['1'],6,0.07090400000015507,,,,,,,,34,18,Man,Rechts,2,
,xotask,xotask,xotask,13,1,73,73,training,positivefb,89,easy,8,1.0998067999989871,['n'],1,right,['1'],6,0.04816509999909613,,,,,,,,34,18,Man,Rechts,2,
,xotask,xotask,xotask,14,1,74,74,training,positivefb,96,easy,70,0.6006446000010328,['c'],1,left,['1'],6,0.053938999999445514,,,,,,,,34,18,Man,Rechts,2,
,xotask,xotask,xotask,15,1,75,75,training,positivefb,96,hard,50,0.7330373000004329,['c'],1,left,['1'],6,0.022811999999248656,,,,,,,,34,18,Man,Rechts,2,
,xotask,xotask,xotask,16,1,76,76,training,positivefb,91,hard,51,1.0005858999993507,['c'],1,left,['1'],6,0.05369810000047437,,,,,,,,34,18,Man,Rechts,2,
,xotask,xotask,xotask,17,1,77,77,training,positivefb,95,average,64,0.5331365999991249,['c'],1,left,['1'],6,0.007121100001313607,,,,,,,,34,18,Man,Rechts,2,
,xotask,xotask,xotask,18,1,78,78,training,positivefb,84,hard,26,1.4826761000003899,['c'],0,right,['2'],5,0.08433019999938551,,,,,,,,34,18,Man,Rechts,2,
,xotask,xotask,xotask,19,1,79,79,training,positivefb,92,hard,54,0.7336756000004243,['c'],1,left,['1'],6,0.09892029999900842,,,,,,,,34,18,Man,Rechts,2,
,xotask,xotask,xotask,20,1,80,80,training,positivefb,93,easy,70,0.7670457000003807,['c'],1,left,['1'],6,0.0006694000003335532,,,,,,,,34,18,Man,Rechts,2,
,xotask,xotask,xotask,21,1,81,81,training,positivefb,93,average,62,0.9339357000008022,['c'],1,left,['1'],6,0.0428713000001153,,,,,,,,34,18,Man,Rechts,2,
,xotask,xotask,xotask,22,1,82,82,training,positivefb,97,easy,7,0.7512677999984589,['n'],1,right,['1'],6,0.10741810000035912,,,,,,,,34,18,Man,Rechts,2,
,xotask,xotask,xotask,23,1,83,83,training,positivefb,9,easy,9,0.6005660999999236,['c'],0,right,['0'],1,1.5202006999988953,,,,,,,,34,18,Man,Rechts,2,
,xotask,xotask,xotask,24,1,84,84,training,positivefb,91,easy,5,4.28260279999995,['c'],0,right,['3'],4,0.24748339999860036,,,,,,,,34,18,Man,Rechts,2,
,xotask,xotask,xotask,25,1,85,85,training,positivefb,88,average,61,1.334034800000154,['c'],1,left,['1'],6,0.056674899999052286,,,,,,,,34,18,Man,Rechts,2,
,xotask,xotask,xotask,26,1,86,86,training,positivefb,100,average,19,1.4166643999997177,['n'],1,right,['2'],5,3.902118599999085,,,,,,,,34,18,Man,Rechts,2,
,xotask,xotask,xotask,27,1,87,87,training,positivefb,96,easy,72,0.8179397000003519,['c'],1,left,['1'],6,0.056300199999895995,,,,,,,,34,18,Man,Rechts,2,
,xotask,xotask,xotask,28,1,88,88,training,positivefb,92,average,16,1.2497755999993387,['n'],1,right,['1'],6,0.09194049999859999,,,,,,,,34,18,Man,Rechts,2,
,xotask,xotask,xotask,29,1,89,89,training,positivefb,86,hard,25,0.7663609000010183,['n'],1,right,['1'],6,0.07385389999944891,,,,,,,,34,18,Man,Rechts,2,
,xotask,xotask,xotask,30,1,90,90,training,positivefb,93,hard,27,0.5506193000001076,['n'],1,right,['1'],6,0.05736380000053032,,,,,,,,34,18,Man,Rechts,2,
,xotask,xotask,xotask,31,1,91,91,training,positivefb,91,easy,9,0.5825821999987966,['n'],1,right,['1'],6,0.039687700000285986,,,,,,,,34,18,Man,Rechts,2,
,xotask,xotask,xotask,32,1,92,92,training,positivefb,88,hard,51,1.334615699999631,['c'],1,left,['1'],6,0.03314209999916784,,,,,,,,34,18,Man,Rechts,2,
,xotask,xotask,xotask,33,1,93,93,training,positivefb,92,average,17,0.7010388999988209,['n'],1,right,['1'],6,0.09148470000036468,,,,,,,,34,18,Man,Rechts,2,
,xotask,xotask,xotask,34,1,94,94,training,positivefb,96,easy,71,0.6671691000010469,['c'],1,left,['1'],6,0.061809400000129244,,,,,,,,34,18,Man,Rechts,2,
,xotask,xotask,xotask,35,1,95,95,training,positivefb,95,easy,71,0.5339815999996063,['c'],1,left,['1'],6,0.01510460000099556,,,,,,,,34,18,Man,Rechts,2,
,xotask,xotask,xotask,36,1,96,96,training,positivefb,95,average,18,0.7510113999996975,['n'],1,right,['1'],6,0.07168920000003709,,,,,,,,34,18,Man,Rechts,2,
,xotask,xotask,xotask,37,1,97,97,training,positivefb,95,easy,73,0.6171006999993551,['c'],1,left,['1'],6,0.02886939999916649,,,,,,,,34,18,Man,Rechts,2,
,xotask,xotask,xotask,38,1,98,98,training,positivefb,95,hard,51,0.782593399999314,['c'],1,left,['1'],6,0.0773191999996925,,,,,,,,34,18,Man,Rechts,2,
,xotask,xotask,xotask,39,1,99,99,training,positivefb,96,easy,6,0.6830980999984604,['n'],1,right,['1'],6,0.11097260000133247,,,,,,,,34,18,Man,Rechts,2,
,xotask,xotask,xotask,40,1,100,100,training,positivefb,71,hard,27,2.5495351999998093,['n'],1,right,['1'],6,0.07709780000004685,,,,,,,,34,18,Man,Rechts,2,
,xotask,xotask,xotask,41,1,101,101,training,positivefb,76,hard,27,2.983231899999737,['c'],0,right,['2'],5,0.15536280000014813,,,,,,,,34,18,Man,Rechts,2,
,xotask,xotask,xotask,42,1,102,102,training,positivefb,92,hard,28,1.4001554999995278,['n'],1,right,['1'],6,0.05261179999979504,,,,,,,,34,18,Man,Rechts,2,
,xotask,xotask,xotask,43,1,103,103,training,positivefb,91,average,62,0.8330483000008826,['c'],1,left,['1'],6,0.01741799999945215,,,,,,,,34,18,Man,Rechts,2,
,xotask,xotask,xotask,44,1,104,104,training,positivefb,82,hard,54,2.6335972000015317,['c'],1,left,['2'],5,0.08797340000091936,,,,,,,,34,18,Man,Rechts,2,
,xotask,xotask,xotask,45,1,105,105,training,positivefb,92,average,16,0.9494983999993565,['n'],1,right,['1'],6,0.07080510000014328,,,,,,,,34,18,Man,Rechts,2,
,xotask,xotask,xotask,46,1,106,106,training,positivefb,95,average,62,0.7665314999994735,['c'],1,left,['1'],6,0.04519299999992654,,,,,,,,34,18,Man,Rechts,2,
,xotask,xotask,xotask,47,1,107,107,training,positivefb,97,average,64,0.7491733000006207,['c'],1,left,['1'],6,0.10134189999916998,,,,,,,,34,18,Man,Rechts,2,
,xotask,xotask,xotask,48,1,108,108,training,positivefb,94,average,16,0.7679035000001022,['n'],1,right,['1'],6,0.07561810000152036,,,,,,,,34,18,Man,Rechts,2,
,xotask,xotask,xotask,49,1,109,109,training,positivefb,91,hard,53,0.6166646000001492,['c'],1,left,['1'],6,0.02324430000044231,,,,,,,,34,18,Man,Rechts,2,
,xotask,xotask,xotask,50,1,110,110,training,positivefb,96,easy,74,0.484056999999666,['c'],1,left,['1'],6,0.05127549999997427,,,,,,,,34,18,Man,Rechts,2,
,xotask,xotask,xotask,51,1,111,111,training,positivefb,94,easy,72,0.6339008999984799,['c'],1,left,['1'],6,0.03265789999932167,,,,,,,,34,18,Man,Rechts,2,
,xotask,xotask,xotask,52,1,112,112,training,positivefb,89,hard,29,2.650206700000126,['n'],1,right,['3'],4,0.10906769999928656,,,,,,,,34,18,Man,Rechts,2,
,xotask,xotask,xotask,53,1,113,113,training,positivefb,81,hard,27,2.0841704000013124,['n'],1,right,['3'],4,0.14162759999999253,,,,,,,,34,18,Man,Rechts,2,
,xotask,xotask,xotask,54,1,114,114,training,positivefb,92,average,17,2.0171126000004733,['c'],0,right,['3'],4,0.2554774999989604,,,,,,,,34,18,Man,Rechts,2,
,xotask,xotask,xotask,55,1,115,115,training,positivefb,86,hard,50,1.3344042999997328,['c'],1,left,['1'],6,0.08072900000115624,,,,,,,,34,18,Man,Rechts,2,
,xotask,xotask,xotask,56,1,116,116,training,positivefb,97,easy,6,0.7664796000008209,['n'],1,right,['1'],6,0.08784469999955036,,,,,,,,34,18,Man,Rechts,2,
,xotask,xotask,xotask,57,1,117,117,training,positivefb,92,easy,73,0.7670911999994132,['c'],1,left,['1'],6,0.02125039999918954,,,,,,,,34,18,Man,Rechts,2,
,xotask,xotask,xotask,58,1,118,118,training,positivefb,86,hard,51,1.5331957999987935,['c'],1,left,['2'],5,0.5433739999989484,,,,,,,,34,18,Man,Rechts,2,
,xotask,xotask,xotask,59,1,119,119,training,positivefb,92,hard,28,0.967089699999633,['n'],1,right,['1'],6,0.051604899999802,,,,,,,,34,18,Man,Rechts,2,
,xotask,xotask,xotask,0,2,120,120,main,positivefb,-99,average,18,2.251577900000484,['c'],0,right,['3'],4,0.4381109000005381,,,,,,,,34,18,Man,Rechts,2,
,xotask,xotask,xotask,1,2,121,121,main,positivefb,-99,average,62,0.784419200001139,['c'],1,left,['1'],6,0.02994310000030964,,,,,,,,34,18,Man,Rechts,2,
,xotask,xotask,xotask,2,2,122,122,main,positivefb,-99,hard,51,0.7002527999993617,['c'],1,left,['1'],6,0.0658808999996836,,,,,,,,34,18,Man,Rechts,2,
,xotask,xotask,xotask,3,2,123,123,main,positivefb,-99,average,60,0.8665942000006908,['c'],1,left,['1'],6,0.05368789999920409,,,,,,,,34,18,Man,Rechts,2,
,xotask,xotask,xotask,4,2,124,124,main,positivefb,-99,hard,52,1.6182381999988138,['c'],1,left,['3'],4,0.09912439999970957,,,,,,,,34,18,Man,Rechts,2,
,xotask,xotask,xotask,5,2,125,125,main,positivefb,-99,average,64,0.7511728999998013,['c'],1,left,['1'],6,0.05066640000040934,,,,,,,,34,18,Man,Rechts,2,
,xotask,xotask,xotask,6,2,126,126,main,positivefb,-99,hard,25,1.549884199999724,['c'],0,right,['3'],4,0.05122709999886865,,,,,,,,34,18,Man,Rechts,2,
,xotask,xotask,xotask,7,2,127,127,main,positivefb,-99,easy,8,0.8498132000004261,['n'],1,right,['1'],6,0.06358980000004522,,,,,,,,34,18,Man,Rechts,2,
,xotask,xotask,xotask,8,2,128,128,main,positivefb,-99,easy,70,0.749974000000293,['c'],1,left,['1'],6,0.03183030000036524,,,,,,,,34,18,Man,Rechts,2,
,xotask,xotask,xotask,9,2,129,129,main,positivefb,-99,easy,72,0.6509705000007671,['c'],1,left,['1'],6,0.0530983999997261,,,,,,,,34,18,Man,Rechts,2,
,xotask,xotask,xotask,10,2,130,130,main,positivefb,-99,average,16,0.7344788999998855,['n'],1,right,['1'],6,0.08690810000007332,,,,,,,,34,18,Man,Rechts,2,
,xotask,xotask,xotask,11,2,131,131,main,positivefb,-99,easy,71,0.5673514999998588,['c'],1,left,['1'],6,0.029368199999225908,,,,,,,,34,18,Man,Rechts,2,
,xotask,xotask,xotask,12,2,132,132,main,positivefb,-99,hard,51,1.2670603999995365,['n'],0,left,['2'],5,0.12280479999935778,,,,,,,,34,18,Man,Rechts,2,
,xotask,xotask,xotask,13,2,133,133,main,positivefb,-99,easy,6,0.9687658000002557,['n'],1,right,['1'],6,0.25624819999939064,,,,,,,,34,18,Man,Rechts,2,
,xotask,xotask,xotask,14,2,134,134,main,positivefb,-99,hard,50,0.6002422000001388,['c'],1,left,['1'],6,0.047256100000595325,,,,,,,,34,18,Man,Rechts,2,
,xotask,xotask,xotask,15,2,135,135,main,positivefb,-99,easy,8,0.6008856999997079,['n'],1,right,['1'],6,0.06261319999975967,,,,,,,,34,18,Man,Rechts,2,
,xotask,xotask,xotask,16,2,136,136,main,positivefb,-99,easy,8,2.234872799999721,['c'],0,right,['8'],3,0.5877225000003818,,,,,,,,34,18,Man,Rechts,2,
,xotask,xotask,xotask,17,2,137,137,main,positivefb,-99,hard,51,5.78582600000118,['c'],1,left,['3'],4,0.6300559999999678,,,,,,,,34,18,Man,Rechts,2,
,xotask,xotask,xotask,18,2,138,138,main,positivefb,-99,hard,25,1.31767679999939,['n'],1,right,['3'],4,0.17731129999992845,,,,,,,,34,18,Man,Rechts,2,
,xotask,xotask,xotask,19,2,139,139,main,positivefb,-99,hard,28,0.9674390999989555,['n'],1,right,['2'],5,0.1325589999996737,,,,,,,,34,18,Man,Rechts,2,
,xotask,xotask,xotask,20,2,140,140,main,positivefb,-99,hard,25,0.7175860000006651,['n'],1,right,['1'],6,0.08313559999987774,,,,,,,,34,18,Man,Rechts,2,
,xotask,xotask,xotask,21,2,141,141,main,positivefb,-99,easy,74,0.8513567999998486,['c'],1,left,['1'],6,0.014172799999869312,,,,,,,,34,18,Man,Rechts,2,
,xotask,xotask,xotask,22,2,142,142,main,positivefb,-99,average,19,1.0342065999993793,['n'],1,right,['1'],6,0.05376150000120106,,,,,,,,34,18,Man,Rechts,2,
,xotask,xotask,xotask,23,2,143,143,main,positivefb,-99,hard,28,2.333061199999065,['n'],1,right,['2'],5,0.2705540999995719,,,,,,,,34,18,Man,Rechts,2,
,xotask,xotask,xotask,24,2,144,144,main,positivefb,-99,easy,73,0.6506554000006872,['c'],1,left,['1'],6,1.0746287999991182,,,,,,,,34,18,Man,Rechts,2,
,xotask,xotask,xotask,25,2,145,145,main,positivefb,-99,average,16,1.1999226000007184,['c'],0,right,['2'],5,0.06417150000015681,,,,,,,,34,18,Man,Rechts,2,
,xotask,xotask,xotask,26,2,146,146,main,positivefb,-99,easy,9,1.3837987999995676,['n'],1,right,['2'],5,0.07927139999992505,,,,,,,,34,18,Man,Rechts,2,
,xotask,xotask,xotask,27,2,147,147,main,positivefb,-99,easy,7,0.917869700000665,['n'],1,right,['1'],6,0.09636399999908463,,,,,,,,34,18,Man,Rechts,2,
,xotask,xotask,xotask,28,2,148,148,main,positivefb,-99,average,63,0.9680446999991545,['c'],1,left,['1'],6,0.00759719999950903,,,,,,,,34,18,Man,Rechts,2,
,xotask,xotask,xotask,29,2,149,149,main,positivefb,-99,hard,27,3.450179699999353,['n'],1,right,['3'],4,0.06936950000090292,,,,,,,,34,18,Man,Rechts,2,
,xotask,xotask,xotask,30,2,150,150,main,positivefb,-99,average,18,2.117454400000497,['c'],0,right,['3'],4,0.3835574999993696,,,,,,,,34,18,Man,Rechts,2,
,xotask,xotask,xotask,31,2,151,151,main,positivefb,-99,hard,28,1.017767899998944,['n'],1,right,['1'],6,0.0562947999987955,,,,,,,,34,18,Man,Rechts,2,
,xotask,xotask,xotask,32,2,152,152,main,positivefb,-99,hard,54,0.9838219000012032,['c'],1,left,['1'],6,0.1513424999993731,,,,,,,,34,18,Man,Rechts,2,
,xotask,xotask,xotask,33,2,153,153,main,positivefb,-99,average,60,0.5003873999994539,['c'],1,left,['1'],6,0.037580399999569636,,,,,,,,34,18,Man,Rechts,2,
,xotask,xotask,xotask,34,2,154,154,main,positivefb,-99,average,18,1.8165163000012399,['c'],0,right,['2'],5,0.10060530000009749,,,,,,,,34,18,Man,Rechts,2,
,xotask,xotask,xotask,35,2,155,155,main,positivefb,-99,hard,27,1.016836599999806,['n'],1,right,['2'],5,0.056447599999955855,,,,,,,,34,18,Man,Rechts,2,
,xotask,xotask,xotask,36,2,156,156,main,positivefb,-99,average,19,0.8836834000012459,['n'],1,right,['2'],5,0.04407759999958216,,,,,,,,34,18,Man,Rechts,2,
,xotask,xotask,xotask,37,2,157,157,main,positivefb,-99,hard,50,1.615832399998908,['c'],1,left,['2'],5,0.0587811999994301,,,,,,,,34,18,Man,Rechts,2,
,xotask,xotask,xotask,38,2,158,158,main,positivefb,-99,easy,72,0.8009189999993396,['c'],1,left,['1'],6,0.017423899998902925,,,,,,,,34,18,Man,Rechts,2,
,xotask,xotask,xotask,39,2,159,159,main,positivefb,-99,hard,51,0.6834424000007857,['c'],1,left,['1'],6,0.0063176000003295485,,,,,,,,34,18,Man,Rechts,2,
,xotask,xotask,xotask,40,2,160,160,main,positivefb,-99,easy,7,1.0322550000000774,['n'],1,right,['1'],6,0.06944599999951606,,,,,,,,34,18,Man,Rechts,2,
,xotask,xotask,xotask,41,2,161,161,main,positivefb,-99,hard,28,1.3340140000000247,['n'],1,right,['2'],5,0.09377900000072259,,,,,,,,34,18,Man,Rechts,2,
,xotask,xotask,xotask,42,2,162,162,main,positivefb,-99,easy,5,0.8015212999998766,['n'],1,right,['1'],6,0.05171450000125333,,,,,,,,34,18,Man,Rechts,2,
,xotask,xotask,xotask,43,2,163,163,main,positivefb,-99,average,64,0.8679773999992904,['c'],1,left,['1'],6,0.03913710000051651,,,,,,,,34,18,Man,Rechts,2,
,xotask,xotask,xotask,44,2,164,164,main,positivefb,-99,easy,72,0.6670292999988305,['c'],1,left,['1'],6,0.06774919999952544,,,,,,,,34,18,Man,Rechts,2,
,xotask,xotask,xotask,45,2,165,165,main,positivefb,-99,average,60,0.5675971999989997,['c'],1,left,['1'],6,0.067370500000834,,,,,,,,34,18,Man,Rechts,2,
,xotask,xotask,xotask,46,2,166,166,main,positivefb,-99,easy,73,0.635095800000272,['c'],1,left,['1'],6,0.11977499999920838,,,,,,,,34,18,Man,Rechts,2,
,xotask,xotask,xotask,47,2,167,167,main,positivefb,-99,hard,28,2.0675444999997126,['n'],1,right,['2'],5,0.1214178999998694,,,,,,,,34,18,Man,Rechts,2,
,xotask,xotask,xotask,48,2,168,168,main,positivefb,-99,easy,6,0.8007053999990603,['n'],1,right,['1'],6,0.06948129999909725,,,,,,,,34,18,Man,Rechts,2,
,xotask,xotask,xotask,49,2,169,169,main,positivefb,-99,average,62,0.7676535999999032,['c'],1,left,['1'],6,0.05286499999965599,,,,,,,,34,18,Man,Rechts,2,
,xotask,xotask,xotask,50,2,170,170,main,positivefb,-99,hard,51,0.5513880999988032,['c'],1,left,['1'],6,0.08583249999901454,,,,,,,,34,18,Man,Rechts,2,
,xotask,xotask,xotask,51,2,171,171,main,positivefb,-99,average,15,0.7678414000001794,['n'],1,right,['1'],6,0.0923490999994101,,,,,,,,34,18,Man,Rechts,2,
,xotask,xotask,xotask,52,2,172,172,main,positivefb,-99,average,60,1.4518488999983674,['c'],1,left,['2'],5,0.0715211000006093,,,,,,,,34,18,Man,Rechts,2,
,xotask,xotask,xotask,53,2,173,173,main,positivefb,-99,average,64,0.9172770000004675,['c'],1,left,['1'],6,0.04110260000015842,,,,,,,,34,18,Man,Rechts,2,
,xotask,xotask,xotask,54,2,174,174,main,positivefb,-99,average,16,1.0511247999984334,['n'],1,right,['1'],6,0.0782443999996758,,,,,,,,34,18,Man,Rechts,2,
,xotask,xotask,xotask,55,2,175,175,main,positivefb,-99,easy,9,0.8842965999992884,['n'],1,right,['1'],6,0.08871850000105042,,,,,,,,34,18,Man,Rechts,2,
,xotask,xotask,xotask,56,2,176,176,main,positivefb,-99,easy,74,0.7992290000001958,['c'],1,left,['1'],6,0.05370260000017879,,,,,,,,34,18,Man,Rechts,2,
,xotask,xotask,xotask,57,2,177,177,main,positivefb,-99,hard,54,1.2684282999998686,['c'],1,left,['1'],6,0.08173320000059903,,,,,,,,34,18,Man,Rechts,2,
,xotask,xotask,xotask,58,2,178,178,main,positivefb,-99,easy,70,0.7346954000004189,['c'],1,left,['1'],6,0.06585880000056932,,,,,,,,34,18,Man,Rechts,2,
,xotask,xotask,xotask,59,2,179,179,main,positivefb,-99,average,16,0.6174491999991005,['n'],1,right,['1'],6,0.09570970000095258,,,,,,,,34,18,Man,Rechts,2,
,xotask,xotask,xotask,0,3,180,180,main,positivefb,-99,average,61,0.9997929000001022,['c'],1,left,['1'],6,0.016582500000367872,,,,,,,,34,18,Man,Rechts,2,
,xotask,xotask,xotask,1,3,181,181,main,positivefb,-99,hard,51,0.8162479999991774,['c'],1,left,['1'],6,0.04785070000070846,,,,,,,,34,18,Man,Rechts,2,
,xotask,xotask,xotask,2,3,182,182,main,positivefb,-99,hard,50,0.7168780000010884,['c'],1,left,['1'],6,0.034423299999616574,,,,,,,,34,18,Man,Rechts,2,
,xotask,xotask,xotask,3,3,183,183,main,positivefb,-99,average,17,0.650655999999799,['n'],1,right,['1'],6,0.07139629999983299,,,,,,,,34,18,Man,Rechts,2,
,xotask,xotask,xotask,4,3,184,184,main,positivefb,-99,average,18,0.6672787999996217,['n'],1,right,['1'],6,0.0830097999987629,,,,,,,,34,18,Man,Rechts,2,
,xotask,xotask,xotask,5,3,185,185,main,positivefb,-99,average,16,0.533900000000358,['n'],1,right,['1'],6,0.08306239999910758,,,,,,,,34,18,Man,Rechts,2,
,xotask,xotask,xotask,6,3,186,186,main,positivefb,-99,average,63,0.7848367000005965,['c'],1,left,['1'],6,0.057461500000499655,,,,,,,,34,18,Man,Rechts,2,
,xotask,xotask,xotask,7,3,187,187,main,positivefb,-99,average,15,0.6678902000003291,['n'],1,right,['1'],6,0.06894570000076783,,,,,,,,34,18,Man,Rechts,2,
,xotask,xotask,xotask,8,3,188,188,main,positivefb,-99,average,60,0.7502597999991849,['c'],1,left,['1'],6,0.08471340000141936,,,,,,,,34,18,Man,Rechts,2,
,xotask,xotask,xotask,9,3,189,189,main,positivefb,-99,average,17,1.6014037000004464,['n'],1,right,['2'],5,0.1064368999996077,,,,,,,,34,18,Man,Rechts,2,
,xotask,xotask,xotask,10,3,190,190,main,positivefb,-99,hard,28,1.034043899999233,['n'],1,right,['2'],5,0.08554189999995288,,,,,,,,34,18,Man,Rechts,2,
,xotask,xotask,xotask,11,3,191,191,main,positivefb,-99,hard,25,1.9511536000009073,['n'],1,right,['3'],4,0.08561290000034205,,,,,,,,34,18,Man,Rechts,2,
,xotask,xotask,xotask,12,3,192,192,main,positivefb,-99,hard,28,3.384022400001413,['c'],0,right,['3'],4,0.23539479999999458,,,,,,,,34,18,Man,Rechts,2,
,xotask,xotask,xotask,13,3,193,193,main,positivefb,-99,easy,72,1.2676848999999493,['c'],1,left,['1'],6,0.9280404000000999,,,,,,,,34,18,Man,Rechts,2,
,xotask,xotask,xotask,14,3,194,194,main,positivefb,-99,average,61,0.7848801999989519,['c'],1,left,['1'],6,0.07661469999948167,,,,,,,,34,18,Man,Rechts,2,
,xotask,xotask,xotask,15,3,195,195,main,positivefb,-99,hard,50,1.4839523999999074,['c'],1,left,['2'],5,0.07933460000094783,,,,,,,,34,18,Man,Rechts,2,
,xotask,xotask,xotask,16,3,196,196,main,positivefb,-99,average,17,1.634365500000058,['n'],1,right,['2'],5,0.10028179999972053,,,,,,,,34,18,Man,Rechts,2,
,xotask,xotask,xotask,17,3,197,197,main,positivefb,-99,hard,54,0.8337083000005805,['c'],1,left,['1'],6,0.1591817999997147,,,,,,,,34,18,Man,Rechts,2,
,xotask,xotask,xotask,18,3,198,198,main,positivefb,-99,average,64,0.9675311999999394,['c'],1,left,['1'],6,0.06737040000007255,,,,,,,,34,18,Man,Rechts,2,
,xotask,xotask,xotask,19,3,199,199,main,positivefb,-99,easy,9,0.7011937999996007,['n'],1,right,['1'],6,0.10989130000052683,,,,,,,,34,18,Man,Rechts,2,
,xotask,xotask,xotask,20,3,200,200,main,positivefb,-99,hard,52,0.6016699000010703,['c'],1,left,['1'],6,0.08160119999956805,,,,,,,,34,18,Man,Rechts,2,
,xotask,xotask,xotask,21,3,201,201,main,positivefb,-99,easy,5,0.7513959999996587,['n'],1,right,['1'],6,0.12944249999964086,,,,,,,,34,18,Man,Rechts,2,
,xotask,xotask,xotask,22,3,202,202,main,positivefb,-99,hard,51,6.284854900000937,['n'],0,left,['3'],4,0.14620629999990342,,,,,,,,34,18,Man,Rechts,2,
,xotask,xotask,xotask,23,3,203,203,main,positivefb,-99,average,19,1.0342743000001065,['n'],1,right,['1'],6,0.06746670000029553,,,,,,,,34,18,Man,Rechts,2,
,xotask,xotask,xotask,24,3,204,204,main,positivefb,-99,easy,9,0.6175011999985145,['n'],1,right,['1'],6,0.08973420000074839,,,,,,,,34,18,Man,Rechts,2,
,xotask,xotask,xotask,25,3,205,205,main,positivefb,-99,average,61,0.7339333999989321,['c'],1,left,['1'],6,0.033242499999687425,,,,,,,,34,18,Man,Rechts,2,
,xotask,xotask,xotask,26,3,206,206,main,positivefb,-99,hard,28,0.5840267999992648,['n'],1,right,['1'],6,0.05729120000069088,,,,,,,,34,18,Man,Rechts,2,
,xotask,xotask,xotask,27,3,207,207,main,positivefb,-99,hard,28,3.3344670000005863,['c'],0,right,['1'],6,0.10692400000152702,,,,,,,,34,18,Man,Rechts,2,
,xotask,xotask,xotask,28,3,208,208,main,positivefb,-99,easy,7,1.0179062000006525,['n'],1,right,['1'],6,0.07111649999933434,,,,,,,,34,18,Man,Rechts,2,
,xotask,xotask,xotask,29,3,209,209,main,positivefb,-99,easy,71,0.6512336999985564,['c'],1,left,['1'],6,0.026417600000058883,,,,,,,,34,18,Man,Rechts,2,
,xotask,xotask,xotask,30,3,210,210,main,positivefb,-99,easy,5,1.0509098000002268,['n'],1,right,['1'],6,0.0812835000015184,,,,,,,,34,18,Man,Rechts,2,
,xotask,xotask,xotask,31,3,211,211,main,positivefb,-99,average,63,1.0663509999994858,['c'],1,left,['1'],6,0.03555659999983618,,,,,,,,34,18,Man,Rechts,2,
,xotask,xotask,xotask,32,3,212,212,main,positivefb,-99,hard,51,2.00091059999977,['c'],1,left,['1'],6,0.09096960000169929,,,,,,,,34,18,Man,Rechts,2,
,xotask,xotask,xotask,33,3,213,213,main,positivefb,-99,average,64,0.7513933999998699,['c'],1,left,['1'],6,0.10608179999871936,,,,,,,,34,18,Man,Rechts,2,
,xotask,xotask,xotask,34,3,214,214,main,positivefb,-99,easy,7,0.6019381000005524,['n'],1,right,['1'],6,0.04686209999999846,,,,,,,,34,18,Man,Rechts,2,
,xotask,xotask,xotask,35,3,215,215,main,positivefb,-99,hard,27,1.3335127999998804,['n'],1,right,['1'],6,0.08866219999981695,,,,,,,,34,18,Man,Rechts,2,
,xotask,xotask,xotask,36,3,216,216,main,positivefb,-99,hard,28,7.383502399999998,['c'],0,right,['2'],5,0.12725230000069132,,,,,,,,34,18,Man,Rechts,2,
,xotask,xotask,xotask,37,3,217,217,main,positivefb,-99,average,61,1.734538500000781,['c'],1,left,['3'],4,0.11767279999912716,,,,,,,,34,18,Man,Rechts,2,
,xotask,xotask,xotask,38,3,218,218,main,positivefb,-99,easy,71,0.7344814999996743,['c'],1,left,['1'],6,0.6684188999988692,,,,,,,,34,18,Man,Rechts,2,
,xotask,xotask,xotask,39,3,219,219,main,positivefb,-99,easy,9,0.7670780000007653,['n'],1,right,['1'],6,0.07601179999983287,,,,,,,,34,18,Man,Rechts,2,
,xotask,xotask,xotask,40,3,220,220,main,positivefb,-99,easy,5,0.4513817000006384,['n'],1,right,['1'],6,0.06318980000105512,,,,,,,,34,18,Man,Rechts,2,
,xotask,xotask,xotask,41,3,221,221,main,positivefb,-99,easy,6,0.5672259999992093,['n'],1,right,['1'],6,0.07949920000100974,,,,,,,,34,18,Man,Rechts,2,
,xotask,xotask,xotask,42,3,222,222,main,positivefb,-99,easy,70,0.6339946999996755,['c'],1,left,['1'],6,0.02819439999984752,,,,,,,,34,18,Man,Rechts,2,
,xotask,xotask,xotask,43,3,223,223,main,positivefb,-99,easy,74,0.7835190000005241,['c'],1,left,['1'],6,0.7965909000013198,,,,,,,,34,18,Man,Rechts,2,
,xotask,xotask,xotask,44,3,224,224,main,positivefb,-99,average,19,1.0177358999990247,['n'],1,right,['1'],6,0.085960200000045,,,,,,,,34,18,Man,Rechts,2,
,xotask,xotask,xotask,45,3,225,225,main,positivefb,-99,hard,27,0.7171902999998565,['n'],1,right,['1'],6,0.08598200000051293,,,,,,,,34,18,Man,Rechts,2,
,xotask,xotask,xotask,46,3,226,226,main,positivefb,-99,average,19,0.6687130999998772,['n'],1,right,['1'],6,0.06544279999980063,,,,,,,,34,18,Man,Rechts,2,
,xotask,xotask,xotask,47,3,227,227,main,positivefb,-99,easy,6,0.46651380000002973,['n'],1,right,['1'],6,0.07632089999970049,,,,,,,,34,18,Man,Rechts,2,
,xotask,xotask,xotask,48,3,228,228,main,positivefb,-99,easy,72,0.6684770000010758,['c'],1,left,['1'],6,0.03893160000006901,,,,,,,,34,18,Man,Rechts,2,
,xotask,xotask,xotask,49,3,229,229,main,positivefb,-99,easy,73,0.8341739999996207,['c'],1,left,['1'],6,0.12569090000033611,,,,,,,,34,18,Man,Rechts,2,
,xotask,xotask,xotask,50,3,230,230,main,positivefb,-99,average,62,0.4841967999982444,['c'],1,left,['1'],6,0.054067099999883794,,,,,,,,34,18,Man,Rechts,2,
,xotask,xotask,xotask,51,3,231,231,main,positivefb,-99,hard,50,0.5515142999993259,['c'],1,left,['1'],6,0.06273959999998624,,,,,,,,34,18,Man,Rechts,2,
,xotask,xotask,xotask,52,3,232,232,main,positivefb,-99,easy,73,0.7854566000005434,['c'],1,left,['1'],6,0.07912949999990815,,,,,,,,34,18,Man,Rechts,2,
,xotask,xotask,xotask,53,3,233,233,main,positivefb,-99,hard,53,0.5507889000000432,['c'],1,left,['1'],6,0.06294720000005327,,,,,,,,34,18,Man,Rechts,2,
,xotask,xotask,xotask,54,3,234,234,main,positivefb,-99,average,19,0.7850041999990935,['n'],1,right,['1'],6,0.11720009999953618,,,,,,,,34,18,Man,Rechts,2,
,xotask,xotask,xotask,55,3,235,235,main,positivefb,-99,hard,29,0.6994787999992695,['n'],1,right,['1'],6,0.09416940000119212,,,,,,,,34,18,Man,Rechts,2,
,xotask,xotask,xotask,56,3,236,236,main,positivefb,-99,hard,27,1.3999230999997962,['c'],0,right,['3'],4,0.6192796000013914,,,,,,,,34,18,Man,Rechts,2,
,xotask,xotask,xotask,57,3,237,237,main,positivefb,-99,hard,53,1.0846166999999696,['c'],1,left,['2'],5,0.0960453999996389,,,,,,,,34,18,Man,Rechts,2,
,xotask,xotask,xotask,58,3,238,238,main,positivefb,-99,easy,74,0.6840016999994987,['c'],1,left,['1'],6,0.001922999999806052,,,,,,,,34,18,Man,Rechts,2,
,xotask,xotask,xotask,59,3,239,239,main,positivefb,-99,easy,74,0.499448399999892,['c'],1,left,['1'],6,0.08603380000022298,,,,,,,,34,18,Man,Rechts,2,
,xotask,xotask,xotask,0,4,240,240,main,positivefb,-99,average,64,1.3011609000004682,['c'],1,left,['2'],5,0.29465349999918544,,,,,,,,34,18,Man,Rechts,2,
,xotask,xotask,xotask,1,4,241,241,main,positivefb,-99,easy,74,0.5673497999996471,['c'],1,left,['1'],6,0.053031499999633525,,,,,,,,34,18,Man,Rechts,2,
,xotask,xotask,xotask,2,4,242,242,main,positivefb,-99,easy,6,0.7335460000012972,['n'],1,right,['1'],6,0.08635390000017651,,,,,,,,34,18,Man,Rechts,2,
,xotask,xotask,xotask,3,4,243,243,main,positivefb,-99,easy,8,0.734379399998943,['n'],1,right,['1'],6,0.17424539999956323,,,,,,,,34,18,Man,Rechts,2,
,xotask,xotask,xotask,4,4,244,244,main,positivefb,-99,easy,7,0.7003175999998348,['n'],1,right,['1'],6,0.22894210000049497,,,,,,,,34,18,Man,Rechts,2,
,xotask,xotask,xotask,5,4,245,245,main,positivefb,-99,average,19,0.5679789999994682,['n'],1,right,['1'],6,0.08595840000089083,,,,,,,,34,18,Man,Rechts,2,
,xotask,xotask,xotask,6,4,246,246,main,positivefb,-99,hard,29,1.034415899999658,['n'],1,right,['1'],6,0.07390630000008969,,,,,,,,34,18,Man,Rechts,2,
,xotask,xotask,xotask,7,4,247,247,main,positivefb,-99,average,19,1.7179998999999953,['n'],1,right,['2'],5,0.08364690000053088,,,,,,,,34,18,Man,Rechts,2,
,xotask,xotask,xotask,8,4,248,248,main,positivefb,-99,average,62,1.3347090999995999,['c'],1,left,['2'],5,0.187697900000785,,,,,,,,34,18,Man,Rechts,2,
,xotask,xotask,xotask,9,4,249,249,main,positivefb,-99,average,15,0.9834301000009873,['n'],1,right,['2'],5,0.16487960000085877,,,,,,,,34,18,Man,Rechts,2,
,xotask,xotask,xotask,10,4,250,250,main,positivefb,-99,average,62,0.7005151999983354,['c'],1,left,['1'],6,0.09132250000038766,,,,,,,,34,18,Man,Rechts,2,
,xotask,xotask,xotask,11,4,251,251,main,positivefb,-99,hard,52,0.7005385000011302,['c'],1,left,['1'],6,0.060703600000124425,,,,,,,,34,18,Man,Rechts,2,
,xotask,xotask,xotask,12,4,252,252,main,positivefb,-99,easy,70,0.6509400000013557,['c'],1,left,['1'],6,0.12150020000080985,,,,,,,,34,18,Man,Rechts,2,
,xotask,xotask,xotask,13,4,253,253,main,positivefb,-99,average,63,0.5331917999992584,['c'],1,left,['1'],6,0.07950590000109514,,,,,,,,34,18,Man,Rechts,2,
,xotask,xotask,xotask,14,4,254,254,main,positivefb,-99,average,60,0.5335559000013745,['c'],1,left,['1'],6,0.0802748000005522,,,,,,,,34,18,Man,Rechts,2,
,xotask,xotask,xotask,15,4,255,255,main,positivefb,-99,easy,6,0.6339561000004323,['n'],1,right,['1'],6,0.10128860000077111,,,,,,,,34,18,Man,Rechts,2,
,xotask,xotask,xotask,16,4,256,256,main,positivefb,-99,easy,6,0.46781620000001567,['n'],1,right,['1'],6,0.07133779999821854,,,,,,,,34,18,Man,Rechts,2,
,xotask,xotask,xotask,17,4,257,257,main,positivefb,-99,easy,71,0.6006760000000213,['c'],1,left,['1'],6,0.021316700000170385,,,,,,,,34,18,Man,Rechts,2,
,xotask,xotask,xotask,18,4,258,258,main,positivefb,-99,hard,52,0.950137600000744,['c'],1,left,['1'],6,0.05595829999947455,,,,,,,,34,18,Man,Rechts,2,
,xotask,xotask,xotask,19,4,259,259,main,positivefb,-99,hard,50,0.5177407000010135,['c'],1,left,['1'],6,0.10573260000091977,,,,,,,,34,18,Man,Rechts,2,
,xotask,xotask,xotask,20,4,260,260,main,positivefb,-99,average,60,0.6004467999991903,['c'],1,left,['1'],6,0.022216700001081335,,,,,,,,34,18,Man,Rechts,2,
,xotask,xotask,xotask,21,4,261,261,main,positivefb,-99,easy,6,0.6167238999987603,['n'],1,right,['1'],6,0.10901769999873068,,,,,,,,34,18,Man,Rechts,2,
,xotask,xotask,xotask,22,4,262,262,main,positivefb,-99,hard,52,1.0843165000005683,['c'],1,left,['1'],6,0.03128079999987676,,,,,,,,34,18,Man,Rechts,2,
,xotask,xotask,xotask,23,4,263,263,main,positivefb,-99,average,18,1.8503982999991422,['n'],1,right,['3'],4,0.07573389999924984,,,,,,,,34,18,Man,Rechts,2,
,xotask,xotask,xotask,24,4,264,264,main,positivefb,-99,easy,70,0.9507943000007799,['c'],1,left,['1'],6,0.012555999999676715,,,,,,,,34,18,Man,Rechts,2,
,xotask,xotask,xotask,25,4,265,265,main,positivefb,-99,easy,72,0.5159024999993562,['c'],1,left,['1'],6,0.03984570000102394,,,,,,,,34,18,Man,Rechts,2,
,xotask,xotask,xotask,26,4,266,266,main,positivefb,-99,hard,51,0.8175594999993336,['c'],1,left,['1'],6,0.1269097000003967,,,,,,,,34,18,Man,Rechts,2,
,xotask,xotask,xotask,27,4,267,267,main,positivefb,-99,average,60,4.716781200000696,['n'],0,left,['8'],3,0.1499805000003107,,,,,,,,34,18,Man,Rechts,2,
,xotask,xotask,xotask,28,4,268,268,main,positivefb,-99,hard,28,1.7014368000000104,['c'],0,right,['2'],5,0.10124540000106208,,,,,,,,34,18,Man,Rechts,2,
,xotask,xotask,xotask,29,4,269,269,main,positivefb,-99,easy,6,1.4020586000006006,['c'],0,right,['3'],4,0.08157990000108839,,,,,,,,34,18,Man,Rechts,2,
,xotask,xotask,xotask,30,4,270,270,main,positivefb,-99,easy,74,0.8002687999996851,['c'],1,left,['1'],6,0.03909459999886167,,,,,,,,34,18,Man,Rechts,2,
,xotask,xotask,xotask,31,4,271,271,main,positivefb,-99,average,61,0.6162535999992542,['c'],1,left,['1'],6,0.037527099999351776,,,,,,,,34,18,Man,Rechts,2,
,xotask,xotask,xotask,32,4,272,272,main,positivefb,-99,easy,6,0.6005497000005562,['n'],1,right,['1'],6,0.09326709999913874,,,,,,,,34,18,Man,Rechts,2,
,xotask,xotask,xotask,33,4,273,273,main,positivefb,-99,hard,28,0.634761500001332,['n'],1,right,['1'],6,0.08044169999993755,,,,,,,,34,18,Man,Rechts,2,
,xotask,xotask,xotask,34,4,274,274,main,positivefb,-99,easy,8,0.5841891000000032,['n'],1,right,['1'],6,0.1117154000003211,,,,,,,,34,18,Man,Rechts,2,
,xotask,xotask,xotask,35,4,275,275,main,positivefb,-99,hard,54,1.0510991999999533,['c'],1,left,['2'],5,0.10581839999940712,,,,,,,,34,18,Man,Rechts,2,
,xotask,xotask,xotask,36,4,276,276,main,positivefb,-99,average,62,0.8346863999995549,['c'],1,left,['1'],6,0.030065900000408874,,,,,,,,34,18,Man,Rechts,2,
,xotask,xotask,xotask,37,4,277,277,main,positivefb,-99,average,17,1.0004979999994248,['n'],1,right,['2'],5,0.5574833000009676,,,,,,,,34,18,Man,Rechts,2,
,xotask,xotask,xotask,38,4,278,278,main,positivefb,-99,hard,28,1.050788399999874,['c'],0,right,['2'],5,0.26193380000040634,,,,,,,,34,18,Man,Rechts,2,
,xotask,xotask,xotask,39,4,279,279,main,positivefb,-99,hard,26,2.05116149999958,['c'],0,right,['3'],4,0.07501680000132183,,,,,,,,34,18,Man,Rechts,2,
,xotask,xotask,xotask,40,4,280,280,main,positivefb,-99,average,15,1.0507373999989795,['n'],1,right,['2'],5,0.07110599999941769,,,,,,,,34,18,Man,Rechts,2,
,xotask,xotask,xotask,41,4,281,281,main,positivefb,-99,hard,53,1.7342797000001156,['c'],1,left,['3'],4,0.24763070000153675,,,,,,,,34,18,Man,Rechts,2,
,xotask,xotask,xotask,42,4,282,282,main,positivefb,-99,easy,7,0.9342230999991443,['n'],1,right,['2'],5,0.3210815000002185,,,,,,,,34,18,Man,Rechts,2,
,xotask,xotask,xotask,43,4,283,283,main,positivefb,-99,easy,73,0.6505734000002121,['c'],1,left,['1'],6,0.07513170000129321,,,,,,,,34,18,Man,Rechts,2,
,xotask,xotask,xotask,44,4,284,284,main,positivefb,-99,easy,74,0.6172903999995469,['c'],1,left,['1'],6,0.0480478999998013,,,,,,,,34,18,Man,Rechts,2,
,xotask,xotask,xotask,45,4,285,285,main,positivefb,-99,hard,50,0.43343300000015006,['c'],1,left,['1'],6,0.06120809999993071,,,,,,,,34,18,Man,Rechts,2,
,xotask,xotask,xotask,46,4,286,286,main,positivefb,-99,hard,27,1.4513038999994023,['n'],1,right,['2'],5,0.08218339999984892,,,,,,,,34,18,Man,Rechts,2,
,xotask,xotask,xotask,47,4,287,287,main,positivefb,-99,hard,52,1.5346346999995149,['n'],0,left,['8'],3,0.9545068999996147,,,,,,,,34,18,Man,Rechts,2,
,xotask,xotask,xotask,48,4,288,288,main,positivefb,-99,easy,72,1.8509733999999298,['c'],1,left,['2'],5,0.11500730000079784,,,,,,,,34,18,Man,Rechts,2,
,xotask,xotask,xotask,49,4,289,289,main,positivefb,-99,hard,27,1.3331600000001345,['c'],0,right,['2'],5,0.2899901000000682,,,,,,,,34,18,Man,Rechts,2,
,xotask,xotask,xotask,50,4,290,290,main,positivefb,-99,easy,72,0.6671927999996115,['c'],1,left,['1'],6,1.196940199999517,,,,,,,,34,18,Man,Rechts,2,
,xotask,xotask,xotask,51,4,291,291,main,positivefb,-99,hard,29,0.6836329999987356,['c'],0,right,['1'],6,0.05045520000021497,,,,,,,,34,18,Man,Rechts,2,
,xotask,xotask,xotask,52,4,292,292,main,positivefb,-99,hard,53,0.6015367999989394,['c'],1,left,['1'],6,0.04123110000000452,,,,,,,,34,18,Man,Rechts,2,
,xotask,xotask,xotask,53,4,293,293,main,positivefb,-99,average,19,0.5840346999993926,['c'],0,right,['1'],6,0.03308929999911925,,,,,,,,34,18,Man,Rechts,2,
,xotask,xotask,xotask,54,4,294,294,main,positivefb,-99,average,63,0.6006370000013703,['c'],1,left,['1'],6,0.05659170000035374,,,,,,,,34,18,Man,Rechts,2,
,xotask,xotask,xotask,55,4,295,295,main,positivefb,-99,hard,28,1.1185569999997824,['c'],0,right,['1'],6,0.04226750000088941,,,,,,,,34,18,Man,Rechts,2,
,xotask,xotask,xotask,56,4,296,296,main,positivefb,-99,average,15,1.4847205000005488,['n'],1,right,['2'],5,0.07859169999937876,,,,,,,,34,18,Man,Rechts,2,
,xotask,xotask,xotask,57,4,297,297,main,positivefb,-99,hard,29,1.9678564999994705,['n'],1,right,['2'],5,0.24578509999992093,,,,,,,,34,18,Man,Rechts,2,
,xotask,xotask,xotask,58,4,298,298,main,positivefb,-99,average,15,2.000145400001202,['c'],0,right,['2'],5,0.0774701999998797,,,,,,,,34,18,Man,Rechts,2,
,xotask,xotask,xotask,59,4,299,299,main,positivefb,-99,average,17,2.650371300000188,['c'],0,right,['2'],5,0.3535085000003164,,,,,,,,34,18,Man,Rechts,2,
,xotask,xotask,xotask,0,0,0,300,training,positivefb,81,average,15,1.3842396000000008,['n'],1,right,['2'],5,0.09616690000075323,,,,,,,,34,18,Man,Rechts,2,
,xotask,xotask,xotask,1,0,1,301,training,positivefb,95,easy,6,0.7828804000000673,['n'],1,right,['2'],5,0.1417276000011043,,,,,,,,34,18,Man,Rechts,2,
,xotask,xotask,xotask,2,0,2,302,training,positivefb,91,hard,29,1.0999002999997174,['n'],1,right,['2'],5,0.07662159999927098,,,,,,,,34,18,Man,Rechts,2,
,xotask,xotask,xotask,3,0,3,303,training,positivefb,94,hard,28,0.8834229999993113,['n'],1,right,['1'],6,0.05419369999981427,,,,,,,,34,18,Man,Rechts,2,
,xotask,xotask,xotask,4,0,4,304,training,positivefb,74,hard,53,1.8995140999995783,['c'],1,left,['2'],5,0.0718308999985311,,,,,,,,34,18,Man,Rechts,2,
,xotask,xotask,xotask,5,0,5,305,training,positivefb,97,average,15,0.6002498000016203,['n'],1,right,['1'],6,0.07754539999950794,,,,,,,,34,18,Man,Rechts,2,
,xotask,xotask,xotask,6,0,6,306,training,positivefb,92,average,17,0.5840807999993558,['n'],1,right,['1'],6,0.09184210000057647,,,,,,,,34,18,Man,Rechts,2,
,xotask,xotask,xotask,7,0,7,307,training,positivefb,64,hard,52,1.4659157999994932,['c'],1,left,['2'],5,0.09337199999936274,,,,,,,,34,18,Man,Rechts,2,
,xotask,xotask,xotask,8,0,8,308,training,positivefb,80,hard,29,2.234015999998519,['n'],1,right,['2'],5,0.08104089999869757,,,,,,,,34,18,Man,Rechts,2,
,xotask,xotask,xotask,9,0,9,309,training,positivefb,71,average,15,1.216825899999094,['c'],0,right,['1'],6,0.10907549999865296,,,,,,,,34,18,Man,Rechts,2,
,xotask,xotask,xotask,10,0,10,310,training,positivefb,86,hard,51,0.8824454999994487,['c'],1,left,['1'],6,0.022306200000457466,,,,,,,,34,18,Man,Rechts,2,
,xotask,xotask,xotask,11,0,11,311,training,positivefb,83,easy,6,2.5684681000002456,['n'],1,right,['1'],6,0.061932599999636295,,,,,,,,34,18,Man,Rechts,2,
,xotask,xotask,xotask,12,0,12,312,training,positivefb,95,easy,7,0.9654807999995683,['n'],1,right,['1'],6,0.05403649999971094,,,,,,,,34,18,Man,Rechts,2,
,xotask,xotask,xotask,13,0,13,313,training,positivefb,70,hard,50,1.8671716999997443,['n'],0,left,['0'],1,0.6172771000001376,,,,,,,,34,18,Man,Rechts,2,
,xotask,xotask,xotask,14,0,14,314,training,positivefb,97,easy,5,0.7172460999991017,['n'],1,right,['1'],6,0.059547200000451994,,,,,,,,34,18,Man,Rechts,2,
,xotask,xotask,xotask,15,0,15,315,training,positivefb,56,hard,29,1.733421200000521,['c'],0,right,['3'],4,0.28437839999969583,,,,,,,,34,18,Man,Rechts,2,
,xotask,xotask,xotask,16,0,16,316,training,positivefb,85,easy,71,2.900311800000054,['c'],1,left,['1'],6,0.1013106999998854,,,,,,,,34,18,Man,Rechts,2,
,xotask,xotask,xotask,17,0,17,317,training,positivefb,97,easy,72,0.5670871999991505,['c'],1,left,['1'],6,0.04244079999989481,,,,,,,,34,18,Man,Rechts,2,
,xotask,xotask,xotask,18,0,18,318,training,positivefb,89,average,60,0.49909699999989243,['c'],1,left,['1'],6,0.04479989999890677,,,,,,,,34,18,Man,Rechts,2,
,xotask,xotask,xotask,19,0,19,319,training,positivefb,97,average,63,0.4494109000006574,['c'],1,left,['1'],6,0.02626100000088627,,,,,,,,34,18,Man,Rechts,2,
,xotask,xotask,xotask,20,0,20,320,training,positivefb,98,average,63,0.4162062000013975,['c'],1,left,['1'],6,0.01609660000030999,,,,,,,,34,18,Man,Rechts,2,
,xotask,xotask,xotask,21,0,21,321,training,positivefb,92,hard,27,0.6835647999996581,['n'],1,right,['1'],6,0.068335300000399,,,,,,,,34,18,Man,Rechts,2,
,xotask,xotask,xotask,22,0,22,322,training,positivefb,94,easy,73,0.5011680999996315,['c'],1,left,['1'],6,0.029647899998963112,,,,,,,,34,18,Man,Rechts,2,
,xotask,xotask,xotask,23,0,23,323,training,positivefb,96,average,60,0.5833339000000706,['c'],1,left,['1'],6,0.6625370000001567,,,,,,,,34,18,Man,Rechts,2,
,xotask,xotask,xotask,24,0,24,324,training,positivefb,97,average,63,0.4503882999997586,['c'],1,left,['1'],6,0.01748330000009446,,,,,,,,34,18,Man,Rechts,2,
,xotask,xotask,xotask,25,0,25,325,training,positivefb,94,easy,9,0.6671114000000671,['n'],1,right,['1'],6,0.03868060000058904,,,,,,,,34,18,Man,Rechts,2,
,xotask,xotask,xotask,26,0,26,326,training,positivefb,86,hard,27,1.2505538999994315,['n'],1,right,['2'],5,0.09951129999899422,,,,,,,,34,18,Man,Rechts,2,
,xotask,xotask,xotask,27,0,27,327,training,positivefb,100,average,15,0.5161468999995122,['n'],1,right,['1'],6,0.49896260000059556,,,,,,,,34,18,Man,Rechts,2,
,xotask,xotask,xotask,28,0,28,328,training,positivefb,76,hard,52,1.5842606999995041,['c'],1,left,['2'],5,0.07930010000018228,,,,,,,,34,18,Man,Rechts,2,
,xotask,xotask,xotask,29,0,29,329,training,positivefb,92,hard,29,1.150520699999106,['n'],1,right,['2'],5,0.08623389999956999,,,,,,,,34,18,Man,Rechts,2,
,xotask,xotask,xotask,30,0,30,330,training,positivefb,94,easy,8,0.8489960000006249,['n'],1,right,['1'],6,0.058085900000151014,,,,,,,,34,18,Man,Rechts,2,
,xotask,xotask,xotask,31,0,31,331,training,positivefb,89,hard,26,1.3500566000002436,['n'],1,right,['2'],5,0.07396460000018124,,,,,,,,34,18,Man,Rechts,2,
,xotask,xotask,xotask,32,0,32,332,training,positivefb,96,average,15,0.6013772999995126,['n'],1,right,['1'],6,0.04720119999910821,,,,,,,,34,18,Man,Rechts,2,
,xotask,xotask,xotask,33,0,33,333,training,positivefb,94,average,19,0.5332254000004468,['n'],1,right,['1'],6,0.05636690000028466,,,,,,,,34,18,Man,Rechts,2,
,xotask,xotask,xotask,34,0,34,334,training,positivefb,96,hard,27,0.4651177000014286,['n'],1,right,['1'],6,0.05095840000103635,,,,,,,,34,18,Man,Rechts,2,
,xotask,xotask,xotask,35,0,35,335,training,positivefb,84,hard,51,1.600288499999806,['n'],0,left,['2'],5,0.19394119999924442,,,,,,,,34,18,Man,Rechts,2,
,xotask,xotask,xotask,36,0,36,336,training,positivefb,97,easy,6,0.5505350000003091,['n'],1,right,['1'],6,0.09224999999969441,,,,,,,,34,18,Man,Rechts,2,
,xotask,xotask,xotask,37,0,37,337,training,positivefb,94,hard,54,0.8667572000013024,['c'],1,left,['1'],6,0.0383414999996603,,,,,,,,34,18,Man,Rechts,2,
,xotask,xotask,xotask,38,0,38,338,training,positivefb,88,hard,50,0.8505075000011857,['c'],1,left,['1'],6,0.059094700000059674,,,,,,,,34,18,Man,Rechts,2,
,xotask,xotask,xotask,39,0,39,339,training,positivefb,98,easy,70,0.6503311000014946,['c'],1,left,['1'],6,0.038928200001464575,,,,,,,,34,18,Man,Rechts,2,
,xotask,xotask,xotask,40,0,40,340,training,positivefb,95,easy,70,0.5510112000010849,['c'],1,left,['1'],6,0.0554033000007621,,,,,,,,34,18,Man,Rechts,2,
,xotask,xotask,xotask,41,0,41,341,training,positivefb,89,average,61,0.5171260000006441,['c'],1,left,['1'],6,1.0890260999985912,,,,,,,,34,18,Man,Rechts,2,
,xotask,xotask,xotask,42,0,42,342,training,positivefb,51,easy,6,0.5165773999997327,['c'],0,right,['0'],1,1.0016828999996505,,,,,,,,34,18,Man,Rechts,2,
,xotask,xotask,xotask,43,0,43,343,training,positivefb,91,average,15,1.2509575999993103,['n'],1,right,['1'],6,0.06295309999950405,,,,,,,,34,18,Man,Rechts,2,
,xotask,xotask,xotask,44,0,44,344,training,positivefb,87,average,61,0.6840298999995866,['c'],1,left,['1'],6,0.6582018999997672,,,,,,,,34,18,Man,Rechts,2,
,xotask,xotask,xotask,45,0,45,345,training,positivefb,92,average,16,0.6658067999997002,['n'],1,right,['1'],6,0.07740710000143736,,,,,,,,34,18,Man,Rechts,2,
,xotask,xotask,xotask,46,0,46,346,training,positivefb,56,average,17,0.7339119000007486,['c'],0,right,['1'],6,0.620837999998912,,,,,,,,34,18,Man,Rechts,2,
,xotask,xotask,xotask,47,0,47,347,training,positivefb,92,easy,74,0.5830101999999897,['n'],0,left,['1'],6,0.06920499999978347,,,,,,,,34,18,Man,Rechts,2,
,xotask,xotask,xotask,48,0,48,348,training,positivefb,91,easy,71,0.833510300000853,['c'],1,left,['1'],6,0.11358999999902153,,,,,,,,34,18,Man,Rechts,2,
,xotask,xotask,xotask,49,0,49,349,training,positivefb,96,easy,71,0.767257100000279,['c'],1,left,['1'],6,0.8705359000014141,,,,,,,,34,18,Man,Rechts,2,
,xotask,xotask,xotask,50,0,50,350,training,positivefb,93,easy,72,0.6168739999993704,['c'],1,left,['1'],6,0.07500419999996666,,,,,,,,34,18,Man,Rechts,2,
,xotask,xotask,xotask,51,0,51,351,training,positivefb,93,average,63,0.651216199999908,['c'],1,left,['1'],6,0.014532600000165985,,,,,,,,34,18,Man,Rechts,2,
,xotask,xotask,xotask,52,0,52,352,training,positivefb,81,hard,29,1.3843553000006068,['c'],0,right,['1'],6,0.030210599999918486,,,,,,,,34,18,Man,Rechts,2,
,xotask,xotask,xotask,53,0,53,353,training,positivefb,92,hard,50,0.4997136000001774,['c'],1,left,['1'],6,0.03411659999983385,,,,,,,,34,18,Man,Rechts,2,
,xotask,xotask,xotask,54,0,54,354,training,positivefb,93,average,62,0.6505562999991525,['c'],1,left,['1'],6,0.014664199999970151,,,,,,,,34,18,Man,Rechts,2,
,xotask,xotask,xotask,55,0,55,355,training,positivefb,95,easy,7,0.833069100001012,['n'],1,right,['1'],6,0.07721390000006068,,,,,,,,34,18,Man,Rechts,2,
,xotask,xotask,xotask,56,0,56,356,training,positivefb,98,easy,73,0.5671392999993259,['c'],1,left,['1'],6,0.0516129000006913,,,,,,,,34,18,Man,Rechts,2,
,xotask,xotask,xotask,57,0,57,357,training,positivefb,96,hard,51,0.6178619999991497,['c'],1,left,['1'],6,0.04074470000159636,,,,,,,,34,18,Man,Rechts,2,
,xotask,xotask,xotask,58,0,58,358,training,positivefb,91,easy,6,0.5324056999997993,['n'],1,right,['1'],6,0.09045559999867692,,,,,,,,34,18,Man,Rechts,2,
,xotask,xotask,xotask,59,0,59,359,training,positivefb,95,average,60,0.5500750999999582,['c'],1,left,['1'],6,0.016707499999029096,,,,,,,,34,18,Man,Rechts,2,
,xotask,xotask,xotask,0,1,60,360,training,positivefb,96,easy,6,0.6346806000001379,['n'],1,right,['1'],6,0.0711301999999705,,,,,,,,34,18,Man,Rechts,2,
,xotask,xotask,xotask,1,1,61,361,training,positivefb,97,average,19,0.5663383999999496,['n'],1,right,['1'],6,0.07052950000070268,,,,,,,,34,18,Man,Rechts,2,
,xotask,xotask,xotask,2,1,62,362,training,positivefb,94,easy,8,0.46735309999894525,['n'],1,right,['1'],6,0.05671800000163785,,,,,,,,34,18,Man,Rechts,2,
,xotask,xotask,xotask,3,1,63,363,training,positivefb,88,hard,50,0.6333740999998554,['c'],1,left,['1'],6,0.04555410000102711,,,,,,,,34,18,Man,Rechts,2,
,xotask,xotask,xotask,4,1,64,364,training,positivefb,82,hard,50,2.0336418000006233,['c'],1,left,['2'],5,0.4428981000000931,,,,,,,,34,18,Man,Rechts,2,
,xotask,xotask,xotask,5,1,65,365,training,positivefb,71,easy,9,4.3840574999994715,['n'],1,right,['2'],5,0.05013809999945806,,,,,,,,34,18,Man,Rechts,2,
,xotask,xotask,xotask,6,1,66,366,training,positivefb,98,average,60,0.5675085999992007,['c'],1,left,['1'],6,0.041301799999928335,,,,,,,,34,18,Man,Rechts,2,
,xotask,xotask,xotask,7,1,67,367,training,positivefb,91,hard,29,0.5834448000005068,['n'],1,right,['1'],6,0.0726092000004428,,,,,,,,34,18,Man,Rechts,2,
,xotask,xotask,xotask,8,1,68,368,training,positivefb,86,average,18,1.8832391999985703,['n'],1,right,['1'],6,0.0825198000002274,,,,,,,,34,18,Man,Rechts,2,
,xotask,xotask,xotask,9,1,69,369,training,positivefb,95,average,62,0.7338794999996026,['c'],1,left,['1'],6,0.09851919999891834,,,,,,,,34,18,Man,Rechts,2,
,xotask,xotask,xotask,10,1,70,370,training,positivefb,94,hard,54,1.5839992000001075,['c'],1,left,['2'],5,0.11061230000086653,,,,,,,,34,18,Man,Rechts,2,
,xotask,xotask,xotask,11,1,71,371,training,positivefb,92,hard,26,1.3006432999991375,['c'],0,right,['3'],4,0.14261070000065956,,,,,,,,34,18,Man,Rechts,2,
,xotask,xotask,xotask,12,1,72,372,training,positivefb,97,easy,70,0.5497892000003048,['c'],1,left,['1'],6,0.09148279999863007,,,,,,,,34,18,Man,Rechts,2,
,xotask,xotask,xotask,13,1,73,373,training,positivefb,66,hard,27,1.4508628000003227,['n'],1,right,['2'],5,0.20675600000140548,,,,,,,,34,18,Man,Rechts,2,
,xotask,xotask,xotask,14,1,74,374,training,positivefb,99,average,64,0.5497178999994503,['c'],1,left,['1'],6,0.04063680000035674,,,,,,,,34,18,Man,Rechts,2,
,xotask,xotask,xotask,15,1,75,375,training,positivefb,84,hard,28,2.0662559000011242,['n'],1,right,['2'],5,0.08417960000042513,,,,,,,,34,18,Man,Rechts,2,
,xotask,xotask,xotask,16,1,76,376,training,positivefb,85,average,15,1.6335300999999163,['n'],1,right,['3'],4,0.0877639000009367,,,,,,,,34,18,Man,Rechts,2,
,xotask,xotask,xotask,17,1,77,377,training,positivefb,62,easy,7,0.7502096999996866,['c'],0,right,['0'],1,0.7106194000007235,,,,,,,,34,18,Man,Rechts,2,
,xotask,xotask,xotask,18,1,78,378,training,positivefb,79,hard,29,1.8323902000011003,['n'],1,right,['2'],5,0.09751830000095651,,,,,,,,34,18,Man,Rechts,2,
,xotask,xotask,xotask,19,1,79,379,training,positivefb,82,average,61,1.1668195000002015,['c'],1,left,['1'],6,0.030668699999296223,,,,,,,,34,18,Man,Rechts,2,
,xotask,xotask,xotask,20,1,80,380,training,positivefb,97,average,16,0.6661189999995258,['n'],1,right,['1'],6,0.0434490999996342,,,,,,,,34,18,Man,Rechts,2,
,xotask,xotask,xotask,21,1,81,381,training,positivefb,93,easy,72,0.5504314999998314,['c'],1,left,['1'],6,0.03621009999915259,,,,,,,,34,18,Man,Rechts,2,
,xotask,xotask,xotask,22,1,82,382,training,positivefb,95,hard,51,0.4837406999995437,['c'],1,left,['1'],6,0.022976199999902747,,,,,,,,34,18,Man,Rechts,2,
,xotask,xotask,xotask,23,1,83,383,training,positivefb,97,average,64,0.6168049999996583,['c'],1,left,['1'],6,0.09369719999995141,,,,,,,,34,18,Man,Rechts,2,
,xotask,xotask,xotask,24,1,84,384,training,positivefb,89,average,18,1.5505183999994188,['n'],1,right,['2'],5,0.44463529999848106,,,,,,,,34,18,Man,Rechts,2,
,xotask,xotask,xotask,25,1,85,385,training,positivefb,89,easy,73,0.6844481000007363,['n'],0,left,['0'],1,0.5039152999997896,,,,,,,,34,18,Man,Rechts,2,
,xotask,xotask,xotask,26,1,86,386,training,positivefb,91,easy,71,0.6159292000011192,['c'],1,left,['1'],6,0.051812199999403674,,,,,,,,34,18,Man,Rechts,2,
,xotask,xotask,xotask,27,1,87,387,training,positivefb,95,easy,74,0.5661914000011166,['c'],1,left,['1'],6,0.011037199999918812,,,,,,,,34,18,Man,Rechts,2,
,xotask,xotask,xotask,28,1,88,388,training,positivefb,95,average,64,0.45050959999935003,['c'],1,left,['1'],6,0.05626570000094944,,,,,,,,34,18,Man,Rechts,2,
,xotask,xotask,xotask,29,1,89,389,training,positivefb,90,easy,7,1.2327853000006144,['n'],1,right,['1'],6,0.13373870000032184,,,,,,,,34,18,Man,Rechts,2,
,xotask,xotask,xotask,30,1,90,390,training,positivefb,93,easy,6,0.5671344999991561,['n'],1,right,['1'],6,0.049385000000256696,,,,,,,,34,18,Man,Rechts,2,
,xotask,xotask,xotask,31,1,91,391,training,positivefb,91,average,61,0.6328098000012687,['c'],1,left,['1'],6,0.038161499998750514,,,,,,,,34,18,Man,Rechts,2,
,xotask,xotask,xotask,32,1,92,392,training,positivefb,95,hard,53,0.45050609999998414,['c'],1,left,['1'],6,0.050730099999782396,,,,,,,,34,18,Man,Rechts,2,
,xotask,xotask,xotask,33,1,93,393,training,positivefb,90,average,19,0.6184026000009908,['n'],1,right,['1'],6,0.11252230000172858,,,,,,,,34,18,Man,Rechts,2,
,xotask,xotask,xotask,34,1,94,394,training,positivefb,97,hard,29,0.5334566999990784,['n'],1,right,['1'],6,0.08726299999943876,,,,,,,,34,18,Man,Rechts,2,
,xotask,xotask,xotask,35,1,95,395,training,positivefb,97,average,15,0.7509393000000273,['n'],1,right,['1'],6,0.12545649999992747,,,,,,,,34,18,Man,Rechts,2,
,xotask,xotask,xotask,36,1,96,396,training,positivefb,95,easy,70,0.5501666000000114,['c'],1,left,['1'],6,0.04333989999940968,,,,,,,,34,18,Man,Rechts,2,
,xotask,xotask,xotask,37,1,97,397,training,positivefb,91,average,63,0.8998534999991534,['c'],1,left,['1'],6,0.03770310000072641,,,,,,,,34,18,Man,Rechts,2,
,xotask,xotask,xotask,38,1,98,398,training,positivefb,96,easy,7,0.6164752000004228,['n'],1,right,['1'],6,0.15563400000064576,,,,,,,,34,18,Man,Rechts,2,
,xotask,xotask,xotask,39,1,99,399,training,positivefb,67,hard,54,0.666822700000921,['c'],1,left,['1'],6,1.9545906000003015,,,,,,,,34,18,Man,Rechts,2,
,xotask,xotask,xotask,40,1,100,400,training,positivefb,84,hard,29,1.5169334999991406,['c'],0,right,['2'],5,0.5355416999991576,,,,,,,,34,18,Man,Rechts,2,
,xotask,xotask,xotask,41,1,101,401,training,positivefb,94,easy,72,0.5999842999990506,['c'],1,left,['1'],6,0.018907300000137184,,,,,,,,34,18,Man,Rechts,2,
,xotask,xotask,xotask,42,1,102,402,training,positivefb,96,average,15,1.1169492000008177,['n'],1,right,['2'],5,0.07714520000081393,,,,,,,,34,18,Man,Rechts,2,
,xotask,xotask,xotask,43,1,103,403,training,positivefb,85,hard,25,1.483469700000569,['n'],1,right,['2'],5,0.12675550000130897,,,,,,,,34,18,Man,Rechts,2,
,xotask,xotask,xotask,44,1,104,404,training,positivefb,95,easy,72,0.5500554000009288,['c'],1,left,['1'],6,0.02854010000010021,,,,,,,,34,18,Man,Rechts,2,
,xotask,xotask,xotask,45,1,105,405,training,positivefb,86,hard,26,0.8999854000012419,['n'],1,right,['2'],5,0.1039597999988473,,,,,,,,34,18,Man,Rechts,2,
,xotask,xotask,xotask,46,1,106,406,training,positivefb,94,hard,52,0.7341808000001038,['c'],1,left,['1'],6,0.03853349999917555,,,,,,,,34,18,Man,Rechts,2,
,xotask,xotask,xotask,47,1,107,407,training,positivefb,91,average,61,1.183158599998933,['c'],1,left,['1'],6,0.029653699999471428,,,,,,,,34,18,Man,Rechts,2,
,xotask,xotask,xotask,48,1,108,408,training,positivefb,76,hard,28,1.717155799999091,['n'],1,right,['3'],4,0.08827679999922111,,,,,,,,34,18,Man,Rechts,2,
,xotask,xotask,xotask,49,1,109,409,training,positivefb,95,easy,73,0.5838353000017378,['c'],1,left,['1'],6,0.07768810000015947,,,,,,,,34,18,Man,Rechts,2,
,xotask,xotask,xotask,50,1,110,410,training,positivefb,96,easy,5,1.1007723000002443,['n'],1,right,['1'],6,0.07138159999885829,,,,,,,,34,18,Man,Rechts,2,
,xotask,xotask,xotask,51,1,111,411,training,positivefb,93,easy,72,0.5499488999994355,['c'],1,left,['1'],6,0.05422720000024128,,,,,,,,34,18,Man,Rechts,2,
,xotask,xotask,xotask,52,1,112,412,training,positivefb,96,average,62,0.5999093000009452,['c'],1,left,['1'],6,0.044838600000730366,,,,,,,,34,18,Man,Rechts,2,
,xotask,xotask,xotask,53,1,113,413,training,positivefb,94,average,15,1.3675252999983059,['n'],1,right,['2'],5,0.1330297000004066,,,,,,,,34,18,Man,Rechts,2,
,xotask,xotask,xotask,54,1,114,414,training,positivefb,78,easy,9,1.6832550999988598,['n'],1,right,['2'],5,0.2439845000008063,,,,,,,,34,18,Man,Rechts,2,
,xotask,xotask,xotask,55,1,115,415,training,positivefb,85,hard,53,2.4999697000002925,['n'],0,left,['3'],4,0.10268010000072536,,,,,,,,34,18,Man,Rechts,2,
,xotask,xotask,xotask,56,1,116,416,training,positivefb,94,hard,52,0.632802800000718,['c'],1,left,['1'],6,0.025297000000136904,,,,,,,,34,18,Man,Rechts,2,
,xotask,xotask,xotask,57,1,117,417,training,positivefb,98,average,15,0.6675355000006675,['n'],1,right,['1'],6,0.08604720000039379,,,,,,,,34,18,Man,Rechts,2,
,xotask,xotask,xotask,58,1,118,418,training,positivefb,92,easy,5,0.5835910000005242,['n'],1,right,['1'],6,0.051323300000149175,,,,,,,,34,18,Man,Rechts,2,
,xotask,xotask,xotask,59,1,119,419,training,positivefb,90,hard,52,0.9174153000003571,['c'],1,left,['1'],6,0.0684767999991891,,,,,,,,34,18,Man,Rechts,2,
,dotcolour,xotask,xotask,0,2,120,420,main,positivefb,-99,easy,,1.8677954000013415,['n'],1,right,['1'],6,0.12941610000052606,15,,,,,,,34,18,Man,Rechts,2,
,dotcolour,xotask,xotask,1,2,121,421,main,positivefb,-99,easy,,0.534574999999677,['n'],1,right,['1'],6,0.07231969999884313,16,,,,,,,34,18,Man,Rechts,2,
,dotcolour,xotask,xotask,2,2,122,422,main,positivefb,-99,easy,,0.6522116000014648,['c'],1,left,['1'],6,0.18778990000100748,61,,,,,,,34,18,Man,Rechts,2,
,dotcolour,xotask,xotask,3,2,123,423,main,positivefb,-99,hard,,1.7844315999991522,['n'],0,left,['2'],5,0.06236200000057579,42,,,,,,,34,18,Man,Rechts,2,
,dotcolour,xotask,xotask,4,2,124,424,main,positivefb,-99,easy,,0.6673417000001791,['n'],1,right,['1'],6,0.04229279999890423,15,,,,,,,34,18,Man,Rechts,2,
,dotcolour,xotask,xotask,5,2,125,425,main,positivefb,-99,easy,,0.43405990000064776,['n'],1,right,['1'],6,0.08020759999999427,18,,,,,,,34,18,Man,Rechts,2,
,dotcolour,xotask,xotask,6,2,126,426,main,positivefb,-99,easy,,0.4338545000009617,['n'],1,right,['1'],6,0.07667330000003858,19,,,,,,,34,18,Man,Rechts,2,
,dotcolour,xotask,xotask,7,2,127,427,main,positivefb,-99,hard,,1.2512311999998929,['c'],1,left,['2'],5,0.01663629999893601,44,,,,,,,34,18,Man,Rechts,2,
,dotcolour,xotask,xotask,8,2,128,428,main,positivefb,-99,hard,,1.6334822999997414,['c'],1,left,['3'],4,0.34325579999858746,43,,,,,,,34,18,Man,Rechts,2,
,dotcolour,xotask,xotask,9,2,129,429,main,positivefb,-99,hard,,1.434414299999844,['n'],1,right,['3'],4,0.09802300000046671,39,,,,,,,34,18,Man,Rechts,2,
,dotcolour,xotask,xotask,10,2,130,430,main,positivefb,-99,average,,0.9848762000001443,['n'],1,right,['3'],4,0.06260689999908209,28,,,,,,,34,18,Man,Rechts,2,
,dotcolour,xotask,xotask,11,2,131,431,main,positivefb,-99,average,,0.5682371000002604,['n'],1,right,['2'],5,0.351055199998882,27,,,,,,,34,18,Man,Rechts,2,
,dotcolour,xotask,xotask,12,2,132,432,main,positivefb,-99,average,,0.7171018000008189,['n'],0,left,['0'],1,0.7323563999998441,55,,,,,,,34,18,Man,Rechts,2,
,dotcolour,xotask,xotask,13,2,133,433,main,positivefb,-99,easy,,0.700811300001078,['c'],1,left,['1'],6,0.02852329999950598,62,,,,,,,34,18,Man,Rechts,2,
,dotcolour,xotask,xotask,14,2,134,434,main,positivefb,-99,hard,,1.366815299999871,['n'],1,right,['2'],5,0.053759499998704996,39,,,,,,,34,18,Man,Rechts,2,
,dotcolour,xotask,xotask,15,2,135,435,main,positivefb,-99,hard,,1.0502015999991272,['n'],1,right,['3'],4,0.09013520000007702,36,,,,,,,34,18,Man,Rechts,2,
,dotcolour,xotask,xotask,16,2,136,436,main,positivefb,-99,hard,,0.9352926999999909,['n'],1,right,['3'],4,0.08233169999948586,37,,,,,,,34,18,Man,Rechts,2,
,dotcolour,xotask,xotask,17,2,137,437,main,positivefb,-99,average,,0.9177088999986154,['c'],1,left,['1'],6,0.075396099999125,53,,,,,,,34,18,Man,Rechts,2,
,dotcolour,xotask,xotask,18,2,138,438,main,positivefb,-99,average,,0.48349749999943015,['c'],1,left,['1'],6,0.053529400000115857,51,,,,,,,34,18,Man,Rechts,2,
,dotcolour,xotask,xotask,19,2,139,439,main,positivefb,-99,average,,0.7834352999998373,['n'],1,right,['1'],6,0.076771899999585,25,,,,,,,34,18,Man,Rechts,2,
,dotcolour,xotask,xotask,20,2,140,440,main,positivefb,-99,hard,,0.9336960999989969,['c'],1,left,['1'],6,0.06154470000001311,44,,,,,,,34,18,Man,Rechts,2,
,dotcolour,xotask,xotask,21,2,141,441,main,positivefb,-99,easy,,0.5845754999991186,['n'],1,right,['1'],6,0.17308780000166735,17,,,,,,,34,18,Man,Rechts,2,
,dotcolour,xotask,xotask,22,2,142,442,main,positivefb,-99,average,,0.5011506999999256,['n'],1,right,['1'],6,0.11505819999911182,27,,,,,,,34,18,Man,Rechts,2,
,dotcolour,xotask,xotask,23,2,143,443,main,positivefb,-99,hard,,1.4001651999988098,['c'],0,right,['2'],5,0.14315580000038608,39,,,,,,,34,18,Man,Rechts,2,
,dotcolour,xotask,xotask,24,2,144,444,main,positivefb,-99,easy,,0.8338125999998738,['n'],1,right,['1'],6,0.08882380000068224,16,,,,,,,34,18,Man,Rechts,2,
,dotcolour,xotask,xotask,25,2,145,445,main,positivefb,-99,average,,0.7507067999995343,['c'],1,left,['1'],6,0.03244050000103016,54,,,,,,,34,18,Man,Rechts,2,
,dotcolour,xotask,xotask,26,2,146,446,main,positivefb,-99,easy,,0.56713579999996,['c'],1,left,['1'],6,0.056689400000323076,62,,,,,,,34,18,Man,Rechts,2,
,dotcolour,xotask,xotask,27,2,147,447,main,positivefb,-99,easy,,0.5337157000012667,['c'],1,left,['1'],6,0.058828200000789366,65,,,,,,,34,18,Man,Rechts,2,
,dotcolour,xotask,xotask,28,2,148,448,main,positivefb,-99,easy,,0.4839977000010549,['c'],1,left,['1'],6,0.06933660000140662,63,,,,,,,34,18,Man,Rechts,2,
,dotcolour,xotask,xotask,29,2,149,449,main,positivefb,-99,easy,,0.40043229999901087,['c'],1,left,['1'],6,0.03568799999993644,62,,,,,,,34,18,Man,Rechts,2,
,dotcolour,xotask,xotask,30,2,150,450,main,positivefb,-99,hard,,0.9510886999996728,['n'],1,right,['2'],5,0.10098660000039672,38,,,,,,,34,18,Man,Rechts,2,
,dotcolour,xotask,xotask,31,2,151,451,main,positivefb,-99,average,,0.5335706999994727,['c'],1,left,['1'],6,0.04505520000020624,55,,,,,,,34,18,Man,Rechts,2,
,dotcolour,xotask,xotask,32,2,152,452,main,positivefb,-99,average,,0.8839998999992531,['n'],1,right,['1'],6,0.12018019999959506,27,,,,,,,34,18,Man,Rechts,2,
,dotcolour,xotask,xotask,33,2,153,453,main,positivefb,-99,easy,,0.6670143999999709,['c'],1,left,['1'],6,0.009908399999403628,64,,,,,,,34,18,Man,Rechts,2,
,dotcolour,xotask,xotask,34,2,154,454,main,positivefb,-99,hard,,1.017489599998953,['n'],0,left,['2'],5,0.15456020000056014,41,,,,,,,34,18,Man,Rechts,2,
,dotcolour,xotask,xotask,35,2,155,455,main,positivefb,-99,hard,,0.9519369000008737,['n'],0,left,['3'],4,0.07844780000050378,41,,,,,,,34,18,Man,Rechts,2,
,dotcolour,xotask,xotask,36,2,156,456,main,positivefb,-99,average,,0.7003571999994165,['c'],1,left,['1'],6,0.05602250000083586,51,,,,,,,34,18,Man,Rechts,2,
,dotcolour,xotask,xotask,37,2,157,457,main,positivefb,-99,average,,0.9340155999998387,['n'],1,right,['1'],6,0.3459662000004755,27,,,,,,,34,18,Man,Rechts,2,
,dotcolour,xotask,xotask,38,2,158,458,main,positivefb,-99,average,,0.6681196999998065,['c'],1,left,['1'],6,0.026001100000939914,54,,,,,,,34,18,Man,Rechts,2,
,dotcolour,xotask,xotask,39,2,159,459,main,positivefb,-99,hard,,1.182855400000335,['c'],1,left,['2'],5,0.0678912000003038,43,,,,,,,34,18,Man,Rechts,2,
,dotcolour,xotask,xotask,40,2,160,460,main,positivefb,-99,easy,,0.5340766999997868,['c'],1,left,['1'],6,0.06823550000081013,65,,,,,,,34,18,Man,Rechts,2,
,dotcolour,xotask,xotask,41,2,161,461,main,positivefb,-99,average,,0.7509856000015134,['c'],1,left,['1'],6,0.05189760000030219,51,,,,,,,34,18,Man,Rechts,2,
,dotcolour,xotask,xotask,42,2,162,462,main,positivefb,-99,easy,,0.5330180000000837,['n'],1,right,['1'],6,0.14077929999984917,16,,,,,,,34,18,Man,Rechts,2,
,dotcolour,xotask,xotask,43,2,163,463,main,positivefb,-99,average,,0.6668699000001652,['c'],1,left,['1'],6,0.03763440000147966,53,,,,,,,34,18,Man,Rechts,2,
,dotcolour,xotask,xotask,44,2,164,464,main,positivefb,-99,easy,,0.5341561000004731,['n'],1,right,['1'],6,0.07207240000025195,15,,,,,,,34,18,Man,Rechts,2,
,dotcolour,xotask,xotask,45,2,165,465,main,positivefb,-99,hard,,1.7009335000002466,['n'],0,left,['3'],4,0.217714899999919,43,,,,,,,34,18,Man,Rechts,2,
,dotcolour,xotask,xotask,46,2,166,466,main,positivefb,-99,average,,0.8669551000002684,['n'],1,right,['1'],6,0.06318680000003951,26,,,,,,,34,18,Man,Rechts,2,
,dotcolour,xotask,xotask,47,2,167,467,main,positivefb,-99,average,,0.800766599999406,['n'],1,right,['2'],5,1.1342155000002094,25,,,,,,,34,18,Man,Rechts,2,
,dotcolour,xotask,xotask,48,2,168,468,main,positivefb,-99,easy,,0.5679186999986996,['n'],1,right,['1'],6,0.3226403999997274,16,,,,,,,34,18,Man,Rechts,2,
,dotcolour,xotask,xotask,49,2,169,469,main,positivefb,-99,hard,,2.0511729000008927,['c'],0,right,['2'],5,0.18030439999893133,39,,,,,,,34,18,Man,Rechts,2,
,dotcolour,xotask,xotask,50,2,170,470,main,positivefb,-99,average,,0.9498903999992763,['n'],1,right,['1'],6,0.16861770000105025,27,,,,,,,34,18,Man,Rechts,2,
,dotcolour,xotask,xotask,51,2,171,471,main,positivefb,-99,hard,,0.43384770000011486,['n'],1,right,['3'],4,0.9540560999994341,36,,,,,,,34,18,Man,Rechts,2,
,dotcolour,xotask,xotask,52,2,172,472,main,positivefb,-99,hard,,0.3172651000004407,['c'],0,right,['3'],4,1.119462000000567,36,,,,,,,34,18,Man,Rechts,2,
,dotcolour,xotask,xotask,53,2,173,473,main,positivefb,-99,hard,,1.3013991999996506,['n'],0,left,['2'],5,0.24742169999990438,42,,,,,,,34,18,Man,Rechts,2,
,dotcolour,xotask,xotask,54,2,174,474,main,positivefb,-99,hard,,1.1503728000006959,['c'],0,right,['1'],6,0.048944699999992736,38,,,,,,,34,18,Man,Rechts,2,
,dotcolour,xotask,xotask,55,2,175,475,main,positivefb,-99,average,,0.7347143999995751,['n'],1,right,['1'],6,0.09786560000065947,26,,,,,,,34,18,Man,Rechts,2,
,dotcolour,xotask,xotask,56,2,176,476,main,positivefb,-99,easy,,0.6174929000007978,['c'],1,left,['1'],6,0.014290899998741224,62,,,,,,,34,18,Man,Rechts,2,
,dotcolour,xotask,xotask,57,2,177,477,main,positivefb,-99,hard,,1.1840178999991622,['c'],1,left,['2'],5,0.8865869999990537,43,,,,,,,34,18,Man,Rechts,2,
,dotcolour,xotask,xotask,58,2,178,478,main,positivefb,-99,average,,0.8836688000010327,['c'],1,left,['2'],5,0.024476200000208337,55,,,,,,,34,18,Man,Rechts,2,
,dotcolour,xotask,xotask,59,2,179,479,main,positivefb,-99,easy,,0.5171912999994674,['c'],1,left,['1'],6,0.1963566999984323,61,,,,,,,34,18,Man,Rechts,2,
,dotcolour,xotask,xotask,0,3,180,480,main,positivefb,-99,average,,0.6841263999995135,['c'],1,left,['1'],6,0.08971519999977318,51,,,,,,,34,18,Man,Rechts,2,
,dotcolour,xotask,xotask,1,3,181,481,main,positivefb,-99,average,,1.5341367999990325,['c'],1,left,['2'],5,0.097703299999921,54,,,,,,,34,18,Man,Rechts,2,
,dotcolour,xotask,xotask,2,3,182,482,main,positivefb,-99,average,,0.7355363000006037,['c'],1,left,['2'],5,0.05655130000013742,54,,,,,,,34,18,Man,Rechts,2,
,dotcolour,xotask,xotask,3,3,183,483,main,positivefb,-99,average,,0.6330611000012141,['n'],1,right,['1'],6,0.06272050000006857,28,,,,,,,34,18,Man,Rechts,2,
,dotcolour,xotask,xotask,4,3,184,484,main,positivefb,-99,average,,0.5003985000003013,['n'],1,right,['1'],6,0.08059160000084375,26,,,,,,,34,18,Man,Rechts,2,
,dotcolour,xotask,xotask,5,3,185,485,main,positivefb,-99,average,,0.6850410000006377,['c'],1,left,['1'],6,0.0986642000007123,53,,,,,,,34,18,Man,Rechts,2,
,dotcolour,xotask,xotask,6,3,186,486,main,positivefb,-99,average,,0.6345708999997441,['n'],1,right,['1'],6,0.07097280000016326,26,,,,,,,34,18,Man,Rechts,2,
,dotcolour,xotask,xotask,7,3,187,487,main,positivefb,-99,average,,0.7501726999998937,['n'],1,right,['1'],6,0.08716909999930067,28,,,,,,,34,18,Man,Rechts,2,
,dotcolour,xotask,xotask,8,3,188,488,main,positivefb,-99,hard,,1.4669014000010066,['c'],1,left,['2'],5,0.12047639999946114,42,,,,,,,34,18,Man,Rechts,2,
,dotcolour,xotask,xotask,9,3,189,489,main,positivefb,-99,hard,,1.4183687999993708,['c'],1,left,['2'],5,0.14027440000063507,41,,,,,,,34,18,Man,Rechts,2,
,dotcolour,xotask,xotask,10,3,190,490,main,positivefb,-99,average,,0.6829448999997112,['c'],1,left,['1'],6,0.2525401000002603,55,,,,,,,34,18,Man,Rechts,2,
,dotcolour,xotask,xotask,11,3,191,491,main,positivefb,-99,easy,,0.5675138999995397,['c'],1,left,['1'],6,0.06777729999885196,63,,,,,,,34,18,Man,Rechts,2,
,dotcolour,xotask,xotask,12,3,192,492,main,positivefb,-99,hard,,1.1167657999994844,['n'],1,right,['2'],5,0.5018670999997994,39,,,,,,,34,18,Man,Rechts,2,
,dotcolour,xotask,xotask,13,3,193,493,main,positivefb,-99,hard,,1.2843453000004956,['c'],0,right,['1'],6,0.11097199999858276,39,,,,,,,34,18,Man,Rechts,2,
,dotcolour,xotask,xotask,14,3,194,494,main,positivefb,-99,hard,,0.9845065999998042,['c'],1,left,['1'],6,0.20449879999978293,45,,,,,,,34,18,Man,Rechts,2,
,dotcolour,xotask,xotask,15,3,195,495,main,positivefb,-99,hard,,0.9667972000006557,['n'],0,left,['2'],5,0.14189239999905112,42,,,,,,,34,18,Man,Rechts,2,
,dotcolour,xotask,xotask,16,3,196,496,main,positivefb,-99,easy,,0.7831184999995457,['c'],1,left,['1'],6,0.07422589999987395,65,,,,,,,34,18,Man,Rechts,2,
,dotcolour,xotask,xotask,17,3,197,497,main,positivefb,-99,easy,,0.5174329000001308,['c'],1,left,['1'],6,0.09156370000164316,65,,,,,,,34,18,Man,Rechts,2,
,dotcolour,xotask,xotask,18,3,198,498,main,positivefb,-99,hard,,0.6016598000005615,['c'],1,left,['1'],6,0.057226800001444644,45,,,,,,,34,18,Man,Rechts,2,
,dotcolour,xotask,xotask,19,3,199,499,main,positivefb,-99,easy,,0.5684266999996908,['n'],1,right,['1'],6,0.0815786000002845,16,,,,,,,34,18,Man,Rechts,2,
,dotcolour,xotask,xotask,20,3,200,500,main,positivefb,-99,easy,,0.634548599999107,['n'],1,right,['1'],6,0.10862559999986843,19,,,,,,,34,18,Man,Rechts,2,
,dotcolour,xotask,xotask,21,3,201,501,main,positivefb,-99,hard,,1.1335820000003878,['n'],1,right,['2'],5,0.2052012999993167,35,,,,,,,34,18,Man,Rechts,2,
,dotcolour,xotask,xotask,22,3,202,502,main,positivefb,-99,easy,,0.667536699998891,['c'],1,left,['1'],6,0.050873299998784205,62,,,,,,,34,18,Man,Rechts,2,
,dotcolour,xotask,xotask,23,3,203,503,main,positivefb,-99,hard,,1.4157576999987214,['n'],1,right,['2'],5,0.34443129999999655,38,,,,,,,34,18,Man,Rechts,2,
,dotcolour,xotask,xotask,24,3,204,504,main,positivefb,-99,average,,0.5674003999993147,['n'],1,right,['1'],6,0.07769610000104876,29,,,,,,,34,18,Man,Rechts,2,
,dotcolour,xotask,xotask,25,3,205,505,main,positivefb,-99,easy,,0.4675728000001982,['n'],1,right,['1'],6,0.33649460000015097,19,,,,,,,34,18,Man,Rechts,2,
,dotcolour,xotask,xotask,26,3,206,506,main,positivefb,-99,average,,0.4838882999993075,['n'],1,right,['1'],6,0.04929909999918891,26,,,,,,,34,18,Man,Rechts,2,
,dotcolour,xotask,xotask,27,3,207,507,main,positivefb,-99,easy,,0.601461999998719,['c'],1,left,['1'],6,0.07078759999967588,64,,,,,,,34,18,Man,Rechts,2,
,dotcolour,xotask,xotask,28,3,208,508,main,positivefb,-99,average,,0.6008426999997027,['n'],1,right,['1'],6,0.09315220000098634,25,,,,,,,34,18,Man,Rechts,2,
,dotcolour,xotask,xotask,29,3,209,509,main,positivefb,-99,average,,0.5001910000009957,['c'],1,left,['1'],6,0.030644599999504862,55,,,,,,,34,18,Man,Rechts,2,
,dotcolour,xotask,xotask,30,3,210,510,main,positivefb,-99,easy,,0.4655032000009669,['n'],1,right,['1'],6,0.04395509999994829,19,,,,,,,34,18,Man,Rechts,2,
,dotcolour,xotask,xotask,31,3,211,511,main,positivefb,-99,hard,,0.6491711999988183,['c'],1,left,['1'],6,0.05669000000125379,45,,,,,,,34,18,Man,Rechts,2,
,dotcolour,xotask,xotask,32,3,212,512,main,positivefb,-99,easy,,0.7012173000002804,['c'],1,left,['1'],6,0.035998100000142585,64,,,,,,,34,18,Man,Rechts,2,
,dotcolour,xotask,xotask,33,3,213,513,main,positivefb,-99,easy,,0.5336368999996921,['c'],1,left,['1'],6,0.04576479999923322,63,,,,,,,34,18,Man,Rechts,2,
,dotcolour,xotask,xotask,34,3,214,514,main,positivefb,-99,easy,,0.4676959000007628,['n'],1,right,['1'],6,0.07456360000105633,18,,,,,,,34,18,Man,Rechts,2,
,dotcolour,xotask,xotask,35,3,215,515,main,positivefb,-99,average,,0.5344521000006353,['n'],0,left,['1'],6,0.09922179999921354,51,,,,,,,34,18,Man,Rechts,2,
,dotcolour,xotask,xotask,36,3,216,516,main,positivefb,-99,average,,0.6833464999999705,['c'],1,left,['1'],6,0.03683119999914197,52,,,,,,,34,18,Man,Rechts,2,
,dotcolour,xotask,xotask,37,3,217,517,main,positivefb,-99,easy,,0.833830499999749,['n'],1,right,['1'],6,0.06665609999981825,18,,,,,,,34,18,Man,Rechts,2,
,dotcolour,xotask,xotask,38,3,218,518,main,positivefb,-99,hard,,2.016512199999852,['c'],0,right,['2'],5,0.0478808999996545,39,,,,,,,34,18,Man,Rechts,2,
,dotcolour,xotask,xotask,39,3,219,519,main,positivefb,-99,hard,,0.633899600001314,['n'],1,right,['1'],6,0.053132899998672656,38,,,,,,,34,18,Man,Rechts,2,
,dotcolour,xotask,xotask,40,3,220,520,main,positivefb,-99,hard,,1.8508815999994113,['c'],0,right,['2'],5,0.08979390000058629,35,,,,,,,34,18,Man,Rechts,2,
,dotcolour,xotask,xotask,41,3,221,521,main,positivefb,-99,easy,,0.634130999998888,['c'],1,left,['1'],6,0.045990399999936926,64,,,,,,,34,18,Man,Rechts,2,
,dotcolour,xotask,xotask,42,3,222,522,main,positivefb,-99,easy,,0.4675174000003608,['c'],1,left,['1'],6,0.010475400000359514,62,,,,,,,34,18,Man,Rechts,2,
,dotcolour,xotask,xotask,43,3,223,523,main,positivefb,-99,hard,,0.8664177999999083,['n'],0,left,['1'],6,0.08885809999992489,44,,,,,,,34,18,Man,Rechts,2,
,dotcolour,xotask,xotask,44,3,224,524,main,positivefb,-99,easy,,0.5012177000007796,['n'],1,right,['1'],6,0.13025700000071083,15,,,,,,,34,18,Man,Rechts,2,
,dotcolour,xotask,xotask,45,3,225,525,main,positivefb,-99,average,,0.5335400000003574,['n'],1,right,['1'],6,0.07232410000142409,29,,,,,,,34,18,Man,Rechts,2,
,dotcolour,xotask,xotask,46,3,226,526,main,positivefb,-99,easy,,0.6011249000002863,['c'],1,left,['1'],6,0.0066466999996919185,65,,,,,,,34,18,Man,Rechts,2,
,dotcolour,xotask,xotask,47,3,227,527,main,positivefb,-99,hard,,2.2839416000006167,['c'],0,right,['3'],4,0.2439556999997876,38,,,,,,,34,18,Man,Rechts,2,
,dotcolour,xotask,xotask,48,3,228,528,main,positivefb,-99,average,,0.8348855999993248,['n'],1,right,['1'],6,0.0978015000000596,28,,,,,,,34,18,Man,Rechts,2,
,dotcolour,xotask,xotask,49,3,229,529,main,positivefb,-99,easy,,0.7505416999993031,['n'],1,right,['1'],6,0.05623299999933806,18,,,,,,,34,18,Man,Rechts,2,
,dotcolour,xotask,xotask,50,3,230,530,main,positivefb,-99,hard,,0.8669707000008202,['c'],1,left,['1'],6,0.02836389999902167,42,,,,,,,34,18,Man,Rechts,2,
,dotcolour,xotask,xotask,51,3,231,531,main,positivefb,-99,average,,0.6168751999994129,['c'],1,left,['1'],6,0.020043699998495867,53,,,,,,,34,18,Man,Rechts,2,
,dotcolour,xotask,xotask,52,3,232,532,main,positivefb,-99,hard,,1.0665255000003526,['c'],0,right,['1'],6,0.057205299999623094,38,,,,,,,34,18,Man,Rechts,2,
,dotcolour,xotask,xotask,53,3,233,533,main,positivefb,-99,hard,,1.3675050000001647,['n'],1,right,['2'],5,0.4814444999992702,37,,,,,,,34,18,Man,Rechts,2,
,dotcolour,xotask,xotask,54,3,234,534,main,positivefb,-99,average,,1.0181243999995786,['n'],1,right,['2'],5,0.2628582999986975,25,,,,,,,34,18,Man,Rechts,2,
,dotcolour,xotask,xotask,55,3,235,535,main,positivefb,-99,hard,,0.8838015000001178,['c'],1,left,['1'],6,0.0015203999992081663,45,,,,,,,34,18,Man,Rechts,2,
,dotcolour,xotask,xotask,56,3,236,536,main,positivefb,-99,hard,,1.550519800000984,['c'],1,left,['1'],6,0.052550200000041514,41,,,,,,,34,18,Man,Rechts,2,
,dotcolour,xotask,xotask,57,3,237,537,main,positivefb,-99,average,,0.5504560000008496,['c'],1,left,['1'],6,0.028991499999392545,51,,,,,,,34,18,Man,Rechts,2,
,dotcolour,xotask,xotask,58,3,238,538,main,positivefb,-99,easy,,0.6008240999999543,['n'],1,right,['1'],6,0.05247109999982058,18,,,,,,,34,18,Man,Rechts,2,
,dotcolour,xotask,xotask,59,3,239,539,main,positivefb,-99,easy,,0.46707770000102755,['n'],1,right,['1'],6,0.06538779999937105,19,,,,,,,34,18,Man,Rechts,2,
,dotcolour,xotask,xotask,0,4,240,540,main,positivefb,-99,hard,,2.1672610999994504,['c'],1,left,['2'],5,0.06258209999941755,41,,,,,,,34,18,Man,Rechts,2,
,dotcolour,xotask,xotask,1,4,241,541,main,positivefb,-99,easy,,0.6683315000009316,['c'],1,left,['1'],6,0.034403499999825726,62,,,,,,,34,18,Man,Rechts,2,
,dotcolour,xotask,xotask,2,4,242,542,main,positivefb,-99,hard,,1.4324340000002849,['c'],1,left,['1'],6,0.04053070000009029,41,,,,,,,34,18,Man,Rechts,2,
,dotcolour,xotask,xotask,3,4,243,543,main,positivefb,-99,easy,,0.6666956999997637,['n'],1,right,['1'],6,0.0766698000006727,19,,,,,,,34,18,Man,Rechts,2,
,dotcolour,xotask,xotask,4,4,244,544,main,positivefb,-99,hard,,0.9675724999997328,['n'],0,left,['1'],6,0.07645969999975932,42,,,,,,,34,18,Man,Rechts,2,
,dotcolour,xotask,xotask,5,4,245,545,main,positivefb,-99,hard,,0.599712900000668,['c'],1,left,['1'],6,0.09038970000074187,43,,,,,,,34,18,Man,Rechts,2,
,dotcolour,xotask,xotask,6,4,246,546,main,positivefb,-99,hard,,0.9007096000004822,['n'],1,right,['1'],6,0.07607500000085565,37,,,,,,,34,18,Man,Rechts,2,
,dotcolour,xotask,xotask,7,4,247,547,main,positivefb,-99,hard,,0.9846305999999458,['n'],1,right,['1'],6,0.06644760000017413,36,,,,,,,34,18,Man,Rechts,2,
,dotcolour,xotask,xotask,8,4,248,548,main,positivefb,-99,easy,,0.5169922999994014,['n'],1,right,['1'],6,0.09189680000054068,18,,,,,,,34,18,Man,Rechts,2,
,dotcolour,xotask,xotask,9,4,249,549,main,positivefb,-99,hard,,0.834626699999717,['n'],1,right,['1'],6,0.09521760000097856,39,,,,,,,34,18,Man,Rechts,2,
,dotcolour,xotask,xotask,10,4,250,550,main,positivefb,-99,easy,,0.6517244999995455,['c'],1,left,['1'],6,0.050735499999063904,65,,,,,,,34,18,Man,Rechts,2,
,dotcolour,xotask,xotask,11,4,251,551,main,positivefb,-99,easy,,0.5513903999999457,['n'],1,right,['1'],6,0.08361049999984971,19,,,,,,,34,18,Man,Rechts,2,
,dotcolour,xotask,xotask,12,4,252,552,main,positivefb,-99,hard,,1.8852771000001667,['c'],1,left,['2'],5,0.10184360000130255,45,,,,,,,34,18,Man,Rechts,2,
,dotcolour,xotask,xotask,13,4,253,553,main,positivefb,-99,average,,0.6845219999995606,['c'],1,left,['1'],6,0.02300470000045607,53,,,,,,,34,18,Man,Rechts,2,
,dotcolour,xotask,xotask,14,4,254,554,main,positivefb,-99,average,,0.58414300000004,['n'],1,right,['1'],6,0.05562599999939266,26,,,,,,,34,18,Man,Rechts,2,
,dotcolour,xotask,xotask,15,4,255,555,main,positivefb,-99,average,,0.6672706000008475,['n'],1,right,['1'],6,0.06822809999903257,26,,,,,,,34,18,Man,Rechts,2,
,dotcolour,xotask,xotask,16,4,256,556,main,positivefb,-99,average,,0.43522940000002563,['n'],1,right,['1'],6,0.06451500000002852,28,,,,,,,34,18,Man,Rechts,2,
,dotcolour,xotask,xotask,17,4,257,557,main,positivefb,-99,hard,,1.1343820999991294,['c'],0,right,['2'],5,0.4009585000003426,39,,,,,,,34,18,Man,Rechts,2,
,dotcolour,xotask,xotask,18,4,258,558,main,positivefb,-99,easy,,0.768366900001638,['n'],1,right,['1'],6,0.08255240000107733,15,,,,,,,34,18,Man,Rechts,2,
,dotcolour,xotask,xotask,19,4,259,559,main,positivefb,-99,easy,,0.8508357999999134,['c'],1,left,['1'],6,0.10279239999908896,61,,,,,,,34,18,Man,Rechts,2,
,dotcolour,xotask,xotask,20,4,260,560,main,positivefb,-99,average,,0.5658683000001474,['n'],0,left,['0'],1,1.020552600000883,51,,,,,,,34,18,Man,Rechts,2,
,dotcolour,xotask,xotask,21,4,261,561,main,positivefb,-99,average,,0.7349145000007411,['c'],1,left,['1'],6,0.04774410000027274,55,,,,,,,34,18,Man,Rechts,2,
,dotcolour,xotask,xotask,22,4,262,562,main,positivefb,-99,easy,,0.9997217999989516,['c'],1,left,['1'],6,0.05468540000038047,62,,,,,,,34,18,Man,Rechts,2,
,dotcolour,xotask,xotask,23,4,263,563,main,positivefb,-99,hard,,1.6006567000003997,['c'],1,left,['2'],5,0.5010214000012638,44,,,,,,,34,18,Man,Rechts,2,
,dotcolour,xotask,xotask,24,4,264,564,main,positivefb,-99,average,,0.5516689999985829,['n'],1,right,['1'],6,0.09971819999918807,29,,,,,,,34,18,Man,Rechts,2,
,dotcolour,xotask,xotask,25,4,265,565,main,positivefb,-99,easy,,0.45087749999947846,['n'],1,right,['1'],6,0.10283420000087062,17,,,,,,,34,18,Man,Rechts,2,
,dotcolour,xotask,xotask,26,4,266,566,main,positivefb,-99,easy,,0.4679047999998147,['n'],1,right,['1'],6,0.09697050000067975,19,,,,,,,34,18,Man,Rechts,2,
,dotcolour,xotask,xotask,27,4,267,567,main,positivefb,-99,easy,,0.617068499999732,['c'],1,left,['1'],6,0.08532590000140772,62,,,,,,,34,18,Man,Rechts,2,
,dotcolour,xotask,xotask,28,4,268,568,main,positivefb,-99,easy,,0.7837075000006735,['c'],1,left,['1'],6,0.3158406999991712,63,,,,,,,34,18,Man,Rechts,2,
,dotcolour,xotask,xotask,29,4,269,569,main,positivefb,-99,hard,,0.8522682000002533,['c'],1,left,['1'],6,0.06986680000045453,42,,,,,,,34,18,Man,Rechts,2,
,dotcolour,xotask,xotask,30,4,270,570,main,positivefb,-99,hard,,0.6341009000007034,['n'],1,right,['1'],6,0.0824812999999267,37,,,,,,,34,18,Man,Rechts,2,
,dotcolour,xotask,xotask,31,4,271,571,main,positivefb,-99,hard,,1.0011039999990317,['n'],0,left,['2'],5,0.5909208000011859,44,,,,,,,34,18,Man,Rechts,2,
,dotcolour,xotask,xotask,32,4,272,572,main,positivefb,-99,easy,,0.5507994999989023,['n'],1,right,['1'],6,0.31432150000000547,19,,,,,,,34,18,Man,Rechts,2,
,dotcolour,xotask,xotask,33,4,273,573,main,positivefb,-99,easy,,0.8342568999996729,['n'],1,right,['1'],6,0.07740470000135247,15,,,,,,,34,18,Man,Rechts,2,
,dotcolour,xotask,xotask,34,4,274,574,main,positivefb,-99,average,,0.7845042999997531,['n'],1,right,['1'],6,0.0684120999994775,27,,,,,,,34,18,Man,Rechts,2,
,dotcolour,xotask,xotask,35,4,275,575,main,positivefb,-99,average,,0.7831537000001845,['c'],1,left,['1'],6,0.0030267000001913402,55,,,,,,,34,18,Man,Rechts,2,
,dotcolour,xotask,xotask,36,4,276,576,main,positivefb,-99,hard,,1.1666755999995075,['n'],1,right,['1'],6,0.3563560000002326,37,,,,,,,34,18,Man,Rechts,2,
,dotcolour,xotask,xotask,37,4,277,577,main,positivefb,-99,average,,1.0007442999994964,['n'],1,right,['1'],6,0.20691489999990154,29,,,,,,,34,18,Man,Rechts,2,
,dotcolour,xotask,xotask,38,4,278,578,main,positivefb,-99,average,,0.7010642000004736,['c'],1,left,['1'],6,0.09213509999972302,55,,,,,,,34,18,Man,Rechts,2,
,dotcolour,xotask,xotask,39,4,279,579,main,positivefb,-99,hard,,1.8014739000009286,['n'],1,right,['2'],5,0.16883060000145633,35,,,,,,,34,18,Man,Rechts,2,
,dotcolour,xotask,xotask,40,4,280,580,main,positivefb,-99,average,,0.5835380999997142,['c'],1,left,['1'],6,0.012439200001608697,55,,,,,,,34,18,Man,Rechts,2,
,dotcolour,xotask,xotask,41,4,281,581,main,positivefb,-99,average,,1.199869399999443,['n'],1,right,['2'],5,0.30905300000085845,29,,,,,,,34,18,Man,Rechts,2,
,dotcolour,xotask,xotask,42,4,282,582,main,positivefb,-99,easy,,0.5176224999995611,['c'],1,left,['1'],6,0.06899549999980081,63,,,,,,,34,18,Man,Rechts,2,
,dotcolour,xotask,xotask,43,4,283,583,main,positivefb,-99,easy,,0.8171679999995831,['n'],1,right,['1'],6,0.08996600000136823,15,,,,,,,34,18,Man,Rechts,2,
,dotcolour,xotask,xotask,44,4,284,584,main,positivefb,-99,hard,,1.9675452999999834,['c'],0,right,['3'],4,0.76060200000029,38,,,,,,,34,18,Man,Rechts,2,
,dotcolour,xotask,xotask,45,4,285,585,main,positivefb,-99,hard,,1.5846601000012015,['c'],0,right,['2'],5,0.5324337999991258,39,,,,,,,34,18,Man,Rechts,2,
,dotcolour,xotask,xotask,46,4,286,586,main,positivefb,-99,average,,0.7012273999989702,['n'],1,right,['1'],6,0.12296530000094208,25,,,,,,,34,18,Man,Rechts,2,
,dotcolour,xotask,xotask,47,4,287,587,main,positivefb,-99,average,,1.0500284999998257,['c'],1,left,['1'],6,0.0771069999991596,54,,,,,,,34,18,Man,Rechts,2,
,dotcolour,xotask,xotask,48,4,288,588,main,positivefb,-99,easy,,0.6004286000006687,['c'],1,left,['1'],6,0.07581539999955567,63,,,,,,,34,18,Man,Rechts,2,
,dotcolour,xotask,xotask,49,4,289,589,main,positivefb,-99,easy,,0.5350127000001521,['c'],1,left,['1'],6,0.15684429999964777,62,,,,,,,34,18,Man,Rechts,2,
,dotcolour,xotask,xotask,50,4,290,590,main,positivefb,-99,average,,0.8835870000002615,['n'],1,right,['1'],6,0.09912210000038613,29,,,,,,,34,18,Man,Rechts,2,
,dotcolour,xotask,xotask,51,4,291,591,main,positivefb,-99,hard,,1.450781100000313,['c'],0,right,['2'],5,0.08663030000025174,37,,,,,,,34,18,Man,Rechts,2,
,dotcolour,xotask,xotask,52,4,292,592,main,positivefb,-99,hard,,1.0170878000008088,['c'],1,left,['1'],6,0.12293319999844243,44,,,,,,,34,18,Man,Rechts,2,
,dotcolour,xotask,xotask,53,4,293,593,main,positivefb,-99,easy,,0.5333780000000843,['c'],1,left,['1'],6,0.0813997000004747,63,,,,,,,34,18,Man,Rechts,2,
,dotcolour,xotask,xotask,54,4,294,594,main,positivefb,-99,average,,0.6508243000007496,['c'],1,left,['1'],6,0.07675670000026003,51,,,,,,,34,18,Man,Rechts,2,
,dotcolour,xotask,xotask,55,4,295,595,main,positivefb,-99,average,,0.5847768999992695,['c'],1,left,['1'],6,0.09901820000050066,52,,,,,,,34,18,Man,Rechts,2,
,dotcolour,xotask,xotask,56,4,296,596,main,positivefb,-99,average,,0.4847181000004639,['c'],1,left,['1'],6,0.06090749999930267,55,,,,,,,34,18,Man,Rechts,2,
,dotcolour,xotask,xotask,57,4,297,597,main,positivefb,-99,hard,,0.6181250000008731,['c'],1,left,['1'],6,0.018846900000426103,44,,,,,,,34,18,Man,Rechts,2,
,dotcolour,xotask,xotask,58,4,298,598,main,positivefb,-99,average,,1.1994391999996878,['n'],1,right,['2'],5,0.11462029999893275,28,,,,,,,34,18,Man,Rechts,2,
,dotcolour,xotask,xotask,59,4,299,599,main,positivefb,-99,easy,,1.0006699000005028,['n'],1,right,['1'],6,0.09447040000122797,19,,,,,,,34,18,Man,Rechts,2,
,xotask,xotask,xotask,0,0,0,600,training,positivefb,92,average,15,1.683547599999656,['n'],1,right,['2'],5,0.19877989999986312,,,,,,,,34,18,Man,Rechts,2,
,xotask,xotask,xotask,1,0,1,601,training,positivefb,98,easy,72,0.5842258000011498,['c'],1,left,['1'],6,0.03178880000086792,,,,,,,,34,18,Man,Rechts,2,
,xotask,xotask,xotask,2,0,2,602,training,positivefb,95,average,61,0.684295299999576,['c'],1,left,['1'],6,0.11570939999910479,,,,,,,,34,18,Man,Rechts,2,
,xotask,xotask,xotask,3,0,3,603,training,positivefb,97,average,16,0.6159095999992132,['n'],1,right,['1'],6,0.0938704999989568,,,,,,,,34,18,Man,Rechts,2,
,xotask,xotask,xotask,4,0,4,604,training,positivefb,91,average,62,0.7676300999992236,['c'],1,left,['1'],6,0.0759275999989768,,,,,,,,34,18,Man,Rechts,2,
,xotask,xotask,xotask,5,0,5,605,training,positivefb,98,easy,9,0.5847993999996106,['n'],1,right,['1'],6,0.09000409999862313,,,,,,,,34,18,Man,Rechts,2,
,xotask,xotask,xotask,6,0,6,606,training,positivefb,94,hard,53,1.1002800000005664,['c'],1,left,['2'],5,0.07433080000009795,,,,,,,,34,18,Man,Rechts,2,
,xotask,xotask,xotask,7,0,7,607,training,positivefb,89,hard,52,1.2490413000014087,['c'],1,left,['1'],6,0.04642000000058033,,,,,,,,34,18,Man,Rechts,2,
,xotask,xotask,xotask,8,0,8,608,training,positivefb,92,hard,25,1.2008806000012555,['n'],1,right,['2'],5,0.11679929999991145,,,,,,,,34,18,Man,Rechts,2,
,xotask,xotask,xotask,9,0,9,609,training,positivefb,34,easy,9,0.6503255000006902,['c'],0,right,['0'],1,1.0060004999995726,,,,,,,,34,18,Man,Rechts,2,
,xotask,xotask,xotask,10,0,10,610,training,positivefb,99,easy,9,0.7831334000002244,['n'],1,right,['1'],6,0.28713390000120853,,,,,,,,34,18,Man,Rechts,2,
,xotask,xotask,xotask,11,0,11,611,training,positivefb,71,hard,50,0.8507315000006201,['n'],0,left,['0'],1,0.5856951999994635,,,,,,,,34,18,Man,Rechts,2,
,xotask,xotask,xotask,12,0,12,612,training,positivefb,85,hard,25,1.101033799999641,['c'],0,right,['2'],5,0.16674140000031912,,,,,,,,34,18,Man,Rechts,2,
,xotask,xotask,xotask,13,0,13,613,training,positivefb,90,average,61,0.9182491999999911,['c'],1,left,['1'],6,0.0344636999998329,,,,,,,,34,18,Man,Rechts,2,
,xotask,xotask,xotask,14,0,14,614,training,positivefb,92,hard,54,0.4499722999989899,['c'],1,left,['1'],6,0.0711090000004333,,,,,,,,34,18,Man,Rechts,2,
,xotask,xotask,xotask,15,0,15,615,training,positivefb,92,hard,51,1.500590599998759,['c'],1,left,['3'],4,0.40886890000001586,,,,,,,,34,18,Man,Rechts,2,
,xotask,xotask,xotask,16,0,16,616,training,positivefb,94,average,64,0.6676604000003863,['c'],1,left,['1'],6,0.03787019999981567,,,,,,,,34,18,Man,Rechts,2,
,xotask,xotask,xotask,17,0,17,617,training,positivefb,77,average,16,1.3504023999994388,['n'],1,right,['1'],6,0.3034770000012941,,,,,,,,34,18,Man,Rechts,2,
,xotask,xotask,xotask,18,0,18,618,training,positivefb,76,easy,74,1.9172662000000855,['n'],0,left,['3'],4,0.1260308000000805,,,,,,,,34,18,Man,Rechts,2,
,xotask,xotask,xotask,19,0,19,619,training,positivefb,96,average,18,0.866468199999872,['n'],1,right,['1'],6,0.1667128999997658,,,,,,,,34,18,Man,Rechts,2,
,xotask,xotask,xotask,20,0,20,620,training,positivefb,80,average,16,1.6316860999995697,['n'],1,right,['2'],5,0.3745539999999892,,,,,,,,34,18,Man,Rechts,2,
,xotask,xotask,xotask,21,0,21,621,training,positivefb,93,easy,73,0.6674320000001899,['c'],1,left,['1'],6,0.021839799999725074,,,,,,,,34,18,Man,Rechts,2,
,xotask,xotask,xotask,22,0,22,622,training,positivefb,90,hard,26,0.7504246999997122,['n'],1,right,['1'],6,0.03881499999988591,,,,,,,,34,18,Man,Rechts,2,
,xotask,xotask,xotask,23,0,23,623,training,positivefb,87,hard,28,1.7830947000002197,['c'],0,right,['1'],6,0.1028719000005367,,,,,,,,34,18,Man,Rechts,2,
,xotask,xotask,xotask,24,0,24,624,training,positivefb,98,easy,70,0.450075900000229,['c'],1,left,['1'],6,0.04093929999908141,,,,,,,,34,18,Man,Rechts,2,
,xotask,xotask,xotask,25,0,25,625,training,positivefb,97,easy,8,0.6659203999988677,['n'],1,right,['1'],6,0.11675800000011805,,,,,,,,34,18,Man,Rechts,2,
,xotask,xotask,xotask,26,0,26,626,training,positivefb,96,easy,74,1.350792299999739,['c'],1,left,['1'],6,0.0656485999988945,,,,,,,,34,18,Man,Rechts,2,
,xotask,xotask,xotask,27,0,27,627,training,positivefb,92,hard,27,0.9172866999997495,['n'],1,right,['1'],6,0.08238259999961883,,,,,,,,34,18,Man,Rechts,2,
,xotask,xotask,xotask,28,0,28,628,training,positivefb,87,easy,5,0.867300999998406,['n'],1,right,['1'],6,0.0524091999996017,,,,,,,,34,18,Man,Rechts,2,
,xotask,xotask,xotask,29,0,29,629,training,positivefb,96,easy,72,0.6668149000015546,['c'],1,left,['1'],6,0.031817000000955886,,,,,,,,34,18,Man,Rechts,2,
,xotask,xotask,xotask,30,0,30,630,training,positivefb,87,easy,6,1.8008114999993268,['n'],1,right,['2'],5,0.09444520000033663,,,,,,,,34,18,Man,Rechts,2,
,xotask,xotask,xotask,31,0,31,631,training,positivefb,90,average,15,1.1839095000013913,['n'],1,right,['1'],6,0.08339150000028894,,,,,,,,34,18,Man,Rechts,2,
,xotask,xotask,xotask,32,0,32,632,training,positivefb,94,average,62,0.700535600000876,['c'],1,left,['1'],6,0.012439900001481874,,,,,,,,34,18,Man,Rechts,2,
,xotask,xotask,xotask,33,0,33,633,training,positivefb,94,hard,53,0.41648110000096494,['c'],1,left,['1'],6,0.04379730000073323,,,,,,,,34,18,Man,Rechts,2,
,xotask,xotask,xotask,34,0,34,634,training,positivefb,87,easy,72,0.7330799999999726,['c'],1,left,['1'],6,0.06129519999922195,,,,,,,,34,18,Man,Rechts,2,
,xotask,xotask,xotask,35,0,35,635,training,positivefb,96,average,18,1.5831488000003446,['n'],1,right,['2'],5,0.1400895999995555,,,,,,,,34,18,Man,Rechts,2,
,xotask,xotask,xotask,36,0,36,636,training,positivefb,91,easy,7,1.2494284000003972,['n'],1,right,['2'],5,0.23686989999987418,,,,,,,,34,18,Man,Rechts,2,
,xotask,xotask,xotask,37,0,37,637,training,positivefb,94,hard,54,1.1832126999997854,['c'],1,left,['1'],6,0.36401110000042536,,,,,,,,34,18,Man,Rechts,2,
,xotask,xotask,xotask,38,0,38,638,training,positivefb,96,easy,70,0.6497457999994367,['c'],1,left,['1'],6,0.027945799998633447,,,,,,,,34,18,Man,Rechts,2,
,xotask,xotask,xotask,39,0,39,639,training,positivefb,89,easy,74,1.0840114000002359,['c'],1,left,['1'],6,0.03193409999948926,,,,,,,,34,18,Man,Rechts,2,
,xotask,xotask,xotask,40,0,40,640,training,positivefb,93,average,64,0.5664387000015267,['c'],1,left,['1'],6,0.05596440000044822,,,,,,,,34,18,Man,Rechts,2,
,xotask,xotask,xotask,41,0,41,641,training,positivefb,93,hard,25,1.4842701999987185,['c'],0,right,['2'],5,0.07561549999991257,,,,,,,,34,18,Man,Rechts,2,
,xotask,xotask,xotask,42,0,42,642,training,positivefb,93,hard,28,1.1502204000007623,['c'],0,right,['1'],6,0.06569040000067616,,,,,,,,34,18,Man,Rechts,2,
,xotask,xotask,xotask,43,0,43,643,training,positivefb,98,average,61,0.4674011999995855,['c'],1,left,['1'],6,0.045308500000828644,,,,,,,,34,18,Man,Rechts,2,
,xotask,xotask,xotask,44,0,44,644,training,positivefb,91,hard,53,0.6157476999997016,['c'],1,left,['1'],6,0.04306659999929252,,,,,,,,34,18,Man,Rechts,2,
,xotask,xotask,xotask,45,0,45,645,training,positivefb,95,easy,72,0.7003800999991654,['c'],1,left,['1'],6,0.06936060000043653,,,,,,,,34,18,Man,Rechts,2,
,xotask,xotask,xotask,46,0,46,646,training,positivefb,83,hard,27,0.8995670000003884,['n'],1,right,['1'],6,0.1345232000003307,,,,,,,,34,18,Man,Rechts,2,
,xotask,xotask,xotask,47,0,47,647,training,positivefb,96,hard,51,0.9002395999996224,['c'],1,left,['2'],5,0.1327476000005845,,,,,,,,34,18,Man,Rechts,2,
,xotask,xotask,xotask,48,0,48,648,training,positivefb,87,easy,9,0.6336360999994213,['n'],1,right,['1'],6,0.3028364000001602,,,,,,,,34,18,Man,Rechts,2,
,xotask,xotask,xotask,49,0,49,649,training,positivefb,95,hard,51,0.617115000000922,['c'],1,left,['1'],6,0.06657009999980801,,,,,,,,34,18,Man,Rechts,2,
,xotask,xotask,xotask,50,0,50,650,training,positivefb,89,average,61,1.199635799999669,['c'],1,left,['1'],6,0.04725200000029872,,,,,,,,34,18,Man,Rechts,2,
,xotask,xotask,xotask,51,0,51,651,training,positivefb,85,hard,26,0.7507299000008061,['c'],0,right,['1'],6,0.03944930000034219,,,,,,,,34,18,Man,Rechts,2,
,xotask,xotask,xotask,52,0,52,652,training,positivefb,93,easy,9,1.1338252999994438,['n'],1,right,['2'],5,0.160884700000679,,,,,,,,34,18,Man,Rechts,2,
,xotask,xotask,xotask,53,0,53,653,training,positivefb,73,average,19,1.0343021000007866,['n'],1,right,['2'],5,0.17786210000122082,,,,,,,,34,18,Man,Rechts,2,
