starttime,task,fbtask,firsttask,withinblocktrial,block,withintasktrial,trial,running,feedback,fbscore,difflevel,reddots,rt,resp,cor,cresp,conf_press,cj,RTconf,n_xes,post1,post2,post3,post4,post5,stoptime,sub,age,gender,handedness,session,
1715669945,dotcolour,dotcolour,xotask,0,0,0,0,training,negativefb,98,average,52,0.5851769999999306,['c'],1,left,['0'],6,4.479861300000039,,,,,,,,12,18,Vrouw,Rechts,2,
,dotcolour,dotcolour,xotask,1,0,1,1,training,negativefb,33,easy,64,2.583087599999999,['n'],0,left,['8'],4,0.6366987999999765,,,,,,,,12,18,Vrouw,Rechts,2,
,dotcolour,dotcolour,xotask,2,0,2,2,training,negativefb,69,hard,39,0.9994358000001284,['n'],1,right,['9'],5,0.22730550000005678,,,,,,,,12,18,Vrouw,Rechts,2,
,dotcolour,dotcolour,xotask,3,0,3,3,training,negativefb,43,average,27,0.8658637999999428,['n'],1,right,['9'],5,0.10405830000013339,,,,,,,,12,18,Vrouw,Rechts,2,
,dotcolour,dotcolour,xotask,4,0,4,4,training,negativefb,57,hard,42,1.1500088000000233,['c'],1,left,['9'],5,0.08579119999990326,,,,,,,,12,18,Vrouw,Rechts,2,
,dotcolour,dotcolour,xotask,5,0,5,5,training,negativefb,46,easy,17,0.6499354000000039,['n'],1,right,['9'],5,0.08874530000002778,,,,,,,,12,18,Vrouw,Rechts,2,
,dotcolour,dotcolour,xotask,6,0,6,6,training,negativefb,69,average,53,1.233313699999826,['c'],1,left,['0'],6,0.251689499999884,,,,,,,,12,18,Vrouw,Rechts,2,
,dotcolour,dotcolour,xotask,7,0,7,7,training,negativefb,53,average,54,0.7169596000001093,['c'],1,left,['0'],6,0.14915259999997943,,,,,,,,12,18,Vrouw,Rechts,2,
,dotcolour,dotcolour,xotask,8,0,8,8,training,negativefb,64,easy,18,0.5500060999997913,['n'],1,right,['0'],6,0.2169909000001553,,,,,,,,12,18,Vrouw,Rechts,2,
,dotcolour,dotcolour,xotask,9,0,9,9,training,negativefb,51,average,28,0.6832170000000133,['n'],1,right,['0'],6,0.12561349999987215,,,,,,,,12,18,Vrouw,Rechts,2,
,dotcolour,dotcolour,xotask,10,0,10,10,training,negativefb,79,hard,45,0.5668206000000282,['n'],0,left,['0'],6,0.09814200000005258,,,,,,,,12,18,Vrouw,Rechts,2,
,dotcolour,dotcolour,xotask,11,0,11,11,training,negativefb,43,hard,44,0.3999294000000191,['n'],0,left,['0'],6,0.12647149999997964,,,,,,,,12,18,Vrouw,Rechts,2,
,dotcolour,dotcolour,xotask,12,0,12,12,training,negativefb,45,average,29,0.05863449999992554,['c'],0,right,['0'],6,0.9222916999999597,,,,,,,,12,18,Vrouw,Rechts,2,
,dotcolour,dotcolour,xotask,13,0,13,13,training,negativefb,85,hard,35,0.6656616999998732,['n'],1,right,['0'],6,0.09781559999987621,,,,,,,,12,18,Vrouw,Rechts,2,
,dotcolour,dotcolour,xotask,14,0,14,14,training,negativefb,51,easy,64,0.5832444999998643,['c'],1,left,['0'],6,0.09466800000018338,,,,,,,,12,18,Vrouw,Rechts,2,
,dotcolour,dotcolour,xotask,15,0,15,15,training,negativefb,74,easy,63,0.516382300000032,['c'],1,left,['0'],6,0.09506839999994554,,,,,,,,12,18,Vrouw,Rechts,2,
,dotcolour,dotcolour,xotask,16,0,16,16,training,negativefb,52,hard,36,0.5668066999999155,['n'],1,right,['0'],6,0.1176229999998668,,,,,,,,12,18,Vrouw,Rechts,2,
,dotcolour,dotcolour,xotask,17,0,17,17,training,negativefb,70,hard,45,0.883057000000008,['c'],1,left,['9'],5,0.10082109999984823,,,,,,,,12,18,Vrouw,Rechts,2,
,dotcolour,dotcolour,xotask,18,0,18,18,training,negativefb,49,hard,36,0.4649636999999984,['n'],1,right,['9'],5,0.09441070000002583,,,,,,,,12,18,Vrouw,Rechts,2,
,dotcolour,dotcolour,xotask,19,0,19,19,training,negativefb,11,average,52,0.197331899999881,['c'],1,left,['9'],5,0.5226202000001194,,,,,,,,12,18,Vrouw,Rechts,2,
,dotcolour,dotcolour,xotask,20,0,20,20,training,negativefb,43,hard,36,0.21583239999995385,['c'],0,right,['0'],6,0.15709970000011708,,,,,,,,12,18,Vrouw,Rechts,2,
,dotcolour,dotcolour,xotask,21,0,21,21,training,negativefb,55,hard,36,0.18555530000003273,['n'],1,right,['9'],5,0.11147729999993317,,,,,,,,12,18,Vrouw,Rechts,2,
,dotcolour,dotcolour,xotask,22,0,22,22,training,negativefb,85,easy,61,0.21595880000018042,['c'],1,left,['9'],5,0.16277450000006866,,,,,,,,12,18,Vrouw,Rechts,2,
,dotcolour,dotcolour,xotask,23,0,23,23,training,negativefb,48,hard,44,0.38330889999997453,['n'],0,left,['9'],5,0.09306330000003982,,,,,,,,12,18,Vrouw,Rechts,2,
,dotcolour,dotcolour,xotask,24,0,24,24,training,negativefb,78,average,25,0.6999786999999742,['n'],1,right,['0'],6,0.15791139999987536,,,,,,,,12,18,Vrouw,Rechts,2,
,dotcolour,dotcolour,xotask,25,0,25,25,training,negativefb,79,average,54,0.4177405999998882,['c'],1,left,['8'],4,0.11166559999992387,,,,,,,,12,18,Vrouw,Rechts,2,
,dotcolour,dotcolour,xotask,26,0,26,26,training,negativefb,70,easy,15,0.2495469000000412,['n'],1,right,['9'],5,0.23337979999996605,,,,,,,,12,18,Vrouw,Rechts,2,
,dotcolour,dotcolour,xotask,27,0,27,27,training,negativefb,42,easy,61,0.2841069000000971,['n'],0,left,['9'],5,0.1650196999999025,,,,,,,,12,18,Vrouw,Rechts,2,
,dotcolour,dotcolour,xotask,28,0,28,28,training,negativefb,10,easy,64,0.4666950999999244,['n'],0,left,['1'],1,0.9315249000001131,,,,,,,,12,18,Vrouw,Rechts,2,
,dotcolour,dotcolour,xotask,29,0,29,29,training,negativefb,20,hard,38,0.33356909999997697,['c'],0,right,['9'],5,0.16880240000000413,,,,,,,,12,18,Vrouw,Rechts,2,
,dotcolour,dotcolour,xotask,30,0,30,30,training,negativefb,74,hard,44,0.33330419999992955,['c'],1,left,['0'],6,0.14906949999999597,,,,,,,,12,18,Vrouw,Rechts,2,
,dotcolour,dotcolour,xotask,31,0,31,31,training,negativefb,88,easy,61,0.38406910000003336,['c'],1,left,['9'],5,0.1116644000001088,,,,,,,,12,18,Vrouw,Rechts,2,
,dotcolour,dotcolour,xotask,32,0,32,32,training,negativefb,67,hard,36,0.7336417999999867,['n'],1,right,['0'],6,0.10157019999996919,,,,,,,,12,18,Vrouw,Rechts,2,
,dotcolour,dotcolour,xotask,33,0,33,33,training,negativefb,89,easy,16,0.6001380000000154,['n'],1,right,['0'],6,0.14648140000008425,,,,,,,,12,18,Vrouw,Rechts,2,
,dotcolour,dotcolour,xotask,34,0,34,34,training,negativefb,55,average,29,0.6178686000000653,['c'],0,right,['0'],6,0.06834349999985534,,,,,,,,12,18,Vrouw,Rechts,2,
,dotcolour,dotcolour,xotask,35,0,35,35,training,negativefb,24,easy,18,0.6001377999998567,['c'],0,right,['1'],1,0.5936741000000438,,,,,,,,12,18,Vrouw,Rechts,2,
,dotcolour,dotcolour,xotask,36,0,36,36,training,negativefb,36,easy,62,0.6176181999999244,['c'],1,left,['9'],5,0.28206299999988005,,,,,,,,12,18,Vrouw,Rechts,2,
,dotcolour,dotcolour,xotask,37,0,37,37,training,negativefb,81,easy,65,0.5166203999999652,['c'],1,left,['0'],6,0.12909149999995861,,,,,,,,12,18,Vrouw,Rechts,2,
,dotcolour,dotcolour,xotask,38,0,38,38,training,negativefb,49,average,55,0.8671019000000797,['n'],0,left,['0'],6,0.15474220000010064,,,,,,,,12,18,Vrouw,Rechts,2,
,dotcolour,dotcolour,xotask,39,0,39,39,training,negativefb,64,average,25,0.5672603999998955,['n'],1,right,['0'],6,0.11025049999989278,,,,,,,,12,18,Vrouw,Rechts,2,
,dotcolour,dotcolour,xotask,40,0,40,40,training,negativefb,77,easy,17,0.40000110000005407,['n'],1,right,['0'],6,0.08906299999989642,,,,,,,,12,18,Vrouw,Rechts,2,
,dotcolour,dotcolour,xotask,41,0,41,41,training,negativefb,64,average,27,0.45000099999992926,['n'],1,right,['0'],6,0.1157700000001114,,,,,,,,12,18,Vrouw,Rechts,2,
,dotcolour,dotcolour,xotask,42,0,42,42,training,negativefb,39,hard,42,0.41634899999985464,['n'],0,left,['0'],6,0.14323620000004667,,,,,,,,12,18,Vrouw,Rechts,2,
,dotcolour,dotcolour,xotask,43,0,43,43,training,negativefb,58,easy,15,0.4835519999999178,['n'],1,right,['9'],5,0.1104953999999907,,,,,,,,12,18,Vrouw,Rechts,2,
,dotcolour,dotcolour,xotask,44,0,44,44,training,negativefb,83,average,25,0.3668807999999899,['n'],1,right,['0'],6,0.15540299999997842,,,,,,,,12,18,Vrouw,Rechts,2,
,dotcolour,dotcolour,xotask,45,0,45,45,training,negativefb,70,easy,17,0.4335373999999774,['n'],1,right,['0'],6,0.1885479000000032,,,,,,,,12,18,Vrouw,Rechts,2,
,dotcolour,dotcolour,xotask,46,0,46,46,training,negativefb,40,average,53,0.5170157000000017,['c'],1,left,['9'],5,0.136748199999829,,,,,,,,12,18,Vrouw,Rechts,2,
,dotcolour,dotcolour,xotask,47,0,47,47,training,negativefb,65,easy,18,0.4680359999999837,['n'],1,right,['0'],6,0.12802599999986342,,,,,,,,12,18,Vrouw,Rechts,2,
,dotcolour,dotcolour,xotask,48,0,48,48,training,negativefb,53,hard,45,0.7340040000001409,['c'],1,left,['9'],5,0.10233579999999165,,,,,,,,12,18,Vrouw,Rechts,2,
,dotcolour,dotcolour,xotask,49,0,49,49,training,negativefb,52,hard,36,0.7177352999999584,['n'],1,right,['0'],6,0.22148569999990286,,,,,,,,12,18,Vrouw,Rechts,2,
,dotcolour,dotcolour,xotask,50,0,50,50,training,negativefb,79,easy,19,0.49980839999989257,['n'],1,right,['0'],6,0.12103449999995064,,,,,,,,12,18,Vrouw,Rechts,2,
,dotcolour,dotcolour,xotask,51,0,51,51,training,negativefb,91,average,29,0.41612370000007104,['n'],1,right,['0'],6,0.13958370000000286,,,,,,,,12,18,Vrouw,Rechts,2,
,dotcolour,dotcolour,xotask,52,0,52,52,training,negativefb,50,hard,36,0.36671290000003864,['c'],0,right,['0'],6,0.11158070000010412,,,,,,,,12,18,Vrouw,Rechts,2,
,dotcolour,dotcolour,xotask,53,0,53,53,training,negativefb,71,average,28,0.13331019999986893,['n'],1,right,['0'],6,0.04425249999985681,,,,,,,,12,18,Vrouw,Rechts,2,
,dotcolour,dotcolour,xotask,54,0,54,54,training,negativefb,49,average,54,0.3997741999999107,['c'],1,left,['0'],6,0.06630399999994552,,,,,,,,12,18,Vrouw,Rechts,2,
,dotcolour,dotcolour,xotask,55,0,55,55,training,negativefb,71,hard,43,0.3662802000001193,['n'],0,left,['0'],6,0.08941729999992276,,,,,,,,12,18,Vrouw,Rechts,2,
,dotcolour,dotcolour,xotask,56,0,56,56,training,negativefb,78,average,54,0.35033590000011827,['c'],1,left,['0'],6,0.07987439999988055,,,,,,,,12,18,Vrouw,Rechts,2,
,dotcolour,dotcolour,xotask,57,0,57,57,training,negativefb,36,average,54,0.24889419999999518,['n'],0,left,['9'],5,0.051120400000172594,,,,,,,,12,18,Vrouw,Rechts,2,
,dotcolour,dotcolour,xotask,58,0,58,58,training,negativefb,57,easy,61,0.3827395000000706,['c'],1,left,['0'],6,0.04233039999985522,,,,,,,,12,18,Vrouw,Rechts,2,
,dotcolour,dotcolour,xotask,59,0,59,59,training,negativefb,49,hard,42,0.5333553000000393,['n'],0,left,['0'],6,0.09998780000000806,,,,,,,,12,18,Vrouw,Rechts,2,
,dotcolour,dotcolour,xotask,0,1,60,60,training,negativefb,55,easy,64,0.7006872000001749,['c'],1,left,['0'],6,0.06735149999985879,,,,,,,,12,18,Vrouw,Rechts,2,
,dotcolour,dotcolour,xotask,1,1,61,61,training,negativefb,53,easy,61,0.4668794000001526,['c'],1,left,['0'],6,0.07750920000012229,,,,,,,,12,18,Vrouw,Rechts,2,
,dotcolour,dotcolour,xotask,2,1,62,62,training,negativefb,58,hard,45,0.3671783000002051,['c'],1,left,['0'],6,0.10055309999984274,,,,,,,,12,18,Vrouw,Rechts,2,
,dotcolour,dotcolour,xotask,3,1,63,63,training,negativefb,66,average,53,0.39963719999991554,['c'],1,left,['9'],5,0.1362351000000217,,,,,,,,12,18,Vrouw,Rechts,2,
,dotcolour,dotcolour,xotask,4,1,64,64,training,negativefb,93,average,52,0.3501223000000664,['c'],1,left,['0'],6,0.11722599999984595,,,,,,,,12,18,Vrouw,Rechts,2,
,dotcolour,dotcolour,xotask,5,1,65,65,training,negativefb,33,hard,35,0.26703229999998257,['c'],0,right,['0'],6,0.1498578999999154,,,,,,,,12,18,Vrouw,Rechts,2,
,dotcolour,dotcolour,xotask,6,1,66,66,training,negativefb,45,easy,17,0.43332440000017414,['n'],1,right,['0'],6,0.1426371999998537,,,,,,,,12,18,Vrouw,Rechts,2,
,dotcolour,dotcolour,xotask,7,1,67,67,training,negativefb,77,average,25,0.40027869999994437,['n'],1,right,['0'],6,0.11373660000003838,,,,,,,,12,18,Vrouw,Rechts,2,
,dotcolour,dotcolour,xotask,8,1,68,68,training,negativefb,76,hard,43,0.783758200000193,['c'],1,left,['3'],3,0.9904478999999355,,,,,,,,12,18,Vrouw,Rechts,2,
,dotcolour,dotcolour,xotask,9,1,69,69,training,negativefb,53,easy,65,0.49974520000000666,['c'],1,left,['0'],6,0.1149723000000904,,,,,,,,12,18,Vrouw,Rechts,2,
,dotcolour,dotcolour,xotask,10,1,70,70,training,negativefb,59,hard,45,0.8162525999998707,['c'],1,left,['9'],5,0.09382010000012997,,,,,,,,12,18,Vrouw,Rechts,2,
,dotcolour,dotcolour,xotask,11,1,71,71,training,negativefb,71,hard,38,1.099300299999868,['n'],1,right,['8'],4,0.1104001999999582,,,,,,,,12,18,Vrouw,Rechts,2,
,dotcolour,dotcolour,xotask,12,1,72,72,training,negativefb,44,average,26,0.6003279999999904,['n'],1,right,['0'],6,0.1066673999998784,,,,,,,,12,18,Vrouw,Rechts,2,
,dotcolour,dotcolour,xotask,13,1,73,73,training,negativefb,78,average,54,0.48305329999993774,['c'],1,left,['0'],6,0.19510040000000117,,,,,,,,12,18,Vrouw,Rechts,2,
,dotcolour,dotcolour,xotask,14,1,74,74,training,negativefb,52,average,29,0.5173231999999643,['c'],0,right,['1'],1,0.4545557999999801,,,,,,,,12,18,Vrouw,Rechts,2,
,dotcolour,dotcolour,xotask,15,1,75,75,training,negativefb,55,average,26,0.9828150999999252,['n'],1,right,['0'],6,0.1252927999998974,,,,,,,,12,18,Vrouw,Rechts,2,
,dotcolour,dotcolour,xotask,16,1,76,76,training,negativefb,51,easy,61,0.4674311999999645,['c'],1,left,['0'],6,0.07747850000009748,,,,,,,,12,18,Vrouw,Rechts,2,
,dotcolour,dotcolour,xotask,17,1,77,77,training,negativefb,36,average,51,0.5495602000000872,['c'],1,left,['0'],6,0.07669340000006741,,,,,,,,12,18,Vrouw,Rechts,2,
,dotcolour,dotcolour,xotask,18,1,78,78,training,negativefb,52,easy,61,0.5672985999999582,['c'],1,left,['0'],6,0.05997619999993731,,,,,,,,12,18,Vrouw,Rechts,2,
,dotcolour,dotcolour,xotask,19,1,79,79,training,negativefb,67,easy,18,0.3667374000001473,['n'],1,right,['0'],6,0.07557040000006054,,,,,,,,12,18,Vrouw,Rechts,2,
,dotcolour,dotcolour,xotask,20,1,80,80,training,negativefb,78,easy,63,0.6496133000000555,['c'],1,left,['0'],6,0.07915630000002238,,,,,,,,12,18,Vrouw,Rechts,2,
,dotcolour,dotcolour,xotask,21,1,81,81,training,negativefb,89,easy,16,0.43385030000013103,['n'],1,right,['0'],6,0.11476600000014514,,,,,,,,12,18,Vrouw,Rechts,2,
,dotcolour,dotcolour,xotask,22,1,82,82,training,negativefb,61,hard,41,0.8331522000000859,['n'],0,left,['0'],6,0.04476350000004459,,,,,,,,12,18,Vrouw,Rechts,2,
,dotcolour,dotcolour,xotask,23,1,83,83,training,negativefb,51,easy,15,0.4490588999999545,['c'],0,right,['0'],6,0.07367530000010447,,,,,,,,12,18,Vrouw,Rechts,2,
,dotcolour,dotcolour,xotask,24,1,84,84,training,negativefb,59,easy,16,0.43447869999999966,['n'],1,right,['0'],6,0.10116369999991548,,,,,,,,12,18,Vrouw,Rechts,2,
,dotcolour,dotcolour,xotask,25,1,85,85,training,negativefb,56,hard,45,1.183265399999982,['c'],1,left,['0'],6,0.025604999999814027,,,,,,,,12,18,Vrouw,Rechts,2,
,dotcolour,dotcolour,xotask,26,1,86,86,training,negativefb,71,easy,63,0.5666816000000381,['c'],1,left,['0'],6,0.05853239999987636,,,,,,,,12,18,Vrouw,Rechts,2,
,dotcolour,dotcolour,xotask,27,1,87,87,training,negativefb,68,easy,16,0.3999174000000494,['n'],1,right,['0'],6,0.08026410000002215,,,,,,,,12,18,Vrouw,Rechts,2,
,dotcolour,dotcolour,xotask,28,1,88,88,training,negativefb,59,average,53,1.1341169999998328,['c'],1,left,['8'],4,0.16102150000006077,,,,,,,,12,18,Vrouw,Rechts,2,
,dotcolour,dotcolour,xotask,29,1,89,89,training,negativefb,50,average,28,0.5674942000000556,['n'],1,right,['0'],6,0.11633560000018406,,,,,,,,12,18,Vrouw,Rechts,2,
,dotcolour,dotcolour,xotask,30,1,90,90,training,negativefb,33,easy,15,0.24920530000008512,['c'],0,right,['0'],6,0.03769379999994271,,,,,,,,12,18,Vrouw,Rechts,2,
,dotcolour,dotcolour,xotask,31,1,91,91,training,negativefb,55,hard,43,0.40121720000001915,['n'],0,left,['0'],6,0.10768880000000536,,,,,,,,12,18,Vrouw,Rechts,2,
,dotcolour,dotcolour,xotask,32,1,92,92,training,negativefb,63,average,29,0.5832084000001032,['n'],1,right,['9'],5,0.11352409999994961,,,,,,,,12,18,Vrouw,Rechts,2,
,dotcolour,dotcolour,xotask,33,1,93,93,training,negativefb,38,hard,35,0.3840629999999692,['n'],1,right,['0'],6,0.28545789999998306,,,,,,,,12,18,Vrouw,Rechts,2,
,dotcolour,dotcolour,xotask,34,1,94,94,training,negativefb,70,average,26,0.4839538999999604,['n'],1,right,['0'],6,0.4228153999999904,,,,,,,,12,18,Vrouw,Rechts,2,
,dotcolour,dotcolour,xotask,35,1,95,95,training,negativefb,54,hard,37,0.900840799999969,['c'],0,right,['8'],4,0.0902346000000307,,,,,,,,12,18,Vrouw,Rechts,2,
,dotcolour,dotcolour,xotask,36,1,96,96,training,negativefb,53,hard,39,0.44937160000017684,['n'],1,right,['0'],6,0.08509490000005826,,,,,,,,12,18,Vrouw,Rechts,2,
,dotcolour,dotcolour,xotask,37,1,97,97,training,negativefb,57,easy,15,0.5835477000000537,['n'],1,right,['0'],6,0.13070769999990262,,,,,,,,12,18,Vrouw,Rechts,2,
,dotcolour,dotcolour,xotask,38,1,98,98,training,negativefb,79,easy,63,0.6332729000000654,['c'],1,left,['0'],6,0.3327114999999594,,,,,,,,12,18,Vrouw,Rechts,2,
,dotcolour,dotcolour,xotask,39,1,99,99,training,negativefb,81,easy,19,0.6329121000001123,['n'],1,right,['0'],6,0.07777979999991658,,,,,,,,12,18,Vrouw,Rechts,2,
,dotcolour,dotcolour,xotask,40,1,100,100,training,negativefb,43,hard,41,1.2175098999998681,['n'],0,left,['8'],4,0.12199020000002747,,,,,,,,12,18,Vrouw,Rechts,2,
,dotcolour,dotcolour,xotask,41,1,101,101,training,negativefb,71,hard,41,0.8168241000000762,['c'],1,left,['9'],5,0.05282609999994747,,,,,,,,12,18,Vrouw,Rechts,2,
,dotcolour,dotcolour,xotask,42,1,102,102,training,negativefb,50,hard,43,0.6494923000000199,['n'],0,left,['0'],6,0.0889451000000463,,,,,,,,12,18,Vrouw,Rechts,2,
,dotcolour,dotcolour,xotask,43,1,103,103,training,negativefb,52,easy,19,0.5662801000000854,['n'],1,right,['0'],6,0.04666799999995419,,,,,,,,12,18,Vrouw,Rechts,2,
,dotcolour,dotcolour,xotask,44,1,104,104,training,negativefb,58,average,55,0.6826089000001048,['c'],1,left,['8'],4,0.05862070000011954,,,,,,,,12,18,Vrouw,Rechts,2,
,dotcolour,dotcolour,xotask,45,1,105,105,training,negativefb,82,hard,35,0.5172228999999788,['c'],0,right,['0'],6,0.05942090000007738,,,,,,,,12,18,Vrouw,Rechts,2,
,dotcolour,dotcolour,xotask,46,1,106,106,training,negativefb,59,average,28,0.38279899999997724,['c'],0,right,['0'],6,0.04201510000007147,,,,,,,,12,18,Vrouw,Rechts,2,
,dotcolour,dotcolour,xotask,47,1,107,107,training,negativefb,62,hard,44,1.683839799999987,['n'],0,left,['8'],4,0.13319260000002942,,,,,,,,12,18,Vrouw,Rechts,2,
,dotcolour,dotcolour,xotask,48,1,108,108,training,negativefb,36,hard,38,0.6335460000000239,['c'],0,right,['8'],4,0.06255150000015419,,,,,,,,12,18,Vrouw,Rechts,2,
,dotcolour,dotcolour,xotask,49,1,109,109,training,negativefb,78,average,25,0.5162184000000707,['n'],1,right,['0'],6,0.06427540000004228,,,,,,,,12,18,Vrouw,Rechts,2,
,dotcolour,dotcolour,xotask,50,1,110,110,training,negativefb,65,average,51,0.8494794999999158,['c'],1,left,['9'],5,0.07557569999994485,,,,,,,,12,18,Vrouw,Rechts,2,
,dotcolour,dotcolour,xotask,51,1,111,111,training,negativefb,36,average,53,2.51767360000008,['c'],1,left,['1'],1,0.5242368000001534,,,,,,,,12,18,Vrouw,Rechts,2,
,dotcolour,dotcolour,xotask,52,1,112,112,training,negativefb,45,average,53,0.9493812000000617,['n'],0,left,['8'],4,0.4095651000000089,,,,,,,,12,18,Vrouw,Rechts,2,
,dotcolour,dotcolour,xotask,53,1,113,113,training,negativefb,18,average,26,2.283350599999949,['c'],0,right,['3'],3,0.8546753999999055,,,,,,,,12,18,Vrouw,Rechts,2,
,dotcolour,dotcolour,xotask,54,1,114,114,training,negativefb,48,hard,36,0.7662143000000015,['n'],1,right,['8'],4,0.06926520000001801,,,,,,,,12,18,Vrouw,Rechts,2,
,dotcolour,dotcolour,xotask,55,1,115,115,training,negativefb,67,hard,38,0.2670530000000326,['n'],1,right,['9'],5,0.03190479999989293,,,,,,,,12,18,Vrouw,Rechts,2,
,dotcolour,dotcolour,xotask,56,1,116,116,training,negativefb,99,easy,65,0.21550159999992502,['c'],1,left,['2'],2,0.9903905000001032,,,,,,,,12,18,Vrouw,Rechts,2,
,dotcolour,dotcolour,xotask,57,1,117,117,training,negativefb,57,hard,39,0.24892529999988255,['c'],0,right,['2'],2,0.00521060000005491,,,,,,,,12,18,Vrouw,Rechts,2,
,dotcolour,dotcolour,xotask,58,1,118,118,training,negativefb,76,average,51,0.3337982999998985,['n'],0,left,['8'],4,0.11179079999988062,,,,,,,,12,18,Vrouw,Rechts,2,
,dotcolour,dotcolour,xotask,59,1,119,119,training,negativefb,58,easy,62,0.19747979999988274,['n'],0,left,['0'],6,0.05971599999998034,,,,,,,,12,18,Vrouw,Rechts,2,
,xotask,dotcolour,xotask,0,2,120,120,main,negativefb,-99,average,,1.1835823999999775,['c'],1,left,['3'],3,0.6851277000000664,64,,,,,,,12,18,Vrouw,Rechts,2,
,xotask,dotcolour,xotask,1,2,121,121,main,negativefb,-99,hard,,0.6007786000000124,['n'],1,right,['8'],4,0.466117899999972,28,,,,,,,12,18,Vrouw,Rechts,2,
,xotask,dotcolour,xotask,2,2,122,122,main,negativefb,-99,easy,,0.4177506999999423,['c'],1,left,['2'],2,0.36721540000007735,72,,,,,,,12,18,Vrouw,Rechts,2,
,xotask,dotcolour,xotask,3,2,123,123,main,negativefb,-99,average,,0.6167273000000932,['c'],1,left,['0'],6,0.2250850000000355,62,,,,,,,12,18,Vrouw,Rechts,2,
,xotask,dotcolour,xotask,4,2,124,124,main,negativefb,-99,easy,,0.6009776999999303,['c'],1,left,['9'],5,0.16059679999989385,73,,,,,,,12,18,Vrouw,Rechts,2,
,xotask,dotcolour,xotask,5,2,125,125,main,negativefb,-99,average,,0.6513343000001441,['n'],1,right,['9'],5,0.12939830000004804,17,,,,,,,12,18,Vrouw,Rechts,2,
,xotask,dotcolour,xotask,6,2,126,126,main,negativefb,-99,hard,,0.5338238000001638,['c'],1,left,['9'],5,0.10359870000002047,51,,,,,,,12,18,Vrouw,Rechts,2,
,xotask,dotcolour,xotask,7,2,127,127,main,negativefb,-99,average,,0.3846003000001019,['n'],1,right,['9'],5,0.0693285999998352,19,,,,,,,12,18,Vrouw,Rechts,2,
,xotask,dotcolour,xotask,8,2,128,128,main,negativefb,-99,easy,,0.4672415000000001,['c'],0,right,['1'],1,0.648452799999859,7,,,,,,,12,18,Vrouw,Rechts,2,
,xotask,dotcolour,xotask,9,2,129,129,main,negativefb,-99,average,,0.8186954000000242,['n'],0,left,['9'],5,0.06306070000005093,64,,,,,,,12,18,Vrouw,Rechts,2,
,xotask,dotcolour,xotask,10,2,130,130,main,negativefb,-99,hard,,0.5839046000000963,['c'],1,left,['9'],5,0.14139460000001236,54,,,,,,,12,18,Vrouw,Rechts,2,
,xotask,dotcolour,xotask,11,2,131,131,main,negativefb,-99,average,,0.30022079999980633,['n'],0,left,['9'],5,0.0767631999999594,60,,,,,,,12,18,Vrouw,Rechts,2,
,xotask,dotcolour,xotask,12,2,132,132,main,negativefb,-99,average,,0.6497342000000117,['n'],1,right,['9'],5,0.41714200000001256,16,,,,,,,12,18,Vrouw,Rechts,2,
,xotask,dotcolour,xotask,13,2,133,133,main,negativefb,-99,hard,,0.41785140000001775,['n'],1,right,['8'],4,0.6481905999999071,26,,,,,,,12,18,Vrouw,Rechts,2,
,xotask,dotcolour,xotask,14,2,134,134,main,negativefb,-99,hard,,0.4516249999999218,['c'],0,right,['9'],5,0.3253669999999147,28,,,,,,,12,18,Vrouw,Rechts,2,
,xotask,dotcolour,xotask,15,2,135,135,main,negativefb,-99,hard,,0.45010369999999966,['n'],0,left,['9'],5,0.10275819999992564,54,,,,,,,12,18,Vrouw,Rechts,2,
,xotask,dotcolour,xotask,16,2,136,136,main,negativefb,-99,hard,,0.7845981999998912,['c'],1,left,['9'],5,0.2528333999998722,53,,,,,,,12,18,Vrouw,Rechts,2,
,xotask,dotcolour,xotask,17,2,137,137,main,negativefb,-99,hard,,0.3329919999998765,['n'],1,right,['9'],5,0.12622280000005048,25,,,,,,,12,18,Vrouw,Rechts,2,
,xotask,dotcolour,xotask,18,2,138,138,main,negativefb,-99,hard,,0.6000957999999628,['n'],1,right,['9'],5,0.11381940000001123,27,,,,,,,12,18,Vrouw,Rechts,2,
,xotask,dotcolour,xotask,19,2,139,139,main,negativefb,-99,average,,0.43263679999995475,['n'],0,left,['9'],5,0.14115459999993618,62,,,,,,,12,18,Vrouw,Rechts,2,
,xotask,dotcolour,xotask,20,2,140,140,main,negativefb,-99,average,,0.45087629999989076,['n'],0,left,['9'],5,0.14256690000001981,63,,,,,,,12,18,Vrouw,Rechts,2,
,xotask,dotcolour,xotask,21,2,141,141,main,negativefb,-99,easy,,0.6669850000000679,['c'],1,left,['9'],5,0.11133150000000569,71,,,,,,,12,18,Vrouw,Rechts,2,
,xotask,dotcolour,xotask,22,2,142,142,main,negativefb,-99,easy,,0.5509199000000535,['n'],1,right,['9'],5,0.14178270000002158,5,,,,,,,12,18,Vrouw,Rechts,2,
,xotask,dotcolour,xotask,23,2,143,143,main,negativefb,-99,average,,1.0003988999999365,['n'],1,right,['9'],5,0.11276610000004439,19,,,,,,,12,18,Vrouw,Rechts,2,
,xotask,dotcolour,xotask,24,2,144,144,main,negativefb,-99,easy,,0.7505094000000554,['n'],1,right,['9'],5,0.1275749999999789,9,,,,,,,12,18,Vrouw,Rechts,2,
,xotask,dotcolour,xotask,25,2,145,145,main,negativefb,-99,hard,,0.4010530000000472,['n'],0,left,['1'],1,0.5561233000000811,54,,,,,,,12,18,Vrouw,Rechts,2,
,xotask,dotcolour,xotask,26,2,146,146,main,negativefb,-99,easy,,0.5853670999999849,['c'],1,left,['9'],5,0.06303219999995235,70,,,,,,,12,18,Vrouw,Rechts,2,
,xotask,dotcolour,xotask,27,2,147,147,main,negativefb,-99,average,,0.5994364000000587,['n'],0,left,['9'],5,0.07823630000007142,60,,,,,,,12,18,Vrouw,Rechts,2,
,xotask,dotcolour,xotask,28,2,148,148,main,negativefb,-99,hard,,0.30075220000003355,['c'],0,right,['9'],5,0.10348060000001169,27,,,,,,,12,18,Vrouw,Rechts,2,
,xotask,dotcolour,xotask,29,2,149,149,main,negativefb,-99,easy,,0.28347770000004857,['n'],0,left,['9'],5,0.14526090000003933,71,,,,,,,12,18,Vrouw,Rechts,2,
,xotask,dotcolour,xotask,30,2,150,150,main,negativefb,-99,average,,0.6337021999997887,['n'],1,right,['9'],5,0.1309671999999864,17,,,,,,,12,18,Vrouw,Rechts,2,
,xotask,dotcolour,xotask,31,2,151,151,main,negativefb,-99,easy,,0.5164368999999169,['n'],1,right,['9'],5,0.17831030000002102,6,,,,,,,12,18,Vrouw,Rechts,2,
,xotask,dotcolour,xotask,32,2,152,152,main,negativefb,-99,hard,,0.5837779000000864,['c'],0,right,['9'],5,0.06908990000010817,27,,,,,,,12,18,Vrouw,Rechts,2,
,xotask,dotcolour,xotask,33,2,153,153,main,negativefb,-99,hard,,0.4682945000001837,['c'],1,left,['9'],5,0.09624289999987923,51,,,,,,,12,18,Vrouw,Rechts,2,
,xotask,dotcolour,xotask,34,2,154,154,main,negativefb,-99,average,,0.518171700000039,['c'],1,left,['9'],5,0.06480469999996785,64,,,,,,,12,18,Vrouw,Rechts,2,
,xotask,dotcolour,xotask,35,2,155,155,main,negativefb,-99,easy,,0.549141999999847,['n'],1,right,['9'],5,0.08115350000002763,7,,,,,,,12,18,Vrouw,Rechts,2,
,xotask,dotcolour,xotask,36,2,156,156,main,negativefb,-99,average,,0.40010030000007646,['n'],1,right,['9'],5,0.10315900000000511,15,,,,,,,12,18,Vrouw,Rechts,2,
,xotask,dotcolour,xotask,37,2,157,157,main,negativefb,-99,hard,,0.5334288999999899,['n'],1,right,['9'],5,0.11874599999987367,29,,,,,,,12,18,Vrouw,Rechts,2,
,xotask,dotcolour,xotask,38,2,158,158,main,negativefb,-99,easy,,0.3995996999999534,['n'],0,left,['1'],1,0.6504644999999982,70,,,,,,,12,18,Vrouw,Rechts,2,
,xotask,dotcolour,xotask,39,2,159,159,main,negativefb,-99,average,,0.43460979999986193,['c'],0,right,['9'],5,0.07906870000010713,18,,,,,,,12,18,Vrouw,Rechts,2,
,xotask,dotcolour,xotask,40,2,160,160,main,negativefb,-99,hard,,0.38381600000002436,['c'],1,left,['9'],5,0.06183729999997922,53,,,,,,,12,18,Vrouw,Rechts,2,
,xotask,dotcolour,xotask,41,2,161,161,main,negativefb,-99,hard,,0.2833474000001388,['c'],1,left,['9'],5,0.17773959999999533,51,,,,,,,12,18,Vrouw,Rechts,2,
,xotask,dotcolour,xotask,42,2,162,162,main,negativefb,-99,hard,,0.2669181999999637,['c'],0,right,['9'],5,0.1765139999999974,28,,,,,,,12,18,Vrouw,Rechts,2,
,xotask,dotcolour,xotask,43,2,163,163,main,negativefb,-99,easy,,0.26743149999992966,['n'],0,left,['9'],5,0.0564547000001312,70,,,,,,,12,18,Vrouw,Rechts,2,
,xotask,dotcolour,xotask,44,2,164,164,main,negativefb,-99,easy,,0.1932596999999987,['n'],1,right,['9'],5,0.1743756000000758,7,,,,,,,12,18,Vrouw,Rechts,2,
,xotask,dotcolour,xotask,45,2,165,165,main,negativefb,-99,easy,,0.2677418000000671,['n'],0,left,['9'],5,0.04630729999985306,71,,,,,,,12,18,Vrouw,Rechts,2,
,xotask,dotcolour,xotask,46,2,166,166,main,negativefb,-99,easy,,0.3338932999999997,['c'],1,left,['9'],5,0.07178859999999077,72,,,,,,,12,18,Vrouw,Rechts,2,
,xotask,dotcolour,xotask,47,2,167,167,main,negativefb,-99,easy,,0.2331426000000647,['n'],0,left,['1'],1,0.5730772000001707,73,,,,,,,12,18,Vrouw,Rechts,2,
,xotask,dotcolour,xotask,48,2,168,168,main,negativefb,-99,average,,0.3836263000000599,['c'],1,left,['9'],5,0.07159739999997328,62,,,,,,,12,18,Vrouw,Rechts,2,
,xotask,dotcolour,xotask,49,2,169,169,main,negativefb,-99,hard,,0.08044859999995424,['n'],1,right,['9'],5,0.053849399999990055,29,,,,,,,12,18,Vrouw,Rechts,2,
,xotask,dotcolour,xotask,50,2,170,170,main,negativefb,-99,average,,0.1099967000000106,['n'],1,right,['9'],5,0.07659880000005614,18,,,,,,,12,18,Vrouw,Rechts,2,
,xotask,dotcolour,xotask,51,2,171,171,main,negativefb,-99,easy,,0.2676874000001135,['n'],1,right,['9'],5,0.06361440000000584,6,,,,,,,12,18,Vrouw,Rechts,2,
,xotask,dotcolour,xotask,52,2,172,172,main,negativefb,-99,average,,0.2831810000000132,['n'],1,right,['9'],5,1.8422746000001098,18,,,,,,,12,18,Vrouw,Rechts,2,
,xotask,dotcolour,xotask,53,2,173,173,main,negativefb,-99,hard,,0.30022150000013426,['n'],0,left,['9'],5,0.26970170000004146,54,,,,,,,12,18,Vrouw,Rechts,2,
,xotask,dotcolour,xotask,54,2,174,174,main,negativefb,-99,hard,,0.23281900000006317,['n'],0,left,['9'],5,0.09872870000003786,52,,,,,,,12,18,Vrouw,Rechts,2,
,xotask,dotcolour,xotask,55,2,175,175,main,negativefb,-99,average,,0.40130530000010367,['c'],1,left,['9'],5,0.07140110000000277,61,,,,,,,12,18,Vrouw,Rechts,2,
,xotask,dotcolour,xotask,56,2,176,176,main,negativefb,-99,average,,0.31682949999981247,['n'],1,right,['1'],1,0.7365161000000171,17,,,,,,,12,18,Vrouw,Rechts,2,
,xotask,dotcolour,xotask,57,2,177,177,main,negativefb,-99,easy,,0.5170297000001938,['n'],1,right,['9'],5,0.07972449999988385,8,,,,,,,12,18,Vrouw,Rechts,2,
,xotask,dotcolour,xotask,58,2,178,178,main,negativefb,-99,easy,,0.2829664999999295,['c'],0,right,['1'],1,0.5383022999999412,5,,,,,,,12,18,Vrouw,Rechts,2,
,xotask,dotcolour,xotask,59,2,179,179,main,negativefb,-99,easy,,0.5170536000000538,['n'],1,right,['9'],5,0.08875729999999749,8,,,,,,,12,18,Vrouw,Rechts,2,
,xotask,dotcolour,xotask,0,3,180,180,main,negativefb,-99,average,,0.7344353000000865,['n'],1,right,['9'],5,0.11732729999994262,19,,,,,,,12,18,Vrouw,Rechts,2,
,xotask,dotcolour,xotask,1,3,181,181,main,negativefb,-99,easy,,0.41836239999997815,['n'],1,right,['9'],5,0.11282649999998284,5,,,,,,,12,18,Vrouw,Rechts,2,
,xotask,dotcolour,xotask,2,3,182,182,main,negativefb,-99,average,,0.44998660000010204,['n'],1,right,['9'],5,0.08289000000013402,19,,,,,,,12,18,Vrouw,Rechts,2,
,xotask,dotcolour,xotask,3,3,183,183,main,negativefb,-99,average,,0.36713430000008884,['n'],1,right,['9'],5,0.07391270000016448,15,,,,,,,12,18,Vrouw,Rechts,2,
,xotask,dotcolour,xotask,4,3,184,184,main,negativefb,-99,average,,0.28439689999981965,['n'],0,left,['9'],5,0.628695099999959,64,,,,,,,12,18,Vrouw,Rechts,2,
,xotask,dotcolour,xotask,5,3,185,185,main,negativefb,-99,average,,0.5003418000001147,['n'],0,left,['9'],5,0.09702830000014728,64,,,,,,,12,18,Vrouw,Rechts,2,
,xotask,dotcolour,xotask,6,3,186,186,main,negativefb,-99,average,,0.35098259999995207,['c'],1,left,['9'],5,0.06390379999993456,64,,,,,,,12,18,Vrouw,Rechts,2,
,xotask,dotcolour,xotask,7,3,187,187,main,negativefb,-99,average,,0.4835957000000235,['c'],1,left,['9'],5,0.115063199999895,64,,,,,,,12,18,Vrouw,Rechts,2,
,xotask,dotcolour,xotask,8,3,188,188,main,negativefb,-99,hard,,0.3678830999999718,['c'],1,left,['9'],5,0.06468640000002779,51,,,,,,,12,18,Vrouw,Rechts,2,
,xotask,dotcolour,xotask,9,3,189,189,main,negativefb,-99,hard,,0.350876499999913,['c'],0,right,['9'],5,0.04874870000003284,28,,,,,,,12,18,Vrouw,Rechts,2,
,xotask,dotcolour,xotask,10,3,190,190,main,negativefb,-99,average,,0.317692500000021,['c'],0,right,['1'],1,0.5064213000000564,17,,,,,,,12,18,Vrouw,Rechts,2,
,xotask,dotcolour,xotask,11,3,191,191,main,negativefb,-99,easy,,0.36771070000008876,['n'],0,left,['9'],5,0.09667209999997795,72,,,,,,,12,18,Vrouw,Rechts,2,
,xotask,dotcolour,xotask,12,3,192,192,main,negativefb,-99,easy,,0.5509574999998677,['c'],0,right,['9'],5,0.07195100000012644,9,,,,,,,12,18,Vrouw,Rechts,2,
,xotask,dotcolour,xotask,13,3,193,193,main,negativefb,-99,hard,,0.24997540000003937,['n'],1,right,['9'],5,0.1487869000000046,28,,,,,,,12,18,Vrouw,Rechts,2,
,xotask,dotcolour,xotask,14,3,194,194,main,negativefb,-99,easy,,0.19316129999992881,['c'],0,right,['9'],5,0.030449100000168983,6,,,,,,,12,18,Vrouw,Rechts,2,
,xotask,dotcolour,xotask,15,3,195,195,main,negativefb,-99,easy,,0.3348115000001144,['n'],1,right,['9'],5,0.06522930000005545,7,,,,,,,12,18,Vrouw,Rechts,2,
,xotask,dotcolour,xotask,16,3,196,196,main,negativefb,-99,hard,,0.7174101999999039,['c'],0,right,['9'],5,0.05063659999996162,26,,,,,,,12,18,Vrouw,Rechts,2,
,xotask,dotcolour,xotask,17,3,197,197,main,negativefb,-99,average,,0.6829350999998951,['n'],1,right,['9'],5,0.14991830000008122,17,,,,,,,12,18,Vrouw,Rechts,2,
,xotask,dotcolour,xotask,18,3,198,198,main,negativefb,-99,easy,,0.5009450999998535,['n'],1,right,['9'],5,0.14054059999989477,5,,,,,,,12,18,Vrouw,Rechts,2,
,xotask,dotcolour,xotask,19,3,199,199,main,negativefb,-99,hard,,0.7513283000000683,['c'],1,left,['9'],5,0.08996099999990292,54,,,,,,,12,18,Vrouw,Rechts,2,
,xotask,dotcolour,xotask,20,3,200,200,main,negativefb,-99,average,,0.901441400000067,['c'],1,left,['9'],5,0.07450579999999718,60,,,,,,,12,18,Vrouw,Rechts,2,
,xotask,dotcolour,xotask,21,3,201,201,main,negativefb,-99,easy,,0.6168200000001889,['c'],1,left,['9'],5,0.04785600000013801,71,,,,,,,12,18,Vrouw,Rechts,2,
,xotask,dotcolour,xotask,22,3,202,202,main,negativefb,-99,hard,,0.8013445000001411,['c'],1,left,['9'],5,0.07839450000005854,54,,,,,,,12,18,Vrouw,Rechts,2,
,xotask,dotcolour,xotask,23,3,203,203,main,negativefb,-99,hard,,0.7328049999998711,['n'],1,right,['9'],5,0.12754599999993843,28,,,,,,,12,18,Vrouw,Rechts,2,
,xotask,dotcolour,xotask,24,3,204,204,main,negativefb,-99,average,,0.5176329999999325,['n'],1,right,['9'],5,0.13498589999994692,17,,,,,,,12,18,Vrouw,Rechts,2,
,xotask,dotcolour,xotask,25,3,205,205,main,negativefb,-99,easy,,0.6163111999999273,['c'],0,right,['9'],5,0.0897204000000329,7,,,,,,,12,18,Vrouw,Rechts,2,
,xotask,dotcolour,xotask,26,3,206,206,main,negativefb,-99,hard,,0.4672075999999379,['n'],1,right,['9'],5,0.0920949000001201,27,,,,,,,12,18,Vrouw,Rechts,2,
,xotask,dotcolour,xotask,27,3,207,207,main,negativefb,-99,easy,,0.583945599999879,['c'],1,left,['9'],5,0.07404300000007424,71,,,,,,,12,18,Vrouw,Rechts,2,
,xotask,dotcolour,xotask,28,3,208,208,main,negativefb,-99,easy,,0.36795740000002297,['n'],1,right,['9'],5,0.1137551000001622,7,,,,,,,12,18,Vrouw,Rechts,2,
,xotask,dotcolour,xotask,29,3,209,209,main,negativefb,-99,hard,,0.40103339999996024,['n'],1,right,['9'],5,0.12672919999999976,26,,,,,,,12,18,Vrouw,Rechts,2,
,xotask,dotcolour,xotask,30,3,210,210,main,negativefb,-99,average,,0.5007585999999264,['n'],1,right,['9'],5,0.14283160000013595,15,,,,,,,12,18,Vrouw,Rechts,2,
,xotask,dotcolour,xotask,31,3,211,211,main,negativefb,-99,average,,0.5677269999998771,['n'],0,left,['9'],5,0.05098109999994449,61,,,,,,,12,18,Vrouw,Rechts,2,
,xotask,dotcolour,xotask,32,3,212,212,main,negativefb,-99,easy,,0.4346037999998771,['n'],1,right,['9'],5,0.06403220000015608,6,,,,,,,12,18,Vrouw,Rechts,2,
,xotask,dotcolour,xotask,33,3,213,213,main,negativefb,-99,easy,,0.2676072000001568,['n'],0,left,['9'],5,0.1153798000000279,73,,,,,,,12,18,Vrouw,Rechts,2,
,xotask,dotcolour,xotask,34,3,214,214,main,negativefb,-99,hard,,0.35060870000006616,['c'],1,left,['9'],5,0.07376479999993535,54,,,,,,,12,18,Vrouw,Rechts,2,
,xotask,dotcolour,xotask,35,3,215,215,main,negativefb,-99,easy,,0.2505388999998104,['c'],0,right,['9'],5,0.09324770000011995,8,,,,,,,12,18,Vrouw,Rechts,2,
,xotask,dotcolour,xotask,36,3,216,216,main,negativefb,-99,hard,,0.25090149999982714,['n'],0,left,['9'],5,0.05696000000011736,54,,,,,,,12,18,Vrouw,Rechts,2,
,xotask,dotcolour,xotask,37,3,217,217,main,negativefb,-99,hard,,1.834075299999995,['n'],1,right,['9'],5,0.09428649999995287,28,,,,,,,12,18,Vrouw,Rechts,2,
,xotask,dotcolour,xotask,38,3,218,218,main,negativefb,-99,easy,,0.600050999999894,['n'],0,left,['9'],5,0.08361170000011953,73,,,,,,,12,18,Vrouw,Rechts,2,
,xotask,dotcolour,xotask,39,3,219,219,main,negativefb,-99,hard,,0.48283599999990656,['c'],1,left,['9'],5,0.10987009999985275,52,,,,,,,12,18,Vrouw,Rechts,2,
,xotask,dotcolour,xotask,40,3,220,220,main,negativefb,-99,hard,,0.6510713999998643,['c'],0,right,['9'],5,0.07254390000002786,28,,,,,,,12,18,Vrouw,Rechts,2,
,xotask,dotcolour,xotask,41,3,221,221,main,negativefb,-99,hard,,0.4506908000000749,['c'],1,left,['9'],5,0.08462899999994988,54,,,,,,,12,18,Vrouw,Rechts,2,
,xotask,dotcolour,xotask,42,3,222,222,main,negativefb,-99,hard,,0.784374600000092,['n'],1,right,['9'],5,0.07409329999995862,25,,,,,,,12,18,Vrouw,Rechts,2,
,xotask,dotcolour,xotask,43,3,223,223,main,negativefb,-99,hard,,0.5184321000001546,['c'],1,left,['9'],5,0.05925030000003062,53,,,,,,,12,18,Vrouw,Rechts,2,
,xotask,dotcolour,xotask,44,3,224,224,main,negativefb,-99,easy,,0.5843641999999818,['c'],1,left,['9'],5,0.08287139999993087,71,,,,,,,12,18,Vrouw,Rechts,2,
,xotask,dotcolour,xotask,45,3,225,225,main,negativefb,-99,hard,,0.4169137999999748,['c'],1,left,['9'],5,0.616049700000076,53,,,,,,,12,18,Vrouw,Rechts,2,
,xotask,dotcolour,xotask,46,3,226,226,main,negativefb,-99,average,,0.5175523999998859,['c'],1,left,['9'],5,0.0823912000000746,61,,,,,,,12,18,Vrouw,Rechts,2,
,xotask,dotcolour,xotask,47,3,227,227,main,negativefb,-99,easy,,0.5524196999999731,['n'],1,right,['9'],5,0.0902573000000757,9,,,,,,,12,18,Vrouw,Rechts,2,
,xotask,dotcolour,xotask,48,3,228,228,main,negativefb,-99,average,,0.4006274000000758,['n'],1,right,['9'],5,0.023977999999942767,19,,,,,,,12,18,Vrouw,Rechts,2,
,xotask,dotcolour,xotask,49,3,229,229,main,negativefb,-99,easy,,0.5164459000000079,['n'],0,left,['9'],5,0.019054500000038388,71,,,,,,,12,18,Vrouw,Rechts,2,
,xotask,dotcolour,xotask,50,3,230,230,main,negativefb,-99,hard,,0.46662659999992684,['n'],1,right,['9'],5,0.6401103000000603,26,,,,,,,12,18,Vrouw,Rechts,2,
,xotask,dotcolour,xotask,51,3,231,231,main,negativefb,-99,average,,0.4180816999999024,['c'],0,right,['9'],5,0.4149351999999453,15,,,,,,,12,18,Vrouw,Rechts,2,
,xotask,dotcolour,xotask,52,3,232,232,main,negativefb,-99,easy,,0.35137269999995624,['c'],1,left,['9'],5,0.041595099999995,70,,,,,,,12,18,Vrouw,Rechts,2,
,xotask,dotcolour,xotask,53,3,233,233,main,negativefb,-99,hard,,0.3669534000000567,['c'],1,left,['9'],5,0.5378296999999748,54,,,,,,,12,18,Vrouw,Rechts,2,
,xotask,dotcolour,xotask,54,3,234,234,main,negativefb,-99,easy,,0.21730509999997594,['n'],0,left,['9'],5,0.07625009999992471,70,,,,,,,12,18,Vrouw,Rechts,2,
,xotask,dotcolour,xotask,55,3,235,235,main,negativefb,-99,average,,0.5668241999999282,['c'],0,right,['9'],5,0.09185400000001209,17,,,,,,,12,18,Vrouw,Rechts,2,
,xotask,dotcolour,xotask,56,3,236,236,main,negativefb,-99,average,,0.6677827000000889,['c'],1,left,['9'],5,0.07069529999989754,60,,,,,,,12,18,Vrouw,Rechts,2,
,xotask,dotcolour,xotask,57,3,237,237,main,negativefb,-99,easy,,1.2683024000000387,['c'],1,left,['9'],5,0.7058368999998947,70,,,,,,,12,18,Vrouw,Rechts,2,
,xotask,dotcolour,xotask,58,3,238,238,main,negativefb,-99,average,,1.0167390999999952,['n'],0,left,['9'],5,0.09400469999991401,62,,,,,,,12,18,Vrouw,Rechts,2,
,xotask,dotcolour,xotask,59,3,239,239,main,negativefb,-99,average,,0.516574700000092,['c'],1,left,['9'],5,0.2784145999999055,61,,,,,,,12,18,Vrouw,Rechts,2,
,xotask,dotcolour,xotask,0,4,240,240,main,negativefb,-99,easy,,0.6839783999998872,['c'],1,left,['9'],5,0.05424700000003213,71,,,,,,,12,18,Vrouw,Rechts,2,
,xotask,dotcolour,xotask,1,4,241,241,main,negativefb,-99,easy,,0.4670257999998739,['n'],1,right,['9'],5,0.098077000000103,9,,,,,,,12,18,Vrouw,Rechts,2,
,xotask,dotcolour,xotask,2,4,242,242,main,negativefb,-99,average,,0.36648280000008526,['c'],1,left,['9'],5,0.06420529999991231,64,,,,,,,12,18,Vrouw,Rechts,2,
,xotask,dotcolour,xotask,3,4,243,243,main,negativefb,-99,hard,,0.6837411999999858,['n'],1,right,['9'],5,0.082504199999903,25,,,,,,,12,18,Vrouw,Rechts,2,
,xotask,dotcolour,xotask,4,4,244,244,main,negativefb,-99,average,,0.46600260000013805,['c'],1,left,['9'],5,0.0861322000000655,60,,,,,,,12,18,Vrouw,Rechts,2,
,xotask,dotcolour,xotask,5,4,245,245,main,negativefb,-99,hard,,0.6669558999999481,['c'],1,left,['9'],5,0.0809967999998662,52,,,,,,,12,18,Vrouw,Rechts,2,
,xotask,dotcolour,xotask,6,4,246,246,main,negativefb,-99,hard,,0.5843844999999419,['n'],0,left,['9'],5,0.04761880000000929,53,,,,,,,12,18,Vrouw,Rechts,2,
,xotask,dotcolour,xotask,7,4,247,247,main,negativefb,-99,easy,,0.4667947999998887,['c'],1,left,['9'],5,0.0911241000001155,72,,,,,,,12,18,Vrouw,Rechts,2,
,xotask,dotcolour,xotask,8,4,248,248,main,negativefb,-99,average,,0.5177412000000459,['n'],0,left,['9'],5,0.06052739999995538,60,,,,,,,12,18,Vrouw,Rechts,2,
,xotask,dotcolour,xotask,9,4,249,249,main,negativefb,-99,easy,,0.3501940999999533,['c'],0,right,['9'],5,0.04469270000004144,5,,,,,,,12,18,Vrouw,Rechts,2,
,xotask,dotcolour,xotask,10,4,250,250,main,negativefb,-99,easy,,0.5168584000000465,['n'],1,right,['9'],5,0.055749399999967864,8,,,,,,,12,18,Vrouw,Rechts,2,
,xotask,dotcolour,xotask,11,4,251,251,main,negativefb,-99,average,,0.6004917999998725,['n'],1,right,['9'],5,0.04622180000001208,15,,,,,,,12,18,Vrouw,Rechts,2,
,xotask,dotcolour,xotask,12,4,252,252,main,negativefb,-99,easy,,0.41700779999996485,['n'],1,right,['9'],5,0.012702300000000832,5,,,,,,,12,18,Vrouw,Rechts,2,
,xotask,dotcolour,xotask,13,4,253,253,main,negativefb,-99,hard,,0.43371810000007827,['n'],1,right,['9'],5,0.07610169999998107,29,,,,,,,12,18,Vrouw,Rechts,2,
,xotask,dotcolour,xotask,14,4,254,254,main,negativefb,-99,average,,0.33333440000001247,['n'],1,right,['9'],5,0.06059870000012779,17,,,,,,,12,18,Vrouw,Rechts,2,
,xotask,dotcolour,xotask,15,4,255,255,main,negativefb,-99,easy,,0.6673722000000453,['c'],1,left,['9'],5,0.10474140000019361,74,,,,,,,12,18,Vrouw,Rechts,2,
,xotask,dotcolour,xotask,16,4,256,256,main,negativefb,-99,hard,,0.5676575999998477,['c'],1,left,['9'],5,0.030866099999911967,53,,,,,,,12,18,Vrouw,Rechts,2,
,xotask,dotcolour,xotask,17,4,257,257,main,negativefb,-99,hard,,1.1835132999999587,['c'],0,right,['9'],5,0.04676199999994424,25,,,,,,,12,18,Vrouw,Rechts,2,
,xotask,dotcolour,xotask,18,4,258,258,main,negativefb,-99,hard,,0.7004380999999285,['c'],1,left,['9'],5,0.03486420000012913,51,,,,,,,12,18,Vrouw,Rechts,2,
,xotask,dotcolour,xotask,19,4,259,259,main,negativefb,-99,easy,,0.5338792999998532,['c'],1,left,['9'],5,0.20398290000002817,74,,,,,,,12,18,Vrouw,Rechts,2,
,xotask,dotcolour,xotask,20,4,260,260,main,negativefb,-99,easy,,0.9686427000001459,['n'],1,right,['9'],5,0.09417720000010377,9,,,,,,,12,18,Vrouw,Rechts,2,
,xotask,dotcolour,xotask,21,4,261,261,main,negativefb,-99,hard,,0.7345603999999639,['n'],0,left,['9'],5,0.13460190000000694,54,,,,,,,12,18,Vrouw,Rechts,2,
,xotask,dotcolour,xotask,22,4,262,262,main,negativefb,-99,hard,,0.3845691999999872,['c'],1,left,['9'],5,0.04216280000014194,53,,,,,,,12,18,Vrouw,Rechts,2,
,xotask,dotcolour,xotask,23,4,263,263,main,negativefb,-99,easy,,0.3341425999999501,['n'],0,left,['9'],5,0.6045790999999099,70,,,,,,,12,18,Vrouw,Rechts,2,
,xotask,dotcolour,xotask,24,4,264,264,main,negativefb,-99,average,,0.4011350000000675,['n'],0,left,['9'],5,0.004884799999899769,60,,,,,,,12,18,Vrouw,Rechts,2,
,xotask,dotcolour,xotask,25,4,265,265,main,negativefb,-99,easy,,0.7511169000001701,['n'],0,left,['9'],5,0.07994020000001001,74,,,,,,,12,18,Vrouw,Rechts,2,
,xotask,dotcolour,xotask,26,4,266,266,main,negativefb,-99,average,,0.8328374999998687,['n'],1,right,['9'],5,0.1321995999999217,19,,,,,,,12,18,Vrouw,Rechts,2,
,xotask,dotcolour,xotask,27,4,267,267,main,negativefb,-99,easy,,2.5345280999999886,['n'],0,left,['9'],5,0.06666949999998906,72,,,,,,,12,18,Vrouw,Rechts,2,
,xotask,dotcolour,xotask,28,4,268,268,main,negativefb,-99,average,,0.7346186000002035,['c'],1,left,['9'],5,0.10736040000006142,64,,,,,,,12,18,Vrouw,Rechts,2,
,xotask,dotcolour,xotask,29,4,269,269,main,negativefb,-99,easy,,0.4347989000000325,['c'],0,right,['9'],5,0.0700573000001441,8,,,,,,,12,18,Vrouw,Rechts,2,
,xotask,dotcolour,xotask,30,4,270,270,main,negativefb,-99,easy,,0.3502085000000079,['n'],0,left,['9'],5,0.02293910000003052,74,,,,,,,12,18,Vrouw,Rechts,2,
,xotask,dotcolour,xotask,31,4,271,271,main,negativefb,-99,hard,,0.9003927999999632,['c'],1,left,['9'],5,0.4503806000000168,54,,,,,,,12,18,Vrouw,Rechts,2,
,xotask,dotcolour,xotask,32,4,272,272,main,negativefb,-99,average,,0.6685118999998849,['n'],1,right,['9'],5,0.015083000000004176,18,,,,,,,12,18,Vrouw,Rechts,2,
,xotask,dotcolour,xotask,33,4,273,273,main,negativefb,-99,average,,0.8337817000001451,['n'],1,right,['9'],5,0.0772836000001007,18,,,,,,,12,18,Vrouw,Rechts,2,
,xotask,dotcolour,xotask,34,4,274,274,main,negativefb,-99,easy,,0.5834477999999308,['n'],0,left,['9'],5,0.28373439999995753,74,,,,,,,12,18,Vrouw,Rechts,2,
,xotask,dotcolour,xotask,35,4,275,275,main,negativefb,-99,hard,,0.6672622999999476,['c'],1,left,['9'],5,0.0708546999999271,50,,,,,,,12,18,Vrouw,Rechts,2,
,xotask,dotcolour,xotask,36,4,276,276,main,negativefb,-99,average,,0.5826218999998218,['c'],1,left,['9'],5,0.5011183999999957,61,,,,,,,12,18,Vrouw,Rechts,2,
,xotask,dotcolour,xotask,37,4,277,277,main,negativefb,-99,hard,,0.8344600999998875,['n'],1,right,['9'],5,0.07270270000026358,28,,,,,,,12,18,Vrouw,Rechts,2,
,xotask,dotcolour,xotask,38,4,278,278,main,negativefb,-99,average,,0.6176683000003322,['c'],1,left,['9'],5,0.02972910000016782,62,,,,,,,12,18,Vrouw,Rechts,2,
,xotask,dotcolour,xotask,39,4,279,279,main,negativefb,-99,average,,1.500940900000387,['c'],1,left,['9'],5,0.13817329999983485,64,,,,,,,12,18,Vrouw,Rechts,2,
,xotask,dotcolour,xotask,40,4,280,280,main,negativefb,-99,hard,,4.651086399999713,['c'],0,right,['9'],5,0.011224200000015117,29,,,,,,,12,18,Vrouw,Rechts,2,
,xotask,dotcolour,xotask,41,4,281,281,main,negativefb,-99,easy,,0.05419799999981478,['c'],0,right,['9'],5,0.012636400000246795,7,,,,,,,12,18,Vrouw,Rechts,2,
,xotask,dotcolour,xotask,42,4,282,282,main,negativefb,-99,average,,0.38420670000004975,['c'],1,left,['9'],5,0.34894160000021657,64,,,,,,,12,18,Vrouw,Rechts,2,
,xotask,dotcolour,xotask,43,4,283,283,main,negativefb,-99,easy,,0.23379230000000462,['c'],0,right,['9'],5,0.33430200000020704,5,,,,,,,12,18,Vrouw,Rechts,2,
,xotask,dotcolour,xotask,44,4,284,284,main,negativefb,-99,hard,,0.12455920000002152,['n'],1,right,['9'],5,0.18680089999998017,28,,,,,,,12,18,Vrouw,Rechts,2,
,xotask,dotcolour,xotask,45,4,285,285,main,negativefb,-99,hard,,0.13432779999993727,['n'],0,left,['9'],5,0.027845300000080897,52,,,,,,,12,18,Vrouw,Rechts,2,
,xotask,dotcolour,xotask,46,4,286,286,main,negativefb,-99,average,,0.15804849999994985,['n'],1,right,['9'],5,0.17180250000001251,19,,,,,,,12,18,Vrouw,Rechts,2,
,xotask,dotcolour,xotask,47,4,287,287,main,negativefb,-99,average,,0.03557180000007065,['n'],1,right,"['9', '0']",5,0.2218814000002567,15,,,,,,,12,18,Vrouw,Rechts,2,
,xotask,dotcolour,xotask,48,4,288,288,main,negativefb,-99,hard,,0.567978999999923,['c'],1,left,['9'],5,0.1106643999996777,54,,,,,,,12,18,Vrouw,Rechts,2,
,xotask,dotcolour,xotask,49,4,289,289,main,negativefb,-99,average,,0.045505300000058924,['n'],0,left,['9'],5,0.21182619999990493,62,,,,,,,12,18,Vrouw,Rechts,2,
,xotask,dotcolour,xotask,50,4,290,290,main,negativefb,-99,average,,0.5166074999997363,['c'],0,right,['9'],5,0.5429080000003523,16,,,,,,,12,18,Vrouw,Rechts,2,
,xotask,dotcolour,xotask,51,4,291,291,main,negativefb,-99,hard,,0.3179683999996996,['n'],1,right,['0'],6,0.42184409999981654,28,,,,,,,12,18,Vrouw,Rechts,2,
,xotask,dotcolour,xotask,52,4,292,292,main,negativefb,-99,easy,,0.03408429999990403,['n'],0,left,['9'],5,0.2706069999999272,74,,,,,,,12,18,Vrouw,Rechts,2,
,xotask,dotcolour,xotask,53,4,293,293,main,negativefb,-99,average,,0.2173106000000189,['n'],1,right,['9'],5,0.5798657000000276,19,,,,,,,12,18,Vrouw,Rechts,2,
,xotask,dotcolour,xotask,54,4,294,294,main,negativefb,-99,easy,,0.36803869999994276,['c'],0,right,['9'],5,0.6464730000002419,9,,,,,,,12,18,Vrouw,Rechts,2,
,xotask,dotcolour,xotask,55,4,295,295,main,negativefb,-99,easy,,0.9338741000001392,['c'],0,right,['9'],5,1.4086912999996457,9,,,,,,,12,18,Vrouw,Rechts,2,
,xotask,dotcolour,xotask,56,4,296,296,main,negativefb,-99,average,,0.5342619999996714,['n'],1,right,['9'],5,0.011816000000180793,19,,,,,,,12,18,Vrouw,Rechts,2,
,xotask,dotcolour,xotask,57,4,297,297,main,negativefb,-99,hard,,0.4661304999999629,['n'],1,right,['0'],6,0.202388400000018,27,,,,,,,12,18,Vrouw,Rechts,2,
,xotask,dotcolour,xotask,58,4,298,298,main,negativefb,-99,hard,,0.6168370000000323,['n'],1,right,['8'],4,0.1540938999996797,27,,,,,,,12,18,Vrouw,Rechts,2,
,xotask,dotcolour,xotask,59,4,299,299,main,negativefb,-99,hard,,0.1828574999999546,['n'],1,right,['9'],5,0.18112010000004375,25,,,,,,,12,18,Vrouw,Rechts,2,
,dotcolour,dotcolour,xotask,0,0,0,300,training,negativefb,63,hard,42,3.4834507000000485,['c'],1,left,['9'],5,0.20567869999968025,,,,,,,,12,18,Vrouw,Rechts,2,
,dotcolour,dotcolour,xotask,1,0,1,301,training,negativefb,52,easy,64,1.7992051999999603,['n'],0,left,['9'],5,0.1663143000000673,,,,,,,,12,18,Vrouw,Rechts,2,
,dotcolour,dotcolour,xotask,2,0,2,302,training,negativefb,45,easy,19,0.7001824999997552,['n'],1,right,['0'],6,0.28352459999996427,,,,,,,,12,18,Vrouw,Rechts,2,
,dotcolour,dotcolour,xotask,3,0,3,303,training,negativefb,74,average,55,0.31675040000027366,['n'],0,left,['9'],5,0.11595660000011776,,,,,,,,12,18,Vrouw,Rechts,2,
,dotcolour,dotcolour,xotask,4,0,4,304,training,negativefb,70,hard,38,0.46624599999995553,['n'],1,right,['9'],5,0.03585090000024138,,,,,,,,12,18,Vrouw,Rechts,2,
,dotcolour,dotcolour,xotask,5,0,5,305,training,negativefb,88,average,29,0.31635240000014164,['c'],0,right,['9'],5,0.4385195999998359,,,,,,,,12,18,Vrouw,Rechts,2,
,dotcolour,dotcolour,xotask,6,0,6,306,training,negativefb,31,easy,18,0.4833990000001904,['c'],0,right,['0'],6,0.3773491000001741,,,,,,,,12,18,Vrouw,Rechts,2,
,dotcolour,dotcolour,xotask,7,0,7,307,training,negativefb,77,average,53,0.07697770000004311,['c'],1,left,['9'],5,0.17136560000017198,,,,,,,,12,18,Vrouw,Rechts,2,
,dotcolour,dotcolour,xotask,8,0,8,308,training,negativefb,52,average,53,0.29980750000004264,['c'],1,left,['9'],5,0.09629940000013448,,,,,,,,12,18,Vrouw,Rechts,2,
,dotcolour,dotcolour,xotask,9,0,9,309,training,negativefb,55,hard,42,0.30051629999979923,['c'],1,left,['0'],6,0.04841710000027888,,,,,,,,12,18,Vrouw,Rechts,2,
,dotcolour,dotcolour,xotask,10,0,10,310,training,negativefb,45,hard,39,0.18447839999998905,['c'],0,right,['9'],5,0.07144730000027266,,,,,,,,12,18,Vrouw,Rechts,2,
,dotcolour,dotcolour,xotask,11,0,11,311,training,negativefb,41,hard,37,0.23274309999987963,['c'],0,right,['9'],5,0.07476139999971565,,,,,,,,12,18,Vrouw,Rechts,2,
,dotcolour,dotcolour,xotask,12,0,12,312,training,negativefb,50,hard,43,0.13809969999965688,['c'],1,left,['0'],6,0.048748300000170275,,,,,,,,12,18,Vrouw,Rechts,2,
,dotcolour,dotcolour,xotask,13,0,13,313,training,negativefb,74,easy,18,0.7494443000000501,['n'],1,right,['9'],5,0.08044800000016039,,,,,,,,12,18,Vrouw,Rechts,2,
,dotcolour,dotcolour,xotask,14,0,14,314,training,negativefb,84,average,55,1.1343793000000915,['c'],1,left,['9'],5,0.4162330999997721,,,,,,,,12,18,Vrouw,Rechts,2,
,dotcolour,dotcolour,xotask,15,0,15,315,training,negativefb,43,average,25,0.46647059999986595,['n'],1,right,['9'],5,0.10140889999956926,,,,,,,,12,18,Vrouw,Rechts,2,
,dotcolour,dotcolour,xotask,16,0,16,316,training,negativefb,51,hard,43,0.5670663999999306,['n'],0,left,['9'],5,0.025879100000111066,,,,,,,,12,18,Vrouw,Rechts,2,
,dotcolour,dotcolour,xotask,17,0,17,317,training,negativefb,88,hard,44,0.6329679999998916,['n'],0,left,"['9', '8']",5,0.6879490000001169,,,,,,,,12,18,Vrouw,Rechts,2,
,dotcolour,dotcolour,xotask,18,0,18,318,training,negativefb,67,hard,35,1.200391700000182,['n'],1,right,['8'],4,0.2050213000002259,,,,,,,,12,18,Vrouw,Rechts,2,
,dotcolour,dotcolour,xotask,19,0,19,319,training,negativefb,72,easy,62,0.6506452999997236,['c'],1,left,['9'],5,0.08272000000033586,,,,,,,,12,18,Vrouw,Rechts,2,
,dotcolour,dotcolour,xotask,20,0,20,320,training,negativefb,48,average,29,0.6501166999996713,['n'],1,right,['0'],6,0.11764700000003359,,,,,,,,12,18,Vrouw,Rechts,2,
,dotcolour,dotcolour,xotask,21,0,21,321,training,negativefb,89,average,26,0.7177601999997023,['n'],1,right,['0'],6,0.22790680000025532,,,,,,,,12,18,Vrouw,Rechts,2,
,dotcolour,dotcolour,xotask,22,0,22,322,training,negativefb,77,easy,62,0.9840186999999787,['c'],1,left,['0'],6,0.1006798000003073,,,,,,,,12,18,Vrouw,Rechts,2,
,dotcolour,dotcolour,xotask,23,0,23,323,training,negativefb,49,easy,18,0.5169280000000072,['c'],0,right,['0'],6,0.08407039999974586,,,,,,,,12,18,Vrouw,Rechts,2,
,dotcolour,dotcolour,xotask,24,0,24,324,training,negativefb,51,hard,37,0.683633699999973,['c'],0,right,['0'],6,0.08564639999985957,,,,,,,,12,18,Vrouw,Rechts,2,
,dotcolour,dotcolour,xotask,25,0,25,325,training,negativefb,70,hard,41,0.4658548000002156,['c'],1,left,['9'],5,0.07926689999976588,,,,,,,,12,18,Vrouw,Rechts,2,
,dotcolour,dotcolour,xotask,26,0,26,326,training,negativefb,61,easy,18,0.5160356999999749,['c'],0,right,['0'],6,0.015526000000136264,,,,,,,,12,18,Vrouw,Rechts,2,
,dotcolour,dotcolour,xotask,27,0,27,327,training,negativefb,40,average,55,0.6008458999999675,['c'],1,left,['0'],6,0.06305419999989681,,,,,,,,12,18,Vrouw,Rechts,2,
,dotcolour,dotcolour,xotask,28,0,28,328,training,negativefb,91,average,53,0.31805549999990035,['n'],0,left,['0'],6,0.13640029999987746,,,,,,,,12,18,Vrouw,Rechts,2,
,dotcolour,dotcolour,xotask,29,0,29,329,training,negativefb,67,average,26,0.11647020000009434,['c'],0,right,['9'],5,0.09968500000013591,,,,,,,,12,18,Vrouw,Rechts,2,
,dotcolour,dotcolour,xotask,30,0,30,330,training,negativefb,79,average,28,1.4828243000001748,['c'],0,right,['9'],5,0.10767240000041056,,,,,,,,12,18,Vrouw,Rechts,2,
,dotcolour,dotcolour,xotask,31,0,31,331,training,negativefb,45,easy,15,0.2669537000001583,['c'],0,right,['9'],5,0.18148629999996047,,,,,,,,12,18,Vrouw,Rechts,2,
,dotcolour,dotcolour,xotask,32,0,32,332,training,negativefb,74,average,27,0.367648299999928,['n'],1,right,['9'],5,0.15961419999985083,,,,,,,,12,18,Vrouw,Rechts,2,
,dotcolour,dotcolour,xotask,33,0,33,333,training,negativefb,81,hard,42,0.3826294999998936,['c'],1,left,['3'],3,0.31405050000012125,,,,,,,,12,18,Vrouw,Rechts,2,
,dotcolour,dotcolour,xotask,34,0,34,334,training,negativefb,78,hard,39,0.34990019999986544,['n'],1,right,['0'],6,0.3839241000000584,,,,,,,,12,18,Vrouw,Rechts,2,
,dotcolour,dotcolour,xotask,35,0,35,335,training,negativefb,85,hard,42,2.0343088999998145,['c'],1,left,['8'],4,0.9670069999997395,,,,,,,,12,18,Vrouw,Rechts,2,
,dotcolour,dotcolour,xotask,36,0,36,336,training,negativefb,64,easy,17,0.41725480000013704,['n'],1,right,['0'],6,0.23953449999999066,,,,,,,,12,18,Vrouw,Rechts,2,
,dotcolour,dotcolour,xotask,37,0,37,337,training,negativefb,66,hard,44,0.24873360000037792,['n'],0,left,['0'],6,0.10890380000000732,,,,,,,,12,18,Vrouw,Rechts,2,
,dotcolour,dotcolour,xotask,38,0,38,338,training,negativefb,82,average,27,0.4655370000000403,['n'],1,right,['0'],6,0.101815600000009,,,,,,,,12,18,Vrouw,Rechts,2,
,dotcolour,dotcolour,xotask,39,0,39,339,training,negativefb,64,hard,41,0.3334795999999187,['n'],0,left,['9'],5,0.11615669999991951,,,,,,,,12,18,Vrouw,Rechts,2,
,dotcolour,dotcolour,xotask,40,0,40,340,training,negativefb,67,easy,63,0.12863940000033836,['n'],0,left,['9'],5,0.1923295000001417,,,,,,,,12,18,Vrouw,Rechts,2,
,dotcolour,dotcolour,xotask,41,0,41,341,training,negativefb,58,hard,38,0.6340368000001035,['n'],1,right,['9'],5,0.9751937999999427,,,,,,,,12,18,Vrouw,Rechts,2,
,dotcolour,dotcolour,xotask,42,0,42,342,training,negativefb,46,easy,61,1.1503166000002238,['c'],1,left,['1'],1,0.1621264999998857,,,,,,,,12,18,Vrouw,Rechts,2,
,dotcolour,dotcolour,xotask,43,0,43,343,training,negativefb,61,easy,65,0.4165943999996671,['c'],1,left,['9'],5,0.027300300000206335,,,,,,,,12,18,Vrouw,Rechts,2,
,dotcolour,dotcolour,xotask,44,0,44,344,training,negativefb,62,hard,37,0.6007716999997683,['n'],1,right,['9'],5,0.06756339999992633,,,,,,,,12,18,Vrouw,Rechts,2,
,dotcolour,dotcolour,xotask,45,0,45,345,training,negativefb,58,average,53,0.46672309999985373,['n'],0,left,['9'],5,0.03714469999977155,,,,,,,,12,18,Vrouw,Rechts,2,
,dotcolour,dotcolour,xotask,46,0,46,346,training,negativefb,72,average,51,0.6001744000000144,['n'],0,left,['9'],5,0.12410869999985152,,,,,,,,12,18,Vrouw,Rechts,2,
,dotcolour,dotcolour,xotask,47,0,47,347,training,negativefb,70,easy,62,0.3161095000000387,['c'],1,left,['9'],5,0.10734129999991637,,,,,,,,12,18,Vrouw,Rechts,2,
,dotcolour,dotcolour,xotask,48,0,48,348,training,negativefb,64,hard,36,0.49975180000001274,['n'],1,right,['9'],5,0.07483959999990475,,,,,,,,12,18,Vrouw,Rechts,2,
,dotcolour,dotcolour,xotask,49,0,49,349,training,negativefb,7,easy,65,0.48327530000005936,['n'],0,left,['1'],1,0.5812971999998808,,,,,,,,12,18,Vrouw,Rechts,2,
,dotcolour,dotcolour,xotask,50,0,50,350,training,negativefb,47,easy,17,0.5998211999999512,['n'],1,right,['9'],5,0.07022469999992609,,,,,,,,12,18,Vrouw,Rechts,2,
,dotcolour,dotcolour,xotask,51,0,51,351,training,negativefb,75,hard,36,1.066586500000085,['n'],1,right,['0'],6,0.22405109999999695,,,,,,,,12,18,Vrouw,Rechts,2,
,dotcolour,dotcolour,xotask,52,0,52,352,training,negativefb,56,average,29,0.5340158999997584,['n'],1,right,['9'],5,0.09831910000002608,,,,,,,,12,18,Vrouw,Rechts,2,
,dotcolour,dotcolour,xotask,53,0,53,353,training,negativefb,19,easy,19,0.6839995999998791,['n'],1,right,['9'],5,0.10725219999994806,,,,,,,,12,18,Vrouw,Rechts,2,
,dotcolour,dotcolour,xotask,54,0,54,354,training,negativefb,84,easy,64,0.6501640999999836,['c'],1,left,['9'],5,0.14128470000014204,,,,,,,,12,18,Vrouw,Rechts,2,
,dotcolour,dotcolour,xotask,55,0,55,355,training,negativefb,71,average,52,0.4167960999998286,['c'],1,left,['9'],5,0.0792965999999069,,,,,,,,12,18,Vrouw,Rechts,2,
,dotcolour,dotcolour,xotask,56,0,56,356,training,negativefb,34,easy,16,0.9495579000004,['n'],1,right,['9'],5,0.11074559999997291,,,,,,,,12,18,Vrouw,Rechts,2,
,dotcolour,dotcolour,xotask,57,0,57,357,training,negativefb,89,easy,61,0.43321270000024015,['n'],0,left,['1'],1,0.49781209999991916,,,,,,,,12,18,Vrouw,Rechts,2,
,dotcolour,dotcolour,xotask,58,0,58,358,training,negativefb,32,average,28,0.5834073999999418,['c'],0,right,['9'],5,0.03803710000011051,,,,,,,,12,18,Vrouw,Rechts,2,
,dotcolour,dotcolour,xotask,59,0,59,359,training,negativefb,67,average,55,0.5841152999996666,['n'],0,left,['9'],5,0.08580819999997402,,,,,,,,12,18,Vrouw,Rechts,2,
,dotcolour,dotcolour,xotask,0,1,60,360,training,negativefb,60,easy,18,0.8848050000001422,['n'],1,right,['9'],5,0.06525760000022274,,,,,,,,12,18,Vrouw,Rechts,2,
,dotcolour,dotcolour,xotask,1,1,61,361,training,negativefb,60,average,27,0.7493977999997696,['n'],1,right,['9'],5,0.1755342000001292,,,,,,,,12,18,Vrouw,Rechts,2,
,dotcolour,dotcolour,xotask,2,1,62,362,training,negativefb,46,easy,17,0.6171684999999343,['n'],1,right,['9'],5,0.0644985999997516,,,,,,,,12,18,Vrouw,Rechts,2,
,dotcolour,dotcolour,xotask,3,1,63,363,training,negativefb,50,hard,41,0.23273840000001655,['n'],0,left,['9'],5,0.06866799999988871,,,,,,,,12,18,Vrouw,Rechts,2,
,dotcolour,dotcolour,xotask,4,1,64,364,training,negativefb,38,average,28,0.1636118000001261,['n'],1,right,['2'],2,0.2426487000002453,,,,,,,,12,18,Vrouw,Rechts,2,
,dotcolour,dotcolour,xotask,5,1,65,365,training,negativefb,43,easy,64,0.9673319000003175,['n'],0,left,['8'],4,0.514048499999717,,,,,,,,12,18,Vrouw,Rechts,2,
,dotcolour,dotcolour,xotask,6,1,66,366,training,negativefb,80,average,28,0.2670091999998476,['n'],1,right,['0'],6,0.20273630000019693,,,,,,,,12,18,Vrouw,Rechts,2,
,dotcolour,dotcolour,xotask,7,1,67,367,training,negativefb,24,easy,18,2.050174799999695,['c'],0,right,['9'],5,0.43253969999977926,,,,,,,,12,18,Vrouw,Rechts,2,
,dotcolour,dotcolour,xotask,8,1,68,368,training,negativefb,66,hard,39,0.9992729000000509,['n'],1,right,['9'],5,0.08727429999999003,,,,,,,,12,18,Vrouw,Rechts,2,
,dotcolour,dotcolour,xotask,9,1,69,369,training,negativefb,73,easy,16,0.44976039999983186,['n'],1,right,['9'],5,0.1136117999999442,,,,,,,,12,18,Vrouw,Rechts,2,
,dotcolour,dotcolour,xotask,10,1,70,370,training,negativefb,74,hard,39,0.583514699999796,['n'],1,right,['9'],5,0.07070150000026842,,,,,,,,12,18,Vrouw,Rechts,2,
,dotcolour,dotcolour,xotask,11,1,71,371,training,negativefb,78,easy,16,0.43331439999974464,['n'],1,right,['0'],6,0.16306189999977505,,,,,,,,12,18,Vrouw,Rechts,2,
,dotcolour,dotcolour,xotask,12,1,72,372,training,negativefb,87,easy,65,0.7343995999999606,['c'],1,left,['0'],6,0.10357010000006994,,,,,,,,12,18,Vrouw,Rechts,2,
,dotcolour,dotcolour,xotask,13,1,73,373,training,negativefb,64,average,52,0.4835878999997476,['c'],1,left,['0'],6,0.06399000000010346,,,,,,,,12,18,Vrouw,Rechts,2,
,dotcolour,dotcolour,xotask,14,1,74,374,training,negativefb,52,easy,19,0.48378569999977117,['n'],1,right,['0'],6,0.09079359999986991,,,,,,,,12,18,Vrouw,Rechts,2,
,dotcolour,dotcolour,xotask,15,1,75,375,training,negativefb,76,easy,15,0.41696719999981724,['n'],1,right,['0'],6,0.12689750000026834,,,,,,,,12,18,Vrouw,Rechts,2,
,dotcolour,dotcolour,xotask,16,1,76,376,training,negativefb,29,easy,19,0.36631949999991775,['n'],1,right,['0'],6,0.13106729999981326,,,,,,,,12,18,Vrouw,Rechts,2,
,dotcolour,dotcolour,xotask,17,1,77,377,training,negativefb,38,easy,61,0.5173424999998133,['c'],1,left,['0'],6,0.11363900000014837,,,,,,,,12,18,Vrouw,Rechts,2,
,dotcolour,dotcolour,xotask,18,1,78,378,training,negativefb,69,hard,37,0.3175341000001026,['n'],1,right,['0'],6,0.0572081000000253,,,,,,,,12,18,Vrouw,Rechts,2,
,dotcolour,dotcolour,xotask,19,1,79,379,training,negativefb,95,easy,16,0.08754080000016984,['n'],1,right,['0'],6,0.31925349999983155,,,,,,,,12,18,Vrouw,Rechts,2,
,dotcolour,dotcolour,xotask,20,1,80,380,training,negativefb,84,easy,63,0.4511327000000165,['c'],1,left,['0'],6,0.05633930000021792,,,,,,,,12,18,Vrouw,Rechts,2,
,dotcolour,dotcolour,xotask,21,1,81,381,training,negativefb,50,hard,42,0.8498998000000029,['n'],0,left,['0'],6,0.06799230000024181,,,,,,,,12,18,Vrouw,Rechts,2,
,dotcolour,dotcolour,xotask,22,1,82,382,training,negativefb,42,hard,44,0.4007712000002357,['c'],1,left,['0'],6,0.07345420000001468,,,,,,,,12,18,Vrouw,Rechts,2,
,dotcolour,dotcolour,xotask,23,1,83,383,training,negativefb,75,average,55,0.4008286000002954,['c'],1,left,['0'],6,0.05523170000014943,,,,,,,,12,18,Vrouw,Rechts,2,
,dotcolour,dotcolour,xotask,24,1,84,384,training,negativefb,53,easy,62,0.3833820999998352,['c'],1,left,['0'],6,0.09373939999977665,,,,,,,,12,18,Vrouw,Rechts,2,
,dotcolour,dotcolour,xotask,25,1,85,385,training,negativefb,75,hard,45,0.4664975000000595,['c'],1,left,['0'],6,0.12750000000005457,,,,,,,,12,18,Vrouw,Rechts,2,
,dotcolour,dotcolour,xotask,26,1,86,386,training,negativefb,60,easy,16,0.4832876000000397,['c'],0,right,['0'],6,0.023762599999827216,,,,,,,,12,18,Vrouw,Rechts,2,
,dotcolour,dotcolour,xotask,27,1,87,387,training,negativefb,62,hard,41,0.7500078999996731,['n'],0,left,['0'],6,0.09674879999965924,,,,,,,,12,18,Vrouw,Rechts,2,
,dotcolour,dotcolour,xotask,28,1,88,388,training,negativefb,30,hard,35,0.749984399999903,['c'],0,right,['0'],6,0.19143380000014076,,,,,,,,12,18,Vrouw,Rechts,2,
,dotcolour,dotcolour,xotask,29,1,89,389,training,negativefb,67,average,29,0.6174922999998671,['n'],1,right,['0'],6,0.1436343999998826,,,,,,,,12,18,Vrouw,Rechts,2,
,dotcolour,dotcolour,xotask,30,1,90,390,training,negativefb,25,hard,36,0.6330930000003718,['n'],1,right,['0'],6,0.15325539999957982,,,,,,,,12,18,Vrouw,Rechts,2,
,dotcolour,dotcolour,xotask,31,1,91,391,training,negativefb,59,easy,64,0.79990510000016,['n'],0,left,['0'],6,0.26781750000009197,,,,,,,,12,18,Vrouw,Rechts,2,
,dotcolour,dotcolour,xotask,32,1,92,392,training,negativefb,19,hard,37,0.5502971000000798,['n'],1,right,['0'],6,0.19492550000040865,,,,,,,,12,18,Vrouw,Rechts,2,
,dotcolour,dotcolour,xotask,33,1,93,393,training,negativefb,42,average,25,0.9667146000001594,['c'],0,right,['8'],4,0.15575840000019525,,,,,,,,12,18,Vrouw,Rechts,2,
,dotcolour,dotcolour,xotask,34,1,94,394,training,negativefb,47,average,26,1.3005918000003476,['c'],0,right,['9'],5,0.33017670000026555,,,,,,,,12,18,Vrouw,Rechts,2,
,dotcolour,dotcolour,xotask,35,1,95,395,training,negativefb,65,average,52,0.716395299999931,['c'],1,left,['0'],6,0.0731271999998171,,,,,,,,12,18,Vrouw,Rechts,2,
,dotcolour,dotcolour,xotask,36,1,96,396,training,negativefb,39,average,55,0.43221189999985654,['c'],1,left,['0'],6,0.06849779999993189,,,,,,,,12,18,Vrouw,Rechts,2,
,dotcolour,dotcolour,xotask,37,1,97,397,training,negativefb,2,hard,35,0.6000463999998829,['c'],0,right,['0'],6,2.498641900000166,,,,,,,,12,18,Vrouw,Rechts,2,
,dotcolour,dotcolour,xotask,38,1,98,398,training,negativefb,52,average,52,1.0670881999999438,['c'],1,left,['9'],5,0.08272399999987101,,,,,,,,12,18,Vrouw,Rechts,2,
,dotcolour,dotcolour,xotask,39,1,99,399,training,negativefb,76,hard,43,0.12988550000000032,['c'],1,left,['0'],6,0.08023099999991246,,,,,,,,12,18,Vrouw,Rechts,2,
,dotcolour,dotcolour,xotask,40,1,100,400,training,negativefb,78,easy,65,0.29992540000012013,['c'],1,left,['0'],6,0.08120080000026064,,,,,,,,12,18,Vrouw,Rechts,2,
,dotcolour,dotcolour,xotask,41,1,101,401,training,negativefb,52,average,26,0.5004771999997502,['c'],0,right,['9'],5,0.05732420000003913,,,,,,,,12,18,Vrouw,Rechts,2,
,dotcolour,dotcolour,xotask,42,1,102,402,training,negativefb,84,average,53,0.33462360000021363,['c'],1,left,['9'],5,0.09049449999974968,,,,,,,,12,18,Vrouw,Rechts,2,
,dotcolour,dotcolour,xotask,43,1,103,403,training,negativefb,55,average,52,0.44999200000029305,['c'],1,left,['9'],5,0.08476810000001933,,,,,,,,12,18,Vrouw,Rechts,2,
,dotcolour,dotcolour,xotask,44,1,104,404,training,negativefb,80,average,55,0.400045300000329,['c'],1,left,['9'],5,0.06602589999965858,,,,,,,,12,18,Vrouw,Rechts,2,
,dotcolour,dotcolour,xotask,45,1,105,405,training,negativefb,57,average,28,0.31644839999989927,['c'],0,right,['9'],5,0.058922700000039185,,,,,,,,12,18,Vrouw,Rechts,2,
,dotcolour,dotcolour,xotask,46,1,106,406,training,negativefb,38,easy,64,0.6325592999996843,['n'],0,left,['9'],5,0.270983900000374,,,,,,,,12,18,Vrouw,Rechts,2,
,dotcolour,dotcolour,xotask,47,1,107,407,training,negativefb,55,easy,61,0.6499659999999494,['c'],1,left,['9'],5,0.041895800000020245,,,,,,,,12,18,Vrouw,Rechts,2,
,dotcolour,dotcolour,xotask,48,1,108,408,training,negativefb,60,average,25,0.41730729999972027,['n'],1,right,['9'],5,0.07268100000010236,,,,,,,,12,18,Vrouw,Rechts,2,
,dotcolour,dotcolour,xotask,49,1,109,409,training,negativefb,70,average,28,0.6498269999997319,['n'],1,right,['9'],5,0.1079396000000088,,,,,,,,12,18,Vrouw,Rechts,2,
,dotcolour,dotcolour,xotask,50,1,110,410,training,negativefb,76,hard,41,0.6160902000001443,['c'],1,left,['9'],5,0.4317590000000564,,,,,,,,12,18,Vrouw,Rechts,2,
,dotcolour,dotcolour,xotask,51,1,111,411,training,negativefb,44,hard,41,0.7853684000001522,['n'],0,left,['9'],5,0.15071590000025026,,,,,,,,12,18,Vrouw,Rechts,2,
,dotcolour,dotcolour,xotask,52,1,112,412,training,negativefb,56,hard,45,0.6324727000001076,['c'],1,left,['9'],5,0.02372689999992872,,,,,,,,12,18,Vrouw,Rechts,2,
,dotcolour,dotcolour,xotask,53,1,113,413,training,negativefb,61,hard,36,1.0838532000002488,['n'],1,right,['9'],5,0.07539179999957923,,,,,,,,12,18,Vrouw,Rechts,2,
,dotcolour,dotcolour,xotask,54,1,114,414,training,negativefb,54,average,54,0.5505614999997306,['n'],0,left,['1'],1,1.4582475000001978,,,,,,,,12,18,Vrouw,Rechts,2,
,dotcolour,dotcolour,xotask,55,1,115,415,training,negativefb,44,hard,39,1.233172900000227,['c'],0,right,"['2', '1']",2,0.15186519999997472,,,,,,,,12,18,Vrouw,Rechts,2,
,dotcolour,dotcolour,xotask,56,1,116,416,training,negativefb,63,hard,39,0.33350449999988996,['n'],1,right,['9'],5,0.4198943999999756,,,,,,,,12,18,Vrouw,Rechts,2,
,dotcolour,dotcolour,xotask,57,1,117,417,training,negativefb,54,hard,44,0.5998613000001569,['n'],0,left,['9'],5,0.011226099999930739,,,,,,,,12,18,Vrouw,Rechts,2,
,dotcolour,dotcolour,xotask,58,1,118,418,training,negativefb,83,easy,62,0.41739770000003773,['c'],1,left,['9'],5,0.3550748000002386,,,,,,,,12,18,Vrouw,Rechts,2,
,dotcolour,dotcolour,xotask,59,1,119,419,training,negativefb,62,average,52,0.7335152000000562,['c'],1,left,['9'],5,0.15962390000004234,,,,,,,,12,18,Vrouw,Rechts,2,
,dotcolour,dotcolour,xotask,0,2,120,420,main,negativefb,-99,average,51,1.4353783999999905,['n'],0,left,['0'],6,0.5022987000002104,,,,,,,,12,18,Vrouw,Rechts,2,
,dotcolour,dotcolour,xotask,1,2,121,421,main,negativefb,-99,easy,61,8.950511600000027,['n'],0,left,['9'],5,0.5409202000000732,,,,,,,,12,18,Vrouw,Rechts,2,
,dotcolour,dotcolour,xotask,2,2,122,422,main,negativefb,-99,easy,62,0.2670582999999169,['n'],0,left,['9'],5,1.4537860999998884,,,,,,,,12,18,Vrouw,Rechts,2,
,dotcolour,dotcolour,xotask,3,2,123,423,main,negativefb,-99,easy,15,1.2846199000000524,['n'],1,right,['9'],5,2.361001600000236,,,,,,,,12,18,Vrouw,Rechts,2,
,dotcolour,dotcolour,xotask,4,2,124,424,main,negativefb,-99,average,26,0.3670114999999896,['n'],1,right,['9'],5,3.157379900000251,,,,,,,,12,18,Vrouw,Rechts,2,
,dotcolour,dotcolour,xotask,5,2,125,425,main,negativefb,-99,easy,62,1.234806600000411,['n'],0,left,['9'],5,2.2303507000001446,,,,,,,,12,18,Vrouw,Rechts,2,
,dotcolour,dotcolour,xotask,6,2,126,426,main,negativefb,-99,average,25,0.21703470000011293,['c'],0,right,['1'],1,0.1334911000003558,,,,,,,,12,18,Vrouw,Rechts,2,
,dotcolour,dotcolour,xotask,7,2,127,427,main,negativefb,-99,easy,65,2.284363100000064,['n'],0,left,['9'],5,1.4696352000000843,,,,,,,,12,18,Vrouw,Rechts,2,
,dotcolour,dotcolour,xotask,8,2,128,428,main,negativefb,-99,easy,15,0.3000224000002163,['n'],1,right,['9'],5,0.11989929999981541,,,,,,,,12,18,Vrouw,Rechts,2,
,dotcolour,dotcolour,xotask,9,2,129,429,main,negativefb,-99,easy,19,0.30102050000004965,['n'],1,right,['9'],5,0.05538109999997687,,,,,,,,12,18,Vrouw,Rechts,2,
,dotcolour,dotcolour,xotask,10,2,130,430,main,negativefb,-99,average,54,0.46663740000030884,['c'],1,left,['9'],5,0.012042900000324153,,,,,,,,12,18,Vrouw,Rechts,2,
,dotcolour,dotcolour,xotask,11,2,131,431,main,negativefb,-99,average,25,0.3007078000000547,['n'],1,right,['9'],5,0.01567830000021786,,,,,,,,12,18,Vrouw,Rechts,2,
,dotcolour,dotcolour,xotask,12,2,132,432,main,negativefb,-99,hard,42,0.28297390000034284,['c'],1,left,['9'],5,0.03669049999962226,,,,,,,,12,18,Vrouw,Rechts,2,
,dotcolour,dotcolour,xotask,13,2,133,433,main,negativefb,-99,hard,36,0.23358349999989514,['n'],1,right,['9'],5,0.0029616000001624343,,,,,,,,12,18,Vrouw,Rechts,2,
,dotcolour,dotcolour,xotask,14,2,134,434,main,negativefb,-99,average,52,0.4505135999997947,['c'],1,left,['9'],5,0.08117640000000392,,,,,,,,12,18,Vrouw,Rechts,2,
,dotcolour,dotcolour,xotask,15,2,135,435,main,negativefb,-99,hard,44,0.3003515000000334,['c'],1,left,['9'],5,0.18699530000003506,,,,,,,,12,18,Vrouw,Rechts,2,
,dotcolour,dotcolour,xotask,16,2,136,436,main,negativefb,-99,easy,64,0.9176336999998966,['n'],0,left,['9'],5,1.2878676999998788,,,,,,,,12,18,Vrouw,Rechts,2,
,dotcolour,dotcolour,xotask,17,2,137,437,main,negativefb,-99,hard,41,0.9836795999999595,['n'],0,left,['9'],5,0.42105430000037813,,,,,,,,12,18,Vrouw,Rechts,2,
,dotcolour,dotcolour,xotask,18,2,138,438,main,negativefb,-99,easy,15,0.3010236000000077,['n'],1,right,['9'],5,0.2819527999999991,,,,,,,,12,18,Vrouw,Rechts,2,
,dotcolour,dotcolour,xotask,19,2,139,439,main,negativefb,-99,hard,44,0.40117060000011406,['n'],0,left,['9'],5,0.1108830999996826,,,,,,,,12,18,Vrouw,Rechts,2,
,dotcolour,dotcolour,xotask,20,2,140,440,main,negativefb,-99,average,54,0.23348440000017945,['n'],0,left,['9'],5,0.03414669999983744,,,,,,,,12,18,Vrouw,Rechts,2,
,dotcolour,dotcolour,xotask,21,2,141,441,main,negativefb,-99,easy,17,0.4842444000000796,['n'],1,right,['9'],5,0.0060843999999633525,,,,,,,,12,18,Vrouw,Rechts,2,
,dotcolour,dotcolour,xotask,22,2,142,442,main,negativefb,-99,hard,35,0.4677142999998978,['n'],1,right,['9'],5,0.37973299999976007,,,,,,,,12,18,Vrouw,Rechts,2,
,dotcolour,dotcolour,xotask,23,2,143,443,main,negativefb,-99,easy,19,0.4682035000000724,['n'],1,right,['9'],5,0.05954950000023018,,,,,,,,12,18,Vrouw,Rechts,2,
,dotcolour,dotcolour,xotask,24,2,144,444,main,negativefb,-99,hard,38,0.5337552000000869,['c'],0,right,['9'],5,0.02074250000032407,,,,,,,,12,18,Vrouw,Rechts,2,
,dotcolour,dotcolour,xotask,25,2,145,445,main,negativefb,-99,easy,65,0.2999282000000676,['n'],0,left,['9'],5,0.024811000000227068,,,,,,,,12,18,Vrouw,Rechts,2,
,dotcolour,dotcolour,xotask,26,2,146,446,main,negativefb,-99,average,26,0.5167772999998306,['n'],1,right,['9'],5,0.059686499999770604,,,,,,,,12,18,Vrouw,Rechts,2,
,dotcolour,dotcolour,xotask,27,2,147,447,main,negativefb,-99,hard,35,0.31780620000017734,['n'],1,right,['9'],5,0.05482930000016495,,,,,,,,12,18,Vrouw,Rechts,2,
,dotcolour,dotcolour,xotask,28,2,148,448,main,negativefb,-99,hard,43,0.26697439999998096,['n'],0,left,['9'],5,0.01803490000020247,,,,,,,,12,18,Vrouw,Rechts,2,
,dotcolour,dotcolour,xotask,29,2,149,449,main,negativefb,-99,easy,15,0.26770040000019435,['n'],1,right,['9'],5,0.09559850000005099,,,,,,,,12,18,Vrouw,Rechts,2,
,dotcolour,dotcolour,xotask,30,2,150,450,main,negativefb,-99,average,53,0.5008277000001726,['c'],1,left,['9'],5,0.024462299999868264,,,,,,,,12,18,Vrouw,Rechts,2,
,dotcolour,dotcolour,xotask,31,2,151,451,main,negativefb,-99,hard,39,0.35036470000022746,['c'],0,right,['9'],5,0.1392095999999583,,,,,,,,12,18,Vrouw,Rechts,2,
,dotcolour,dotcolour,xotask,32,2,152,452,main,negativefb,-99,hard,36,0.317596599999888,['n'],1,right,['9'],5,0.7938564000000952,,,,,,,,12,18,Vrouw,Rechts,2,
,dotcolour,dotcolour,xotask,33,2,153,453,main,negativefb,-99,easy,16,0.3000465999998596,['n'],1,right,['9'],5,0.05493990000013582,,,,,,,,12,18,Vrouw,Rechts,2,
,dotcolour,dotcolour,xotask,34,2,154,454,main,negativefb,-99,average,25,0.2323740000001635,['n'],1,right,['9'],5,0.044296200000189856,,,,,,,,12,18,Vrouw,Rechts,2,
,dotcolour,dotcolour,xotask,35,2,155,455,main,negativefb,-99,easy,64,0.3009425000000192,['n'],0,left,['1'],1,0.5034303999996155,,,,,,,,12,18,Vrouw,Rechts,2,
,dotcolour,dotcolour,xotask,36,2,156,456,main,negativefb,-99,hard,35,0.5008162000003722,['n'],1,right,['9'],5,0.06409350000012637,,,,,,,,12,18,Vrouw,Rechts,2,
,dotcolour,dotcolour,xotask,37,2,157,457,main,negativefb,-99,average,53,0.2340340999999171,['n'],0,left,['9'],5,0.30950099999972736,,,,,,,,12,18,Vrouw,Rechts,2,
,dotcolour,dotcolour,xotask,38,2,158,458,main,negativefb,-99,average,54,0.3009606000000531,['c'],1,left,['9'],5,0.04628890000003594,,,,,,,,12,18,Vrouw,Rechts,2,
,dotcolour,dotcolour,xotask,39,2,159,459,main,negativefb,-99,average,27,0.6997848999999405,['n'],1,right,['9'],5,0.08946450000030381,,,,,,,,12,18,Vrouw,Rechts,2,
,dotcolour,dotcolour,xotask,40,2,160,460,main,negativefb,-99,hard,42,0.6169530999995914,['n'],0,left,['9'],5,0.1658105000001342,,,,,,,,12,18,Vrouw,Rechts,2,
,dotcolour,dotcolour,xotask,41,2,161,461,main,negativefb,-99,average,54,0.3008325999999215,['n'],0,left,['9'],5,0.020154599999841594,,,,,,,,12,18,Vrouw,Rechts,2,
,dotcolour,dotcolour,xotask,42,2,162,462,main,negativefb,-99,hard,44,0.28373169999986203,['c'],1,left,['9'],5,0.0488933999999972,,,,,,,,12,18,Vrouw,Rechts,2,
,dotcolour,dotcolour,xotask,43,2,163,463,main,negativefb,-99,average,25,0.4007056999998895,['c'],0,right,['9'],5,0.0233527000000322,,,,,,,,12,18,Vrouw,Rechts,2,
,dotcolour,dotcolour,xotask,44,2,164,464,main,negativefb,-99,hard,45,0.1851062999999158,['c'],1,left,['9'],5,0.0869007999999667,,,,,,,,12,18,Vrouw,Rechts,2,
,dotcolour,dotcolour,xotask,45,2,165,465,main,negativefb,-99,average,55,0.15211290000024746,['c'],1,left,['9'],5,0.02137159999983851,,,,,,,,12,18,Vrouw,Rechts,2,
,dotcolour,dotcolour,xotask,46,2,166,466,main,negativefb,-99,hard,45,0.07821859999967273,['c'],1,left,['9'],5,0.7255562000000282,,,,,,,,12,18,Vrouw,Rechts,2,
,dotcolour,dotcolour,xotask,47,2,167,467,main,negativefb,-99,easy,16,0.017241399999875284,['c'],0,right,['9'],5,0.6016366999997445,,,,,,,,12,18,Vrouw,Rechts,2,
,dotcolour,dotcolour,xotask,48,2,168,468,main,negativefb,-99,hard,42,0.11538930000006076,['c'],1,left,['0'],6,0.6900713999998516,,,,,,,,12,18,Vrouw,Rechts,2,
,dotcolour,dotcolour,xotask,49,2,169,469,main,negativefb,-99,hard,39,0.5011904000002687,['c'],0,right,['9'],5,0.17894449999994322,,,,,,,,12,18,Vrouw,Rechts,2,
,dotcolour,dotcolour,xotask,50,2,170,470,main,negativefb,-99,average,55,0.46738760000016555,['c'],1,left,['9'],5,0.08185650000041278,,,,,,,,12,18,Vrouw,Rechts,2,
,dotcolour,dotcolour,xotask,51,2,171,471,main,negativefb,-99,easy,63,0.7520469999999477,['c'],1,left,['8'],4,0.23357140000007348,,,,,,,,12,18,Vrouw,Rechts,2,
,dotcolour,dotcolour,xotask,52,2,172,472,main,negativefb,-99,average,29,0.2844764000001305,['c'],0,right,['8'],4,0.12498249999998734,,,,,,,,12,18,Vrouw,Rechts,2,
,dotcolour,dotcolour,xotask,53,2,173,473,main,negativefb,-99,hard,38,0.017131099999915023,['c'],0,right,['8'],4,0.09829260000014983,,,,,,,,12,18,Vrouw,Rechts,2,
,dotcolour,dotcolour,xotask,54,2,174,474,main,negativefb,-99,easy,61,0.19233629999962432,['c'],1,left,['8'],4,0.16671769999993558,,,,,,,,12,18,Vrouw,Rechts,2,
,dotcolour,dotcolour,xotask,55,2,175,475,main,negativefb,-99,easy,62,0.04307220000009693,['c'],1,left,['8'],4,0.07291179999992892,,,,,,,,12,18,Vrouw,Rechts,2,
,dotcolour,dotcolour,xotask,56,2,176,476,main,negativefb,-99,average,28,1.3514052999998967,['c'],0,right,['8'],4,0.17643170000019381,,,,,,,,12,18,Vrouw,Rechts,2,
,dotcolour,dotcolour,xotask,57,2,177,477,main,negativefb,-99,easy,18,0.30037640000000465,['c'],0,right,['8'],4,0.08586690000038288,,,,,,,,12,18,Vrouw,Rechts,2,
,dotcolour,dotcolour,xotask,58,2,178,478,main,negativefb,-99,average,27,0.04512079999994967,['c'],0,right,['8'],4,0.04430869999987408,,,,,,,,12,18,Vrouw,Rechts,2,
,dotcolour,dotcolour,xotask,59,2,179,479,main,negativefb,-99,hard,38,0.1253463000002739,['c'],0,right,['8'],4,0.06739010000001144,,,,,,,,12,18,Vrouw,Rechts,2,
,dotcolour,dotcolour,xotask,0,3,180,480,main,negativefb,-99,average,53,0.517620099999931,['c'],1,left,['9'],5,0.08389290000013716,,,,,,,,12,18,Vrouw,Rechts,2,
,dotcolour,dotcolour,xotask,1,3,181,481,main,negativefb,-99,hard,43,0.2166824999999335,['c'],1,left,['9'],5,0.032958700000108365,,,,,,,,12,18,Vrouw,Rechts,2,
,dotcolour,dotcolour,xotask,2,3,182,482,main,negativefb,-99,hard,41,0.15506320000031337,['c'],1,left,['9'],5,0.04857969999966372,,,,,,,,12,18,Vrouw,Rechts,2,
,dotcolour,dotcolour,xotask,3,3,183,483,main,negativefb,-99,easy,17,0.10513920000039434,['c'],0,right,['9'],5,0.015422299999954703,,,,,,,,12,18,Vrouw,Rechts,2,
,dotcolour,dotcolour,xotask,4,3,184,484,main,negativefb,-99,easy,16,0.017526699999962148,['c'],0,right,['9'],5,1.1755177000000003,,,,,,,,12,18,Vrouw,Rechts,2,
,dotcolour,dotcolour,xotask,5,3,185,485,main,negativefb,-99,hard,38,0.019122199999856093,['c'],0,right,['9'],5,0.761640400000033,,,,,,,,12,18,Vrouw,Rechts,2,
,dotcolour,dotcolour,xotask,6,3,186,486,main,negativefb,-99,average,51,0.4834152000003087,['c'],1,left,['9'],5,0.1045285000000149,,,,,,,,12,18,Vrouw,Rechts,2,
,dotcolour,dotcolour,xotask,7,3,187,487,main,negativefb,-99,average,27,0.2677474000001894,['c'],0,right,['9'],5,0.057750400000259106,,,,,,,,12,18,Vrouw,Rechts,2,
,dotcolour,dotcolour,xotask,8,3,188,488,main,negativefb,-99,hard,39,0.2172786000000997,['c'],0,right,['9'],5,0.15968310000016572,,,,,,,,12,18,Vrouw,Rechts,2,
,dotcolour,dotcolour,xotask,9,3,189,489,main,negativefb,-99,average,52,0.10898279999992155,['c'],1,left,['9'],5,0.9797211999998581,,,,,,,,12,18,Vrouw,Rechts,2,
,dotcolour,dotcolour,xotask,10,3,190,490,main,negativefb,-99,easy,18,0.017910399999891524,['c'],0,right,['9'],5,0.7255295999998452,,,,,,,,12,18,Vrouw,Rechts,2,
,dotcolour,dotcolour,xotask,11,3,191,491,main,negativefb,-99,easy,64,0.08383699999967575,['c'],1,left,['9'],5,0.03341889999956038,,,,,,,,12,18,Vrouw,Rechts,2,
,dotcolour,dotcolour,xotask,12,3,192,492,main,negativefb,-99,average,26,0.7682638999999654,['c'],0,right,['9'],5,0.4970573000000513,,,,,,,,12,18,Vrouw,Rechts,2,
,dotcolour,dotcolour,xotask,13,3,193,493,main,negativefb,-99,hard,42,0.6170171000003393,['c'],1,left,['9'],5,0.11794719999988956,,,,,,,,12,18,Vrouw,Rechts,2,
,dotcolour,dotcolour,xotask,14,3,194,494,main,negativefb,-99,average,29,0.21656819999998334,['c'],0,right,['9'],5,0.20855530000017097,,,,,,,,12,18,Vrouw,Rechts,2,
,dotcolour,dotcolour,xotask,15,3,195,495,main,negativefb,-99,easy,61,0.13188119999995251,['c'],1,left,['9'],5,0.06617869999990944,,,,,,,,12,18,Vrouw,Rechts,2,
,dotcolour,dotcolour,xotask,16,3,196,496,main,negativefb,-99,hard,39,0.13910789999999906,['c'],0,right,['9'],5,0.015290199999981269,,,,,,,,12,18,Vrouw,Rechts,2,
,dotcolour,dotcolour,xotask,17,3,197,497,main,negativefb,-99,easy,16,0.18568310000000565,['c'],0,right,['9'],5,0.07122720000006666,,,,,,,,12,18,Vrouw,Rechts,2,
,dotcolour,dotcolour,xotask,18,3,198,498,main,negativefb,-99,hard,41,0.047672500000317086,['c'],1,left,['9'],5,0.08653890000005049,,,,,,,,12,18,Vrouw,Rechts,2,
,dotcolour,dotcolour,xotask,19,3,199,499,main,negativefb,-99,hard,37,0.14139430000022912,['n'],1,right,['9'],5,0.051615099999708036,,,,,,,,12,18,Vrouw,Rechts,2,
,dotcolour,dotcolour,xotask,20,3,200,500,main,negativefb,-99,easy,16,0.18008419999978287,['n'],1,right,['9'],5,0.12194929999986925,,,,,,,,12,18,Vrouw,Rechts,2,
,dotcolour,dotcolour,xotask,21,3,201,501,main,negativefb,-99,hard,41,0.13533370000004652,['n'],0,left,['9'],5,0.10933889999978419,,,,,,,,12,18,Vrouw,Rechts,2,
,dotcolour,dotcolour,xotask,22,3,202,502,main,negativefb,-99,average,25,0.4680867000001854,['n'],1,right,['9'],5,0.10360450000007404,,,,,,,,12,18,Vrouw,Rechts,2,
,dotcolour,dotcolour,xotask,23,3,203,503,main,negativefb,-99,hard,38,0.023435799999788287,['n'],1,right,['9'],5,0.005057299999862153,,,,,,,,12,18,Vrouw,Rechts,2,
,dotcolour,dotcolour,xotask,24,3,204,504,main,negativefb,-99,hard,44,0.08567440000024362,['n'],0,left,['9'],5,0.4535976000001938,,,,,,,,12,18,Vrouw,Rechts,2,
,dotcolour,dotcolour,xotask,25,3,205,505,main,negativefb,-99,easy,61,0.15804849999994985,['n'],0,left,['9'],5,0.17246099999965736,,,,,,,,12,18,Vrouw,Rechts,2,
,dotcolour,dotcolour,xotask,26,3,206,506,main,negativefb,-99,average,27,0.018054099999972095,['n'],1,right,['0'],6,0.03825510000024224,,,,,,,,12,18,Vrouw,Rechts,2,
,dotcolour,dotcolour,xotask,27,3,207,507,main,negativefb,-99,average,27,1.3170821000003343,['n'],1,right,['0'],6,0.352690100000018,,,,,,,,12,18,Vrouw,Rechts,2,
,dotcolour,dotcolour,xotask,28,3,208,508,main,negativefb,-99,easy,19,0.6674945999998272,['n'],1,right,['8'],4,0.2963003999998364,,,,,,,,12,18,Vrouw,Rechts,2,
,dotcolour,dotcolour,xotask,29,3,209,509,main,negativefb,-99,easy,63,0.13565680000010616,['n'],0,left,['9'],5,0.11828349999996135,,,,,,,,12,18,Vrouw,Rechts,2,
,dotcolour,dotcolour,xotask,30,3,210,510,main,negativefb,-99,easy,62,0.7665744000000814,['n'],0,left,['0'],6,0.21109419999993406,,,,,,,,12,18,Vrouw,Rechts,2,
,dotcolour,dotcolour,xotask,31,3,211,511,main,negativefb,-99,easy,61,2.851261499999964,['n'],0,left,['0'],6,0.11323880000009012,,,,,,,,12,18,Vrouw,Rechts,2,
,dotcolour,dotcolour,xotask,32,3,212,512,main,negativefb,-99,average,54,0.4180493999997452,['c'],1,left,['9'],5,0.09370829999988928,,,,,,,,12,18,Vrouw,Rechts,2,
,dotcolour,dotcolour,xotask,33,3,213,513,main,negativefb,-99,average,51,0.2666739999999663,['n'],0,left,['9'],5,0.1768184000002293,,,,,,,,12,18,Vrouw,Rechts,2,
,dotcolour,dotcolour,xotask,34,3,214,514,main,negativefb,-99,average,55,0.23335699999961435,['c'],1,left,['9'],5,0.04067979999990712,,,,,,,,12,18,Vrouw,Rechts,2,
,dotcolour,dotcolour,xotask,35,3,215,515,main,negativefb,-99,average,25,0.24962800000002972,['c'],0,right,['9'],5,0.09404459999996106,,,,,,,,12,18,Vrouw,Rechts,2,
,dotcolour,dotcolour,xotask,36,3,216,516,main,negativefb,-99,easy,64,0.11818249999987529,['c'],1,left,['9'],5,0.044221399999969435,,,,,,,,12,18,Vrouw,Rechts,2,
,dotcolour,dotcolour,xotask,37,3,217,517,main,negativefb,-99,easy,15,0.28470070000003034,['c'],0,right,['9'],5,0.23162509999974645,,,,,,,,12,18,Vrouw,Rechts,2,
,dotcolour,dotcolour,xotask,38,3,218,518,main,negativefb,-99,hard,45,0.3349342000001343,['n'],0,left,['9'],5,0.0656303000000662,,,,,,,,12,18,Vrouw,Rechts,2,
,dotcolour,dotcolour,xotask,39,3,219,519,main,negativefb,-99,hard,45,0.3516134999999849,['n'],0,left,['9'],5,0.04964689999997063,,,,,,,,12,18,Vrouw,Rechts,2,
,dotcolour,dotcolour,xotask,40,3,220,520,main,negativefb,-99,average,25,0.2492869999996401,['n'],1,right,['9'],5,0.11860630000001038,,,,,,,,12,18,Vrouw,Rechts,2,
,dotcolour,dotcolour,xotask,41,3,221,521,main,negativefb,-99,hard,39,0.333638499999779,['n'],1,right,['9'],5,0.01356439999972281,,,,,,,,12,18,Vrouw,Rechts,2,
,dotcolour,dotcolour,xotask,42,3,222,522,main,negativefb,-99,easy,16,0.2499259000001075,['n'],1,right,['9'],5,0.05177129999992758,,,,,,,,12,18,Vrouw,Rechts,2,
,dotcolour,dotcolour,xotask,43,3,223,523,main,negativefb,-99,hard,38,0.21673499999997148,['n'],1,right,['9'],5,0.025263199999699282,,,,,,,,12,18,Vrouw,Rechts,2,
,dotcolour,dotcolour,xotask,44,3,224,524,main,negativefb,-99,easy,61,0.5838673000002927,['c'],1,left,['9'],5,0.06633079999983238,,,,,,,,12,18,Vrouw,Rechts,2,
,dotcolour,dotcolour,xotask,45,3,225,525,main,negativefb,-99,easy,19,0.25009940000018105,['c'],0,right,['1'],1,0.5341360000002169,,,,,,,,12,18,Vrouw,Rechts,2,
,dotcolour,dotcolour,xotask,46,3,226,526,main,negativefb,-99,average,29,0.3509774000003745,['n'],1,right,['9'],5,0.2113667999997233,,,,,,,,12,18,Vrouw,Rechts,2,
,dotcolour,dotcolour,xotask,47,3,227,527,main,negativefb,-99,hard,37,0.8339437999998154,['n'],1,right,['8'],4,0.15525289999959568,,,,,,,,12,18,Vrouw,Rechts,2,
,dotcolour,dotcolour,xotask,48,3,228,528,main,negativefb,-99,average,52,0.6510261999997056,['n'],0,left,['9'],5,0.2993666999996094,,,,,,,,12,18,Vrouw,Rechts,2,
,dotcolour,dotcolour,xotask,49,3,229,529,main,negativefb,-99,average,51,0.8007422999999108,['c'],1,left,['9'],5,0.08824910000021191,,,,,,,,12,18,Vrouw,Rechts,2,
,dotcolour,dotcolour,xotask,50,3,230,530,main,negativefb,-99,average,51,0.784998799999812,['c'],1,left,['9'],5,0.11873149999973975,,,,,,,,12,18,Vrouw,Rechts,2,
,dotcolour,dotcolour,xotask,51,3,231,531,main,negativefb,-99,easy,63,0.7010952000000543,['c'],1,left,['9'],5,0.09477740000011181,,,,,,,,12,18,Vrouw,Rechts,2,
,dotcolour,dotcolour,xotask,52,3,232,532,main,negativefb,-99,average,28,0.8842288999999255,['n'],1,right,['9'],5,0.09645700000010038,,,,,,,,12,18,Vrouw,Rechts,2,
,dotcolour,dotcolour,xotask,53,3,233,533,main,negativefb,-99,hard,35,0.5679376000002776,['n'],1,right,['0'],6,0.16677960000015446,,,,,,,,12,18,Vrouw,Rechts,2,
,dotcolour,dotcolour,xotask,54,3,234,534,main,negativefb,-99,hard,44,0.5342678000001797,['n'],0,left,['0'],6,0.06765679999989516,,,,,,,,12,18,Vrouw,Rechts,2,
,dotcolour,dotcolour,xotask,55,3,235,535,main,negativefb,-99,hard,39,0.8507152000001952,['n'],1,right,['0'],6,0.1834667999996782,,,,,,,,12,18,Vrouw,Rechts,2,
,dotcolour,dotcolour,xotask,56,3,236,536,main,negativefb,-99,hard,43,0.40037119999988136,['n'],0,left,['9'],5,0.15292120000003706,,,,,,,,12,18,Vrouw,Rechts,2,
,dotcolour,dotcolour,xotask,57,3,237,537,main,negativefb,-99,average,55,0.8008571999998821,['c'],1,left,['8'],4,0.09946889999991981,,,,,,,,12,18,Vrouw,Rechts,2,
,dotcolour,dotcolour,xotask,58,3,238,538,main,negativefb,-99,easy,61,0.5682612000000518,['c'],1,left,['9'],5,0.1939594999998917,,,,,,,,12,18,Vrouw,Rechts,2,
,dotcolour,dotcolour,xotask,59,3,239,539,main,negativefb,-99,easy,19,0.6001562999999805,['c'],0,right,['1'],1,0.6748274999999921,,,,,,,,12,18,Vrouw,Rechts,2,
,dotcolour,dotcolour,xotask,0,4,240,540,main,negativefb,-99,hard,36,0.7674905999997463,['c'],0,right,['9'],5,0.40446830000018963,,,,,,,,12,18,Vrouw,Rechts,2,
,dotcolour,dotcolour,xotask,1,4,241,541,main,negativefb,-99,average,27,0.02421379999987039,['c'],0,right,['9'],5,0.013813500000196655,,,,,,,,12,18,Vrouw,Rechts,2,
,dotcolour,dotcolour,xotask,2,4,242,542,main,negativefb,-99,average,26,0.04026389999989988,['c'],0,right,['9'],5,0.15030099999967206,,,,,,,,12,18,Vrouw,Rechts,2,
,dotcolour,dotcolour,xotask,3,4,243,543,main,negativefb,-99,easy,61,0.01749619999964125,['c'],1,left,['8'],4,0.057156400000167196,,,,,,,,12,18,Vrouw,Rechts,2,
,dotcolour,dotcolour,xotask,4,4,244,544,main,negativefb,-99,hard,41,0.06576739999991332,['n'],0,left,['8'],4,0.06313569999974789,,,,,,,,12,18,Vrouw,Rechts,2,
,dotcolour,dotcolour,xotask,5,4,245,545,main,negativefb,-99,easy,62,0.11284430000023349,['n'],0,left,['8'],4,0.09441319999996267,,,,,,,,12,18,Vrouw,Rechts,2,
,dotcolour,dotcolour,xotask,6,4,246,546,main,negativefb,-99,hard,43,0.16627390000030573,['n'],0,left,['8'],4,0.23567689999981667,,,,,,,,12,18,Vrouw,Rechts,2,
,dotcolour,dotcolour,xotask,7,4,247,547,main,negativefb,-99,easy,19,0.28287189999991824,['c'],0,right,['9'],5,0.12762880000036603,,,,,,,,12,18,Vrouw,Rechts,2,
,dotcolour,dotcolour,xotask,8,4,248,548,main,negativefb,-99,easy,65,0.2338238000002093,['n'],0,left,['9'],5,0.16941629999973884,,,,,,,,12,18,Vrouw,Rechts,2,
,dotcolour,dotcolour,xotask,9,4,249,549,main,negativefb,-99,average,26,0.883368000000246,['n'],1,right,['9'],5,0.7530488999996123,,,,,,,,12,18,Vrouw,Rechts,2,
,dotcolour,dotcolour,xotask,10,4,250,550,main,negativefb,-99,easy,61,0.5337678000000778,['c'],1,left,['9'],5,0.06192819999978383,,,,,,,,12,18,Vrouw,Rechts,2,
,dotcolour,dotcolour,xotask,11,4,251,551,main,negativefb,-99,hard,43,0.6173894000003202,['c'],1,left,['9'],5,0.13996679999991102,,,,,,,,12,18,Vrouw,Rechts,2,
,dotcolour,dotcolour,xotask,12,4,252,552,main,negativefb,-99,average,51,0.7345453000002635,['n'],0,left,['9'],5,0.6583744999998089,,,,,,,,12,18,Vrouw,Rechts,2,
,dotcolour,dotcolour,xotask,13,4,253,553,main,negativefb,-99,average,28,0.6503509999997732,['n'],1,right,['9'],5,0.06246499999997468,,,,,,,,12,18,Vrouw,Rechts,2,
,dotcolour,dotcolour,xotask,14,4,254,554,main,negativefb,-99,easy,17,0.5840369000002283,['n'],1,right,['9'],5,0.005879499999991822,,,,,,,,12,18,Vrouw,Rechts,2,
,dotcolour,dotcolour,xotask,15,4,255,555,main,negativefb,-99,hard,37,0.683819300000323,['c'],0,right,['9'],5,0.042801099999906,,,,,,,,12,18,Vrouw,Rechts,2,
,dotcolour,dotcolour,xotask,16,4,256,556,main,negativefb,-99,easy,18,0.7508649000001242,['n'],1,right,['9'],5,0.14091400000006615,,,,,,,,12,18,Vrouw,Rechts,2,
,dotcolour,dotcolour,xotask,17,4,257,557,main,negativefb,-99,average,52,0.7679215000002841,['c'],1,left,['8'],4,0.1848573999996006,,,,,,,,12,18,Vrouw,Rechts,2,
,dotcolour,dotcolour,xotask,18,4,258,558,main,negativefb,-99,easy,16,0.7511680000002343,['n'],1,right,['9'],5,0.22844630000008692,,,,,,,,12,18,Vrouw,Rechts,2,
,dotcolour,dotcolour,xotask,19,4,259,559,main,negativefb,-99,easy,19,0.900630000000092,['n'],1,right,['9'],5,0.1288633000003756,,,,,,,,12,18,Vrouw,Rechts,2,
,dotcolour,dotcolour,xotask,20,4,260,560,main,negativefb,-99,hard,42,0.7352631999997357,['c'],1,left,['9'],5,0.11155630000030214,,,,,,,,12,18,Vrouw,Rechts,2,
,dotcolour,dotcolour,xotask,21,4,261,561,main,negativefb,-99,average,25,0.5006022000002304,['c'],0,right,['1'],1,0.4637097999998332,,,,,,,,12,18,Vrouw,Rechts,2,
,dotcolour,dotcolour,xotask,22,4,262,562,main,negativefb,-99,easy,64,0.7504212999997435,['c'],1,left,['9'],5,0.08086980000007316,,,,,,,,12,18,Vrouw,Rechts,2,
,dotcolour,dotcolour,xotask,23,4,263,563,main,negativefb,-99,average,53,0.7680124000003161,['c'],1,left,['9'],5,0.07179309999992256,,,,,,,,12,18,Vrouw,Rechts,2,
,dotcolour,dotcolour,xotask,24,4,264,564,main,negativefb,-99,easy,63,0.6007030000000668,['c'],1,left,['9'],5,0.14206560000002355,,,,,,,,12,18,Vrouw,Rechts,2,
,dotcolour,dotcolour,xotask,25,4,265,565,main,negativefb,-99,average,55,2.734320200000184,['c'],1,left,['9'],5,0.14814019999994343,,,,,,,,12,18,Vrouw,Rechts,2,
,dotcolour,dotcolour,xotask,26,4,266,566,main,negativefb,-99,easy,65,0.6996641999999156,['c'],1,left,['9'],5,0.09841289999985747,,,,,,,,12,18,Vrouw,Rechts,2,
,dotcolour,dotcolour,xotask,27,4,267,567,main,negativefb,-99,hard,41,0.5339754999999968,['c'],1,left,['9'],5,0.050382599999920785,,,,,,,,12,18,Vrouw,Rechts,2,
,dotcolour,dotcolour,xotask,28,4,268,568,main,negativefb,-99,average,53,1.1169504999998026,['c'],1,left,['0'],6,0.11599690000002738,,,,,,,,12,18,Vrouw,Rechts,2,
,dotcolour,dotcolour,xotask,29,4,269,569,main,negativefb,-99,hard,38,0.6842796000000817,['c'],0,right,['9'],5,0.07663940000020375,,,,,,,,12,18,Vrouw,Rechts,2,
,dotcolour,dotcolour,xotask,30,4,270,570,main,negativefb,-99,hard,36,1.4009310999999798,['c'],0,right,['9'],5,0.011009599999852071,,,,,,,,12,18,Vrouw,Rechts,2,
,dotcolour,dotcolour,xotask,31,4,271,571,main,negativefb,-99,hard,44,0.4346096999997826,['c'],1,left,['9'],5,0.0903518999998596,,,,,,,,12,18,Vrouw,Rechts,2,
,dotcolour,dotcolour,xotask,32,4,272,572,main,negativefb,-99,easy,16,0.09022019999974873,['c'],0,right,['9'],5,0.6161059000000932,,,,,,,,12,18,Vrouw,Rechts,2,
,dotcolour,dotcolour,xotask,33,4,273,573,main,negativefb,-99,hard,36,0.5833576999998513,['c'],0,right,['9'],5,0.055847999999969034,,,,,,,,12,18,Vrouw,Rechts,2,
,dotcolour,dotcolour,xotask,34,4,274,574,main,negativefb,-99,hard,35,0.15348059999996622,['c'],0,right,['9'],5,0.03144769999971686,,,,,,,,12,18,Vrouw,Rechts,2,
,dotcolour,dotcolour,xotask,35,4,275,575,main,negativefb,-99,easy,17,0.23236469999983456,['c'],0,right,['9'],5,0.0049217000000680855,,,,,,,,12,18,Vrouw,Rechts,2,
,dotcolour,dotcolour,xotask,36,4,276,576,main,negativefb,-99,average,55,0.1753300999998828,['c'],1,left,['9'],5,0.03872009999986403,,,,,,,,12,18,Vrouw,Rechts,2,
,dotcolour,dotcolour,xotask,37,4,277,577,main,negativefb,-99,average,28,0.13612800000009884,['c'],0,right,['0'],6,0.07830819999981031,,,,,,,,12,18,Vrouw,Rechts,2,
,dotcolour,dotcolour,xotask,38,4,278,578,main,negativefb,-99,average,52,0.07012429999986125,['c'],1,left,['9'],5,0.003926899999896705,,,,,,,,12,18,Vrouw,Rechts,2,
,dotcolour,dotcolour,xotask,39,4,279,579,main,negativefb,-99,easy,63,0.8330218000000968,['c'],1,left,['9'],5,0.09071629999971265,,,,,,,,12,18,Vrouw,Rechts,2,
,dotcolour,dotcolour,xotask,40,4,280,580,main,negativefb,-99,hard,41,0.08242260000042734,['c'],1,left,['9'],5,1.2967977999996947,,,,,,,,12,18,Vrouw,Rechts,2,
,dotcolour,dotcolour,xotask,41,4,281,581,main,negativefb,-99,hard,43,0.30084399999987,['n'],0,left,['8'],4,2.8653613999999834,,,,,,,,12,18,Vrouw,Rechts,2,
,dotcolour,dotcolour,xotask,42,4,282,582,main,negativefb,-99,easy,18,0.30112529999996696,['n'],1,right,['8'],4,0.1390449999998964,,,,,,,,12,18,Vrouw,Rechts,2,
,dotcolour,dotcolour,xotask,43,4,283,583,main,negativefb,-99,average,28,0.25035199999956603,['n'],1,right,['9'],5,0.13327830000025642,,,,,,,,12,18,Vrouw,Rechts,2,
,dotcolour,dotcolour,xotask,44,4,284,584,main,negativefb,-99,hard,35,0.1788354000000254,['c'],0,right,['9'],5,0.769003899999916,,,,,,,,12,18,Vrouw,Rechts,2,
,dotcolour,dotcolour,xotask,45,4,285,585,main,negativefb,-99,easy,16,0.9012026000000333,['n'],1,right,['9'],5,0.262648899999931,,,,,,,,12,18,Vrouw,Rechts,2,
,dotcolour,dotcolour,xotask,46,4,286,586,main,negativefb,-99,hard,36,0.15926990000025398,['n'],1,right,['9'],5,0.10954589999983,,,,,,,,12,18,Vrouw,Rechts,2,
,dotcolour,dotcolour,xotask,47,4,287,587,main,negativefb,-99,average,25,0.10017229999994015,['n'],1,right,['9'],5,0.06607359999998152,,,,,,,,12,18,Vrouw,Rechts,2,
,dotcolour,dotcolour,xotask,48,4,288,588,main,negativefb,-99,hard,44,0.2159071999999469,['n'],0,left,['9'],5,0.09486229999993157,,,,,,,,12,18,Vrouw,Rechts,2,
,dotcolour,dotcolour,xotask,49,4,289,589,main,negativefb,-99,average,29,0.0698301000002175,['n'],1,right,['9'],5,0.03670250000004671,,,,,,,,12,18,Vrouw,Rechts,2,
,dotcolour,dotcolour,xotask,50,4,290,590,main,negativefb,-99,average,54,0.018272999999680906,['n'],0,left,['9'],5,0.6835353999999825,,,,,,,,12,18,Vrouw,Rechts,2,
,dotcolour,dotcolour,xotask,51,4,291,591,main,negativefb,-99,hard,38,0.5177459000001363,['n'],1,right,['9'],5,0.1642562000001817,,,,,,,,12,18,Vrouw,Rechts,2,
,dotcolour,dotcolour,xotask,52,4,292,592,main,negativefb,-99,easy,19,0.039918600000419246,['n'],1,right,['9'],5,0.1027115000001686,,,,,,,,12,18,Vrouw,Rechts,2,
,dotcolour,dotcolour,xotask,53,4,293,593,main,negativefb,-99,average,52,0.7677895999995599,['n'],0,left,['9'],5,0.16373070000008738,,,,,,,,12,18,Vrouw,Rechts,2,
,dotcolour,dotcolour,xotask,54,4,294,594,main,negativefb,-99,easy,61,0.033197199999904115,['n'],0,left,['8'],4,2.9354010000001836,,,,,,,,12,18,Vrouw,Rechts,2,
,dotcolour,dotcolour,xotask,55,4,295,595,main,negativefb,-99,easy,61,0.21637559999999212,['c'],1,left,['8'],4,0.07296949999999924,,,,,,,,12,18,Vrouw,Rechts,2,
,dotcolour,dotcolour,xotask,56,4,296,596,main,negativefb,-99,average,26,0.17014749999998457,['c'],0,right,['8'],4,0.016203300000142917,,,,,,,,12,18,Vrouw,Rechts,2,
,dotcolour,dotcolour,xotask,57,4,297,597,main,negativefb,-99,hard,37,0.15344769999956043,['c'],0,right,['8'],4,0.008185499999854073,,,,,,,,12,18,Vrouw,Rechts,2,
,dotcolour,dotcolour,xotask,58,4,298,598,main,negativefb,-99,hard,43,0.2499374999997599,['c'],1,left,['8'],4,0.5262578000001668,,,,,,,,12,18,Vrouw,Rechts,2,
,dotcolour,dotcolour,xotask,59,4,299,599,main,negativefb,-99,average,52,0.3671005999999579,['c'],1,left,['8'],4,0.02758589999984906,,,,,,,,12,18,Vrouw,Rechts,2,
,dotcolour,dotcolour,xotask,0,0,0,600,training,negativefb,71,average,25,0.46631459999980507,['n'],1,right,['9'],5,0.11351859999967928,,,,,,,,12,18,Vrouw,Rechts,2,
,dotcolour,dotcolour,xotask,1,0,1,601,training,negativefb,47,hard,35,0.9168194999997468,['n'],1,right,['9'],5,0.4325074999997014,,,,,,,,12,18,Vrouw,Rechts,2,
,dotcolour,dotcolour,xotask,2,0,2,602,training,negativefb,35,average,55,0.23230560000001788,['c'],1,left,['8'],4,0.06261670000003505,,,,,,,,12,18,Vrouw,Rechts,2,
,dotcolour,dotcolour,xotask,3,0,3,603,training,negativefb,38,average,26,0.26773309999998673,['c'],0,right,['9'],5,0.042020899999897665,,,,,,,,12,18,Vrouw,Rechts,2,
,dotcolour,dotcolour,xotask,4,0,4,604,training,negativefb,95,hard,42,0.16972859999987122,['c'],1,left,['8'],4,0.1527707999998711,,,,,,,,12,18,Vrouw,Rechts,2,
,dotcolour,dotcolour,xotask,5,0,5,605,training,negativefb,39,average,54,0.13141149999955815,['n'],0,left,['8'],4,0.0422777000003407,,,,,,,,12,18,Vrouw,Rechts,2,
,dotcolour,dotcolour,xotask,6,0,6,606,training,negativefb,46,hard,38,0.10645919999979014,['c'],0,right,['9'],5,0.1935923000000912,,,,,,,,12,18,Vrouw,Rechts,2,
,dotcolour,dotcolour,xotask,7,0,7,607,training,negativefb,19,easy,63,0.026728000000275642,['n'],0,left,['9'],5,0.7463355999998385,,,,,,,,12,18,Vrouw,Rechts,2,
,dotcolour,dotcolour,xotask,8,0,8,608,training,negativefb,66,hard,44,0.6658336000000418,['c'],1,left,['9'],5,0.025682899999992514,,,,,,,,12,18,Vrouw,Rechts,2,
,dotcolour,dotcolour,xotask,9,0,9,609,training,negativefb,69,average,55,0.400870599999962,['c'],1,left,['9'],5,0.016709099999843602,,,,,,,,12,18,Vrouw,Rechts,2,
,dotcolour,dotcolour,xotask,10,0,10,610,training,negativefb,55,average,28,0.4171958999995695,['c'],0,right,['9'],5,0.023968800000147894,,,,,,,,12,18,Vrouw,Rechts,2,
,dotcolour,dotcolour,xotask,11,0,11,611,training,negativefb,94,easy,18,0.8341422999997121,['n'],1,right,['9'],5,0.35017829999969763,,,,,,,,12,18,Vrouw,Rechts,2,
,dotcolour,dotcolour,xotask,12,0,12,612,training,negativefb,88,hard,44,0.19339549999995143,['n'],0,left,['9'],5,0.12734099999988757,,,,,,,,12,18,Vrouw,Rechts,2,
,dotcolour,dotcolour,xotask,13,0,13,613,training,negativefb,99,easy,18,0.34941769999977623,['n'],1,right,['9'],5,0.5089723000000959,,,,,,,,12,18,Vrouw,Rechts,2,
,dotcolour,dotcolour,xotask,14,0,14,614,training,negativefb,80,easy,15,0.3664672999998402,['n'],1,right,['9'],5,0.07475320000003194,,,,,,,,12,18,Vrouw,Rechts,2,
,dotcolour,dotcolour,xotask,15,0,15,615,training,negativefb,84,easy,17,0.3834124999998494,['n'],1,right,['9'],5,0.16039180000007036,,,,,,,,12,18,Vrouw,Rechts,2,
,dotcolour,dotcolour,xotask,16,0,16,616,training,negativefb,61,easy,65,0.517234500000086,['c'],1,left,['9'],5,0.021564399999988382,,,,,,,,12,18,Vrouw,Rechts,2,
,dotcolour,dotcolour,xotask,17,0,17,617,training,negativefb,13,average,54,0.44990450000022975,['n'],0,left,['1'],1,0.42739560000018173,,,,,,,,12,18,Vrouw,Rechts,2,
,dotcolour,dotcolour,xotask,18,0,18,618,training,negativefb,51,average,28,0.7511559999998099,['n'],1,right,['9'],5,0.06083989999979167,,,,,,,,12,18,Vrouw,Rechts,2,
,dotcolour,dotcolour,xotask,19,0,19,619,training,negativefb,49,easy,17,0.4671093000001747,['n'],1,right,['9'],5,0.023792299999968236,,,,,,,,12,18,Vrouw,Rechts,2,
,dotcolour,dotcolour,xotask,20,0,20,620,training,negativefb,59,hard,43,0.6167264999999134,['c'],1,left,['9'],5,0.030643099999906553,,,,,,,,12,18,Vrouw,Rechts,2,
,dotcolour,dotcolour,xotask,21,0,21,621,training,negativefb,68,easy,65,0.48292810000020836,['c'],1,left,['9'],5,0.07485220000035042,,,,,,,,12,18,Vrouw,Rechts,2,
,dotcolour,dotcolour,xotask,22,0,22,622,training,negativefb,55,hard,35,0.4843441999996685,['c'],0,right,['9'],5,0.4603652000000693,,,,,,,,12,18,Vrouw,Rechts,2,
,dotcolour,dotcolour,xotask,23,0,23,623,training,negativefb,52,easy,62,0.6660914000003686,['c'],1,left,['9'],5,0.015716299999894545,,,,,,,,12,18,Vrouw,Rechts,2,
,dotcolour,dotcolour,xotask,24,0,24,624,training,negativefb,62,average,27,0.5997389999997722,['c'],0,right,['9'],5,0.30326519999971424,,,,,,,,12,18,Vrouw,Rechts,2,
,dotcolour,dotcolour,xotask,25,0,25,625,training,negativefb,57,easy,64,0.7838095000001886,['n'],0,left,['9'],5,0.09983800000009069,,,,,,,,12,18,Vrouw,Rechts,2,
