starttime,task,fbtask,firsttask,withinblocktrial,block,withintasktrial,trial,running,feedback,fbscore,difflevel,reddots,rt,resp,cor,cresp,conf_press,cj,RTconf,n_xes,post1,post2,post3,post4,post5,stoptime,sub,age,gender,handedness,session,
1715675565,dotcolour,dotcolour,dotcolour,0,0,0,0,training,positivefb,76,hard,39,0.900101100000029,['n'],1,right,['8'],4,1.172260900000083,,,,,,,,31,19,Vrouw,Rechts,2,
,dotcolour,dotcolour,dotcolour,1,0,1,1,training,positivefb,63,hard,42,0.6338553000000502,['n'],0,left,['8'],4,0.8036894000001666,,,,,,,,31,19,Vrouw,Rechts,2,
,dotcolour,dotcolour,dotcolour,2,0,2,2,training,positivefb,90,easy,17,0.48347899999998845,['n'],1,right,['9'],5,0.9842753000000357,,,,,,,,31,19,Vrouw,Rechts,2,
,dotcolour,dotcolour,dotcolour,3,0,3,3,training,positivefb,86,hard,42,0.5995636000000104,['n'],0,left,['3'],3,1.1370339999998578,,,,,,,,31,19,Vrouw,Rechts,2,
,dotcolour,dotcolour,dotcolour,4,0,4,4,training,positivefb,18,average,54,0.7010909000000538,['n'],0,left,['8'],4,1.5437283000001116,,,,,,,,31,19,Vrouw,Rechts,2,
,dotcolour,dotcolour,dotcolour,5,0,5,5,training,positivefb,94,average,28,0.5667381999999179,['n'],1,right,['9'],5,0.4752222999998139,,,,,,,,31,19,Vrouw,Rechts,2,
,dotcolour,dotcolour,dotcolour,6,0,6,6,training,positivefb,89,easy,18,0.5651794000000336,['n'],1,right,['0'],6,0.6013013000001592,,,,,,,,31,19,Vrouw,Rechts,2,
,dotcolour,dotcolour,dotcolour,7,0,7,7,training,positivefb,97,hard,36,0.5174697999998443,['n'],1,right,['8'],4,0.5251337999998213,,,,,,,,31,19,Vrouw,Rechts,2,
,dotcolour,dotcolour,dotcolour,8,0,8,8,training,positivefb,100,easy,61,0.567248999999947,['c'],1,left,['9'],5,0.4660679999999502,,,,,,,,31,19,Vrouw,Rechts,2,
,dotcolour,dotcolour,dotcolour,9,0,9,9,training,positivefb,96,easy,17,0.5012369000000945,['n'],1,right,['9'],5,0.5311426000000665,,,,,,,,31,19,Vrouw,Rechts,2,
,dotcolour,dotcolour,dotcolour,10,0,10,10,training,positivefb,99,easy,17,0.5335526999999729,['n'],1,right,['9'],5,0.4170953999998801,,,,,,,,31,19,Vrouw,Rechts,2,
,dotcolour,dotcolour,dotcolour,11,0,11,11,training,positivefb,98,easy,17,0.4500997999998617,['n'],1,right,['0'],6,0.5026261000000432,,,,,,,,31,19,Vrouw,Rechts,2,
,dotcolour,dotcolour,dotcolour,12,0,12,12,training,positivefb,99,easy,61,0.5169327999999496,['c'],1,left,['9'],5,0.7498878000001241,,,,,,,,31,19,Vrouw,Rechts,2,
,dotcolour,dotcolour,dotcolour,13,0,13,13,training,positivefb,50,hard,43,0.5341845000000376,['n'],0,left,['3'],3,1.4100508999999875,,,,,,,,31,19,Vrouw,Rechts,2,
,dotcolour,dotcolour,dotcolour,14,0,14,14,training,positivefb,98,hard,36,0.5156403999999384,['n'],1,right,['9'],5,0.48482339999986834,,,,,,,,31,19,Vrouw,Rechts,2,
,dotcolour,dotcolour,dotcolour,15,0,15,15,training,positivefb,93,average,55,0.5331108999998833,['c'],1,left,['9'],5,0.4197564999999486,,,,,,,,31,19,Vrouw,Rechts,2,
,dotcolour,dotcolour,dotcolour,16,0,16,16,training,positivefb,96,average,25,0.49859809999998106,['n'],1,right,['0'],6,0.5355349000001297,,,,,,,,31,19,Vrouw,Rechts,2,
,dotcolour,dotcolour,dotcolour,17,0,17,17,training,positivefb,75,easy,18,0.5002243000001272,['n'],1,right,['0'],6,0.4708992999999282,,,,,,,,31,19,Vrouw,Rechts,2,
,dotcolour,dotcolour,dotcolour,18,0,18,18,training,positivefb,98,easy,64,0.48407049999991614,['c'],1,left,['9'],5,0.688414400000056,,,,,,,,31,19,Vrouw,Rechts,2,
,dotcolour,dotcolour,dotcolour,19,0,19,19,training,positivefb,78,average,51,0.566711899999973,['c'],1,left,['8'],4,0.4468153999998776,,,,,,,,31,19,Vrouw,Rechts,2,
,dotcolour,dotcolour,dotcolour,20,0,20,20,training,positivefb,99,hard,36,0.39879610000002685,['n'],1,right,['9'],5,0.5174067000000377,,,,,,,,31,19,Vrouw,Rechts,2,
,dotcolour,dotcolour,dotcolour,21,0,21,21,training,positivefb,92,easy,63,0.516186800000014,['c'],1,left,['9'],5,0.6191697000001568,,,,,,,,31,19,Vrouw,Rechts,2,
,dotcolour,dotcolour,dotcolour,22,0,22,22,training,positivefb,91,easy,64,0.6835559999999532,['c'],1,left,['0'],6,0.4075616000000082,,,,,,,,31,19,Vrouw,Rechts,2,
,dotcolour,dotcolour,dotcolour,23,0,23,23,training,positivefb,99,average,55,0.5168575000000146,['c'],1,left,['9'],5,0.37922230000003765,,,,,,,,31,19,Vrouw,Rechts,2,
,dotcolour,dotcolour,dotcolour,24,0,24,24,training,positivefb,99,average,55,0.5005535000000236,['c'],1,left,['9'],5,0.4645498000002135,,,,,,,,31,19,Vrouw,Rechts,2,
,dotcolour,dotcolour,dotcolour,25,0,25,25,training,positivefb,89,average,53,0.5330894000001081,['c'],1,left,['8'],4,0.47192549999999756,,,,,,,,31,19,Vrouw,Rechts,2,
,dotcolour,dotcolour,dotcolour,26,0,26,26,training,positivefb,97,easy,65,0.5336110999999164,['c'],1,left,['9'],5,0.4160735000000386,,,,,,,,31,19,Vrouw,Rechts,2,
,dotcolour,dotcolour,dotcolour,27,0,27,27,training,positivefb,88,hard,45,0.6340346000001773,['n'],0,left,['9'],5,0.4617334000001847,,,,,,,,31,19,Vrouw,Rechts,2,
,dotcolour,dotcolour,dotcolour,28,0,28,28,training,positivefb,94,easy,15,0.5673388000000159,['n'],1,right,['9'],5,0.4858923000001596,,,,,,,,31,19,Vrouw,Rechts,2,
,dotcolour,dotcolour,dotcolour,29,0,29,29,training,positivefb,92,average,53,0.5336664000001292,['c'],1,left,['9'],5,0.4127372000000378,,,,,,,,31,19,Vrouw,Rechts,2,
,dotcolour,dotcolour,dotcolour,30,0,30,30,training,positivefb,85,average,27,0.5502798999998504,['n'],1,right,['9'],5,0.4869452000000365,,,,,,,,31,19,Vrouw,Rechts,2,
,dotcolour,dotcolour,dotcolour,31,0,31,31,training,positivefb,96,easy,65,0.5492343000000801,['c'],1,left,['0'],6,0.3815139000000727,,,,,,,,31,19,Vrouw,Rechts,2,
,dotcolour,dotcolour,dotcolour,32,0,32,32,training,positivefb,95,average,27,0.4663067999999839,['n'],1,right,['9'],5,0.49235969999995177,,,,,,,,31,19,Vrouw,Rechts,2,
,dotcolour,dotcolour,dotcolour,33,0,33,33,training,positivefb,90,hard,45,0.6676050999999461,['c'],1,left,['8'],4,0.38233850000005987,,,,,,,,31,19,Vrouw,Rechts,2,
,dotcolour,dotcolour,dotcolour,34,0,34,34,training,positivefb,100,easy,18,0.6327745999999479,['n'],1,right,['9'],5,0.5175539000001663,,,,,,,,31,19,Vrouw,Rechts,2,
,dotcolour,dotcolour,dotcolour,35,0,35,35,training,positivefb,99,hard,39,0.5828882999999223,['n'],1,right,['8'],4,0.46502140000006875,,,,,,,,31,19,Vrouw,Rechts,2,
,dotcolour,dotcolour,dotcolour,36,0,36,36,training,positivefb,97,average,25,0.4660450999999739,['n'],1,right,['9'],5,0.435506900000064,,,,,,,,31,19,Vrouw,Rechts,2,
,dotcolour,dotcolour,dotcolour,37,0,37,37,training,positivefb,69,average,53,0.5160624000000098,['c'],1,left,['9'],5,0.44671310000012454,,,,,,,,31,19,Vrouw,Rechts,2,
,dotcolour,dotcolour,dotcolour,38,0,38,38,training,positivefb,100,average,29,0.4997381000000587,['n'],1,right,['9'],5,1.000640500000145,,,,,,,,31,19,Vrouw,Rechts,2,
,dotcolour,dotcolour,dotcolour,39,0,39,39,training,positivefb,99,average,27,0.4668781999998828,['n'],1,right,['9'],5,0.41345410000008087,,,,,,,,31,19,Vrouw,Rechts,2,
,dotcolour,dotcolour,dotcolour,40,0,40,40,training,positivefb,99,average,28,0.4999741999999969,['n'],1,right,['9'],5,0.6575632999999925,,,,,,,,31,19,Vrouw,Rechts,2,
,dotcolour,dotcolour,dotcolour,41,0,41,41,training,positivefb,4,easy,63,0.6824507000001176,['n'],0,left,['2'],2,1.020564800000102,,,,,,,,31,19,Vrouw,Rechts,2,
,dotcolour,dotcolour,dotcolour,42,0,42,42,training,positivefb,89,hard,43,0.9327508999999736,['c'],1,left,['3'],3,0.7661912999999458,,,,,,,,31,19,Vrouw,Rechts,2,
,dotcolour,dotcolour,dotcolour,43,0,43,43,training,positivefb,93,hard,38,0.8156541999999263,['c'],0,right,['3'],3,1.5041146999999455,,,,,,,,31,19,Vrouw,Rechts,2,
,dotcolour,dotcolour,dotcolour,44,0,44,44,training,positivefb,99,easy,61,0.5836633999999776,['c'],1,left,['9'],5,0.5154366000001573,,,,,,,,31,19,Vrouw,Rechts,2,
,dotcolour,dotcolour,dotcolour,45,0,45,45,training,positivefb,96,average,25,0.4999304000000393,['n'],1,right,['9'],5,0.6745118999999704,,,,,,,,31,19,Vrouw,Rechts,2,
,dotcolour,dotcolour,dotcolour,46,0,46,46,training,positivefb,99,easy,64,0.6505781999999272,['c'],1,left,['0'],6,0.3901720999999725,,,,,,,,31,19,Vrouw,Rechts,2,
,dotcolour,dotcolour,dotcolour,47,0,47,47,training,positivefb,94,hard,39,0.8001799000001029,['n'],1,right,['9'],5,0.4787383000000318,,,,,,,,31,19,Vrouw,Rechts,2,
,dotcolour,dotcolour,dotcolour,48,0,48,48,training,positivefb,87,average,52,0.5831594000001132,['n'],0,left,['9'],5,0.7165153999999347,,,,,,,,31,19,Vrouw,Rechts,2,
,dotcolour,dotcolour,dotcolour,49,0,49,49,training,positivefb,83,hard,45,0.4508120999998937,['n'],0,left,['8'],4,0.6305735999999342,,,,,,,,31,19,Vrouw,Rechts,2,
,dotcolour,dotcolour,dotcolour,50,0,50,50,training,positivefb,95,average,27,0.46705759999986185,['n'],1,right,['9'],5,0.5145345999999336,,,,,,,,31,19,Vrouw,Rechts,2,
,dotcolour,dotcolour,dotcolour,51,0,51,51,training,positivefb,97,easy,18,0.4506774999999834,['n'],1,right,['9'],5,0.4998548999999457,,,,,,,,31,19,Vrouw,Rechts,2,
,dotcolour,dotcolour,dotcolour,52,0,52,52,training,positivefb,99,hard,39,0.41711880000002566,['n'],1,right,['8'],4,0.4877134000000751,,,,,,,,31,19,Vrouw,Rechts,2,
,dotcolour,dotcolour,dotcolour,53,0,53,53,training,positivefb,100,hard,38,0.4845832999999402,['n'],1,right,['8'],4,0.5212531999998191,,,,,,,,31,19,Vrouw,Rechts,2,
,dotcolour,dotcolour,dotcolour,54,0,54,54,training,positivefb,86,hard,35,0.550280500000099,['n'],1,right,['8'],4,0.4862668000000667,,,,,,,,31,19,Vrouw,Rechts,2,
,dotcolour,dotcolour,dotcolour,55,0,55,55,training,positivefb,80,hard,44,0.5005737999999837,['n'],0,left,['9'],5,0.550528100000065,,,,,,,,31,19,Vrouw,Rechts,2,
,dotcolour,dotcolour,dotcolour,56,0,56,56,training,positivefb,68,hard,41,0.8318861000000197,['n'],0,left,['9'],5,0.6162045000000944,,,,,,,,31,19,Vrouw,Rechts,2,
,dotcolour,dotcolour,dotcolour,57,0,57,57,training,positivefb,76,hard,44,0.7679759000000104,['n'],0,left,['8'],4,0.5842244000000392,,,,,,,,31,19,Vrouw,Rechts,2,
,dotcolour,dotcolour,dotcolour,58,0,58,58,training,positivefb,99,easy,15,0.6161885999999868,['n'],1,right,['0'],6,0.49670459999993,,,,,,,,31,19,Vrouw,Rechts,2,
,dotcolour,dotcolour,dotcolour,59,0,59,59,training,positivefb,5,average,51,0.5820868000000701,['n'],0,left,['3'],3,1.3176791000000776,,,,,,,,31,19,Vrouw,Rechts,2,
,dotcolour,dotcolour,dotcolour,0,1,60,60,training,positivefb,97,hard,43,0.9682252000000062,['c'],1,left,['3'],3,1.5074586000000636,,,,,,,,31,19,Vrouw,Rechts,2,
,dotcolour,dotcolour,dotcolour,1,1,61,61,training,positivefb,97,hard,36,0.4835906000000705,['n'],1,right,['8'],4,0.6669976000000588,,,,,,,,31,19,Vrouw,Rechts,2,
,dotcolour,dotcolour,dotcolour,2,1,62,62,training,positivefb,92,hard,45,0.9333317000000534,['c'],1,left,['8'],4,0.37883430000010776,,,,,,,,31,19,Vrouw,Rechts,2,
,dotcolour,dotcolour,dotcolour,3,1,63,63,training,positivefb,94,average,27,0.5009772999999313,['n'],1,right,['8'],4,0.8242914999998447,,,,,,,,31,19,Vrouw,Rechts,2,
,dotcolour,dotcolour,dotcolour,4,1,64,64,training,positivefb,98,easy,64,0.5835615999999391,['c'],1,left,['9'],5,0.5447907000000214,,,,,,,,31,19,Vrouw,Rechts,2,
,dotcolour,dotcolour,dotcolour,5,1,65,65,training,positivefb,89,average,26,0.5501686000000063,['n'],1,right,['9'],5,0.5172592000001259,,,,,,,,31,19,Vrouw,Rechts,2,
,dotcolour,dotcolour,dotcolour,6,1,66,66,training,positivefb,88,easy,63,1.1843151999999009,['c'],1,left,['9'],5,0.8891156999998202,,,,,,,,31,19,Vrouw,Rechts,2,
,dotcolour,dotcolour,dotcolour,7,1,67,67,training,positivefb,83,hard,43,0.8665503000001991,['c'],1,left,['2'],2,1.019085000000132,,,,,,,,31,19,Vrouw,Rechts,2,
,dotcolour,dotcolour,dotcolour,8,1,68,68,training,positivefb,99,hard,39,0.533607800000027,['n'],1,right,['9'],5,0.9652143999999225,,,,,,,,31,19,Vrouw,Rechts,2,
,dotcolour,dotcolour,dotcolour,9,1,69,69,training,positivefb,91,average,25,0.4828029999998762,['n'],1,right,['9'],5,0.4193356999999196,,,,,,,,31,19,Vrouw,Rechts,2,
,dotcolour,dotcolour,dotcolour,10,1,70,70,training,positivefb,94,average,27,0.4994983999999931,['n'],1,right,['9'],5,0.3745611999997891,,,,,,,,31,19,Vrouw,Rechts,2,
,dotcolour,dotcolour,dotcolour,11,1,71,71,training,positivefb,93,easy,61,0.5176085999999032,['c'],1,left,['9'],5,0.40292539999995824,,,,,,,,31,19,Vrouw,Rechts,2,
,dotcolour,dotcolour,dotcolour,12,1,72,72,training,positivefb,97,easy,18,0.5330059000000347,['n'],1,right,['0'],6,0.4947131999999783,,,,,,,,31,19,Vrouw,Rechts,2,
,dotcolour,dotcolour,dotcolour,13,1,73,73,training,positivefb,95,average,25,0.4158119000001079,['n'],1,right,['9'],5,0.6184729000001425,,,,,,,,31,19,Vrouw,Rechts,2,
,dotcolour,dotcolour,dotcolour,14,1,74,74,training,positivefb,94,easy,61,0.6334537000000182,['c'],1,left,['9'],5,0.4397508000001835,,,,,,,,31,19,Vrouw,Rechts,2,
,dotcolour,dotcolour,dotcolour,15,1,75,75,training,positivefb,100,hard,39,0.39999760000000606,['n'],1,right,['9'],5,1.023272899999938,,,,,,,,31,19,Vrouw,Rechts,2,
,dotcolour,dotcolour,dotcolour,16,1,76,76,training,positivefb,94,average,55,0.7003142000000935,['c'],1,left,['8'],4,0.5461344000000281,,,,,,,,31,19,Vrouw,Rechts,2,
,dotcolour,dotcolour,dotcolour,17,1,77,77,training,positivefb,52,average,54,0.5671081999998933,['n'],0,left,['8'],4,0.7429451999998946,,,,,,,,31,19,Vrouw,Rechts,2,
,dotcolour,dotcolour,dotcolour,18,1,78,78,training,positivefb,62,hard,45,0.5339578999999048,['n'],0,left,['8'],4,0.4992333999998664,,,,,,,,31,19,Vrouw,Rechts,2,
,dotcolour,dotcolour,dotcolour,19,1,79,79,training,positivefb,86,easy,63,0.5318675999999414,['c'],1,left,['9'],5,0.4587966999999935,,,,,,,,31,19,Vrouw,Rechts,2,
,dotcolour,dotcolour,dotcolour,20,1,80,80,training,positivefb,97,easy,62,0.534550500000023,['c'],1,left,['9'],5,0.3786121999999068,,,,,,,,31,19,Vrouw,Rechts,2,
,dotcolour,dotcolour,dotcolour,21,1,81,81,training,positivefb,93,average,26,0.4172260999998798,['n'],1,right,['9'],5,0.4595136000000366,,,,,,,,31,19,Vrouw,Rechts,2,
,dotcolour,dotcolour,dotcolour,22,1,82,82,training,positivefb,94,average,25,0.45142890000010993,['n'],1,right,['9'],5,0.4801391999999396,,,,,,,,31,19,Vrouw,Rechts,2,
,dotcolour,dotcolour,dotcolour,23,1,83,83,training,positivefb,63,hard,43,0.6168592999999873,['n'],0,left,['8'],4,0.4359421999999995,,,,,,,,31,19,Vrouw,Rechts,2,
,dotcolour,dotcolour,dotcolour,24,1,84,84,training,positivefb,88,hard,45,0.7505699000000732,['c'],1,left,['8'],4,0.3816956000000573,,,,,,,,31,19,Vrouw,Rechts,2,
,dotcolour,dotcolour,dotcolour,25,1,85,85,training,positivefb,100,easy,65,0.6833013999998911,['c'],1,left,['9'],5,0.43472890000020925,,,,,,,,31,19,Vrouw,Rechts,2,
,dotcolour,dotcolour,dotcolour,26,1,86,86,training,positivefb,98,easy,17,0.46714680000013686,['n'],1,right,['0'],6,0.4307656999999381,,,,,,,,31,19,Vrouw,Rechts,2,
,dotcolour,dotcolour,dotcolour,27,1,87,87,training,positivefb,99,average,55,0.5684062999998787,['c'],1,left,['9'],5,0.358929900000021,,,,,,,,31,19,Vrouw,Rechts,2,
,dotcolour,dotcolour,dotcolour,28,1,88,88,training,positivefb,99,average,25,0.48393940000005387,['n'],1,right,['9'],5,0.44609669999999824,,,,,,,,31,19,Vrouw,Rechts,2,
,dotcolour,dotcolour,dotcolour,29,1,89,89,training,positivefb,95,easy,64,0.633013099999971,['c'],1,left,['9'],5,0.402633299999934,,,,,,,,31,19,Vrouw,Rechts,2,
,dotcolour,dotcolour,dotcolour,30,1,90,90,training,positivefb,89,average,55,0.5669342000001052,['c'],1,left,['9'],5,0.7079742999999326,,,,,,,,31,19,Vrouw,Rechts,2,
,dotcolour,dotcolour,dotcolour,31,1,91,91,training,positivefb,98,easy,19,0.5005123999999341,['n'],1,right,['9'],5,0.4205649000000449,,,,,,,,31,19,Vrouw,Rechts,2,
,dotcolour,dotcolour,dotcolour,32,1,92,92,training,positivefb,97,average,51,0.7519637999998849,['c'],1,left,['8'],4,0.42174790000012763,,,,,,,,31,19,Vrouw,Rechts,2,
,dotcolour,dotcolour,dotcolour,33,1,93,93,training,positivefb,100,average,26,0.500591600000007,['n'],1,right,['9'],5,0.4014219000000594,,,,,,,,31,19,Vrouw,Rechts,2,
,dotcolour,dotcolour,dotcolour,34,1,94,94,training,positivefb,91,easy,19,0.4339035000000422,['n'],1,right,['0'],6,0.447823999999855,,,,,,,,31,19,Vrouw,Rechts,2,
,dotcolour,dotcolour,dotcolour,35,1,95,95,training,positivefb,100,easy,15,0.4505008999999518,['n'],1,right,['0'],6,0.9322168999999576,,,,,,,,31,19,Vrouw,Rechts,2,
,dotcolour,dotcolour,dotcolour,36,1,96,96,training,positivefb,99,easy,15,0.4671994000000268,['n'],1,right,['0'],6,0.5559041000001343,,,,,,,,31,19,Vrouw,Rechts,2,
,dotcolour,dotcolour,dotcolour,37,1,97,97,training,positivefb,64,average,54,0.5828718999998728,['c'],1,left,['8'],4,0.3422100000000228,,,,,,,,31,19,Vrouw,Rechts,2,
,dotcolour,dotcolour,dotcolour,38,1,98,98,training,positivefb,59,hard,38,0.6176699000000099,['n'],1,right,['8'],4,0.9682677999999214,,,,,,,,31,19,Vrouw,Rechts,2,
,dotcolour,dotcolour,dotcolour,39,1,99,99,training,positivefb,94,average,51,0.6332447999998294,['c'],1,left,['8'],4,0.8491868000000977,,,,,,,,31,19,Vrouw,Rechts,2,
,dotcolour,dotcolour,dotcolour,40,1,100,100,training,positivefb,65,average,52,0.617580099999941,['n'],0,left,['3'],3,1.0693195999999716,,,,,,,,31,19,Vrouw,Rechts,2,
,dotcolour,dotcolour,dotcolour,41,1,101,101,training,positivefb,100,easy,61,0.7502331000000595,['c'],1,left,['8'],4,0.5489023999998608,,,,,,,,31,19,Vrouw,Rechts,2,
,dotcolour,dotcolour,dotcolour,42,1,102,102,training,positivefb,82,hard,37,0.6332896000001256,['n'],1,right,['8'],4,0.35860589999992953,,,,,,,,31,19,Vrouw,Rechts,2,
,dotcolour,dotcolour,dotcolour,43,1,103,103,training,positivefb,98,hard,37,0.5347024000000147,['n'],1,right,['9'],5,0.5068353999999999,,,,,,,,31,19,Vrouw,Rechts,2,
,dotcolour,dotcolour,dotcolour,44,1,104,104,training,positivefb,86,hard,39,0.7507868000000144,['n'],1,right,['8'],4,0.8328319999998257,,,,,,,,31,19,Vrouw,Rechts,2,
,dotcolour,dotcolour,dotcolour,45,1,105,105,training,positivefb,85,hard,39,0.8182543000000351,['n'],1,right,['9'],5,0.48639619999994466,,,,,,,,31,19,Vrouw,Rechts,2,
,dotcolour,dotcolour,dotcolour,46,1,106,106,training,positivefb,83,hard,41,0.8829600999999911,['n'],0,left,['8'],4,0.41665649999981724,,,,,,,,31,19,Vrouw,Rechts,2,
,dotcolour,dotcolour,dotcolour,47,1,107,107,training,positivefb,60,hard,41,1.2001242999999704,['n'],0,left,['8'],4,0.3040195000000949,,,,,,,,31,19,Vrouw,Rechts,2,
,dotcolour,dotcolour,dotcolour,48,1,108,108,training,positivefb,96,easy,18,0.6663321999999425,['n'],1,right,['0'],6,0.7453780000000734,,,,,,,,31,19,Vrouw,Rechts,2,
,dotcolour,dotcolour,dotcolour,49,1,109,109,training,positivefb,80,hard,45,0.6162387000001672,['n'],0,left,['8'],4,0.6995555000000877,,,,,,,,31,19,Vrouw,Rechts,2,
,dotcolour,dotcolour,dotcolour,50,1,110,110,training,positivefb,85,average,29,0.566258100000141,['n'],1,right,['9'],5,1.2568555999998807,,,,,,,,31,19,Vrouw,Rechts,2,
,dotcolour,dotcolour,dotcolour,51,1,111,111,training,positivefb,99,easy,18,0.4002776999998332,['n'],1,right,['8'],4,0.45414489999984653,,,,,,,,31,19,Vrouw,Rechts,2,
,dotcolour,dotcolour,dotcolour,52,1,112,112,training,positivefb,18,average,51,0.566708399999925,['n'],0,left,['3'],3,1.4383124000000862,,,,,,,,31,19,Vrouw,Rechts,2,
,dotcolour,dotcolour,dotcolour,53,1,113,113,training,positivefb,100,easy,18,0.366647999999941,['n'],1,right,['9'],5,0.5335866000000351,,,,,,,,31,19,Vrouw,Rechts,2,
,dotcolour,dotcolour,dotcolour,54,1,114,114,training,positivefb,94,easy,61,0.5346700999998575,['c'],1,left,['9'],5,0.37105719999999565,,,,,,,,31,19,Vrouw,Rechts,2,
,dotcolour,dotcolour,dotcolour,55,1,115,115,training,positivefb,97,average,54,0.5996992999998838,['c'],1,left,['8'],4,0.32378799999992225,,,,,,,,31,19,Vrouw,Rechts,2,
,dotcolour,dotcolour,dotcolour,56,1,116,116,training,positivefb,94,hard,35,0.649662600000056,['n'],1,right,['8'],4,0.4449066000001949,,,,,,,,31,19,Vrouw,Rechts,2,
,dotcolour,dotcolour,dotcolour,57,1,117,117,training,positivefb,88,hard,44,0.750190099999827,['n'],0,left,['8'],4,0.38205809999999474,,,,,,,,31,19,Vrouw,Rechts,2,
,dotcolour,dotcolour,dotcolour,58,1,118,118,training,positivefb,88,easy,19,0.5827984999998534,['n'],1,right,['9'],5,0.45562249999989035,,,,,,,,31,19,Vrouw,Rechts,2,
,dotcolour,dotcolour,dotcolour,59,1,119,119,training,positivefb,76,hard,38,0.5499388000000636,['n'],1,right,['9'],5,0.39877049999995506,,,,,,,,31,19,Vrouw,Rechts,2,
,dotcolour,dotcolour,dotcolour,0,2,120,120,main,positivefb,-99,easy,63,0.6675420999999915,['c'],1,left,['9'],5,0.7336043999998765,,,,,,,,31,19,Vrouw,Rechts,2,
,dotcolour,dotcolour,dotcolour,1,2,121,121,main,positivefb,-99,hard,44,0.6172257000000627,['n'],0,left,['8'],4,0.9117408000001888,,,,,,,,31,19,Vrouw,Rechts,2,
,dotcolour,dotcolour,dotcolour,2,2,122,122,main,positivefb,-99,easy,19,0.6015186000001904,['n'],1,right,['9'],5,0.5081715999999687,,,,,,,,31,19,Vrouw,Rechts,2,
,dotcolour,dotcolour,dotcolour,3,2,123,123,main,positivefb,-99,easy,64,0.5506806999999299,['c'],1,left,['9'],5,0.45922350000000733,,,,,,,,31,19,Vrouw,Rechts,2,
,dotcolour,dotcolour,dotcolour,4,2,124,124,main,positivefb,-99,easy,16,0.46862179999993714,['n'],1,right,['9'],5,0.4707705000000715,,,,,,,,31,19,Vrouw,Rechts,2,
,dotcolour,dotcolour,dotcolour,5,2,125,125,main,positivefb,-99,hard,44,0.800735799999984,['n'],0,left,['8'],4,1.077420200000006,,,,,,,,31,19,Vrouw,Rechts,2,
,dotcolour,dotcolour,dotcolour,6,2,126,126,main,positivefb,-99,hard,43,0.8007205999999769,['n'],0,left,['8'],4,0.5788218000000143,,,,,,,,31,19,Vrouw,Rechts,2,
,dotcolour,dotcolour,dotcolour,7,2,127,127,main,positivefb,-99,average,26,0.4842848999999205,['n'],1,right,['9'],5,0.44246190000012575,,,,,,,,31,19,Vrouw,Rechts,2,
,dotcolour,dotcolour,dotcolour,8,2,128,128,main,positivefb,-99,average,53,0.5850063000000318,['n'],0,left,['8'],4,0.47431760000017675,,,,,,,,31,19,Vrouw,Rechts,2,
,dotcolour,dotcolour,dotcolour,9,2,129,129,main,positivefb,-99,hard,38,0.6508997999999337,['n'],1,right,['9'],5,0.4940604999999323,,,,,,,,31,19,Vrouw,Rechts,2,
,dotcolour,dotcolour,dotcolour,10,2,130,130,main,positivefb,-99,average,55,0.7671236000001045,['c'],1,left,['8'],4,0.49251520000007076,,,,,,,,31,19,Vrouw,Rechts,2,
,dotcolour,dotcolour,dotcolour,11,2,131,131,main,positivefb,-99,hard,38,0.5848398000000543,['n'],1,right,['8'],4,0.3952432000000954,,,,,,,,31,19,Vrouw,Rechts,2,
,dotcolour,dotcolour,dotcolour,12,2,132,132,main,positivefb,-99,hard,38,0.5345067999999173,['n'],1,right,['3'],3,0.9030434000001151,,,,,,,,31,19,Vrouw,Rechts,2,
,dotcolour,dotcolour,dotcolour,13,2,133,133,main,positivefb,-99,average,27,0.4179361000001336,['n'],1,right,['8'],4,0.4662686000001486,,,,,,,,31,19,Vrouw,Rechts,2,
,dotcolour,dotcolour,dotcolour,14,2,134,134,main,positivefb,-99,easy,62,0.7842826999999488,['c'],1,left,['9'],5,0.3290820999998232,,,,,,,,31,19,Vrouw,Rechts,2,
,dotcolour,dotcolour,dotcolour,15,2,135,135,main,positivefb,-99,easy,62,0.5839257000000089,['c'],1,left,['9'],5,0.33413420000010774,,,,,,,,31,19,Vrouw,Rechts,2,
,dotcolour,dotcolour,dotcolour,16,2,136,136,main,positivefb,-99,average,55,0.517256899999893,['c'],1,left,['8'],4,0.32462630000009085,,,,,,,,31,19,Vrouw,Rechts,2,
,dotcolour,dotcolour,dotcolour,17,2,137,137,main,positivefb,-99,average,29,0.5181114999998044,['n'],1,right,['9'],5,0.5722095000000991,,,,,,,,31,19,Vrouw,Rechts,2,
,dotcolour,dotcolour,dotcolour,18,2,138,138,main,positivefb,-99,average,25,0.4015832000000046,['n'],1,right,['9'],5,0.5015350999999555,,,,,,,,31,19,Vrouw,Rechts,2,
,dotcolour,dotcolour,dotcolour,19,2,139,139,main,positivefb,-99,hard,35,0.48360860000002504,['n'],1,right,['9'],5,0.46334780000006504,,,,,,,,31,19,Vrouw,Rechts,2,
,dotcolour,dotcolour,dotcolour,20,2,140,140,main,positivefb,-99,easy,65,0.5847306999999091,['c'],1,left,['9'],5,0.350916499999812,,,,,,,,31,19,Vrouw,Rechts,2,
,dotcolour,dotcolour,dotcolour,21,2,141,141,main,positivefb,-99,average,52,0.583658000000014,['c'],1,left,['9'],5,0.2982065999999577,,,,,,,,31,19,Vrouw,Rechts,2,
,dotcolour,dotcolour,dotcolour,22,2,142,142,main,positivefb,-99,hard,43,0.9021205999999893,['c'],1,left,['3'],3,0.45136200000001736,,,,,,,,31,19,Vrouw,Rechts,2,
,dotcolour,dotcolour,dotcolour,23,2,143,143,main,positivefb,-99,average,51,0.817464100000052,['c'],1,left,['8'],4,0.448578199999929,,,,,,,,31,19,Vrouw,Rechts,2,
,dotcolour,dotcolour,dotcolour,24,2,144,144,main,positivefb,-99,easy,18,0.5006149999999252,['n'],1,right,['9'],5,0.5875671999999668,,,,,,,,31,19,Vrouw,Rechts,2,
,dotcolour,dotcolour,dotcolour,25,2,145,145,main,positivefb,-99,average,27,0.4180165999998735,['n'],1,right,['8'],4,0.42780820000007225,,,,,,,,31,19,Vrouw,Rechts,2,
,dotcolour,dotcolour,dotcolour,26,2,146,146,main,positivefb,-99,average,52,0.6354648999999881,['n'],0,left,['8'],4,0.3548795000001519,,,,,,,,31,19,Vrouw,Rechts,2,
,dotcolour,dotcolour,dotcolour,27,2,147,147,main,positivefb,-99,hard,35,0.5348027000000002,['n'],1,right,['8'],4,0.37572419999992235,,,,,,,,31,19,Vrouw,Rechts,2,
,dotcolour,dotcolour,dotcolour,28,2,148,148,main,positivefb,-99,average,51,0.6355103000000781,['n'],0,left,['8'],4,0.36090340000009746,,,,,,,,31,19,Vrouw,Rechts,2,
,dotcolour,dotcolour,dotcolour,29,2,149,149,main,positivefb,-99,easy,61,0.5007184000000962,['c'],1,left,['8'],4,0.44765410000013617,,,,,,,,31,19,Vrouw,Rechts,2,
,dotcolour,dotcolour,dotcolour,30,2,150,150,main,positivefb,-99,easy,19,0.4015296000000035,['n'],1,right,['8'],4,0.5499737999998615,,,,,,,,31,19,Vrouw,Rechts,2,
,dotcolour,dotcolour,dotcolour,31,2,151,151,main,positivefb,-99,average,29,0.45135159999995267,['n'],1,right,['8'],4,0.3909416000001329,,,,,,,,31,19,Vrouw,Rechts,2,
,dotcolour,dotcolour,dotcolour,32,2,152,152,main,positivefb,-99,average,55,0.48379659999977775,['c'],1,left,['8'],4,0.3412952999999561,,,,,,,,31,19,Vrouw,Rechts,2,
,dotcolour,dotcolour,dotcolour,33,2,153,153,main,positivefb,-99,easy,19,0.4179820000001655,['n'],1,right,['8'],4,0.360061000000087,,,,,,,,31,19,Vrouw,Rechts,2,
,dotcolour,dotcolour,dotcolour,34,2,154,154,main,positivefb,-99,average,28,0.5511000000001332,['n'],1,right,['8'],4,0.38834350000001905,,,,,,,,31,19,Vrouw,Rechts,2,
,dotcolour,dotcolour,dotcolour,35,2,155,155,main,positivefb,-99,easy,16,0.41596690000005765,['n'],1,right,['9'],5,0.40452909999999065,,,,,,,,31,19,Vrouw,Rechts,2,
,dotcolour,dotcolour,dotcolour,36,2,156,156,main,positivefb,-99,hard,39,0.384988999999905,['n'],1,right,['8'],4,0.37403299999982664,,,,,,,,31,19,Vrouw,Rechts,2,
,dotcolour,dotcolour,dotcolour,37,2,157,157,main,positivefb,-99,easy,64,0.4006395999999768,['c'],1,left,['9'],5,0.37653290000002926,,,,,,,,31,19,Vrouw,Rechts,2,
,dotcolour,dotcolour,dotcolour,38,2,158,158,main,positivefb,-99,hard,41,0.5510482999998203,['c'],1,left,['3'],3,0.8691395999999258,,,,,,,,31,19,Vrouw,Rechts,2,
,dotcolour,dotcolour,dotcolour,39,2,159,159,main,positivefb,-99,average,26,0.3847555999998349,['n'],1,right,['8'],4,0.4750724000000446,,,,,,,,31,19,Vrouw,Rechts,2,
,dotcolour,dotcolour,dotcolour,40,2,160,160,main,positivefb,-99,hard,41,0.5007434999999987,['n'],0,left,['8'],4,1.0852642999998352,,,,,,,,31,19,Vrouw,Rechts,2,
,dotcolour,dotcolour,dotcolour,41,2,161,161,main,positivefb,-99,easy,61,0.6010533999999552,['c'],1,left,['9'],5,0.3464959999998882,,,,,,,,31,19,Vrouw,Rechts,2,
,dotcolour,dotcolour,dotcolour,42,2,162,162,main,positivefb,-99,hard,43,1.034008300000096,['n'],0,left,['8'],4,0.3964768000000731,,,,,,,,31,19,Vrouw,Rechts,2,
,dotcolour,dotcolour,dotcolour,43,2,163,163,main,positivefb,-99,hard,41,0.7503589000000375,['n'],0,left,['8'],4,0.4959971000000678,,,,,,,,31,19,Vrouw,Rechts,2,
,dotcolour,dotcolour,dotcolour,44,2,164,164,main,positivefb,-99,easy,63,0.5348195999999916,['c'],1,left,['9'],5,0.5678595999997924,,,,,,,,31,19,Vrouw,Rechts,2,
,dotcolour,dotcolour,dotcolour,45,2,165,165,main,positivefb,-99,average,55,0.6667896000001292,['c'],1,left,['9'],5,0.7191588999999112,,,,,,,,31,19,Vrouw,Rechts,2,
,dotcolour,dotcolour,dotcolour,46,2,166,166,main,positivefb,-99,average,25,0.4516888000000563,['n'],1,right,['9'],5,0.45732060000000274,,,,,,,,31,19,Vrouw,Rechts,2,
,dotcolour,dotcolour,dotcolour,47,2,167,167,main,positivefb,-99,average,26,0.43420659999992495,['n'],1,right,['9'],5,0.4220284000000447,,,,,,,,31,19,Vrouw,Rechts,2,
,dotcolour,dotcolour,dotcolour,48,2,168,168,main,positivefb,-99,hard,42,0.4339281000000028,['n'],0,left,['8'],4,0.6286715999999615,,,,,,,,31,19,Vrouw,Rechts,2,
,dotcolour,dotcolour,dotcolour,49,2,169,169,main,positivefb,-99,hard,36,0.5501052000001891,['n'],1,right,['8'],4,0.4075350000000526,,,,,,,,31,19,Vrouw,Rechts,2,
,dotcolour,dotcolour,dotcolour,50,2,170,170,main,positivefb,-99,easy,16,0.5840673000000152,['n'],1,right,['9'],5,0.3845790999998826,,,,,,,,31,19,Vrouw,Rechts,2,
,dotcolour,dotcolour,dotcolour,51,2,171,171,main,positivefb,-99,hard,45,0.5181663000000754,['n'],0,left,['3'],3,1.2455953999999565,,,,,,,,31,19,Vrouw,Rechts,2,
,dotcolour,dotcolour,dotcolour,52,2,172,172,main,positivefb,-99,easy,17,0.4845116000001326,['n'],1,right,['0'],6,0.4816157000000203,,,,,,,,31,19,Vrouw,Rechts,2,
,dotcolour,dotcolour,dotcolour,53,2,173,173,main,positivefb,-99,easy,17,0.3841362000000572,['n'],1,right,['0'],6,0.4554250000001048,,,,,,,,31,19,Vrouw,Rechts,2,
,dotcolour,dotcolour,dotcolour,54,2,174,174,main,positivefb,-99,hard,39,0.38442639999993844,['n'],1,right,['8'],4,0.45429940000008173,,,,,,,,31,19,Vrouw,Rechts,2,
,dotcolour,dotcolour,dotcolour,55,2,175,175,main,positivefb,-99,hard,38,0.46807560000002013,['n'],1,right,['8'],4,0.3465012999999999,,,,,,,,31,19,Vrouw,Rechts,2,
,dotcolour,dotcolour,dotcolour,56,2,176,176,main,positivefb,-99,average,54,0.7506295999999111,['c'],1,left,['8'],4,0.4397245000000112,,,,,,,,31,19,Vrouw,Rechts,2,
,dotcolour,dotcolour,dotcolour,57,2,177,177,main,positivefb,-99,hard,39,0.5680973999999424,['n'],1,right,['8'],4,0.34460169999988466,,,,,,,,31,19,Vrouw,Rechts,2,
,dotcolour,dotcolour,dotcolour,58,2,178,178,main,positivefb,-99,easy,61,0.5509531000000152,['c'],1,left,['9'],5,0.350023100000044,,,,,,,,31,19,Vrouw,Rechts,2,
,dotcolour,dotcolour,dotcolour,59,2,179,179,main,positivefb,-99,easy,15,0.46790759999998954,['n'],1,right,['9'],5,0.40628620000006777,,,,,,,,31,19,Vrouw,Rechts,2,
,dotcolour,dotcolour,dotcolour,0,3,180,180,main,positivefb,-99,average,27,0.5835087999998905,['n'],1,right,['9'],5,0.39896599999997306,,,,,,,,31,19,Vrouw,Rechts,2,
,dotcolour,dotcolour,dotcolour,1,3,181,181,main,positivefb,-99,average,26,0.3837239000001773,['n'],1,right,['8'],4,0.4961155000000872,,,,,,,,31,19,Vrouw,Rechts,2,
,dotcolour,dotcolour,dotcolour,2,3,182,182,main,positivefb,-99,easy,61,0.6503648000000339,['c'],1,left,['9'],5,0.8829668000000765,,,,,,,,31,19,Vrouw,Rechts,2,
,dotcolour,dotcolour,dotcolour,3,3,183,183,main,positivefb,-99,hard,41,0.5347342000000026,['n'],0,left,['8'],4,0.3708263999999417,,,,,,,,31,19,Vrouw,Rechts,2,
,dotcolour,dotcolour,dotcolour,4,3,184,184,main,positivefb,-99,easy,64,0.5338246999999683,['c'],1,left,['9'],5,0.3126534000000447,,,,,,,,31,19,Vrouw,Rechts,2,
,dotcolour,dotcolour,dotcolour,5,3,185,185,main,positivefb,-99,hard,42,0.5517216999999164,['n'],0,left,['8'],4,0.3420192000000952,,,,,,,,31,19,Vrouw,Rechts,2,
,dotcolour,dotcolour,dotcolour,6,3,186,186,main,positivefb,-99,easy,65,0.43317610000008244,['c'],1,left,['9'],5,0.31236300000000483,,,,,,,,31,19,Vrouw,Rechts,2,
,dotcolour,dotcolour,dotcolour,7,3,187,187,main,positivefb,-99,easy,18,0.4667673999999806,['n'],1,right,['9'],5,0.44334860000003573,,,,,,,,31,19,Vrouw,Rechts,2,
,dotcolour,dotcolour,dotcolour,8,3,188,188,main,positivefb,-99,average,51,0.6852501999999276,['c'],1,left,['9'],5,0.7429477000000588,,,,,,,,31,19,Vrouw,Rechts,2,
,dotcolour,dotcolour,dotcolour,9,3,189,189,main,positivefb,-99,easy,61,0.5179175000000669,['c'],1,left,['8'],4,0.3900040999999419,,,,,,,,31,19,Vrouw,Rechts,2,
,dotcolour,dotcolour,dotcolour,10,3,190,190,main,positivefb,-99,average,29,0.6508813999998893,['c'],0,right,['8'],4,0.9885521999999582,,,,,,,,31,19,Vrouw,Rechts,2,
,dotcolour,dotcolour,dotcolour,11,3,191,191,main,positivefb,-99,easy,15,0.9674259999999322,['n'],1,right,['9'],5,0.34364290000007713,,,,,,,,31,19,Vrouw,Rechts,2,
,dotcolour,dotcolour,dotcolour,12,3,192,192,main,positivefb,-99,hard,42,1.0515330000000631,['n'],0,left,['8'],4,0.37699029999998857,,,,,,,,31,19,Vrouw,Rechts,2,
,dotcolour,dotcolour,dotcolour,13,3,193,193,main,positivefb,-99,hard,38,1.817029199999979,['n'],1,right,['3'],3,1.0742795999999544,,,,,,,,31,19,Vrouw,Rechts,2,
,dotcolour,dotcolour,dotcolour,14,3,194,194,main,positivefb,-99,easy,16,0.6178610000001754,['n'],1,right,['0'],6,0.5520357000000331,,,,,,,,31,19,Vrouw,Rechts,2,
,dotcolour,dotcolour,dotcolour,15,3,195,195,main,positivefb,-99,average,54,1.0007307000000765,['c'],1,left,['9'],5,0.45777689999999893,,,,,,,,31,19,Vrouw,Rechts,2,
,dotcolour,dotcolour,dotcolour,16,3,196,196,main,positivefb,-99,hard,42,0.9179699999999684,['n'],0,left,['9'],5,0.4599671999999373,,,,,,,,31,19,Vrouw,Rechts,2,
,dotcolour,dotcolour,dotcolour,17,3,197,197,main,positivefb,-99,easy,16,0.35093720000008943,['n'],1,right,['0'],6,0.5969025999997939,,,,,,,,31,19,Vrouw,Rechts,2,
,dotcolour,dotcolour,dotcolour,18,3,198,198,main,positivefb,-99,hard,44,0.4839382000000114,['n'],0,left,['8'],4,1.1306838000000425,,,,,,,,31,19,Vrouw,Rechts,2,
,dotcolour,dotcolour,dotcolour,19,3,199,199,main,positivefb,-99,average,52,0.4509518999998363,['n'],0,left,['8'],4,0.4604123999999956,,,,,,,,31,19,Vrouw,Rechts,2,
,dotcolour,dotcolour,dotcolour,20,3,200,200,main,positivefb,-99,hard,36,0.5014585999999781,['n'],1,right,['9'],5,0.5352419999999256,,,,,,,,31,19,Vrouw,Rechts,2,
,dotcolour,dotcolour,dotcolour,21,3,201,201,main,positivefb,-99,easy,18,0.38422250000007807,['n'],1,right,['9'],5,0.4265242000001308,,,,,,,,31,19,Vrouw,Rechts,2,
,dotcolour,dotcolour,dotcolour,22,3,202,202,main,positivefb,-99,easy,15,0.36702900000000227,['n'],1,right,['9'],5,0.36419409999984964,,,,,,,,31,19,Vrouw,Rechts,2,
,dotcolour,dotcolour,dotcolour,23,3,203,203,main,positivefb,-99,easy,61,0.5848578999998608,['c'],1,left,['9'],5,0.32773839999981647,,,,,,,,31,19,Vrouw,Rechts,2,
,dotcolour,dotcolour,dotcolour,24,3,204,204,main,positivefb,-99,average,52,0.9011677999999392,['n'],0,left,['8'],4,0.32668519999992895,,,,,,,,31,19,Vrouw,Rechts,2,
,dotcolour,dotcolour,dotcolour,25,3,205,205,main,positivefb,-99,hard,37,0.768105199999809,['n'],1,right,['8'],4,0.364543200000071,,,,,,,,31,19,Vrouw,Rechts,2,
,dotcolour,dotcolour,dotcolour,26,3,206,206,main,positivefb,-99,hard,38,0.7171771999999237,['n'],1,right,['8'],4,0.48155309999992824,,,,,,,,31,19,Vrouw,Rechts,2,
,dotcolour,dotcolour,dotcolour,27,3,207,207,main,positivefb,-99,hard,37,0.7506521999998768,['n'],1,right,['8'],4,0.456764400000111,,,,,,,,31,19,Vrouw,Rechts,2,
,dotcolour,dotcolour,dotcolour,28,3,208,208,main,positivefb,-99,hard,45,0.4503414000000703,['n'],0,left,['8'],4,0.46140779999996084,,,,,,,,31,19,Vrouw,Rechts,2,
,dotcolour,dotcolour,dotcolour,29,3,209,209,main,positivefb,-99,easy,17,0.7679215999999087,['n'],1,right,['9'],5,0.3898149999999987,,,,,,,,31,19,Vrouw,Rechts,2,
,dotcolour,dotcolour,dotcolour,30,3,210,210,main,positivefb,-99,average,52,0.6185812999999598,['c'],1,left,['9'],5,0.4864700000000539,,,,,,,,31,19,Vrouw,Rechts,2,
,dotcolour,dotcolour,dotcolour,31,3,211,211,main,positivefb,-99,easy,18,0.5669867999999951,['c'],0,right,['1'],1,1.66112279999993,,,,,,,,31,19,Vrouw,Rechts,2,
,dotcolour,dotcolour,dotcolour,32,3,212,212,main,positivefb,-99,average,54,1.1343731000001753,['c'],1,left,['8'],4,0.40599829999996473,,,,,,,,31,19,Vrouw,Rechts,2,
,dotcolour,dotcolour,dotcolour,33,3,213,213,main,positivefb,-99,average,28,0.5338378999999804,['n'],1,right,['9'],5,0.4983594999998786,,,,,,,,31,19,Vrouw,Rechts,2,
,dotcolour,dotcolour,dotcolour,34,3,214,214,main,positivefb,-99,average,26,0.45198290000007546,['n'],1,right,['9'],5,0.5890337000000727,,,,,,,,31,19,Vrouw,Rechts,2,
,dotcolour,dotcolour,dotcolour,35,3,215,215,main,positivefb,-99,easy,64,0.6835667000000285,['c'],1,left,['9'],5,0.32298869999999624,,,,,,,,31,19,Vrouw,Rechts,2,
,dotcolour,dotcolour,dotcolour,36,3,216,216,main,positivefb,-99,average,55,0.66757060000009,['c'],1,left,['9'],5,0.3965422999999646,,,,,,,,31,19,Vrouw,Rechts,2,
,dotcolour,dotcolour,dotcolour,37,3,217,217,main,positivefb,-99,average,54,0.48401749999993626,['c'],1,left,['9'],5,0.28921779999996033,,,,,,,,31,19,Vrouw,Rechts,2,
,dotcolour,dotcolour,dotcolour,38,3,218,218,main,positivefb,-99,average,29,0.6338066999999228,['n'],1,right,['9'],5,0.47001509999995505,,,,,,,,31,19,Vrouw,Rechts,2,
,dotcolour,dotcolour,dotcolour,39,3,219,219,main,positivefb,-99,hard,39,0.6674243999998453,['n'],1,right,['8'],4,0.37767509999980575,,,,,,,,31,19,Vrouw,Rechts,2,
,dotcolour,dotcolour,dotcolour,40,3,220,220,main,positivefb,-99,hard,44,0.6671515999998974,['n'],0,left,['8'],4,0.34536419999994905,,,,,,,,31,19,Vrouw,Rechts,2,
,dotcolour,dotcolour,dotcolour,41,3,221,221,main,positivefb,-99,average,26,0.43302489999996396,['n'],1,right,['9'],5,0.5791243999999551,,,,,,,,31,19,Vrouw,Rechts,2,
,dotcolour,dotcolour,dotcolour,42,3,222,222,main,positivefb,-99,average,25,0.3667341000000306,['n'],1,right,['9'],5,0.3898070000000189,,,,,,,,31,19,Vrouw,Rechts,2,
,dotcolour,dotcolour,dotcolour,43,3,223,223,main,positivefb,-99,hard,36,0.3350474999999733,['n'],1,right,['9'],5,0.44975030000000515,,,,,,,,31,19,Vrouw,Rechts,2,
,dotcolour,dotcolour,dotcolour,44,3,224,224,main,positivefb,-99,average,25,0.36642120000010436,['n'],1,right,['9'],5,0.4661559999999554,,,,,,,,31,19,Vrouw,Rechts,2,
,dotcolour,dotcolour,dotcolour,45,3,225,225,main,positivefb,-99,easy,19,0.3836496999999781,['n'],1,right,['9'],5,0.43321500000001834,,,,,,,,31,19,Vrouw,Rechts,2,
,dotcolour,dotcolour,dotcolour,46,3,226,226,main,positivefb,-99,hard,43,0.36780930000008993,['n'],0,left,['8'],4,0.46509070000001884,,,,,,,,31,19,Vrouw,Rechts,2,
,dotcolour,dotcolour,dotcolour,47,3,227,227,main,positivefb,-99,average,53,0.4841762999999446,['c'],1,left,['9'],5,0.3635593000001336,,,,,,,,31,19,Vrouw,Rechts,2,
,dotcolour,dotcolour,dotcolour,48,3,228,228,main,positivefb,-99,easy,62,0.5014909000001353,['c'],1,left,['9'],5,0.3150534000001244,,,,,,,,31,19,Vrouw,Rechts,2,
,dotcolour,dotcolour,dotcolour,49,3,229,229,main,positivefb,-99,hard,35,0.4354173000001538,['c'],0,right,['8'],4,0.5173795999999129,,,,,,,,31,19,Vrouw,Rechts,2,
,dotcolour,dotcolour,dotcolour,50,3,230,230,main,positivefb,-99,hard,42,1.1682369000000108,['n'],0,left,['8'],4,0.41104920000020684,,,,,,,,31,19,Vrouw,Rechts,2,
,dotcolour,dotcolour,dotcolour,51,3,231,231,main,positivefb,-99,hard,35,0.4175725000000057,['n'],1,right,['8'],4,0.6508504000000812,,,,,,,,31,19,Vrouw,Rechts,2,
,dotcolour,dotcolour,dotcolour,52,3,232,232,main,positivefb,-99,easy,62,0.5177724999998645,['c'],1,left,['8'],4,0.3652326000001267,,,,,,,,31,19,Vrouw,Rechts,2,
,dotcolour,dotcolour,dotcolour,53,3,233,233,main,positivefb,-99,hard,42,0.48442069999987325,['n'],0,left,['8'],4,0.395904900000005,,,,,,,,31,19,Vrouw,Rechts,2,
,dotcolour,dotcolour,dotcolour,54,3,234,234,main,positivefb,-99,easy,63,0.434218699999974,['c'],1,left,['9'],5,0.36378750000017135,,,,,,,,31,19,Vrouw,Rechts,2,
,dotcolour,dotcolour,dotcolour,55,3,235,235,main,positivefb,-99,average,51,0.3839757999999165,['c'],1,left,['9'],5,0.39068959999985964,,,,,,,,31,19,Vrouw,Rechts,2,
,dotcolour,dotcolour,dotcolour,56,3,236,236,main,positivefb,-99,hard,38,0.41807459999995444,['c'],0,right,['8'],4,0.3754197999999178,,,,,,,,31,19,Vrouw,Rechts,2,
,dotcolour,dotcolour,dotcolour,57,3,237,237,main,positivefb,-99,easy,61,0.48432230000003074,['c'],1,left,['9'],5,0.3342528000000584,,,,,,,,31,19,Vrouw,Rechts,2,
,dotcolour,dotcolour,dotcolour,58,3,238,238,main,positivefb,-99,easy,16,0.4167666000000736,['n'],1,right,['9'],5,0.4807230999999774,,,,,,,,31,19,Vrouw,Rechts,2,
,dotcolour,dotcolour,dotcolour,59,3,239,239,main,positivefb,-99,average,27,0.4008837000001222,['n'],1,right,['9'],5,0.4308145999998487,,,,,,,,31,19,Vrouw,Rechts,2,
,dotcolour,dotcolour,dotcolour,0,4,240,240,main,positivefb,-99,hard,39,0.5516291000001274,['n'],1,right,['9'],5,0.4260575999999219,,,,,,,,31,19,Vrouw,Rechts,2,
,dotcolour,dotcolour,dotcolour,1,4,241,241,main,positivefb,-99,easy,63,0.617813999999953,['n'],0,left,['8'],4,1.041170799999918,,,,,,,,31,19,Vrouw,Rechts,2,
,dotcolour,dotcolour,dotcolour,2,4,242,242,main,positivefb,-99,hard,42,0.41790869999999813,['n'],0,left,['8'],4,0.383587499999976,,,,,,,,31,19,Vrouw,Rechts,2,
,dotcolour,dotcolour,dotcolour,3,4,243,243,main,positivefb,-99,hard,37,0.41726020000010067,['n'],1,right,['9'],5,0.4005413999998382,,,,,,,,31,19,Vrouw,Rechts,2,
,dotcolour,dotcolour,dotcolour,4,4,244,244,main,positivefb,-99,hard,38,0.7178079000000253,['c'],0,right,['8'],4,0.3487493000000086,,,,,,,,31,19,Vrouw,Rechts,2,
,dotcolour,dotcolour,dotcolour,5,4,245,245,main,positivefb,-99,average,25,0.6001871000000847,['n'],1,right,['9'],5,0.4145326999998815,,,,,,,,31,19,Vrouw,Rechts,2,
,dotcolour,dotcolour,dotcolour,6,4,246,246,main,positivefb,-99,easy,17,1.5347756000001027,['n'],1,right,['8'],4,0.5777593000000252,,,,,,,,31,19,Vrouw,Rechts,2,
,dotcolour,dotcolour,dotcolour,7,4,247,247,main,positivefb,-99,hard,36,0.6017449000000852,['n'],1,right,['8'],4,0.435295700000097,,,,,,,,31,19,Vrouw,Rechts,2,
,dotcolour,dotcolour,dotcolour,8,4,248,248,main,positivefb,-99,hard,36,0.3514571999999134,['n'],1,right,['9'],5,0.3965588999999454,,,,,,,,31,19,Vrouw,Rechts,2,
,dotcolour,dotcolour,dotcolour,9,4,249,249,main,positivefb,-99,hard,43,0.435021499999948,['n'],0,left,['3'],3,0.9085962999999992,,,,,,,,31,19,Vrouw,Rechts,2,
,dotcolour,dotcolour,dotcolour,10,4,250,250,main,positivefb,-99,hard,39,0.6512820000000374,['n'],1,right,['8'],4,0.40757910000002084,,,,,,,,31,19,Vrouw,Rechts,2,
,dotcolour,dotcolour,dotcolour,11,4,251,251,main,positivefb,-99,easy,62,0.6349416000000474,['c'],1,left,['9'],5,0.42317300000013347,,,,,,,,31,19,Vrouw,Rechts,2,
,dotcolour,dotcolour,dotcolour,12,4,252,252,main,positivefb,-99,hard,41,0.5329008000001068,['n'],0,left,['8'],4,0.38555129999986093,,,,,,,,31,19,Vrouw,Rechts,2,
,dotcolour,dotcolour,dotcolour,13,4,253,253,main,positivefb,-99,average,55,0.6844138000001294,['c'],1,left,['9'],5,0.3673429999998916,,,,,,,,31,19,Vrouw,Rechts,2,
,dotcolour,dotcolour,dotcolour,14,4,254,254,main,positivefb,-99,average,28,0.483666299999868,['n'],1,right,['9'],5,0.40689580000002934,,,,,,,,31,19,Vrouw,Rechts,2,
,dotcolour,dotcolour,dotcolour,15,4,255,255,main,positivefb,-99,average,28,0.5837910000000193,['n'],1,right,['8'],4,0.6238299000001462,,,,,,,,31,19,Vrouw,Rechts,2,
,dotcolour,dotcolour,dotcolour,16,4,256,256,main,positivefb,-99,easy,17,0.3848516999998992,['n'],1,right,['9'],5,0.464877000000115,,,,,,,,31,19,Vrouw,Rechts,2,
,dotcolour,dotcolour,dotcolour,17,4,257,257,main,positivefb,-99,easy,18,0.35109609999994973,['n'],1,right,['9'],5,0.3923415000001569,,,,,,,,31,19,Vrouw,Rechts,2,
,dotcolour,dotcolour,dotcolour,18,4,258,258,main,positivefb,-99,average,25,0.4846125999999913,['n'],1,right,['9'],5,0.397884200000135,,,,,,,,31,19,Vrouw,Rechts,2,
,dotcolour,dotcolour,dotcolour,19,4,259,259,main,positivefb,-99,average,51,1.1347557000001416,['c'],1,left,['8'],4,0.28223160000015923,,,,,,,,31,19,Vrouw,Rechts,2,
,dotcolour,dotcolour,dotcolour,20,4,260,260,main,positivefb,-99,average,51,0.7843911999998454,['c'],1,left,['8'],4,0.24733450000007906,,,,,,,,31,19,Vrouw,Rechts,2,
,dotcolour,dotcolour,dotcolour,21,4,261,261,main,positivefb,-99,average,55,0.5828679000001102,['c'],1,left,['8'],4,0.3268382000001111,,,,,,,,31,19,Vrouw,Rechts,2,
,dotcolour,dotcolour,dotcolour,22,4,262,262,main,positivefb,-99,easy,61,0.4667876000000888,['c'],1,left,['9'],5,0.32059559999993326,,,,,,,,31,19,Vrouw,Rechts,2,
,dotcolour,dotcolour,dotcolour,23,4,263,263,main,positivefb,-99,easy,19,0.4509812999999667,['n'],1,right,['9'],5,0.3624540999999226,,,,,,,,31,19,Vrouw,Rechts,2,
,dotcolour,dotcolour,dotcolour,24,4,264,264,main,positivefb,-99,easy,62,0.5180281000000377,['c'],1,left,['9'],5,0.2568025000000489,,,,,,,,31,19,Vrouw,Rechts,2,
,dotcolour,dotcolour,dotcolour,25,4,265,265,main,positivefb,-99,easy,15,0.3844693000000916,['n'],1,right,['9'],5,0.3762057999999797,,,,,,,,31,19,Vrouw,Rechts,2,
,dotcolour,dotcolour,dotcolour,26,4,266,266,main,positivefb,-99,hard,39,0.9509458999998515,['n'],1,right,['9'],5,0.39619119999997565,,,,,,,,31,19,Vrouw,Rechts,2,
,dotcolour,dotcolour,dotcolour,27,4,267,267,main,positivefb,-99,average,25,0.4341534000000138,['n'],1,right,['9'],5,0.45195330000001377,,,,,,,,31,19,Vrouw,Rechts,2,
,dotcolour,dotcolour,dotcolour,28,4,268,268,main,positivefb,-99,average,51,0.8671687000000929,['c'],1,left,['8'],4,0.2715574999999717,,,,,,,,31,19,Vrouw,Rechts,2,
,dotcolour,dotcolour,dotcolour,29,4,269,269,main,positivefb,-99,hard,42,0.7679163999998764,['n'],0,left,['8'],4,0.534507099999928,,,,,,,,31,19,Vrouw,Rechts,2,
,dotcolour,dotcolour,dotcolour,30,4,270,270,main,positivefb,-99,average,28,0.4509473999999045,['n'],1,right,['9'],5,0.44049420000010286,,,,,,,,31,19,Vrouw,Rechts,2,
,dotcolour,dotcolour,dotcolour,31,4,271,271,main,positivefb,-99,hard,45,0.6678506999999172,['c'],1,left,['8'],4,0.3889312000001155,,,,,,,,31,19,Vrouw,Rechts,2,
,dotcolour,dotcolour,dotcolour,32,4,272,272,main,positivefb,-99,easy,61,0.33502869999983886,['n'],0,left,['3'],3,0.9692863000000216,,,,,,,,31,19,Vrouw,Rechts,2,
,dotcolour,dotcolour,dotcolour,33,4,273,273,main,positivefb,-99,hard,42,1.3342690000001767,['c'],1,left,['8'],4,0.45376600000008693,,,,,,,,31,19,Vrouw,Rechts,2,
,dotcolour,dotcolour,dotcolour,34,4,274,274,main,positivefb,-99,average,28,0.48466819999998734,['n'],1,right,['9'],5,0.39353299999993396,,,,,,,,31,19,Vrouw,Rechts,2,
,dotcolour,dotcolour,dotcolour,35,4,275,275,main,positivefb,-99,hard,44,0.6847772999999506,['n'],0,left,['8'],4,0.37484010000002854,,,,,,,,31,19,Vrouw,Rechts,2,
,dotcolour,dotcolour,dotcolour,36,4,276,276,main,positivefb,-99,average,27,0.4352707999998984,['n'],1,right,['9'],5,0.4402618999999959,,,,,,,,31,19,Vrouw,Rechts,2,
,dotcolour,dotcolour,dotcolour,37,4,277,277,main,positivefb,-99,hard,39,0.40069149999999354,['n'],1,right,['8'],4,0.3834628000001885,,,,,,,,31,19,Vrouw,Rechts,2,
,dotcolour,dotcolour,dotcolour,38,4,278,278,main,positivefb,-99,easy,61,0.5671084000000519,['c'],1,left,['9'],5,0.4098048999999264,,,,,,,,31,19,Vrouw,Rechts,2,
,dotcolour,dotcolour,dotcolour,39,4,279,279,main,positivefb,-99,average,26,0.46701389999998355,['n'],1,right,['9'],5,0.37654280000015206,,,,,,,,31,19,Vrouw,Rechts,2,
,dotcolour,dotcolour,dotcolour,40,4,280,280,main,positivefb,-99,average,51,0.5010947999999189,['n'],0,left,['9'],5,0.4781358000000182,,,,,,,,31,19,Vrouw,Rechts,2,
,dotcolour,dotcolour,dotcolour,41,4,281,281,main,positivefb,-99,average,53,1.634765600000037,['c'],1,left,['8'],4,0.24234230000001844,,,,,,,,31,19,Vrouw,Rechts,2,
,dotcolour,dotcolour,dotcolour,42,4,282,282,main,positivefb,-99,easy,18,0.48294579999992493,['n'],1,right,['9'],5,0.33427919999985534,,,,,,,,31,19,Vrouw,Rechts,2,
,dotcolour,dotcolour,dotcolour,43,4,283,283,main,positivefb,-99,easy,16,0.3850053000001026,['n'],1,right,['9'],5,0.4108762000000752,,,,,,,,31,19,Vrouw,Rechts,2,
,dotcolour,dotcolour,dotcolour,44,4,284,284,main,positivefb,-99,average,55,0.5671025999999983,['c'],1,left,['9'],5,0.3569431999999324,,,,,,,,31,19,Vrouw,Rechts,2,
,dotcolour,dotcolour,dotcolour,45,4,285,285,main,positivefb,-99,easy,63,0.433471499999996,['c'],1,left,['9'],5,0.46208019999994576,,,,,,,,31,19,Vrouw,Rechts,2,
,dotcolour,dotcolour,dotcolour,46,4,286,286,main,positivefb,-99,hard,44,0.7855944000000363,['c'],1,left,['9'],5,0.30998940000017683,,,,,,,,31,19,Vrouw,Rechts,2,
,dotcolour,dotcolour,dotcolour,47,4,287,287,main,positivefb,-99,easy,18,0.6000851999999668,['n'],1,right,['8'],4,0.37789189999989503,,,,,,,,31,19,Vrouw,Rechts,2,
,dotcolour,dotcolour,dotcolour,48,4,288,288,main,positivefb,-99,easy,15,0.3673004000002038,['n'],1,right,['9'],5,0.3736453999999867,,,,,,,,31,19,Vrouw,Rechts,2,
,dotcolour,dotcolour,dotcolour,49,4,289,289,main,positivefb,-99,hard,42,0.3512879999998404,['n'],0,left,['9'],5,0.4981545000000551,,,,,,,,31,19,Vrouw,Rechts,2,
,dotcolour,dotcolour,dotcolour,50,4,290,290,main,positivefb,-99,easy,63,0.5507907000001069,['c'],1,left,['9'],5,0.3203752000001714,,,,,,,,31,19,Vrouw,Rechts,2,
,dotcolour,dotcolour,dotcolour,51,4,291,291,main,positivefb,-99,hard,41,0.7502872000000025,['n'],0,left,['9'],5,0.3661835999998857,,,,,,,,31,19,Vrouw,Rechts,2,
,dotcolour,dotcolour,dotcolour,52,4,292,292,main,positivefb,-99,easy,62,0.6507698999998865,['c'],1,left,['9'],5,0.30288240000004407,,,,,,,,31,19,Vrouw,Rechts,2,
,dotcolour,dotcolour,dotcolour,53,4,293,293,main,positivefb,-99,easy,62,0.4675905999999941,['c'],1,left,['9'],5,0.3199956999999358,,,,,,,,31,19,Vrouw,Rechts,2,
,dotcolour,dotcolour,dotcolour,54,4,294,294,main,positivefb,-99,easy,16,0.5339331000000129,['n'],1,right,['9'],5,0.40747590000000855,,,,,,,,31,19,Vrouw,Rechts,2,
,dotcolour,dotcolour,dotcolour,55,4,295,295,main,positivefb,-99,hard,39,0.7677127000001747,['c'],0,right,['8'],4,0.6089600999998765,,,,,,,,31,19,Vrouw,Rechts,2,
,dotcolour,dotcolour,dotcolour,56,4,296,296,main,positivefb,-99,average,51,0.35125250000010055,['n'],0,left,['8'],4,0.6121772999999848,,,,,,,,31,19,Vrouw,Rechts,2,
,dotcolour,dotcolour,dotcolour,57,4,297,297,main,positivefb,-99,average,51,0.5177369999998973,['n'],0,left,['8'],4,0.3600739999999405,,,,,,,,31,19,Vrouw,Rechts,2,
,dotcolour,dotcolour,dotcolour,58,4,298,298,main,positivefb,-99,average,27,0.4508992000000944,['n'],1,right,['9'],5,0.4404382000000169,,,,,,,,31,19,Vrouw,Rechts,2,
,dotcolour,dotcolour,dotcolour,59,4,299,299,main,positivefb,-99,hard,35,0.451283500000045,['n'],1,right,['9'],5,0.4699792000001253,,,,,,,,31,19,Vrouw,Rechts,2,
,dotcolour,dotcolour,dotcolour,0,0,0,300,training,positivefb,35,hard,35,0.6848652000001039,['n'],1,right,['8'],4,0.5406712000001335,,,,,,,,31,19,Vrouw,Rechts,2,
,dotcolour,dotcolour,dotcolour,1,0,1,301,training,positivefb,98,easy,63,0.5008550000000014,['c'],1,left,['9'],5,0.34799310000016703,,,,,,,,31,19,Vrouw,Rechts,2,
,dotcolour,dotcolour,dotcolour,2,0,2,302,training,positivefb,96,easy,61,0.6175156999997853,['c'],1,left,['9'],5,0.4779086999997162,,,,,,,,31,19,Vrouw,Rechts,2,
,dotcolour,dotcolour,dotcolour,3,0,3,303,training,positivefb,96,hard,42,0.5172343999997793,['n'],0,left,['9'],5,0.478402300000198,,,,,,,,31,19,Vrouw,Rechts,2,
,dotcolour,dotcolour,dotcolour,4,0,4,304,training,positivefb,98,easy,65,0.5003320000000713,['c'],1,left,['9'],5,0.31175569999959407,,,,,,,,31,19,Vrouw,Rechts,2,
,dotcolour,dotcolour,dotcolour,5,0,5,305,training,positivefb,99,average,51,0.7336522999999033,['c'],1,left,['8'],4,0.4624780999997711,,,,,,,,31,19,Vrouw,Rechts,2,
,dotcolour,dotcolour,dotcolour,6,0,6,306,training,positivefb,100,easy,63,0.5342296000003444,['c'],1,left,['0'],6,0.527053799999976,,,,,,,,31,19,Vrouw,Rechts,2,
,dotcolour,dotcolour,dotcolour,7,0,7,307,training,positivefb,69,average,55,0.6506969000001845,['n'],0,left,['8'],4,0.46429929999976594,,,,,,,,31,19,Vrouw,Rechts,2,
,dotcolour,dotcolour,dotcolour,8,0,8,308,training,positivefb,97,hard,44,0.7836437000000842,['c'],1,left,['2'],2,0.8552244999996219,,,,,,,,31,19,Vrouw,Rechts,2,
,dotcolour,dotcolour,dotcolour,9,0,9,309,training,positivefb,51,average,52,0.6171838000000207,['n'],0,left,['2'],2,0.7803813999998965,,,,,,,,31,19,Vrouw,Rechts,2,
,dotcolour,dotcolour,dotcolour,10,0,10,310,training,positivefb,93,average,55,0.6499312000000828,['c'],1,left,['9'],5,0.41985939999995026,,,,,,,,31,19,Vrouw,Rechts,2,
,dotcolour,dotcolour,dotcolour,11,0,11,311,training,positivefb,98,average,51,0.4998279999999795,['c'],1,left,['9'],5,0.4313566000000719,,,,,,,,31,19,Vrouw,Rechts,2,
,dotcolour,dotcolour,dotcolour,12,0,12,312,training,positivefb,98,average,53,0.4495371000002706,['c'],1,left,['9'],5,0.41254259999959686,,,,,,,,31,19,Vrouw,Rechts,2,
,dotcolour,dotcolour,dotcolour,13,0,13,313,training,positivefb,99,easy,17,0.4514593999997487,['n'],1,right,['9'],5,0.4097938999998405,,,,,,,,31,19,Vrouw,Rechts,2,
,dotcolour,dotcolour,dotcolour,14,0,14,314,training,positivefb,98,easy,17,0.466004900000371,['n'],1,right,['9'],5,0.43087740000009944,,,,,,,,31,19,Vrouw,Rechts,2,
,dotcolour,dotcolour,dotcolour,15,0,15,315,training,positivefb,89,hard,37,0.6494711999998799,['n'],1,right,['9'],5,0.4677358999997523,,,,,,,,31,19,Vrouw,Rechts,2,
,dotcolour,dotcolour,dotcolour,16,0,16,316,training,positivefb,99,easy,15,0.5495202000001882,['n'],1,right,['9'],5,0.387655999999879,,,,,,,,31,19,Vrouw,Rechts,2,
,dotcolour,dotcolour,dotcolour,17,0,17,317,training,positivefb,98,easy,17,0.39978130000008605,['n'],1,right,['0'],6,0.5087955999997575,,,,,,,,31,19,Vrouw,Rechts,2,
,dotcolour,dotcolour,dotcolour,18,0,18,318,training,positivefb,91,easy,63,0.5664569999999003,['c'],1,left,['0'],6,0.41750420000016675,,,,,,,,31,19,Vrouw,Rechts,2,
,dotcolour,dotcolour,dotcolour,19,0,19,319,training,positivefb,75,average,55,0.5670313000000533,['n'],0,left,['3'],3,1.1062113000002682,,,,,,,,31,19,Vrouw,Rechts,2,
,dotcolour,dotcolour,dotcolour,20,0,20,320,training,positivefb,98,easy,65,0.5171331000001373,['c'],1,left,['9'],5,0.4575880000002144,,,,,,,,31,19,Vrouw,Rechts,2,
,dotcolour,dotcolour,dotcolour,21,0,21,321,training,positivefb,97,hard,39,0.6000220000000809,['n'],1,right,['9'],5,0.43125849999978527,,,,,,,,31,19,Vrouw,Rechts,2,
,dotcolour,dotcolour,dotcolour,22,0,22,322,training,positivefb,99,easy,15,0.384194799999932,['n'],1,right,['9'],5,0.4387219999998706,,,,,,,,31,19,Vrouw,Rechts,2,
,dotcolour,dotcolour,dotcolour,23,0,23,323,training,positivefb,85,average,26,0.38464850000036677,['n'],1,right,['9'],5,0.3819776999998794,,,,,,,,31,19,Vrouw,Rechts,2,
,dotcolour,dotcolour,dotcolour,24,0,24,324,training,positivefb,94,hard,37,0.40035939999961556,['n'],1,right,['8'],4,0.4071112000001449,,,,,,,,31,19,Vrouw,Rechts,2,
,dotcolour,dotcolour,dotcolour,25,0,25,325,training,positivefb,98,average,27,0.38409279999996215,['n'],1,right,['9'],5,0.3600344999999834,,,,,,,,31,19,Vrouw,Rechts,2,
,dotcolour,dotcolour,dotcolour,26,0,26,326,training,positivefb,78,hard,42,0.4176345000000765,['n'],0,left,['8'],4,0.47243509999998423,,,,,,,,31,19,Vrouw,Rechts,2,
,dotcolour,dotcolour,dotcolour,27,0,27,327,training,positivefb,99,easy,19,0.3836183000003075,['n'],1,right,['9'],5,0.3749668999998903,,,,,,,,31,19,Vrouw,Rechts,2,
,dotcolour,dotcolour,dotcolour,28,0,28,328,training,positivefb,75,average,29,0.3996428999998898,['n'],1,right,['8'],4,0.7360852000001614,,,,,,,,31,19,Vrouw,Rechts,2,
,dotcolour,dotcolour,dotcolour,29,0,29,329,training,positivefb,57,hard,37,0.9501250999996955,['c'],0,right,['8'],4,0.6295355000002019,,,,,,,,31,19,Vrouw,Rechts,2,
,dotcolour,dotcolour,dotcolour,30,0,30,330,training,positivefb,83,easy,16,0.3512194999998428,['n'],1,right,['9'],5,0.5662920999998278,,,,,,,,31,19,Vrouw,Rechts,2,
,dotcolour,dotcolour,dotcolour,31,0,31,331,training,positivefb,96,average,26,0.41670639999983905,['n'],1,right,['9'],5,0.43914459999996325,,,,,,,,31,19,Vrouw,Rechts,2,
,dotcolour,dotcolour,dotcolour,32,0,32,332,training,positivefb,93,easy,62,0.5167824999998629,['c'],1,left,['0'],6,0.3688665999998193,,,,,,,,31,19,Vrouw,Rechts,2,
,dotcolour,dotcolour,dotcolour,33,0,33,333,training,positivefb,90,hard,36,0.5001750999999786,['n'],1,right,['8'],4,0.8711880999999266,,,,,,,,31,19,Vrouw,Rechts,2,
,dotcolour,dotcolour,dotcolour,34,0,34,334,training,positivefb,99,hard,37,0.5502626000002238,['n'],1,right,['8'],4,0.3893507999996473,,,,,,,,31,19,Vrouw,Rechts,2,
,dotcolour,dotcolour,dotcolour,35,0,35,335,training,positivefb,83,hard,38,0.3997991999999613,['n'],1,right,['9'],5,0.4623196999996253,,,,,,,,31,19,Vrouw,Rechts,2,
,dotcolour,dotcolour,dotcolour,36,0,36,336,training,positivefb,99,easy,19,0.34963379999999233,['n'],1,right,['9'],5,0.40645939999967595,,,,,,,,31,19,Vrouw,Rechts,2,
,dotcolour,dotcolour,dotcolour,37,0,37,337,training,positivefb,100,easy,63,0.5504160000000411,['c'],1,left,['9'],5,0.2965825000001132,,,,,,,,31,19,Vrouw,Rechts,2,
,dotcolour,dotcolour,dotcolour,38,0,38,338,training,positivefb,53,average,29,0.4668850000002749,['n'],1,right,['9'],5,0.4108893000002354,,,,,,,,31,19,Vrouw,Rechts,2,
,dotcolour,dotcolour,dotcolour,39,0,39,339,training,positivefb,56,hard,45,0.38280610000037996,['n'],0,left,['8'],4,0.6513178000000153,,,,,,,,31,19,Vrouw,Rechts,2,
,dotcolour,dotcolour,dotcolour,40,0,40,340,training,positivefb,99,average,52,0.4343764000000192,['c'],1,left,['9'],5,0.3594375000002401,,,,,,,,31,19,Vrouw,Rechts,2,
,dotcolour,dotcolour,dotcolour,41,0,41,341,training,positivefb,94,average,52,0.5157922999997027,['c'],1,left,['9'],5,0.28477350000002843,,,,,,,,31,19,Vrouw,Rechts,2,
,dotcolour,dotcolour,dotcolour,42,0,42,342,training,positivefb,96,hard,38,0.5330956999996488,['n'],1,right,['8'],4,0.42074430000002394,,,,,,,,31,19,Vrouw,Rechts,2,
,dotcolour,dotcolour,dotcolour,43,0,43,343,training,positivefb,68,hard,42,0.5676628000001074,['n'],0,left,['8'],4,0.4451672000000144,,,,,,,,31,19,Vrouw,Rechts,2,
,dotcolour,dotcolour,dotcolour,44,0,44,344,training,positivefb,91,hard,38,0.6669575000000805,['n'],1,right,['9'],5,0.4093001999999615,,,,,,,,31,19,Vrouw,Rechts,2,
,dotcolour,dotcolour,dotcolour,45,0,45,345,training,positivefb,89,average,28,0.4511714000000211,['n'],1,right,['9'],5,0.3996133999999074,,,,,,,,31,19,Vrouw,Rechts,2,
,dotcolour,dotcolour,dotcolour,46,0,46,346,training,positivefb,86,easy,17,0.366229199999907,['n'],1,right,['0'],6,0.4573731999998927,,,,,,,,31,19,Vrouw,Rechts,2,
,dotcolour,dotcolour,dotcolour,47,0,47,347,training,positivefb,99,average,29,0.433494200000041,['n'],1,right,['9'],5,0.3977995000000192,,,,,,,,31,19,Vrouw,Rechts,2,
,dotcolour,dotcolour,dotcolour,48,0,48,348,training,positivefb,86,easy,19,0.4004949000000124,['n'],1,right,['9'],5,0.4297689999998511,,,,,,,,31,19,Vrouw,Rechts,2,
,dotcolour,dotcolour,dotcolour,49,0,49,349,training,positivefb,91,easy,61,0.5329600000000028,['c'],1,left,['9'],5,0.33648360000006505,,,,,,,,31,19,Vrouw,Rechts,2,
,dotcolour,dotcolour,dotcolour,50,0,50,350,training,positivefb,96,hard,44,0.5165301000001818,['n'],0,left,['9'],5,0.3984897999998793,,,,,,,,31,19,Vrouw,Rechts,2,
,dotcolour,dotcolour,dotcolour,51,0,51,351,training,positivefb,55,hard,45,0.36678570000003674,['n'],0,left,['8'],4,0.5592553999999836,,,,,,,,31,19,Vrouw,Rechts,2,
,dotcolour,dotcolour,dotcolour,52,0,52,352,training,positivefb,99,easy,63,0.5505749000003561,['c'],1,left,['9'],5,0.37189840000019103,,,,,,,,31,19,Vrouw,Rechts,2,
,dotcolour,dotcolour,dotcolour,53,0,53,353,training,positivefb,98,average,25,0.4341693999999734,['n'],1,right,['9'],5,0.3951129000001856,,,,,,,,31,19,Vrouw,Rechts,2,
,dotcolour,dotcolour,dotcolour,54,0,54,354,training,positivefb,94,hard,41,0.3832847000003312,['n'],0,left,['9'],5,0.58897079999997,,,,,,,,31,19,Vrouw,Rechts,2,
,dotcolour,dotcolour,dotcolour,55,0,55,355,training,positivefb,54,hard,41,0.41709880000007615,['n'],0,left,['8'],4,0.48492799999985436,,,,,,,,31,19,Vrouw,Rechts,2,
,dotcolour,dotcolour,dotcolour,56,0,56,356,training,positivefb,81,average,27,0.4165735000001405,['n'],1,right,['9'],5,0.825173900000209,,,,,,,,31,19,Vrouw,Rechts,2,
,dotcolour,dotcolour,dotcolour,57,0,57,357,training,positivefb,79,hard,41,0.6839989999998579,['c'],1,left,['8'],4,0.3573519000001397,,,,,,,,31,19,Vrouw,Rechts,2,
,dotcolour,dotcolour,dotcolour,58,0,58,358,training,positivefb,92,average,51,0.7171634999999696,['c'],1,left,['9'],5,0.33036630000015066,,,,,,,,31,19,Vrouw,Rechts,2,
,dotcolour,dotcolour,dotcolour,59,0,59,359,training,positivefb,98,average,29,0.3995245999999497,['n'],1,right,['9'],5,0.4213921999999002,,,,,,,,31,19,Vrouw,Rechts,2,
,dotcolour,dotcolour,dotcolour,0,1,60,360,training,positivefb,100,average,29,0.5343294999997852,['n'],1,right,['9'],5,0.42523579999988215,,,,,,,,31,19,Vrouw,Rechts,2,
,dotcolour,dotcolour,dotcolour,1,1,61,361,training,positivefb,99,hard,37,0.41667429999961314,['n'],1,right,['9'],5,0.448644399999921,,,,,,,,31,19,Vrouw,Rechts,2,
,dotcolour,dotcolour,dotcolour,2,1,62,362,training,positivefb,96,easy,65,0.5166206999997485,['c'],1,left,['9'],5,0.337227299999995,,,,,,,,31,19,Vrouw,Rechts,2,
,dotcolour,dotcolour,dotcolour,3,1,63,363,training,positivefb,93,hard,37,0.44998809999970035,['n'],1,right,['8'],4,0.4100938999999926,,,,,,,,31,19,Vrouw,Rechts,2,
,dotcolour,dotcolour,dotcolour,4,1,64,364,training,positivefb,91,average,25,0.39938549999988027,['n'],1,right,['9'],5,0.4020166000000245,,,,,,,,31,19,Vrouw,Rechts,2,
,dotcolour,dotcolour,dotcolour,5,1,65,365,training,positivefb,97,easy,18,0.3835896999999022,['n'],1,right,['9'],5,0.42713859999958004,,,,,,,,31,19,Vrouw,Rechts,2,
,dotcolour,dotcolour,dotcolour,6,1,66,366,training,positivefb,93,easy,64,0.48353380000025936,['c'],1,left,['9'],5,0.3352788999995937,,,,,,,,31,19,Vrouw,Rechts,2,
,dotcolour,dotcolour,dotcolour,7,1,67,367,training,positivefb,87,average,27,0.4502775999999358,['n'],1,right,['9'],5,0.39991520000012315,,,,,,,,31,19,Vrouw,Rechts,2,
,dotcolour,dotcolour,dotcolour,8,1,68,368,training,positivefb,98,hard,38,0.4822990999996364,['n'],1,right,['9'],5,0.46942760000001726,,,,,,,,31,19,Vrouw,Rechts,2,
,dotcolour,dotcolour,dotcolour,9,1,69,369,training,positivefb,88,hard,44,0.6671697000001586,['n'],0,left,['8'],4,0.3989408000002186,,,,,,,,31,19,Vrouw,Rechts,2,
,dotcolour,dotcolour,dotcolour,10,1,70,370,training,positivefb,96,easy,62,0.4994041999998444,['c'],1,left,['9'],5,0.3309105000003001,,,,,,,,31,19,Vrouw,Rechts,2,
,dotcolour,dotcolour,dotcolour,11,1,71,371,training,positivefb,98,hard,38,0.6671449000000393,['c'],0,right,['3'],3,0.9947512000003371,,,,,,,,31,19,Vrouw,Rechts,2,
,dotcolour,dotcolour,dotcolour,12,1,72,372,training,positivefb,99,average,55,0.6171444000001429,['c'],1,left,['9'],5,0.3310738999998648,,,,,,,,31,19,Vrouw,Rechts,2,
,dotcolour,dotcolour,dotcolour,13,1,73,373,training,positivefb,97,average,25,0.5994416000003184,['n'],1,right,['9'],5,0.4383082999997896,,,,,,,,31,19,Vrouw,Rechts,2,
,dotcolour,dotcolour,dotcolour,14,1,74,374,training,positivefb,100,easy,18,0.4340606000000662,['n'],1,right,['9'],5,0.4675277000001188,,,,,,,,31,19,Vrouw,Rechts,2,
,dotcolour,dotcolour,dotcolour,15,1,75,375,training,positivefb,99,easy,64,0.4668319000002157,['c'],1,left,['9'],5,0.4136786000003667,,,,,,,,31,19,Vrouw,Rechts,2,
,dotcolour,dotcolour,dotcolour,16,1,76,376,training,positivefb,98,easy,61,0.5172260999997889,['c'],1,left,['9'],5,0.3058633999999074,,,,,,,,31,19,Vrouw,Rechts,2,
,dotcolour,dotcolour,dotcolour,17,1,77,377,training,positivefb,95,average,51,0.5335161000002699,['c'],1,left,['9'],5,0.43204100000002654,,,,,,,,31,19,Vrouw,Rechts,2,
,dotcolour,dotcolour,dotcolour,18,1,78,378,training,positivefb,100,average,29,0.4499868000002607,['n'],1,right,['9'],5,0.40468870000040624,,,,,,,,31,19,Vrouw,Rechts,2,
,dotcolour,dotcolour,dotcolour,19,1,79,379,training,positivefb,42,hard,42,0.5339742999999544,['n'],0,left,['8'],4,0.519442099999651,,,,,,,,31,19,Vrouw,Rechts,2,
,dotcolour,dotcolour,dotcolour,20,1,80,380,training,positivefb,94,hard,42,0.4003453000000263,['n'],0,left,['3'],3,0.8351809999999205,,,,,,,,31,19,Vrouw,Rechts,2,
,dotcolour,dotcolour,dotcolour,21,1,81,381,training,positivefb,99,average,51,0.6007320000003347,['c'],1,left,['8'],4,0.7934725999998591,,,,,,,,31,19,Vrouw,Rechts,2,
,dotcolour,dotcolour,dotcolour,22,1,82,382,training,positivefb,72,hard,43,0.7834992000002785,['n'],0,left,['8'],4,0.4031875000000582,,,,,,,,31,19,Vrouw,Rechts,2,
,dotcolour,dotcolour,dotcolour,23,1,83,383,training,positivefb,87,hard,39,0.6499196999998276,['n'],1,right,['9'],5,0.3849248000001353,,,,,,,,31,19,Vrouw,Rechts,2,
,dotcolour,dotcolour,dotcolour,24,1,84,384,training,positivefb,98,easy,18,0.4836193999999523,['n'],1,right,['0'],6,0.5342212000000472,,,,,,,,31,19,Vrouw,Rechts,2,
,dotcolour,dotcolour,dotcolour,25,1,85,385,training,positivefb,23,easy,62,0.43338919999996506,['n'],0,left,['1'],1,0.9917336999997133,,,,,,,,31,19,Vrouw,Rechts,2,
,dotcolour,dotcolour,dotcolour,26,1,86,386,training,positivefb,96,average,25,0.5343568999996933,['n'],1,right,['0'],6,0.44324349999988044,,,,,,,,31,19,Vrouw,Rechts,2,
,dotcolour,dotcolour,dotcolour,27,1,87,387,training,positivefb,95,average,28,0.4172931999996763,['n'],1,right,['0'],6,0.4809330000002774,,,,,,,,31,19,Vrouw,Rechts,2,
,dotcolour,dotcolour,dotcolour,28,1,88,388,training,positivefb,95,hard,45,1.1832222999996702,['n'],0,left,['9'],5,0.7664738999997098,,,,,,,,31,19,Vrouw,Rechts,2,
,dotcolour,dotcolour,dotcolour,29,1,89,389,training,positivefb,96,average,52,0.817080199999964,['c'],1,left,['8'],4,0.3030068999996729,,,,,,,,31,19,Vrouw,Rechts,2,
,dotcolour,dotcolour,dotcolour,30,1,90,390,training,positivefb,50,average,55,0.41730009999992035,['n'],0,left,['1'],1,0.9538059999999859,,,,,,,,31,19,Vrouw,Rechts,2,
,dotcolour,dotcolour,dotcolour,31,1,91,391,training,positivefb,99,easy,15,0.516665500000272,['n'],1,right,['0'],6,0.5991570000001047,,,,,,,,31,19,Vrouw,Rechts,2,
,dotcolour,dotcolour,dotcolour,32,1,92,392,training,positivefb,99,easy,63,0.7326505000000907,['c'],1,left,['0'],6,0.5064345000000685,,,,,,,,31,19,Vrouw,Rechts,2,
,dotcolour,dotcolour,dotcolour,33,1,93,393,training,positivefb,95,average,54,0.5841055999999298,['c'],1,left,['9'],5,0.343268199999784,,,,,,,,31,19,Vrouw,Rechts,2,
,dotcolour,dotcolour,dotcolour,34,1,94,394,training,positivefb,68,easy,15,0.4338305000001128,['n'],1,right,['0'],6,0.488415900000291,,,,,,,,31,19,Vrouw,Rechts,2,
,dotcolour,dotcolour,dotcolour,35,1,95,395,training,positivefb,67,hard,36,0.6330900000002657,['c'],0,right,['1'],1,1.3714616000002025,,,,,,,,31,19,Vrouw,Rechts,2,
,dotcolour,dotcolour,dotcolour,36,1,96,396,training,positivefb,40,easy,63,0.4679795000001832,['n'],0,left,['1'],1,0.8829045000002225,,,,,,,,31,19,Vrouw,Rechts,2,
,dotcolour,dotcolour,dotcolour,37,1,97,397,training,positivefb,97,easy,18,0.5505127000001266,['n'],1,right,['0'],6,0.48130059999994046,,,,,,,,31,19,Vrouw,Rechts,2,
,dotcolour,dotcolour,dotcolour,38,1,98,398,training,positivefb,49,hard,38,0.7176241000001937,['n'],1,right,['9'],5,0.4492768000000069,,,,,,,,31,19,Vrouw,Rechts,2,
,dotcolour,dotcolour,dotcolour,39,1,99,399,training,positivefb,89,average,53,0.5661869000000479,['c'],1,left,['9'],5,0.4323677000002135,,,,,,,,31,19,Vrouw,Rechts,2,
,dotcolour,dotcolour,dotcolour,40,1,100,400,training,positivefb,99,hard,45,0.4322677999998632,['n'],0,left,['8'],4,0.43793600000026345,,,,,,,,31,19,Vrouw,Rechts,2,
,dotcolour,dotcolour,dotcolour,41,1,101,401,training,positivefb,82,hard,42,0.6019397000000026,['c'],1,left,['8'],4,0.30862340000021504,,,,,,,,31,19,Vrouw,Rechts,2,
,dotcolour,dotcolour,dotcolour,42,1,102,402,training,positivefb,92,hard,44,0.4666008000003785,['n'],0,left,['9'],5,0.3976042999997844,,,,,,,,31,19,Vrouw,Rechts,2,
,dotcolour,dotcolour,dotcolour,43,1,103,403,training,positivefb,94,easy,65,0.5174590999999964,['c'],1,left,['0'],6,0.3536135999997896,,,,,,,,31,19,Vrouw,Rechts,2,
,dotcolour,dotcolour,dotcolour,44,1,104,404,training,positivefb,88,easy,19,0.4667626000000382,['n'],1,right,['0'],6,0.49624160000030315,,,,,,,,31,19,Vrouw,Rechts,2,
,dotcolour,dotcolour,dotcolour,45,1,105,405,training,positivefb,99,easy,15,0.5333887000001596,['n'],1,right,['0'],6,0.3843277000000853,,,,,,,,31,19,Vrouw,Rechts,2,
,dotcolour,dotcolour,dotcolour,46,1,106,406,training,positivefb,95,hard,37,0.5163189999998394,['n'],1,right,['9'],5,0.42027439999992566,,,,,,,,31,19,Vrouw,Rechts,2,
,dotcolour,dotcolour,dotcolour,47,1,107,407,training,positivefb,67,hard,44,0.6332201000000168,['n'],0,left,['9'],5,0.37816560000010213,,,,,,,,31,19,Vrouw,Rechts,2,
,dotcolour,dotcolour,dotcolour,48,1,108,408,training,positivefb,89,average,27,0.4167677000000367,['n'],1,right,['0'],6,0.6351913999997123,,,,,,,,31,19,Vrouw,Rechts,2,
,dotcolour,dotcolour,dotcolour,49,1,109,409,training,positivefb,96,easy,61,0.48267619999978706,['c'],1,left,['0'],6,0.32568120000041745,,,,,,,,31,19,Vrouw,Rechts,2,
,dotcolour,dotcolour,dotcolour,50,1,110,410,training,positivefb,100,average,55,0.4674478000001727,['c'],1,left,['9'],5,0.44669219999968846,,,,,,,,31,19,Vrouw,Rechts,2,
,dotcolour,dotcolour,dotcolour,51,1,111,411,training,positivefb,90,average,27,1.6498814999999922,['n'],1,right,['8'],4,0.37148660000002565,,,,,,,,31,19,Vrouw,Rechts,2,
,dotcolour,dotcolour,dotcolour,52,1,112,412,training,positivefb,100,easy,19,0.34943950000024415,['n'],1,right,['9'],5,0.567127199999959,,,,,,,,31,19,Vrouw,Rechts,2,
,dotcolour,dotcolour,dotcolour,53,1,113,413,training,positivefb,98,average,25,0.4828325000003133,['n'],1,right,['9'],5,0.41352649999998903,,,,,,,,31,19,Vrouw,Rechts,2,
,dotcolour,dotcolour,dotcolour,54,1,114,414,training,positivefb,92,average,51,0.5331271000000015,['n'],0,left,['8'],4,0.43167300000004616,,,,,,,,31,19,Vrouw,Rechts,2,
,dotcolour,dotcolour,dotcolour,55,1,115,415,training,positivefb,93,average,55,0.4330362000000605,['c'],1,left,['9'],5,0.5569704999998066,,,,,,,,31,19,Vrouw,Rechts,2,
,dotcolour,dotcolour,dotcolour,56,1,116,416,training,positivefb,94,hard,39,0.5498678999997537,['n'],1,right,['8'],4,0.3529305999995813,,,,,,,,31,19,Vrouw,Rechts,2,
,dotcolour,dotcolour,dotcolour,57,1,117,417,training,positivefb,97,easy,15,0.5169264999999541,['n'],1,right,['9'],5,0.38219640000033905,,,,,,,,31,19,Vrouw,Rechts,2,
,dotcolour,dotcolour,dotcolour,58,1,118,418,training,positivefb,94,hard,42,0.4501365999999507,['n'],0,left,['8'],4,0.3487301000000116,,,,,,,,31,19,Vrouw,Rechts,2,
,dotcolour,dotcolour,dotcolour,59,1,119,419,training,positivefb,93,hard,35,0.3494888999998693,['n'],1,right,['8'],4,0.5129509000003054,,,,,,,,31,19,Vrouw,Rechts,2,
,xotask,dotcolour,dotcolour,0,2,120,420,main,positivefb,-99,hard,,1.00177020000001,['n'],0,left,['8'],4,2.3346236000002136,51,,,,,,,31,19,Vrouw,Rechts,2,
,xotask,dotcolour,dotcolour,1,2,121,421,main,positivefb,-99,average,,2.3012002999998913,['c'],1,left,['8'],4,0.8704428000000917,63,,,,,,,31,19,Vrouw,Rechts,2,
,xotask,dotcolour,dotcolour,2,2,122,422,main,positivefb,-99,easy,,0.6341081999999005,['c'],1,left,['9'],5,0.28216539999993984,73,,,,,,,31,19,Vrouw,Rechts,2,
,xotask,dotcolour,dotcolour,3,2,123,423,main,positivefb,-99,average,,0.5015665999999328,['n'],1,right,['9'],5,0.40394259999993665,16,,,,,,,31,19,Vrouw,Rechts,2,
,xotask,dotcolour,dotcolour,4,2,124,424,main,positivefb,-99,hard,,0.6005206999998336,['c'],1,left,['3'],3,1.2762391000001116,54,,,,,,,31,19,Vrouw,Rechts,2,
,xotask,dotcolour,dotcolour,5,2,125,425,main,positivefb,-99,hard,,0.5011307000004308,['n'],1,right,['8'],4,0.590691699999752,26,,,,,,,31,19,Vrouw,Rechts,2,
,xotask,dotcolour,dotcolour,6,2,126,426,main,positivefb,-99,average,,0.4668980000001284,['n'],1,right,['9'],5,0.7814142999995966,16,,,,,,,31,19,Vrouw,Rechts,2,
,xotask,dotcolour,dotcolour,7,2,127,427,main,positivefb,-99,average,,0.7684725999997681,['c'],1,left,['8'],4,0.40023459999974875,63,,,,,,,31,19,Vrouw,Rechts,2,
,xotask,dotcolour,dotcolour,8,2,128,428,main,positivefb,-99,easy,,0.5340543000002071,['n'],1,right,['9'],5,0.379527600000074,9,,,,,,,31,19,Vrouw,Rechts,2,
,xotask,dotcolour,dotcolour,9,2,129,429,main,positivefb,-99,hard,,0.6506967999998778,['n'],1,right,['9'],5,0.35536510000019916,25,,,,,,,31,19,Vrouw,Rechts,2,
,xotask,dotcolour,dotcolour,10,2,130,430,main,positivefb,-99,easy,,0.517142000000149,['n'],1,right,['9'],5,0.39296829999966576,8,,,,,,,31,19,Vrouw,Rechts,2,
,xotask,dotcolour,dotcolour,11,2,131,431,main,positivefb,-99,average,,0.6003539000003002,['c'],1,left,['9'],5,0.3546118999997816,61,,,,,,,31,19,Vrouw,Rechts,2,
,xotask,dotcolour,dotcolour,12,2,132,432,main,positivefb,-99,easy,,0.5678474999999708,['n'],1,right,['9'],5,0.35902549999991606,6,,,,,,,31,19,Vrouw,Rechts,2,
,xotask,dotcolour,dotcolour,13,2,133,433,main,positivefb,-99,average,,0.6841835000000174,['c'],1,left,['9'],5,0.35035400000015215,64,,,,,,,31,19,Vrouw,Rechts,2,
,xotask,dotcolour,dotcolour,14,2,134,434,main,positivefb,-99,easy,,0.6518253999997796,['c'],1,left,['9'],5,0.35077949999958946,71,,,,,,,31,19,Vrouw,Rechts,2,
,xotask,dotcolour,dotcolour,15,2,135,435,main,positivefb,-99,hard,,0.6836066000000756,['c'],0,right,['8'],4,0.4056081999997332,29,,,,,,,31,19,Vrouw,Rechts,2,
,xotask,dotcolour,dotcolour,16,2,136,436,main,positivefb,-99,hard,,0.5672503000000688,['n'],0,left,['8'],4,0.34448139999994964,52,,,,,,,31,19,Vrouw,Rechts,2,
,xotask,dotcolour,dotcolour,17,2,137,437,main,positivefb,-99,average,,0.6349402000000737,['c'],1,left,['9'],5,0.28233049999971627,60,,,,,,,31,19,Vrouw,Rechts,2,
,xotask,dotcolour,dotcolour,18,2,138,438,main,positivefb,-99,hard,,0.883423700000094,['n'],0,left,['3'],3,0.9958389000003081,50,,,,,,,31,19,Vrouw,Rechts,2,
,xotask,dotcolour,dotcolour,19,2,139,439,main,positivefb,-99,hard,,0.4668431000000055,['c'],1,left,['9'],5,0.5389663000000837,50,,,,,,,31,19,Vrouw,Rechts,2,
,xotask,dotcolour,dotcolour,20,2,140,440,main,positivefb,-99,easy,,0.4177925000003597,['n'],1,right,['9'],5,0.38944339999989097,6,,,,,,,31,19,Vrouw,Rechts,2,
,xotask,dotcolour,dotcolour,21,2,141,441,main,positivefb,-99,easy,,0.5673547000001236,['c'],1,left,['9'],5,0.3518100000001141,72,,,,,,,31,19,Vrouw,Rechts,2,
,xotask,dotcolour,dotcolour,22,2,142,442,main,positivefb,-99,hard,,0.6667950999999448,['c'],0,right,['8'],4,0.296216899999763,25,,,,,,,31,19,Vrouw,Rechts,2,
,xotask,dotcolour,dotcolour,23,2,143,443,main,positivefb,-99,hard,,0.4668391000000156,['c'],1,left,['8'],4,0.3227984000000106,54,,,,,,,31,19,Vrouw,Rechts,2,
,xotask,dotcolour,dotcolour,24,2,144,444,main,positivefb,-99,average,,0.7002635000003465,['c'],1,left,['9'],5,0.7950301999999283,64,,,,,,,31,19,Vrouw,Rechts,2,
,xotask,dotcolour,dotcolour,25,2,145,445,main,positivefb,-99,easy,,0.43361470000036206,['c'],1,left,['0'],6,0.4670723000003818,71,,,,,,,31,19,Vrouw,Rechts,2,
,xotask,dotcolour,dotcolour,26,2,146,446,main,positivefb,-99,easy,,0.5011213000002499,['n'],1,right,['0'],6,0.6683175000002848,6,,,,,,,31,19,Vrouw,Rechts,2,
,xotask,dotcolour,dotcolour,27,2,147,447,main,positivefb,-99,average,,0.5175662999999986,['n'],1,right,['0'],6,0.4140346999997746,16,,,,,,,31,19,Vrouw,Rechts,2,
,xotask,dotcolour,dotcolour,28,2,148,448,main,positivefb,-99,average,,0.8678922999997667,['n'],1,right,['9'],5,0.3483691000001272,16,,,,,,,31,19,Vrouw,Rechts,2,
,xotask,dotcolour,dotcolour,29,2,149,449,main,positivefb,-99,hard,,0.5679688999998689,['n'],1,right,['9'],5,0.3685393999999178,25,,,,,,,31,19,Vrouw,Rechts,2,
,xotask,dotcolour,dotcolour,30,2,150,450,main,positivefb,-99,hard,,0.5339813999999024,['n'],1,right,['9'],5,0.40495689999988826,28,,,,,,,31,19,Vrouw,Rechts,2,
,xotask,dotcolour,dotcolour,31,2,151,451,main,positivefb,-99,hard,,0.7511653999999908,['n'],0,left,['8'],4,0.3755070000001979,51,,,,,,,31,19,Vrouw,Rechts,2,
,xotask,dotcolour,dotcolour,32,2,152,452,main,positivefb,-99,easy,,0.5677422999997361,['c'],1,left,['0'],6,0.48324730000013005,70,,,,,,,31,19,Vrouw,Rechts,2,
,xotask,dotcolour,dotcolour,33,2,153,453,main,positivefb,-99,hard,,0.8178516000002674,['c'],1,left,['8'],4,0.46389030000000275,54,,,,,,,31,19,Vrouw,Rechts,2,
,xotask,dotcolour,dotcolour,34,2,154,454,main,positivefb,-99,easy,,0.6177369000001818,['c'],1,left,['0'],6,0.5098403000001781,71,,,,,,,31,19,Vrouw,Rechts,2,
,xotask,dotcolour,dotcolour,35,2,155,455,main,positivefb,-99,average,,1.2011978000000454,['n'],1,right,['9'],5,0.3548367000003054,15,,,,,,,31,19,Vrouw,Rechts,2,
,xotask,dotcolour,dotcolour,36,2,156,456,main,positivefb,-99,hard,,0.6006806999998844,['c'],1,left,['0'],6,0.39668740000024627,52,,,,,,,31,19,Vrouw,Rechts,2,
,xotask,dotcolour,dotcolour,37,2,157,457,main,positivefb,-99,hard,,0.7015059000000292,['c'],0,right,['0'],6,0.28235769999992044,27,,,,,,,31,19,Vrouw,Rechts,2,
,xotask,dotcolour,dotcolour,38,2,158,458,main,positivefb,-99,average,,0.9339362999999139,['c'],1,left,['9'],5,0.35400509999999485,62,,,,,,,31,19,Vrouw,Rechts,2,
,xotask,dotcolour,dotcolour,39,2,159,459,main,positivefb,-99,easy,,0.9841631999997844,['n'],1,right,['9'],5,0.765313000000333,7,,,,,,,31,19,Vrouw,Rechts,2,
,xotask,dotcolour,dotcolour,40,2,160,460,main,positivefb,-99,easy,,1.6674801999997726,['n'],1,right,['8'],4,0.41252970000005007,7,,,,,,,31,19,Vrouw,Rechts,2,
,xotask,dotcolour,dotcolour,41,2,161,461,main,positivefb,-99,easy,,0.7849074000000655,['c'],1,left,['0'],6,0.5346574999998666,73,,,,,,,31,19,Vrouw,Rechts,2,
,xotask,dotcolour,dotcolour,42,2,162,462,main,positivefb,-99,average,,1.618191200000183,['c'],0,right,['8'],4,0.3135563999999249,18,,,,,,,31,19,Vrouw,Rechts,2,
,xotask,dotcolour,dotcolour,43,2,163,463,main,positivefb,-99,easy,,0.5169307000001027,['c'],1,left,['9'],5,0.3455543000000034,73,,,,,,,31,19,Vrouw,Rechts,2,
,xotask,dotcolour,dotcolour,44,2,164,464,main,positivefb,-99,hard,,0.683832799999891,['n'],0,left,['8'],4,0.5694316999997682,54,,,,,,,31,19,Vrouw,Rechts,2,
,xotask,dotcolour,dotcolour,45,2,165,465,main,positivefb,-99,easy,,0.4172794999999496,['n'],1,right,['9'],5,0.4260534000000007,9,,,,,,,31,19,Vrouw,Rechts,2,
,xotask,dotcolour,dotcolour,46,2,166,466,main,positivefb,-99,easy,,0.6181101000001945,['c'],1,left,['9'],5,0.31374600000026476,71,,,,,,,31,19,Vrouw,Rechts,2,
,xotask,dotcolour,dotcolour,47,2,167,467,main,positivefb,-99,hard,,0.8849371000001156,['n'],1,right,['9'],5,0.42724500000031185,26,,,,,,,31,19,Vrouw,Rechts,2,
,xotask,dotcolour,dotcolour,48,2,168,468,main,positivefb,-99,hard,,0.8842930999999226,['n'],1,right,['9'],5,0.37546759999986534,25,,,,,,,31,19,Vrouw,Rechts,2,
,xotask,dotcolour,dotcolour,49,2,169,469,main,positivefb,-99,average,,0.5677341999999044,['c'],1,left,['9'],5,0.3473415999997087,61,,,,,,,31,19,Vrouw,Rechts,2,
,xotask,dotcolour,dotcolour,50,2,170,470,main,positivefb,-99,hard,,0.8841935999998896,['c'],0,right,['9'],5,0.3712894000000233,29,,,,,,,31,19,Vrouw,Rechts,2,
,xotask,dotcolour,dotcolour,51,2,171,471,main,positivefb,-99,average,,0.7180865999998787,['c'],0,right,['9'],5,0.26512629999979254,18,,,,,,,31,19,Vrouw,Rechts,2,
,xotask,dotcolour,dotcolour,52,2,172,472,main,positivefb,-99,easy,,0.5679347999998754,['c'],1,left,['0'],6,0.35183199999983117,73,,,,,,,31,19,Vrouw,Rechts,2,
,xotask,dotcolour,dotcolour,53,2,173,473,main,positivefb,-99,average,,0.9344464999999218,['n'],1,right,['9'],5,0.3891772000001765,19,,,,,,,31,19,Vrouw,Rechts,2,
,xotask,dotcolour,dotcolour,54,2,174,474,main,positivefb,-99,average,,0.6173705999999584,['c'],0,right,['8'],4,0.3655409999996664,17,,,,,,,31,19,Vrouw,Rechts,2,
,xotask,dotcolour,dotcolour,55,2,175,475,main,positivefb,-99,easy,,0.9334724000000278,['n'],1,right,['9'],5,0.32267970000020796,7,,,,,,,31,19,Vrouw,Rechts,2,
,xotask,dotcolour,dotcolour,56,2,176,476,main,positivefb,-99,average,,1.0675760999997692,['n'],0,left,['8'],4,0.8758616000000075,61,,,,,,,31,19,Vrouw,Rechts,2,
,xotask,dotcolour,dotcolour,57,2,177,477,main,positivefb,-99,easy,,0.651071299999785,['n'],1,right,['9'],5,0.38363729999991847,9,,,,,,,31,19,Vrouw,Rechts,2,
,xotask,dotcolour,dotcolour,58,2,178,478,main,positivefb,-99,average,,0.5344986000000063,['n'],1,right,['9'],5,0.34017649999987043,17,,,,,,,31,19,Vrouw,Rechts,2,
,xotask,dotcolour,dotcolour,59,2,179,479,main,positivefb,-99,average,,0.6349849000002905,['c'],1,left,['9'],5,0.5099043999998685,60,,,,,,,31,19,Vrouw,Rechts,2,
,xotask,dotcolour,dotcolour,0,3,180,480,main,positivefb,-99,easy,,0.5838237999996636,['n'],0,left,['9'],5,0.47733389999984865,73,,,,,,,31,19,Vrouw,Rechts,2,
,xotask,dotcolour,dotcolour,1,3,181,481,main,positivefb,-99,easy,,0.8672692000000097,['c'],1,left,['9'],5,0.26437029999988226,72,,,,,,,31,19,Vrouw,Rechts,2,
,xotask,dotcolour,dotcolour,2,3,182,482,main,positivefb,-99,average,,0.7337889999998879,['n'],0,left,['8'],4,0.3133010999999897,61,,,,,,,31,19,Vrouw,Rechts,2,
,xotask,dotcolour,dotcolour,3,3,183,483,main,positivefb,-99,hard,,0.5838862000000518,['n'],1,right,['8'],4,0.4066866999996819,26,,,,,,,31,19,Vrouw,Rechts,2,
,xotask,dotcolour,dotcolour,4,3,184,484,main,positivefb,-99,average,,0.5508009999998649,['n'],1,right,['9'],5,0.39297750000014275,19,,,,,,,31,19,Vrouw,Rechts,2,
,xotask,dotcolour,dotcolour,5,3,185,485,main,positivefb,-99,hard,,0.5682919999999285,['n'],0,left,['8'],4,0.4120593999996345,51,,,,,,,31,19,Vrouw,Rechts,2,
,xotask,dotcolour,dotcolour,6,3,186,486,main,positivefb,-99,hard,,0.6512351999999737,['n'],0,left,['8'],4,0.42699650000031397,53,,,,,,,31,19,Vrouw,Rechts,2,
,xotask,dotcolour,dotcolour,7,3,187,487,main,positivefb,-99,hard,,0.46824900000001435,['c'],1,left,['9'],5,0.3125835000000734,54,,,,,,,31,19,Vrouw,Rechts,2,
,xotask,dotcolour,dotcolour,8,3,188,488,main,positivefb,-99,average,,0.7857250000001841,['c'],1,left,['9'],5,0.44555239999999685,64,,,,,,,31,19,Vrouw,Rechts,2,
,xotask,dotcolour,dotcolour,9,3,189,489,main,positivefb,-99,hard,,0.5496391000001495,['c'],1,left,['9'],5,0.3272122000003037,54,,,,,,,31,19,Vrouw,Rechts,2,
,xotask,dotcolour,dotcolour,10,3,190,490,main,positivefb,-99,easy,,0.5515495000004194,['c'],1,left,['9'],5,0.6687640999998621,71,,,,,,,31,19,Vrouw,Rechts,2,
,xotask,dotcolour,dotcolour,11,3,191,491,main,positivefb,-99,easy,,0.851599200000237,['n'],1,right,['9'],5,0.4167639999996027,8,,,,,,,31,19,Vrouw,Rechts,2,
,xotask,dotcolour,dotcolour,12,3,192,492,main,positivefb,-99,easy,,0.7680765000000065,['n'],1,right,['9'],5,0.34580400000004374,9,,,,,,,31,19,Vrouw,Rechts,2,
,xotask,dotcolour,dotcolour,13,3,193,493,main,positivefb,-99,hard,,0.584813700000268,['n'],1,right,['8'],4,0.37398929999972097,27,,,,,,,31,19,Vrouw,Rechts,2,
,xotask,dotcolour,dotcolour,14,3,194,494,main,positivefb,-99,average,,0.6512022000001707,['n'],1,right,['8'],4,0.4617095000003246,17,,,,,,,31,19,Vrouw,Rechts,2,
,xotask,dotcolour,dotcolour,15,3,195,495,main,positivefb,-99,average,,0.7329298999998173,['c'],1,left,['9'],5,0.37586049999981697,63,,,,,,,31,19,Vrouw,Rechts,2,
,xotask,dotcolour,dotcolour,16,3,196,496,main,positivefb,-99,average,,0.535299600000144,['c'],1,left,['9'],5,0.3237671000001683,63,,,,,,,31,19,Vrouw,Rechts,2,
,xotask,dotcolour,dotcolour,17,3,197,497,main,positivefb,-99,hard,,0.9672085000001971,['c'],0,right,['8'],4,0.49773510000022725,26,,,,,,,31,19,Vrouw,Rechts,2,
,xotask,dotcolour,dotcolour,18,3,198,498,main,positivefb,-99,hard,,0.4839718000002904,['n'],1,right,['9'],5,0.38759059999983947,26,,,,,,,31,19,Vrouw,Rechts,2,
,xotask,dotcolour,dotcolour,19,3,199,499,main,positivefb,-99,hard,,0.48408040000003894,['n'],0,left,['9'],5,0.47333300000036616,50,,,,,,,31,19,Vrouw,Rechts,2,
,xotask,dotcolour,dotcolour,20,3,200,500,main,positivefb,-99,hard,,0.6339777999996841,['n'],0,left,['8'],4,0.32645440000032977,51,,,,,,,31,19,Vrouw,Rechts,2,
,xotask,dotcolour,dotcolour,21,3,201,501,main,positivefb,-99,average,,0.5010419000000184,['n'],1,right,['8'],4,0.6139889000000949,19,,,,,,,31,19,Vrouw,Rechts,2,
,xotask,dotcolour,dotcolour,22,3,202,502,main,positivefb,-99,easy,,0.45124719999967056,['n'],1,right,['0'],6,0.517501700000139,5,,,,,,,31,19,Vrouw,Rechts,2,
,xotask,dotcolour,dotcolour,23,3,203,503,main,positivefb,-99,hard,,0.701531800000339,['c'],1,left,['0'],6,0.48517050000009476,51,,,,,,,31,19,Vrouw,Rechts,2,
,xotask,dotcolour,dotcolour,24,3,204,504,main,positivefb,-99,hard,,0.8845962999998846,['c'],1,left,['8'],4,0.5270129999998971,51,,,,,,,31,19,Vrouw,Rechts,2,
,xotask,dotcolour,dotcolour,25,3,205,505,main,positivefb,-99,average,,0.5664627000001019,['c'],1,left,['9'],5,0.3087749999999687,64,,,,,,,31,19,Vrouw,Rechts,2,
,xotask,dotcolour,dotcolour,26,3,206,506,main,positivefb,-99,easy,,0.8333216000000903,['n'],0,left,['9'],5,0.4632894999999735,74,,,,,,,31,19,Vrouw,Rechts,2,
,xotask,dotcolour,dotcolour,27,3,207,507,main,positivefb,-99,average,,0.5006916000002093,['c'],1,left,['9'],5,0.32205819999990126,64,,,,,,,31,19,Vrouw,Rechts,2,
,xotask,dotcolour,dotcolour,28,3,208,508,main,positivefb,-99,easy,,0.7013383999997131,['c'],1,left,['9'],5,0.42635329999984606,74,,,,,,,31,19,Vrouw,Rechts,2,
,xotask,dotcolour,dotcolour,29,3,209,509,main,positivefb,-99,hard,,1.1173093000002154,['n'],1,right,['9'],5,0.2779945000002044,28,,,,,,,31,19,Vrouw,Rechts,2,
,xotask,dotcolour,dotcolour,30,3,210,510,main,positivefb,-99,easy,,0.9004377999999633,['n'],1,right,['9'],5,0.18339449999984936,9,,,,,,,31,19,Vrouw,Rechts,2,
,xotask,dotcolour,dotcolour,31,3,211,511,main,positivefb,-99,easy,,1.317162400000143,['c'],1,left,['9'],5,0.14846080000006623,72,,,,,,,31,19,Vrouw,Rechts,2,
,xotask,dotcolour,dotcolour,32,3,212,512,main,positivefb,-99,easy,,0.8171337999997377,['n'],1,right,['9'],5,0.141906199999994,8,,,,,,,31,19,Vrouw,Rechts,2,
,xotask,dotcolour,dotcolour,33,3,213,513,main,positivefb,-99,average,,0.9843956999998227,['n'],1,right,['9'],5,0.5389948000001823,19,,,,,,,31,19,Vrouw,Rechts,2,
,xotask,dotcolour,dotcolour,34,3,214,514,main,positivefb,-99,hard,,0.8176883999999518,['n'],1,right,['9'],5,0.15677790000017922,25,,,,,,,31,19,Vrouw,Rechts,2,
,xotask,dotcolour,dotcolour,35,3,215,515,main,positivefb,-99,hard,,0.6336178999999902,['n'],1,right,['9'],5,0.19048239999983707,25,,,,,,,31,19,Vrouw,Rechts,2,
,xotask,dotcolour,dotcolour,36,3,216,516,main,positivefb,-99,average,,1.6174676000000545,['c'],1,left,['9'],5,0.1835590000000593,63,,,,,,,31,19,Vrouw,Rechts,2,
,xotask,dotcolour,dotcolour,37,3,217,517,main,positivefb,-99,hard,,1.4510686999997233,['n'],1,right,['9'],5,0.1261955999998463,29,,,,,,,31,19,Vrouw,Rechts,2,
,xotask,dotcolour,dotcolour,38,3,218,518,main,positivefb,-99,easy,,0.901336199999605,['n'],1,right,['9'],5,0.14202290000002904,5,,,,,,,31,19,Vrouw,Rechts,2,
,xotask,dotcolour,dotcolour,39,3,219,519,main,positivefb,-99,hard,,1.3009105000001,['c'],1,left,['8'],4,0.4302410999998756,52,,,,,,,31,19,Vrouw,Rechts,2,
,xotask,dotcolour,dotcolour,40,3,220,520,main,positivefb,-99,average,,1.3675450999999157,['n'],1,right,['9'],5,0.25516279999965263,19,,,,,,,31,19,Vrouw,Rechts,2,
,xotask,dotcolour,dotcolour,41,3,221,521,main,positivefb,-99,average,,2.251603400000022,['n'],1,right,['8'],4,0.3399060000001555,15,,,,,,,31,19,Vrouw,Rechts,2,
,xotask,dotcolour,dotcolour,42,3,222,522,main,positivefb,-99,easy,,0.7681692000001021,['n'],1,right,['0'],6,0.47200670000029277,6,,,,,,,31,19,Vrouw,Rechts,2,
,xotask,dotcolour,dotcolour,43,3,223,523,main,positivefb,-99,average,,0.4835275999998885,['n'],0,left,['1'],1,0.9559850000000552,61,,,,,,,31,19,Vrouw,Rechts,2,
,xotask,dotcolour,dotcolour,44,3,224,524,main,positivefb,-99,easy,,0.8339937999999165,['c'],0,right,['1'],1,1.9970416000001023,8,,,,,,,31,19,Vrouw,Rechts,2,
,xotask,dotcolour,dotcolour,45,3,225,525,main,positivefb,-99,average,,1.367323800000122,['n'],0,left,['8'],4,0.5994369000000006,61,,,,,,,31,19,Vrouw,Rechts,2,
,xotask,dotcolour,dotcolour,46,3,226,526,main,positivefb,-99,easy,,0.8018932999998469,['c'],1,left,['9'],5,0.27168410000012955,74,,,,,,,31,19,Vrouw,Rechts,2,
,xotask,dotcolour,dotcolour,47,3,227,527,main,positivefb,-99,hard,,0.6674105000001873,['n'],1,right,['8'],4,0.3474384999999529,25,,,,,,,31,19,Vrouw,Rechts,2,
,xotask,dotcolour,dotcolour,48,3,228,528,main,positivefb,-99,average,,0.5506365000001097,['n'],1,right,['9'],5,0.3762573999997585,19,,,,,,,31,19,Vrouw,Rechts,2,
,xotask,dotcolour,dotcolour,49,3,229,529,main,positivefb,-99,average,,0.5181596000002173,['n'],1,right,['9'],5,0.3817087000002175,15,,,,,,,31,19,Vrouw,Rechts,2,
,xotask,dotcolour,dotcolour,50,3,230,530,main,positivefb,-99,easy,,0.5015158000001065,['n'],1,right,['0'],6,0.4269443000002866,5,,,,,,,31,19,Vrouw,Rechts,2,
,xotask,dotcolour,dotcolour,51,3,231,531,main,positivefb,-99,easy,,0.8332240999998248,['c'],1,left,['8'],4,0.4338972999998987,72,,,,,,,31,19,Vrouw,Rechts,2,
,xotask,dotcolour,dotcolour,52,3,232,532,main,positivefb,-99,easy,,0.5506304000000455,['n'],0,left,['1'],1,1.0597278999998707,72,,,,,,,31,19,Vrouw,Rechts,2,
,xotask,dotcolour,dotcolour,53,3,233,533,main,positivefb,-99,average,,0.501054600000316,['c'],1,left,['9'],5,0.3818034999999327,64,,,,,,,31,19,Vrouw,Rechts,2,
,xotask,dotcolour,dotcolour,54,3,234,534,main,positivefb,-99,easy,,0.43476959999998144,['c'],1,left,['0'],6,0.3820717000003242,71,,,,,,,31,19,Vrouw,Rechts,2,
,xotask,dotcolour,dotcolour,55,3,235,535,main,positivefb,-99,hard,,0.43449750000036147,['c'],1,left,['0'],6,0.374469500000032,54,,,,,,,31,19,Vrouw,Rechts,2,
,xotask,dotcolour,dotcolour,56,3,236,536,main,positivefb,-99,hard,,0.8518142000002626,['n'],1,right,['9'],5,0.36609339999995427,26,,,,,,,31,19,Vrouw,Rechts,2,
,xotask,dotcolour,dotcolour,57,3,237,537,main,positivefb,-99,easy,,0.45105999999987034,['c'],0,right,['1'],1,1.0621508999997786,7,,,,,,,31,19,Vrouw,Rechts,2,
,xotask,dotcolour,dotcolour,58,3,238,538,main,positivefb,-99,average,,0.6175701000001936,['n'],1,right,['9'],5,0.4045111000000361,16,,,,,,,31,19,Vrouw,Rechts,2,
,xotask,dotcolour,dotcolour,59,3,239,539,main,positivefb,-99,average,,0.38330980000000636,['n'],1,right,['9'],5,0.5499157999997806,19,,,,,,,31,19,Vrouw,Rechts,2,
,xotask,dotcolour,dotcolour,0,4,240,540,main,positivefb,-99,easy,,0.5019382999998925,['n'],0,left,['1'],1,1.290757400000075,72,,,,,,,31,19,Vrouw,Rechts,2,
,xotask,dotcolour,dotcolour,1,4,241,541,main,positivefb,-99,average,,0.5841690000002018,['n'],1,right,['9'],5,0.37627930000007836,16,,,,,,,31,19,Vrouw,Rechts,2,
,xotask,dotcolour,dotcolour,2,4,242,542,main,positivefb,-99,easy,,0.5173718999999437,['n'],1,right,['9'],5,0.43793490000007296,6,,,,,,,31,19,Vrouw,Rechts,2,
,xotask,dotcolour,dotcolour,3,4,243,543,main,positivefb,-99,hard,,0.6342768999998043,['c'],1,left,['9'],5,0.8918113999998241,51,,,,,,,31,19,Vrouw,Rechts,2,
,xotask,dotcolour,dotcolour,4,4,244,544,main,positivefb,-99,easy,,0.767099700000017,['n'],1,right,['0'],6,0.5238364000001638,6,,,,,,,31,19,Vrouw,Rechts,2,
,xotask,dotcolour,dotcolour,5,4,245,545,main,positivefb,-99,easy,,0.6169636000004175,['c'],1,left,['9'],5,0.37371900000016467,73,,,,,,,31,19,Vrouw,Rechts,2,
,xotask,dotcolour,dotcolour,6,4,246,546,main,positivefb,-99,average,,0.5502882000000682,['n'],0,left,['9'],5,0.5385461999999279,62,,,,,,,31,19,Vrouw,Rechts,2,
,xotask,dotcolour,dotcolour,7,4,247,547,main,positivefb,-99,hard,,0.4841648999999961,['n'],1,right,['8'],4,0.4743293999999878,26,,,,,,,31,19,Vrouw,Rechts,2,
,xotask,dotcolour,dotcolour,8,4,248,548,main,positivefb,-99,hard,,0.5004869999997936,['n'],1,right,['8'],4,0.3559242000001177,26,,,,,,,31,19,Vrouw,Rechts,2,
,xotask,dotcolour,dotcolour,9,4,249,549,main,positivefb,-99,easy,,0.5006812999999966,['c'],1,left,['9'],5,0.3626699000001281,74,,,,,,,31,19,Vrouw,Rechts,2,
,xotask,dotcolour,dotcolour,10,4,250,550,main,positivefb,-99,hard,,0.51786280000033,['c'],1,left,['9'],5,0.30484340000020893,51,,,,,,,31,19,Vrouw,Rechts,2,
,xotask,dotcolour,dotcolour,11,4,251,551,main,positivefb,-99,hard,,0.5346739000001435,['c'],0,right,['9'],5,0.36831619999975374,29,,,,,,,31,19,Vrouw,Rechts,2,
,xotask,dotcolour,dotcolour,12,4,252,552,main,positivefb,-99,average,,0.6169716000003973,['c'],0,right,['9'],5,0.37739959999998973,15,,,,,,,31,19,Vrouw,Rechts,2,
,xotask,dotcolour,dotcolour,13,4,253,553,main,positivefb,-99,easy,,0.6183805000000575,['c'],1,left,['0'],6,0.4915091999996548,74,,,,,,,31,19,Vrouw,Rechts,2,
,xotask,dotcolour,dotcolour,14,4,254,554,main,positivefb,-99,average,,0.8345179000002645,['n'],1,right,['9'],5,0.390968900000189,16,,,,,,,31,19,Vrouw,Rechts,2,
,xotask,dotcolour,dotcolour,15,4,255,555,main,positivefb,-99,average,,0.3673309999999219,['n'],1,right,['9'],5,0.4098078000001806,16,,,,,,,31,19,Vrouw,Rechts,2,
,xotask,dotcolour,dotcolour,16,4,256,556,main,positivefb,-99,average,,0.7676034999999501,['c'],1,left,['9'],5,0.2991511999998693,60,,,,,,,31,19,Vrouw,Rechts,2,
,xotask,dotcolour,dotcolour,17,4,257,557,main,positivefb,-99,easy,,3.866744899999958,['n'],0,left,['3'],3,1.3013928000000305,71,,,,,,,31,19,Vrouw,Rechts,2,
,xotask,dotcolour,dotcolour,18,4,258,558,main,positivefb,-99,average,,0.5513538000000153,['n'],0,left,['8'],4,0.39656479999985095,60,,,,,,,31,19,Vrouw,Rechts,2,
,xotask,dotcolour,dotcolour,19,4,259,559,main,positivefb,-99,average,,1.2672202999997353,['n'],1,right,['9'],5,0.35480890000008003,19,,,,,,,31,19,Vrouw,Rechts,2,
,xotask,dotcolour,dotcolour,20,4,260,560,main,positivefb,-99,hard,,1.3348110000001725,['c'],0,right,['8'],4,0.3121656999996958,29,,,,,,,31,19,Vrouw,Rechts,2,
,xotask,dotcolour,dotcolour,21,4,261,561,main,positivefb,-99,easy,,0.5009841000000961,['n'],1,right,['9'],5,0.3532948000001852,5,,,,,,,31,19,Vrouw,Rechts,2,
,xotask,dotcolour,dotcolour,22,4,262,562,main,positivefb,-99,hard,,0.6169635000001108,['c'],1,left,['9'],5,0.35476999999991676,53,,,,,,,31,19,Vrouw,Rechts,2,
,xotask,dotcolour,dotcolour,23,4,263,563,main,positivefb,-99,hard,,0.5506548000003022,['n'],0,left,['8'],4,0.5998699000001579,50,,,,,,,31,19,Vrouw,Rechts,2,
,xotask,dotcolour,dotcolour,24,4,264,564,main,positivefb,-99,hard,,0.8521520999997847,['n'],1,right,['8'],4,0.3990091000000575,29,,,,,,,31,19,Vrouw,Rechts,2,
,xotask,dotcolour,dotcolour,25,4,265,565,main,positivefb,-99,hard,,0.5515274999997928,['c'],0,right,['8'],4,0.3611556999999266,25,,,,,,,31,19,Vrouw,Rechts,2,
,xotask,dotcolour,dotcolour,26,4,266,566,main,positivefb,-99,average,,0.6341122999997424,['c'],1,left,['9'],5,0.3789233999996213,62,,,,,,,31,19,Vrouw,Rechts,2,
,xotask,dotcolour,dotcolour,27,4,267,567,main,positivefb,-99,average,,0.5683288000000175,['n'],1,right,['9'],5,0.38239800000019386,16,,,,,,,31,19,Vrouw,Rechts,2,
,xotask,dotcolour,dotcolour,28,4,268,568,main,positivefb,-99,average,,0.5513143999996828,['c'],1,left,['9'],5,0.28085849999979473,62,,,,,,,31,19,Vrouw,Rechts,2,
,xotask,dotcolour,dotcolour,29,4,269,569,main,positivefb,-99,average,,0.434031799999957,['n'],1,right,['9'],5,0.37311159999990196,16,,,,,,,31,19,Vrouw,Rechts,2,
,xotask,dotcolour,dotcolour,30,4,270,570,main,positivefb,-99,easy,,0.7011944999999287,['c'],0,right,['1'],1,0.8836672000002181,9,,,,,,,31,19,Vrouw,Rechts,2,
,xotask,dotcolour,dotcolour,31,4,271,571,main,positivefb,-99,easy,,0.5677639999998974,['c'],1,left,['8'],4,0.40994670000009137,72,,,,,,,31,19,Vrouw,Rechts,2,
,xotask,dotcolour,dotcolour,32,4,272,572,main,positivefb,-99,hard,,0.6345303000002787,['c'],1,left,['8'],4,0.40961319999996704,50,,,,,,,31,19,Vrouw,Rechts,2,
,xotask,dotcolour,dotcolour,33,4,273,573,main,positivefb,-99,easy,,0.6172521000003144,['c'],1,left,['8'],4,0.32106999999996333,72,,,,,,,31,19,Vrouw,Rechts,2,
,xotask,dotcolour,dotcolour,34,4,274,574,main,positivefb,-99,hard,,0.5341346999998677,['c'],0,right,['9'],5,0.2636961000002884,28,,,,,,,31,19,Vrouw,Rechts,2,
,xotask,dotcolour,dotcolour,35,4,275,575,main,positivefb,-99,hard,,0.9179462000001877,['n'],1,right,['8'],4,0.2983563000002505,25,,,,,,,31,19,Vrouw,Rechts,2,
,xotask,dotcolour,dotcolour,36,4,276,576,main,positivefb,-99,easy,,0.45016830000031405,['n'],1,right,['9'],5,0.3568540999999641,6,,,,,,,31,19,Vrouw,Rechts,2,
,xotask,dotcolour,dotcolour,37,4,277,577,main,positivefb,-99,easy,,0.48401789999979883,['n'],1,right,['9'],5,0.3640295000000151,6,,,,,,,31,19,Vrouw,Rechts,2,
,xotask,dotcolour,dotcolour,38,4,278,578,main,positivefb,-99,hard,,0.5670030999999653,['c'],1,left,['9'],5,0.2887980000000425,53,,,,,,,31,19,Vrouw,Rechts,2,
,xotask,dotcolour,dotcolour,39,4,279,579,main,positivefb,-99,easy,,0.500666199999614,['c'],1,left,['9'],5,0.26556440000013026,70,,,,,,,31,19,Vrouw,Rechts,2,
,xotask,dotcolour,dotcolour,40,4,280,580,main,positivefb,-99,easy,,0.8684551000001193,['n'],1,right,['9'],5,0.3723869000000377,8,,,,,,,31,19,Vrouw,Rechts,2,
,xotask,dotcolour,dotcolour,41,4,281,581,main,positivefb,-99,easy,,0.6502677999997104,['n'],1,right,['9'],5,0.33250630000020465,5,,,,,,,31,19,Vrouw,Rechts,2,
,xotask,dotcolour,dotcolour,42,4,282,582,main,positivefb,-99,average,,0.5846618999999009,['c'],1,left,['9'],5,0.3927182000002176,62,,,,,,,31,19,Vrouw,Rechts,2,
,xotask,dotcolour,dotcolour,43,4,283,583,main,positivefb,-99,hard,,0.9005991999997605,['n'],1,right,['8'],4,0.3417623000000276,28,,,,,,,31,19,Vrouw,Rechts,2,
,xotask,dotcolour,dotcolour,44,4,284,584,main,positivefb,-99,easy,,0.6344699000001128,['n'],1,right,['0'],6,0.46379899999965346,7,,,,,,,31,19,Vrouw,Rechts,2,
,xotask,dotcolour,dotcolour,45,4,285,585,main,positivefb,-99,average,,0.4672198999996908,['n'],1,right,['0'],6,0.4676228000002993,18,,,,,,,31,19,Vrouw,Rechts,2,
,xotask,dotcolour,dotcolour,46,4,286,586,main,positivefb,-99,easy,,0.4341122999999243,['n'],0,left,['1'],1,0.9691360000001623,70,,,,,,,31,19,Vrouw,Rechts,2,
,xotask,dotcolour,dotcolour,47,4,287,587,main,positivefb,-99,easy,,0.4684901999999056,['c'],1,left,['0'],6,0.43184700000028897,73,,,,,,,31,19,Vrouw,Rechts,2,
,xotask,dotcolour,dotcolour,48,4,288,588,main,positivefb,-99,hard,,0.5185958000001847,['c'],1,left,['9'],5,1.2987205999997968,54,,,,,,,31,19,Vrouw,Rechts,2,
,xotask,dotcolour,dotcolour,49,4,289,589,main,positivefb,-99,hard,,0.466783100000157,['c'],1,left,['8'],4,0.596818600000006,50,,,,,,,31,19,Vrouw,Rechts,2,
,xotask,dotcolour,dotcolour,50,4,290,590,main,positivefb,-99,easy,,0.8504588000000695,['n'],1,right,['8'],4,0.3723162000001139,8,,,,,,,31,19,Vrouw,Rechts,2,
,xotask,dotcolour,dotcolour,51,4,291,591,main,positivefb,-99,average,,0.6676876999999877,['c'],1,left,['9'],5,0.3399144999998498,60,,,,,,,31,19,Vrouw,Rechts,2,
,xotask,dotcolour,dotcolour,52,4,292,592,main,positivefb,-99,hard,,0.8681657000001906,['n'],0,left,['9'],5,0.3242645000000266,50,,,,,,,31,19,Vrouw,Rechts,2,
,xotask,dotcolour,dotcolour,53,4,293,593,main,positivefb,-99,average,,0.5521590000003016,['c'],1,left,['9'],5,0.31424980000019787,60,,,,,,,31,19,Vrouw,Rechts,2,
,xotask,dotcolour,dotcolour,54,4,294,594,main,positivefb,-99,average,,0.7348363999999492,['n'],1,right,['9'],5,0.4248875999996926,18,,,,,,,31,19,Vrouw,Rechts,2,
,xotask,dotcolour,dotcolour,55,4,295,595,main,positivefb,-99,hard,,1.2011639000002106,['n'],1,right,['8'],4,0.28900819999989835,29,,,,,,,31,19,Vrouw,Rechts,2,
,xotask,dotcolour,dotcolour,56,4,296,596,main,positivefb,-99,hard,,0.48451239999985773,['c'],1,left,['9'],5,0.2829239999996389,53,,,,,,,31,19,Vrouw,Rechts,2,
,xotask,dotcolour,dotcolour,57,4,297,597,main,positivefb,-99,average,,0.5342858000003616,['n'],0,left,['8'],4,0.3552045999999791,61,,,,,,,31,19,Vrouw,Rechts,2,
,xotask,dotcolour,dotcolour,58,4,298,598,main,positivefb,-99,average,,0.5180264999999054,['n'],1,right,['9'],5,0.39295270000002347,17,,,,,,,31,19,Vrouw,Rechts,2,
,xotask,dotcolour,dotcolour,59,4,299,599,main,positivefb,-99,average,,0.7008735999997953,['c'],1,left,['9'],5,0.4304952000002231,64,,,,,,,31,19,Vrouw,Rechts,2,
,dotcolour,dotcolour,dotcolour,0,0,0,600,training,positivefb,97,easy,16,1.0516324999998687,['n'],1,right,['9'],5,0.5021792000002279,,,,,,,,31,19,Vrouw,Rechts,2,
,dotcolour,dotcolour,dotcolour,1,0,1,601,training,positivefb,96,easy,63,0.4006129000003966,['c'],1,left,['9'],5,0.2894643999998152,,,,,,,,31,19,Vrouw,Rechts,2,
,dotcolour,dotcolour,dotcolour,2,0,2,602,training,positivefb,96,easy,62,0.8996162999997068,['c'],1,left,['9'],5,0.2822209999999359,,,,,,,,31,19,Vrouw,Rechts,2,
,dotcolour,dotcolour,dotcolour,3,0,3,603,training,positivefb,99,hard,39,0.4173185999998168,['n'],1,right,['8'],4,0.5024679000002834,,,,,,,,31,19,Vrouw,Rechts,2,
,dotcolour,dotcolour,dotcolour,4,0,4,604,training,positivefb,97,average,27,0.4161039999999048,['n'],1,right,['9'],5,0.3618314000000282,,,,,,,,31,19,Vrouw,Rechts,2,
,dotcolour,dotcolour,dotcolour,5,0,5,605,training,positivefb,97,average,54,0.5010432000003675,['c'],1,left,['9'],5,0.48832480000010037,,,,,,,,31,19,Vrouw,Rechts,2,
,dotcolour,dotcolour,dotcolour,6,0,6,606,training,positivefb,97,hard,41,0.6011198999999579,['n'],0,left,['8'],4,0.6288005999999768,,,,,,,,31,19,Vrouw,Rechts,2,
,dotcolour,dotcolour,dotcolour,7,0,7,607,training,positivefb,98,easy,62,0.4837883000000147,['c'],1,left,['9'],5,0.304354400000193,,,,,,,,31,19,Vrouw,Rechts,2,
,dotcolour,dotcolour,dotcolour,8,0,8,608,training,positivefb,97,hard,38,0.5008401999998568,['n'],1,right,['8'],4,0.38484109999990324,,,,,,,,31,19,Vrouw,Rechts,2,
,dotcolour,dotcolour,dotcolour,9,0,9,609,training,positivefb,99,easy,16,0.49990089999982956,['n'],1,right,['9'],5,0.34957889999986946,,,,,,,,31,19,Vrouw,Rechts,2,
,dotcolour,dotcolour,dotcolour,10,0,10,610,training,positivefb,73,average,51,0.5336958000002596,['n'],0,left,['8'],4,0.3456102000000101,,,,,,,,31,19,Vrouw,Rechts,2,
,dotcolour,dotcolour,dotcolour,11,0,11,611,training,positivefb,98,hard,36,0.38282600000002276,['n'],1,right,['9'],5,0.4133473000001686,,,,,,,,31,19,Vrouw,Rechts,2,
,dotcolour,dotcolour,dotcolour,12,0,12,612,training,positivefb,87,hard,41,0.43303989999958503,['n'],0,left,['9'],5,0.4280407999999625,,,,,,,,31,19,Vrouw,Rechts,2,
,dotcolour,dotcolour,dotcolour,13,0,13,613,training,positivefb,94,hard,44,0.4671180000000277,['n'],0,left,['8'],4,0.42468230000031326,,,,,,,,31,19,Vrouw,Rechts,2,
,dotcolour,dotcolour,dotcolour,14,0,14,614,training,positivefb,98,average,26,0.6672908000000461,['n'],1,right,['9'],5,0.30134799999996176,,,,,,,,31,19,Vrouw,Rechts,2,
,dotcolour,dotcolour,dotcolour,15,0,15,615,training,positivefb,97,hard,43,0.48351190000039423,['n'],0,left,['9'],5,0.34200620000001436,,,,,,,,31,19,Vrouw,Rechts,2,
,dotcolour,dotcolour,dotcolour,16,0,16,616,training,positivefb,98,average,29,0.36696349999965605,['n'],1,right,['9'],5,0.410116200000175,,,,,,,,31,19,Vrouw,Rechts,2,
,dotcolour,dotcolour,dotcolour,17,0,17,617,training,positivefb,92,average,54,0.6168354999999792,['n'],0,left,['8'],4,0.3297839000001659,,,,,,,,31,19,Vrouw,Rechts,2,
