starttime,task,fbtask,firsttask,withinblocktrial,block,withintasktrial,trial,running,feedback,fbscore,difflevel,reddots,rt,resp,cor,cresp,conf_press,cj,RTconf,n_xes,stoptime,sub,age,gender,handedness,session,
1714984288,dotcolour,dotcolour,xotask,0,0,0,0,training,negativefb,71,easy,18,0.9346171000006507,['n'],1,right,['3'],4,1.6390798000002178,,,22,19,Vrouw,Rechts,1,
,dotcolour,dotcolour,xotask,1,0,1,1,training,negativefb,98,average,51,0.7504895000001852,['c'],1,left,['2'],5,3.1675703000000794,,,22,19,Vrouw,Rechts,1,
,dotcolour,dotcolour,xotask,2,0,2,2,training,negativefb,48,hard,45,0.8496094000001904,['c'],1,left,['2'],5,1.342348000000129,,,22,19,Vrouw,Rechts,1,
,dotcolour,dotcolour,xotask,3,0,3,3,training,negativefb,88,easy,15,0.8166357000000062,['n'],1,right,['2'],5,0.967232399999375,,,22,19,Vrouw,Rechts,1,
,dotcolour,dotcolour,xotask,4,0,4,4,training,negativefb,51,hard,43,1.2671018999999433,['n'],0,left,['3'],4,0.9658359000004566,,,22,19,Vrouw,Rechts,1,
,dotcolour,dotcolour,xotask,5,0,5,5,training,negativefb,41,hard,44,0.8831331000001228,['c'],1,left,['8'],3,1.9083676000000196,,,22,19,Vrouw,Rechts,1,
,dotcolour,dotcolour,xotask,6,0,6,6,training,negativefb,79,easy,15,0.9507221999992908,['n'],1,right,['2'],5,0.561294000000089,,,22,19,Vrouw,Rechts,1,
,dotcolour,dotcolour,xotask,7,0,7,7,training,negativefb,64,average,26,0.5831379999999626,['n'],1,right,['2'],5,0.42791550000038114,,,22,19,Vrouw,Rechts,1,
,dotcolour,dotcolour,xotask,8,0,8,8,training,negativefb,11,hard,38,0.8490107999996326,['c'],0,right,['3'],4,0.9209031999998842,,,22,19,Vrouw,Rechts,1,
,dotcolour,dotcolour,xotask,9,0,9,9,training,negativefb,77,easy,63,0.7165322000000742,['c'],1,left,['2'],5,0.3995031000004019,,,22,19,Vrouw,Rechts,1,
,dotcolour,dotcolour,xotask,10,0,10,10,training,negativefb,89,hard,45,1.2662725999998656,['c'],1,left,['8'],3,1.3807008000003407,,,22,19,Vrouw,Rechts,1,
,dotcolour,dotcolour,xotask,11,0,11,11,training,negativefb,91,average,52,0.6667331999997259,['c'],1,left,['3'],4,0.5312544999997044,,,22,19,Vrouw,Rechts,1,
,dotcolour,dotcolour,xotask,12,0,12,12,training,negativefb,78,easy,16,0.9157076999999845,['n'],1,right,['2'],5,0.5525792000007641,,,22,19,Vrouw,Rechts,1,
,dotcolour,dotcolour,xotask,13,0,13,13,training,negativefb,95,easy,62,0.7827878000007331,['c'],1,left,['2'],5,0.8276851999999053,,,22,19,Vrouw,Rechts,1,
,dotcolour,dotcolour,xotask,14,0,14,14,training,negativefb,62,average,54,0.7495908000000782,['c'],1,left,['1'],6,0.3805641999997533,,,22,19,Vrouw,Rechts,1,
,dotcolour,dotcolour,xotask,15,0,15,15,training,negativefb,77,average,53,0.6660929999998189,['c'],1,left,['3'],4,0.5953091999999742,,,22,19,Vrouw,Rechts,1,
,dotcolour,dotcolour,xotask,16,0,16,16,training,negativefb,96,average,26,0.6832782000001316,['n'],1,right,['2'],5,1.5201594999998633,,,22,19,Vrouw,Rechts,1,
,dotcolour,dotcolour,xotask,17,0,17,17,training,negativefb,64,hard,45,0.9674600999996983,['n'],0,left,['3'],4,0.716319599999224,,,22,19,Vrouw,Rechts,1,
,dotcolour,dotcolour,xotask,18,0,18,18,training,negativefb,21,hard,44,0.8336331000000428,['n'],0,left,['3'],4,0.5188098999997237,,,22,19,Vrouw,Rechts,1,
,dotcolour,dotcolour,xotask,19,0,19,19,training,negativefb,24,average,53,0.7837915000000066,['c'],1,left,['8'],3,1.5379728000007162,,,22,19,Vrouw,Rechts,1,
,dotcolour,dotcolour,xotask,20,0,20,20,training,negativefb,88,hard,35,0.7009882000002108,['n'],1,right,['8'],3,2.8170107000005373,,,22,19,Vrouw,Rechts,1,
,dotcolour,dotcolour,xotask,21,0,21,21,training,negativefb,35,hard,44,1.5340831000003163,['c'],1,left,['8'],3,1.1538772000003519,,,22,19,Vrouw,Rechts,1,
,dotcolour,dotcolour,xotask,22,0,22,22,training,negativefb,58,hard,37,0.8008146000001943,['n'],1,right,['3'],4,1.0759373000000778,,,22,19,Vrouw,Rechts,1,
,dotcolour,dotcolour,xotask,23,0,23,23,training,negativefb,99,average,28,0.8510052999999971,['n'],1,right,['3'],4,3.8631927000005817,,,22,19,Vrouw,Rechts,1,
,dotcolour,dotcolour,xotask,24,0,24,24,training,negativefb,93,average,52,0.7667726999998195,['c'],1,left,['3'],4,2.917205300000205,,,22,19,Vrouw,Rechts,1,
,dotcolour,dotcolour,xotask,25,0,25,25,training,negativefb,84,easy,18,0.6340947999997297,['n'],1,right,['1'],6,0.38253400000030524,,,22,19,Vrouw,Rechts,1,
,dotcolour,dotcolour,xotask,26,0,26,26,training,negativefb,96,average,55,0.8837591999999859,['c'],1,left,['2'],5,0.6511952000000747,,,22,19,Vrouw,Rechts,1,
,dotcolour,dotcolour,xotask,27,0,27,27,training,negativefb,63,easy,19,0.4996527999992395,['n'],1,right,['2'],5,0.9657870000000912,,,22,19,Vrouw,Rechts,1,
,dotcolour,dotcolour,xotask,28,0,28,28,training,negativefb,91,hard,37,0.9006996999996773,['n'],1,right,['3'],4,1.5154803999994328,,,22,19,Vrouw,Rechts,1,
,dotcolour,dotcolour,xotask,29,0,29,29,training,negativefb,29,average,29,0.6334388000004765,['n'],1,right,['2'],5,1.397070399999393,,,22,19,Vrouw,Rechts,1,
,dotcolour,dotcolour,xotask,30,0,30,30,training,negativefb,86,easy,63,0.8003150999993522,['c'],1,left,['1'],6,0.4134600000006685,,,22,19,Vrouw,Rechts,1,
,dotcolour,dotcolour,xotask,31,0,31,31,training,negativefb,80,hard,44,1.5327244000000064,['c'],1,left,['3'],4,4.4798300999991625,,,22,19,Vrouw,Rechts,1,
,dotcolour,dotcolour,xotask,32,0,32,32,training,negativefb,62,hard,41,1.1176376000003074,['n'],0,left,['3'],4,0.45489460000044346,,,22,19,Vrouw,Rechts,1,
,dotcolour,dotcolour,xotask,33,0,33,33,training,negativefb,66,easy,64,0.8329834000005576,['c'],1,left,['1'],6,0.37200420000044687,,,22,19,Vrouw,Rechts,1,
,dotcolour,dotcolour,xotask,34,0,34,34,training,negativefb,99,easy,15,0.7332227000006242,['n'],1,right,['1'],6,1.2643183000000136,,,22,19,Vrouw,Rechts,1,
,dotcolour,dotcolour,xotask,35,0,35,35,training,negativefb,78,easy,19,0.5828765999995085,['n'],1,right,['2'],5,0.47003590000076656,,,22,19,Vrouw,Rechts,1,
,dotcolour,dotcolour,xotask,36,0,36,36,training,negativefb,93,easy,63,0.632877300000473,['c'],1,left,['2'],5,0.4270384000001286,,,22,19,Vrouw,Rechts,1,
,dotcolour,dotcolour,xotask,37,0,37,37,training,negativefb,50,average,29,0.6170085000003382,['n'],1,right,['3'],4,0.41765920000034384,,,22,19,Vrouw,Rechts,1,
,dotcolour,dotcolour,xotask,38,0,38,38,training,negativefb,47,easy,64,0.6514164999998684,['c'],1,left,['1'],6,0.3673372000002928,,,22,19,Vrouw,Rechts,1,
,dotcolour,dotcolour,xotask,39,0,39,39,training,negativefb,63,hard,36,0.6663668999999572,['n'],1,right,['2'],5,0.5094336000001931,,,22,19,Vrouw,Rechts,1,
,dotcolour,dotcolour,xotask,40,0,40,40,training,negativefb,88,average,29,0.9008995000003779,['n'],1,right,['2'],5,0.7010836999997991,,,22,19,Vrouw,Rechts,1,
,dotcolour,dotcolour,xotask,41,0,41,41,training,negativefb,73,easy,62,0.9841028999999253,['c'],1,left,['1'],6,0.48212510000030306,,,22,19,Vrouw,Rechts,1,
,dotcolour,dotcolour,xotask,42,0,42,42,training,negativefb,60,easy,63,0.7671862999995938,['c'],1,left,['2'],5,0.4160026999998081,,,22,19,Vrouw,Rechts,1,
,dotcolour,dotcolour,xotask,43,0,43,43,training,negativefb,83,average,26,0.6515008000005764,['n'],1,right,['3'],4,0.605015000000094,,,22,19,Vrouw,Rechts,1,
,dotcolour,dotcolour,xotask,44,0,44,44,training,negativefb,80,hard,38,0.8339179000004151,['n'],1,right,['8'],3,3.140630400000191,,,22,19,Vrouw,Rechts,1,
,dotcolour,dotcolour,xotask,45,0,45,45,training,negativefb,68,easy,64,0.7000858000001244,['c'],1,left,['1'],6,0.32953940000061266,,,22,19,Vrouw,Rechts,1,
,dotcolour,dotcolour,xotask,46,0,46,46,training,negativefb,84,average,54,0.8828692999995837,['c'],1,left,['3'],4,0.38541910000003554,,,22,19,Vrouw,Rechts,1,
,dotcolour,dotcolour,xotask,47,0,47,47,training,negativefb,28,average,52,1.400912000000062,['c'],1,left,['8'],3,0.5547292000001107,,,22,19,Vrouw,Rechts,1,
,dotcolour,dotcolour,xotask,48,0,48,48,training,negativefb,64,easy,16,0.7002660999996806,['n'],1,right,['1'],6,0.28889410000010685,,,22,19,Vrouw,Rechts,1,
,dotcolour,dotcolour,xotask,49,0,49,49,training,negativefb,68,average,55,0.7007759999996779,['c'],1,left,['2'],5,0.8650023000000147,,,22,19,Vrouw,Rechts,1,
,dotcolour,dotcolour,xotask,50,0,50,50,training,negativefb,39,average,29,0.8174306000000797,['c'],0,right,['8'],3,0.3417578999997204,,,22,19,Vrouw,Rechts,1,
,dotcolour,dotcolour,xotask,51,0,51,51,training,negativefb,67,hard,39,1.46669060000022,['c'],0,right,['9'],2,0.9098653000000922,,,22,19,Vrouw,Rechts,1,
,dotcolour,dotcolour,xotask,52,0,52,52,training,negativefb,98,hard,44,1.0335933999995177,['c'],1,left,['0'],1,0.9129444000000149,,,22,19,Vrouw,Rechts,1,
,dotcolour,dotcolour,xotask,53,0,53,53,training,negativefb,69,easy,17,0.7670390999992378,['n'],1,right,['1'],6,0.486069900000075,,,22,19,Vrouw,Rechts,1,
,dotcolour,dotcolour,xotask,54,0,54,54,training,negativefb,45,hard,36,0.9672523999997793,['n'],1,right,['3'],4,0.6043612000003122,,,22,19,Vrouw,Rechts,1,
,dotcolour,dotcolour,xotask,55,0,55,55,training,negativefb,89,average,29,0.7000506000003952,['n'],1,right,['3'],4,0.8486719000002267,,,22,19,Vrouw,Rechts,1,
,dotcolour,dotcolour,xotask,56,0,56,56,training,negativefb,48,average,29,0.6667182000001048,['n'],1,right,['1'],6,0.531195900000057,,,22,19,Vrouw,Rechts,1,
,dotcolour,dotcolour,xotask,57,0,57,57,training,negativefb,66,easy,64,0.7665517000004911,['c'],1,left,['2'],5,0.4470811999999569,,,22,19,Vrouw,Rechts,1,
,dotcolour,dotcolour,xotask,58,0,58,58,training,negativefb,84,hard,39,0.7509440000003451,['n'],1,right,['3'],4,1.199806599999647,,,22,19,Vrouw,Rechts,1,
,dotcolour,dotcolour,xotask,59,0,59,59,training,negativefb,15,hard,39,1.2504355000000942,['c'],0,right,['8'],3,1.094510399999308,,,22,19,Vrouw,Rechts,1,
,dotcolour,dotcolour,xotask,0,1,60,60,training,negativefb,87,easy,61,2.183511400000498,['c'],1,left,['2'],5,1.5829721999998583,,,22,19,Vrouw,Rechts,1,
,dotcolour,dotcolour,xotask,1,1,61,61,training,negativefb,57,easy,17,0.8839955000003101,['n'],1,right,['1'],6,0.22729990000061662,,,22,19,Vrouw,Rechts,1,
,dotcolour,dotcolour,xotask,2,1,62,62,training,negativefb,92,easy,64,0.7162328000003981,['c'],1,left,['1'],6,0.5659263000006831,,,22,19,Vrouw,Rechts,1,
,dotcolour,dotcolour,xotask,3,1,63,63,training,negativefb,35,hard,44,1.4846956000001228,['n'],0,left,['3'],4,0.9322003999996014,,,22,19,Vrouw,Rechts,1,
,dotcolour,dotcolour,xotask,4,1,64,64,training,negativefb,79,easy,17,0.7005236000004516,['n'],1,right,['1'],6,0.24255549999998038,,,22,19,Vrouw,Rechts,1,
,dotcolour,dotcolour,xotask,5,1,65,65,training,negativefb,61,hard,42,1.466733999999633,['n'],0,left,['8'],3,0.5183697000002212,,,22,19,Vrouw,Rechts,1,
,dotcolour,dotcolour,xotask,6,1,66,66,training,negativefb,71,average,29,0.7158152000001792,['n'],1,right,['2'],5,0.493103599999813,,,22,19,Vrouw,Rechts,1,
,dotcolour,dotcolour,xotask,7,1,67,67,training,negativefb,20,hard,38,1.2838607000003321,['c'],0,right,['9'],2,1.246706699999777,,,22,19,Vrouw,Rechts,1,
,dotcolour,dotcolour,xotask,8,1,68,68,training,negativefb,29,average,52,1.165726199999881,['n'],0,left,['3'],4,0.9342575000000579,,,22,19,Vrouw,Rechts,1,
,dotcolour,dotcolour,xotask,9,1,69,69,training,negativefb,25,average,26,0.6171234999992521,['n'],1,right,['3'],4,0.5687080000006972,,,22,19,Vrouw,Rechts,1,
,dotcolour,dotcolour,xotask,10,1,70,70,training,negativefb,71,average,54,1.016918700000133,['c'],1,left,['8'],3,0.36908450000009907,,,22,19,Vrouw,Rechts,1,
,dotcolour,dotcolour,xotask,11,1,71,71,training,negativefb,2,average,54,1.751120400000218,['n'],0,left,['8'],3,0.9887440000002243,,,22,19,Vrouw,Rechts,1,
,dotcolour,dotcolour,xotask,12,1,72,72,training,negativefb,26,average,27,0.800220399999489,['n'],1,right,['2'],5,0.46939300000030926,,,22,19,Vrouw,Rechts,1,
,dotcolour,dotcolour,xotask,13,1,73,73,training,negativefb,96,average,27,0.6512099999999919,['n'],1,right,['3'],4,5.296342699999514,,,22,19,Vrouw,Rechts,1,
,dotcolour,dotcolour,xotask,14,1,74,74,training,negativefb,89,average,25,0.7002386999993178,['n'],1,right,['2'],5,1.2159980999995241,,,22,19,Vrouw,Rechts,1,
,dotcolour,dotcolour,xotask,15,1,75,75,training,negativefb,90,easy,64,1.1341809999994439,['c'],1,left,['2'],5,1.02635250000003,,,22,19,Vrouw,Rechts,1,
,dotcolour,dotcolour,xotask,16,1,76,76,training,negativefb,90,average,55,0.6831613999993351,['c'],1,left,['2'],5,0.6060125000003609,,,22,19,Vrouw,Rechts,1,
,dotcolour,dotcolour,xotask,17,1,77,77,training,negativefb,80,average,53,1.1153910000002725,['c'],1,left,['3'],4,0.3851754000006622,,,22,19,Vrouw,Rechts,1,
,dotcolour,dotcolour,xotask,18,1,78,78,training,negativefb,50,hard,36,1.0167685000005804,['n'],1,right,['3'],4,0.5209470999998302,,,22,19,Vrouw,Rechts,1,
,dotcolour,dotcolour,xotask,19,1,79,79,training,negativefb,96,average,29,0.7330938999994032,['n'],1,right,['2'],5,1.0871620999996594,,,22,19,Vrouw,Rechts,1,
,dotcolour,dotcolour,xotask,20,1,80,80,training,negativefb,49,hard,38,1.366372099999353,['n'],1,right,['3'],4,0.2770537999995213,,,22,19,Vrouw,Rechts,1,
,dotcolour,dotcolour,xotask,21,1,81,81,training,negativefb,43,average,27,0.650919700000486,['n'],1,right,['3'],4,0.5365883999993457,,,22,19,Vrouw,Rechts,1,
,dotcolour,dotcolour,xotask,22,1,82,82,training,negativefb,63,easy,65,0.8504038000000946,['c'],1,left,['3'],4,0.8178840000000491,,,22,19,Vrouw,Rechts,1,
,dotcolour,dotcolour,xotask,23,1,83,83,training,negativefb,77,easy,18,0.6166582000005292,['n'],1,right,['2'],5,0.3843887999992148,,,22,19,Vrouw,Rechts,1,
,dotcolour,dotcolour,xotask,24,1,84,84,training,negativefb,61,easy,16,0.6508154000002833,['n'],1,right,['1'],6,0.3273356999998214,,,22,19,Vrouw,Rechts,1,
,dotcolour,dotcolour,xotask,25,1,85,85,training,negativefb,99,easy,62,0.6001914000007673,['c'],1,left,['2'],5,1.410215199999584,,,22,19,Vrouw,Rechts,1,
,dotcolour,dotcolour,xotask,26,1,86,86,training,negativefb,91,easy,17,0.7168963999993139,['n'],1,right,['2'],5,0.7002357000001211,,,22,19,Vrouw,Rechts,1,
,dotcolour,dotcolour,xotask,27,1,87,87,training,negativefb,89,easy,65,0.6832534999994095,['c'],1,left,['2'],5,0.34937600000012026,,,22,19,Vrouw,Rechts,1,
,dotcolour,dotcolour,xotask,28,1,88,88,training,negativefb,57,easy,19,0.6838575000001583,['n'],1,right,['2'],5,0.5802312999994683,,,22,19,Vrouw,Rechts,1,
,dotcolour,dotcolour,xotask,29,1,89,89,training,negativefb,68,hard,43,1.6838778000001184,['c'],1,left,['3'],4,0.2581603999997242,,,22,19,Vrouw,Rechts,1,
,dotcolour,dotcolour,xotask,30,1,90,90,training,negativefb,36,average,53,0.716027500000564,['c'],1,left,['3'],4,0.2670557999999801,,,22,19,Vrouw,Rechts,1,
,dotcolour,dotcolour,xotask,31,1,91,91,training,negativefb,36,average,26,0.6334583999996539,['n'],1,right,['3'],4,0.4635965999996188,,,22,19,Vrouw,Rechts,1,
,dotcolour,dotcolour,xotask,32,1,92,92,training,negativefb,58,hard,43,1.0323904000006223,['c'],1,left,['3'],4,0.5723963000000367,,,22,19,Vrouw,Rechts,1,
,dotcolour,dotcolour,xotask,33,1,93,93,training,negativefb,21,hard,44,1.5165403999999398,['n'],0,left,['3'],4,1.3368663000001106,,,22,19,Vrouw,Rechts,1,
,dotcolour,dotcolour,xotask,34,1,94,94,training,negativefb,69,hard,37,1.3343905000001541,['n'],1,right,['3'],4,0.0858912000003329,,,22,19,Vrouw,Rechts,1,
,dotcolour,dotcolour,xotask,35,1,95,95,training,negativefb,95,easy,61,0.7502450000001772,['c'],1,left,['2'],5,0.6772780999999668,,,22,19,Vrouw,Rechts,1,
,dotcolour,dotcolour,xotask,36,1,96,96,training,negativefb,48,hard,37,1.3164619000008315,['n'],1,right,['3'],4,0.26936769999974786,,,22,19,Vrouw,Rechts,1,
,dotcolour,dotcolour,xotask,37,1,97,97,training,negativefb,60,hard,44,1.8679512999997314,['c'],1,left,['8'],3,0.38435430000026827,,,22,19,Vrouw,Rechts,1,
,dotcolour,dotcolour,xotask,38,1,98,98,training,negativefb,68,hard,35,1.0841603000008035,['n'],1,right,['8'],3,0.1653639000005569,,,22,19,Vrouw,Rechts,1,
,dotcolour,dotcolour,xotask,39,1,99,99,training,negativefb,49,hard,37,1.3338278999999602,['n'],1,right,['8'],3,0.1852961000004143,,,22,19,Vrouw,Rechts,1,
,dotcolour,dotcolour,xotask,40,1,100,100,training,negativefb,53,easy,17,0.7823067999997875,['n'],1,right,['2'],5,0.33871110000018234,,,22,19,Vrouw,Rechts,1,
,dotcolour,dotcolour,xotask,41,1,101,101,training,negativefb,54,hard,45,1.4665740999998889,['n'],0,left,['8'],3,0.138960400000542,,,22,19,Vrouw,Rechts,1,
,dotcolour,dotcolour,xotask,42,1,102,102,training,negativefb,75,easy,63,0.900115200000073,['c'],1,left,['2'],5,0.6178832999994484,,,22,19,Vrouw,Rechts,1,
,dotcolour,dotcolour,xotask,43,1,103,103,training,negativefb,55,average,52,1.367018700000699,['c'],1,left,['8'],3,0.42630559999997786,,,22,19,Vrouw,Rechts,1,
,dotcolour,dotcolour,xotask,44,1,104,104,training,negativefb,77,average,29,0.7833442999999534,['n'],1,right,['3'],4,1.897817500000201,,,22,19,Vrouw,Rechts,1,
,dotcolour,dotcolour,xotask,45,1,105,105,training,negativefb,82,hard,35,0.9999754000000394,['n'],1,right,['3'],4,0.5896468999999342,,,22,19,Vrouw,Rechts,1,
,dotcolour,dotcolour,xotask,46,1,106,106,training,negativefb,49,average,25,0.9329627999995864,['n'],1,right,['3'],4,0.2889530999991621,,,22,19,Vrouw,Rechts,1,
,dotcolour,dotcolour,xotask,47,1,107,107,training,negativefb,88,easy,63,0.5667981000005966,['c'],1,left,['3'],4,0.678370000000541,,,22,19,Vrouw,Rechts,1,
,dotcolour,dotcolour,xotask,48,1,108,108,training,negativefb,77,hard,44,0.9338204000005135,['n'],0,left,['3'],4,0.1744154999996681,,,22,19,Vrouw,Rechts,1,
,dotcolour,dotcolour,xotask,49,1,109,109,training,negativefb,90,easy,16,1.199196800000209,['n'],1,right,['1'],6,0.47187599999961094,,,22,19,Vrouw,Rechts,1,
,dotcolour,dotcolour,xotask,50,1,110,110,training,negativefb,64,hard,37,1.6843705000001137,['n'],1,right,['3'],4,0.23367360000065673,,,22,19,Vrouw,Rechts,1,
,dotcolour,dotcolour,xotask,51,1,111,111,training,negativefb,77,easy,19,0.9004604000001564,['n'],1,right,['2'],5,0.1724281000006158,,,22,19,Vrouw,Rechts,1,
,dotcolour,dotcolour,xotask,52,1,112,112,training,negativefb,31,hard,42,1.1006299000000581,['n'],0,left,['3'],4,0.4657274999999572,,,22,19,Vrouw,Rechts,1,
,dotcolour,dotcolour,xotask,53,1,113,113,training,negativefb,55,average,53,0.882348500000262,['c'],1,left,['3'],4,0.7235657000001083,,,22,19,Vrouw,Rechts,1,
,dotcolour,dotcolour,xotask,54,1,114,114,training,negativefb,50,hard,44,1.7492523000000801,['c'],1,left,['8'],3,0.15338310000061028,,,22,19,Vrouw,Rechts,1,
,dotcolour,dotcolour,xotask,55,1,115,115,training,negativefb,90,easy,63,0.7332151999999041,['c'],1,left,['3'],4,0.4697003000001132,,,22,19,Vrouw,Rechts,1,
,dotcolour,dotcolour,xotask,56,1,116,116,training,negativefb,84,hard,36,1.2506900999997015,['n'],1,right,['3'],4,0.8330363000004581,,,22,19,Vrouw,Rechts,1,
,dotcolour,dotcolour,xotask,57,1,117,117,training,negativefb,58,easy,16,0.6998489000006884,['n'],1,right,['2'],5,0.2044610000002649,,,22,19,Vrouw,Rechts,1,
,dotcolour,dotcolour,xotask,58,1,118,118,training,negativefb,84,average,54,0.765316800000619,['c'],1,left,['2'],5,0.8054194999995161,,,22,19,Vrouw,Rechts,1,
,dotcolour,dotcolour,xotask,59,1,119,119,training,negativefb,48,average,54,1.4668266000007861,['c'],1,left,['3'],4,0.22677180000027874,,,22,19,Vrouw,Rechts,1,
,xotask,dotcolour,xotask,0,2,120,120,main,negativefb,-99,hard,,1.0840251999998145,['c'],1,left,['3'],4,3.7619862000001376,53,,22,19,Vrouw,Rechts,1,
,xotask,dotcolour,xotask,1,2,121,121,main,negativefb,-99,easy,,0.9338649000001169,['c'],1,left,['3'],4,0.5438192000001436,72,,22,19,Vrouw,Rechts,1,
,xotask,dotcolour,xotask,2,2,122,122,main,negativefb,-99,easy,,1.2345322999999553,['n'],1,right,['3'],4,0.7939556999999695,6,,22,19,Vrouw,Rechts,1,
,xotask,dotcolour,xotask,3,2,123,123,main,negativefb,-99,hard,,1.1673825999996552,['c'],1,left,['3'],4,1.148008199999822,54,,22,19,Vrouw,Rechts,1,
,xotask,dotcolour,xotask,4,2,124,124,main,negativefb,-99,average,,0.8339331000006496,['c'],1,left,['2'],5,0.42167069999959494,63,,22,19,Vrouw,Rechts,1,
,xotask,dotcolour,xotask,5,2,125,125,main,negativefb,-99,average,,0.9678276999993614,['c'],1,left,['2'],5,0.46283240000047954,60,,22,19,Vrouw,Rechts,1,
,xotask,dotcolour,xotask,6,2,126,126,main,negativefb,-99,average,,0.8847534999995332,['c'],1,left,['2'],5,0.7943908999995983,61,,22,19,Vrouw,Rechts,1,
,xotask,dotcolour,xotask,7,2,127,127,main,negativefb,-99,hard,,0.9505521000000954,['c'],1,left,['3'],4,1.0690881000000445,54,,22,19,Vrouw,Rechts,1,
,xotask,dotcolour,xotask,8,2,128,128,main,negativefb,-99,average,,1.8007003000002442,['c'],1,left,['8'],3,1.0349684000002526,63,,22,19,Vrouw,Rechts,1,
,xotask,dotcolour,xotask,9,2,129,129,main,negativefb,-99,hard,,0.8845807000006971,['c'],1,left,['2'],5,0.9029412999998385,50,,22,19,Vrouw,Rechts,1,
,xotask,dotcolour,xotask,10,2,130,130,main,negativefb,-99,average,,1.4008048999994571,['n'],1,right,['9'],2,1.1323296999999002,17,,22,19,Vrouw,Rechts,1,
,xotask,dotcolour,xotask,11,2,131,131,main,negativefb,-99,easy,,0.81730669999979,['c'],1,left,['2'],5,0.35093219999998837,70,,22,19,Vrouw,Rechts,1,
,xotask,dotcolour,xotask,12,2,132,132,main,negativefb,-99,easy,,0.6844429999991917,['c'],1,left,['3'],4,0.23854449999998906,70,,22,19,Vrouw,Rechts,1,
,xotask,dotcolour,xotask,13,2,133,133,main,negativefb,-99,easy,,1.100941800000328,['n'],1,right,['8'],3,0.4893599999995786,9,,22,19,Vrouw,Rechts,1,
,xotask,dotcolour,xotask,14,2,134,134,main,negativefb,-99,easy,,0.7169549999998708,['c'],1,left,['3'],4,0.37775280000005296,70,,22,19,Vrouw,Rechts,1,
,xotask,dotcolour,xotask,15,2,135,135,main,negativefb,-99,easy,,0.7513375000007727,['c'],1,left,['2'],5,0.34201759999996284,74,,22,19,Vrouw,Rechts,1,
,xotask,dotcolour,xotask,16,2,136,136,main,negativefb,-99,average,,0.8020401000003403,['c'],1,left,['2'],5,0.2578252999992401,60,,22,19,Vrouw,Rechts,1,
,xotask,dotcolour,xotask,17,2,137,137,main,negativefb,-99,hard,,1.03420720000031,['n'],1,right,['2'],5,0.7191285000008065,27,,22,19,Vrouw,Rechts,1,
,xotask,dotcolour,xotask,18,2,138,138,main,negativefb,-99,easy,,0.9847337999999581,['n'],1,right,['2'],5,0.3479946999996173,5,,22,19,Vrouw,Rechts,1,
,xotask,dotcolour,xotask,19,2,139,139,main,negativefb,-99,easy,,0.8341373000002932,['n'],1,right,['2'],5,0.23714190000009694,7,,22,19,Vrouw,Rechts,1,
,xotask,dotcolour,xotask,20,2,140,140,main,negativefb,-99,average,,1.7335235999998986,['c'],1,left,['8'],3,0.19882540000071458,63,,22,19,Vrouw,Rechts,1,
,xotask,dotcolour,xotask,21,2,141,141,main,negativefb,-99,average,,0.6340323999993416,['c'],1,left,['2'],5,0.22238579999975627,64,,22,19,Vrouw,Rechts,1,
,xotask,dotcolour,xotask,22,2,142,142,main,negativefb,-99,easy,,0.6509023999997225,['c'],1,left,['1'],6,0.28472810000039317,72,,22,19,Vrouw,Rechts,1,
,xotask,dotcolour,xotask,23,2,143,143,main,negativefb,-99,average,,0.7833634000007805,['n'],1,right,['2'],5,0.38648470000043744,17,,22,19,Vrouw,Rechts,1,
,xotask,dotcolour,xotask,24,2,144,144,main,negativefb,-99,easy,,0.6845239000003858,['n'],1,right,['2'],5,0.31252520000089135,5,,22,19,Vrouw,Rechts,1,
,xotask,dotcolour,xotask,25,2,145,145,main,negativefb,-99,average,,0.8012906000003568,['n'],1,right,['3'],4,0.34887370000069495,15,,22,19,Vrouw,Rechts,1,
,xotask,dotcolour,xotask,26,2,146,146,main,negativefb,-99,average,,0.783479200000329,['n'],1,right,['2'],5,0.18390309999995225,16,,22,19,Vrouw,Rechts,1,
,xotask,dotcolour,xotask,27,2,147,147,main,negativefb,-99,hard,,0.6516858999993929,['n'],1,right,['2'],5,0.3116614999999001,26,,22,19,Vrouw,Rechts,1,
,xotask,dotcolour,xotask,28,2,148,148,main,negativefb,-99,hard,,0.6185766999997213,['n'],1,right,['2'],5,0.3479674000000159,26,,22,19,Vrouw,Rechts,1,
,xotask,dotcolour,xotask,29,2,149,149,main,negativefb,-99,average,,0.650786799999878,['n'],1,right,['3'],4,0.38782220000030065,19,,22,19,Vrouw,Rechts,1,
,xotask,dotcolour,xotask,30,2,150,150,main,negativefb,-99,average,,2.017245500000172,['n'],1,right,['8'],3,0.27649579999979323,16,,22,19,Vrouw,Rechts,1,
,xotask,dotcolour,xotask,31,2,151,151,main,negativefb,-99,average,,0.9338226999998369,['n'],1,right,['8'],3,0.5409336999991865,19,,22,19,Vrouw,Rechts,1,
,xotask,dotcolour,xotask,32,2,152,152,main,negativefb,-99,hard,,1.0348347999997713,['c'],1,left,['3'],4,0.7268856999999116,53,,22,19,Vrouw,Rechts,1,
,xotask,dotcolour,xotask,33,2,153,153,main,negativefb,-99,easy,,0.8169643000001088,['n'],1,right,['3'],4,0.3949953999999707,8,,22,19,Vrouw,Rechts,1,
,xotask,dotcolour,xotask,34,2,154,154,main,negativefb,-99,easy,,0.7005778000002465,['n'],1,right,['2'],5,0.32809590000033495,8,,22,19,Vrouw,Rechts,1,
,xotask,dotcolour,xotask,35,2,155,155,main,negativefb,-99,easy,,0.7663091000003988,['n'],1,right,['2'],5,0.30955679999988206,8,,22,19,Vrouw,Rechts,1,
,xotask,dotcolour,xotask,36,2,156,156,main,negativefb,-99,easy,,0.901068099999975,['c'],1,left,['3'],4,0.8225652000000991,71,,22,19,Vrouw,Rechts,1,
,xotask,dotcolour,xotask,37,2,157,157,main,negativefb,-99,average,,0.616571099999419,['c'],1,left,['2'],5,0.26215330000013637,64,,22,19,Vrouw,Rechts,1,
,xotask,dotcolour,xotask,38,2,158,158,main,negativefb,-99,easy,,0.6511001000008036,['c'],1,left,['2'],5,0.266422199999397,72,,22,19,Vrouw,Rechts,1,
,xotask,dotcolour,xotask,39,2,159,159,main,negativefb,-99,easy,,0.650514199999634,['c'],1,left,['2'],5,0.3106657999996969,74,,22,19,Vrouw,Rechts,1,
,xotask,dotcolour,xotask,40,2,160,160,main,negativefb,-99,hard,,2.000231199999689,['n'],1,right,['8'],3,0.2427625000000262,27,,22,19,Vrouw,Rechts,1,
,xotask,dotcolour,xotask,41,2,161,161,main,negativefb,-99,easy,,1.1676335000001927,['n'],1,right,['3'],4,2.5955026999999973,5,,22,19,Vrouw,Rechts,1,
,xotask,dotcolour,xotask,42,2,162,162,main,negativefb,-99,easy,,0.7677573999999368,['c'],1,left,['2'],5,0.41396050000003015,74,,22,19,Vrouw,Rechts,1,
,xotask,dotcolour,xotask,43,2,163,163,main,negativefb,-99,hard,,1.1171133000007103,['n'],1,right,['8'],3,0.5296238000000812,29,,22,19,Vrouw,Rechts,1,
,xotask,dotcolour,xotask,44,2,164,164,main,negativefb,-99,average,,0.8006104999994932,['n'],1,right,['8'],3,0.19760219999989204,15,,22,19,Vrouw,Rechts,1,
,xotask,dotcolour,xotask,45,2,165,165,main,negativefb,-99,hard,,0.8511665999994875,['n'],1,right,['3'],4,1.1398619000001418,25,,22,19,Vrouw,Rechts,1,
,xotask,dotcolour,xotask,46,2,166,166,main,negativefb,-99,easy,,0.6514451000002737,['n'],1,right,['2'],5,0.293289399999594,8,,22,19,Vrouw,Rechts,1,
,xotask,dotcolour,xotask,47,2,167,167,main,negativefb,-99,average,,1.0347904999998718,['n'],1,right,['3'],4,1.0176430999999866,16,,22,19,Vrouw,Rechts,1,
,xotask,dotcolour,xotask,48,2,168,168,main,negativefb,-99,hard,,1.0015454000003956,['c'],1,left,['3'],4,0.3613114999998288,51,,22,19,Vrouw,Rechts,1,
,xotask,dotcolour,xotask,49,2,169,169,main,negativefb,-99,hard,,0.7351669999998194,['c'],0,right,['3'],4,0.4308586999995896,29,,22,19,Vrouw,Rechts,1,
,xotask,dotcolour,xotask,50,2,170,170,main,negativefb,-99,average,,0.7172003000005134,['c'],1,left,['2'],5,0.46592430000055174,62,,22,19,Vrouw,Rechts,1,
,xotask,dotcolour,xotask,51,2,171,171,main,negativefb,-99,hard,,2.6346513999997114,['c'],0,right,['8'],3,0.13480820000040694,26,,22,19,Vrouw,Rechts,1,
,xotask,dotcolour,xotask,52,2,172,172,main,negativefb,-99,hard,,2.4173265999997966,['n'],0,left,['8'],3,1.1059728000000177,53,,22,19,Vrouw,Rechts,1,
,xotask,dotcolour,xotask,53,2,173,173,main,negativefb,-99,average,,1.201515400000062,['n'],1,right,['3'],4,0.24561670000002778,18,,22,19,Vrouw,Rechts,1,
,xotask,dotcolour,xotask,54,2,174,174,main,negativefb,-99,hard,,1.1004209000002447,['c'],1,left,['3'],4,0.5699964000004911,51,,22,19,Vrouw,Rechts,1,
,xotask,dotcolour,xotask,55,2,175,175,main,negativefb,-99,hard,,2.5850605999994514,['c'],0,right,['9'],2,0.6843145999991975,25,,22,19,Vrouw,Rechts,1,
,xotask,dotcolour,xotask,56,2,176,176,main,negativefb,-99,hard,,0.9514061999998376,['n'],1,right,['8'],3,0.9796047999998336,26,,22,19,Vrouw,Rechts,1,
,xotask,dotcolour,xotask,57,2,177,177,main,negativefb,-99,average,,0.7178522000003795,['c'],1,left,['2'],5,0.4007579999997688,63,,22,19,Vrouw,Rechts,1,
,xotask,dotcolour,xotask,58,2,178,178,main,negativefb,-99,hard,,0.5838340000000244,['c'],1,left,['2'],5,1.4097582000003968,50,,22,19,Vrouw,Rechts,1,
,xotask,dotcolour,xotask,59,2,179,179,main,negativefb,-99,hard,,0.6342443000003186,['c'],1,left,['3'],4,0.5211575000002995,50,,22,19,Vrouw,Rechts,1,
,xotask,dotcolour,xotask,0,3,180,180,main,negativefb,-99,easy,,0.9018316000001505,['n'],1,right,['9'],2,0.2449970999996367,6,,22,19,Vrouw,Rechts,1,
,xotask,dotcolour,xotask,1,3,181,181,main,negativefb,-99,average,,0.8682405999998082,['c'],0,right,['2'],5,0.31469899999956397,18,,22,19,Vrouw,Rechts,1,
,xotask,dotcolour,xotask,2,3,182,182,main,negativefb,-99,hard,,1.0168002000000342,['n'],1,right,['3'],4,0.6533442999998442,28,,22,19,Vrouw,Rechts,1,
,xotask,dotcolour,xotask,3,3,183,183,main,negativefb,-99,easy,,0.585229000000254,['n'],1,right,['2'],5,0.5250464999999167,9,,22,19,Vrouw,Rechts,1,
,xotask,dotcolour,xotask,4,3,184,184,main,negativefb,-99,average,,0.6838050000005751,['c'],1,left,['2'],5,0.5495463000006566,64,,22,19,Vrouw,Rechts,1,
,xotask,dotcolour,xotask,5,3,185,185,main,negativefb,-99,average,,0.6848669999999402,['n'],1,right,['3'],4,0.3642710000003717,17,,22,19,Vrouw,Rechts,1,
,xotask,dotcolour,xotask,6,3,186,186,main,negativefb,-99,average,,0.7014406999996936,['c'],1,left,['3'],4,0.35471159999997326,63,,22,19,Vrouw,Rechts,1,
,xotask,dotcolour,xotask,7,3,187,187,main,negativefb,-99,hard,,1.2509677999996711,['n'],0,left,['3'],4,0.3312216999993325,50,,22,19,Vrouw,Rechts,1,
,xotask,dotcolour,xotask,8,3,188,188,main,negativefb,-99,hard,,0.9843311000004178,['c'],0,right,['8'],3,1.975964600000225,28,,22,19,Vrouw,Rechts,1,
,xotask,dotcolour,xotask,9,3,189,189,main,negativefb,-99,easy,,0.6681627000007211,['n'],1,right,['3'],4,0.4067516000004616,6,,22,19,Vrouw,Rechts,1,
,xotask,dotcolour,xotask,10,3,190,190,main,negativefb,-99,hard,,0.8853583999998591,['c'],1,left,['3'],4,0.7726259999999456,54,,22,19,Vrouw,Rechts,1,
,xotask,dotcolour,xotask,11,3,191,191,main,negativefb,-99,average,,0.7513245000000097,['c'],1,left,['3'],4,0.6886288000005152,62,,22,19,Vrouw,Rechts,1,
,xotask,dotcolour,xotask,12,3,192,192,main,negativefb,-99,hard,,1.300396799999362,['c'],1,left,['8'],3,0.23361539999950764,53,,22,19,Vrouw,Rechts,1,
,xotask,dotcolour,xotask,13,3,193,193,main,negativefb,-99,average,,1.051561700000093,['n'],1,right,['2'],5,0.9674428000007538,17,,22,19,Vrouw,Rechts,1,
,xotask,dotcolour,xotask,14,3,194,194,main,negativefb,-99,hard,,0.5515120000000024,['n'],1,right,['2'],5,0.41907090000040625,26,,22,19,Vrouw,Rechts,1,
,xotask,dotcolour,xotask,15,3,195,195,main,negativefb,-99,hard,,0.8335926999998264,['n'],1,right,['3'],4,1.113408100000015,28,,22,19,Vrouw,Rechts,1,
,xotask,dotcolour,xotask,16,3,196,196,main,negativefb,-99,easy,,0.6672825000005105,['c'],1,left,['2'],5,0.31497570000010455,72,,22,19,Vrouw,Rechts,1,
,xotask,dotcolour,xotask,17,3,197,197,main,negativefb,-99,easy,,0.6331224000005022,['c'],1,left,['1'],6,0.3740109999998822,70,,22,19,Vrouw,Rechts,1,
,xotask,dotcolour,xotask,18,3,198,198,main,negativefb,-99,easy,,0.9008486000002449,['n'],1,right,['1'],6,0.7165118000002622,6,,22,19,Vrouw,Rechts,1,
,xotask,dotcolour,xotask,19,3,199,199,main,negativefb,-99,easy,,0.5186325000004217,['n'],1,right,['2'],5,0.40310129999943456,9,,22,19,Vrouw,Rechts,1,
,xotask,dotcolour,xotask,20,3,200,200,main,negativefb,-99,hard,,0.7012573000001794,['n'],0,left,['8'],3,0.9041299999998955,52,,22,19,Vrouw,Rechts,1,
,xotask,dotcolour,xotask,21,3,201,201,main,negativefb,-99,average,,0.83469150000019,['c'],1,left,['3'],4,0.33186600000044564,64,,22,19,Vrouw,Rechts,1,
,xotask,dotcolour,xotask,22,3,202,202,main,negativefb,-99,average,,0.5003888999999617,['c'],1,left,['2'],5,0.2910306000003402,63,,22,19,Vrouw,Rechts,1,
,xotask,dotcolour,xotask,23,3,203,203,main,negativefb,-99,average,,1.450738999999885,['n'],1,right,['8'],3,0.2782711999998355,16,,22,19,Vrouw,Rechts,1,
,xotask,dotcolour,xotask,24,3,204,204,main,negativefb,-99,average,,0.667444599999726,['c'],1,left,['3'],4,0.313625900000261,63,,22,19,Vrouw,Rechts,1,
,xotask,dotcolour,xotask,25,3,205,205,main,negativefb,-99,average,,1.000902099999621,['n'],1,right,['3'],4,0.20601369999985764,15,,22,19,Vrouw,Rechts,1,
,xotask,dotcolour,xotask,26,3,206,206,main,negativefb,-99,average,,0.6181885000005423,['n'],1,right,['3'],4,0.2622113999996145,19,,22,19,Vrouw,Rechts,1,
,xotask,dotcolour,xotask,27,3,207,207,main,negativefb,-99,average,,0.734095900000284,['c'],1,left,['2'],5,0.31118419999984326,61,,22,19,Vrouw,Rechts,1,
,xotask,dotcolour,xotask,28,3,208,208,main,negativefb,-99,hard,,0.7169417000004614,['c'],1,left,['2'],5,0.2392743000000337,53,,22,19,Vrouw,Rechts,1,
,xotask,dotcolour,xotask,29,3,209,209,main,negativefb,-99,hard,,0.7676360000004934,['c'],1,left,['2'],5,0.26381880000008096,51,,22,19,Vrouw,Rechts,1,
,xotask,dotcolour,xotask,30,3,210,210,main,negativefb,-99,hard,,0.8679811000001791,['n'],1,right,['8'],3,0.2520515999995041,29,,22,19,Vrouw,Rechts,1,
,xotask,dotcolour,xotask,31,3,211,211,main,negativefb,-99,hard,,1.917469799999708,['n'],1,right,['3'],4,0.3577945999995791,29,,22,19,Vrouw,Rechts,1,
,xotask,dotcolour,xotask,32,3,212,212,main,negativefb,-99,easy,,0.6346985000000132,['n'],1,right,['2'],5,0.3594837999999072,6,,22,19,Vrouw,Rechts,1,
,xotask,dotcolour,xotask,33,3,213,213,main,negativefb,-99,hard,,1.71781749999991,['c'],1,left,['8'],3,0.2937445999996271,53,,22,19,Vrouw,Rechts,1,
,xotask,dotcolour,xotask,34,3,214,214,main,negativefb,-99,easy,,0.6513955000000351,['n'],1,right,['2'],5,1.2887284999997064,7,,22,19,Vrouw,Rechts,1,
,xotask,dotcolour,xotask,35,3,215,215,main,negativefb,-99,average,,0.6334043999995629,['n'],1,right,['3'],4,1.332795399999668,19,,22,19,Vrouw,Rechts,1,
,xotask,dotcolour,xotask,36,3,216,216,main,negativefb,-99,hard,,0.41716420000011567,['n'],0,left,['9'],2,0.9275272000004406,50,,22,19,Vrouw,Rechts,1,
,xotask,dotcolour,xotask,37,3,217,217,main,negativefb,-99,average,,0.6845316999997522,['n'],1,right,['3'],4,0.5120324999998047,15,,22,19,Vrouw,Rechts,1,
,xotask,dotcolour,xotask,38,3,218,218,main,negativefb,-99,average,,0.484443100000135,['c'],1,left,['2'],5,0.6255780999999843,61,,22,19,Vrouw,Rechts,1,
,xotask,dotcolour,xotask,39,3,219,219,main,negativefb,-99,easy,,0.6179873999999472,['n'],1,right,['2'],5,0.44085179999910906,8,,22,19,Vrouw,Rechts,1,
,xotask,dotcolour,xotask,40,3,220,220,main,negativefb,-99,easy,,0.7173092000002725,['c'],1,left,['2'],5,0.39533379999920726,74,,22,19,Vrouw,Rechts,1,
,xotask,dotcolour,xotask,41,3,221,221,main,negativefb,-99,easy,,0.7836643999999069,['c'],1,left,['2'],5,0.41353849999995873,70,,22,19,Vrouw,Rechts,1,
,xotask,dotcolour,xotask,42,3,222,222,main,negativefb,-99,average,,1.101019599999745,['n'],1,right,['3'],4,1.1860933999996632,17,,22,19,Vrouw,Rechts,1,
,xotask,dotcolour,xotask,43,3,223,223,main,negativefb,-99,easy,,0.8005712999993193,['c'],1,left,['2'],5,0.7235577000001285,74,,22,19,Vrouw,Rechts,1,
,xotask,dotcolour,xotask,44,3,224,224,main,negativefb,-99,hard,,0.9005689000005077,['c'],0,right,['8'],3,0.5638210999995863,26,,22,19,Vrouw,Rechts,1,
,xotask,dotcolour,xotask,45,3,225,225,main,negativefb,-99,easy,,0.7340469000000667,['c'],1,left,['3'],4,0.6087181000002602,70,,22,19,Vrouw,Rechts,1,
,xotask,dotcolour,xotask,46,3,226,226,main,negativefb,-99,average,,0.8003115000001344,['c'],1,left,['2'],5,1.274329800000487,60,,22,19,Vrouw,Rechts,1,
,xotask,dotcolour,xotask,47,3,227,227,main,negativefb,-99,easy,,0.7005234999996901,['n'],1,right,['2'],5,0.37103209999986575,5,,22,19,Vrouw,Rechts,1,
,xotask,dotcolour,xotask,48,3,228,228,main,negativefb,-99,easy,,0.7522380999998859,['c'],1,left,['2'],5,0.3357844000001933,73,,22,19,Vrouw,Rechts,1,
,xotask,dotcolour,xotask,49,3,229,229,main,negativefb,-99,hard,,1.2175345999994533,['n'],0,left,['8'],3,1.3141524000002391,51,,22,19,Vrouw,Rechts,1,
,xotask,dotcolour,xotask,50,3,230,230,main,negativefb,-99,average,,0.6680564999996932,['c'],0,right,['8'],3,1.4032575999999608,16,,22,19,Vrouw,Rechts,1,
,xotask,dotcolour,xotask,51,3,231,231,main,negativefb,-99,easy,,0.5513080000000627,['c'],0,right,['0'],1,1.7028303999995842,9,,22,19,Vrouw,Rechts,1,
,xotask,dotcolour,xotask,52,3,232,232,main,negativefb,-99,average,,1.1842073000007076,['c'],1,left,['3'],4,0.43591509999987466,63,,22,19,Vrouw,Rechts,1,
,xotask,dotcolour,xotask,53,3,233,233,main,negativefb,-99,easy,,0.7335494000008111,['c'],1,left,['2'],5,0.24553719999948953,73,,22,19,Vrouw,Rechts,1,
,xotask,dotcolour,xotask,54,3,234,234,main,negativefb,-99,easy,,0.8994742999993832,['c'],1,left,['3'],4,0.3609569999998712,70,,22,19,Vrouw,Rechts,1,
,xotask,dotcolour,xotask,55,3,235,235,main,negativefb,-99,hard,,1.6353182000002562,['n'],1,right,['8'],3,0.8182549000002837,27,,22,19,Vrouw,Rechts,1,
,xotask,dotcolour,xotask,56,3,236,236,main,negativefb,-99,easy,,0.6177685000002384,['c'],1,left,['3'],4,0.5053120000002309,72,,22,19,Vrouw,Rechts,1,
,xotask,dotcolour,xotask,57,3,237,237,main,negativefb,-99,hard,,0.5344365999999354,['c'],1,left,['2'],5,0.4331056000000899,52,,22,19,Vrouw,Rechts,1,
,xotask,dotcolour,xotask,58,3,238,238,main,negativefb,-99,hard,,1.2007105000002412,['n'],1,right,['3'],4,1.1764659999998912,29,,22,19,Vrouw,Rechts,1,
,xotask,dotcolour,xotask,59,3,239,239,main,negativefb,-99,hard,,0.6686122000000978,['c'],0,right,['9'],2,1.0875885000004928,28,,22,19,Vrouw,Rechts,1,
,xotask,dotcolour,xotask,0,4,240,240,main,negativefb,-99,easy,,0.9502148999999918,['n'],1,right,['3'],4,2.104806700000154,9,,22,19,Vrouw,Rechts,1,
,xotask,dotcolour,xotask,1,4,241,241,main,negativefb,-99,easy,,0.7504515000000538,['c'],1,left,['2'],5,0.43955839999944146,71,,22,19,Vrouw,Rechts,1,
,xotask,dotcolour,xotask,2,4,242,242,main,negativefb,-99,hard,,0.6341016000005766,['n'],1,right,['3'],4,0.43658460000006016,29,,22,19,Vrouw,Rechts,1,
,xotask,dotcolour,xotask,3,4,243,243,main,negativefb,-99,hard,,1.0681524999999965,['n'],1,right,['8'],3,0.44163099999968836,28,,22,19,Vrouw,Rechts,1,
,xotask,dotcolour,xotask,4,4,244,244,main,negativefb,-99,hard,,0.5330137999999351,['c'],1,left,['3'],4,1.9314441999995324,51,,22,19,Vrouw,Rechts,1,
,xotask,dotcolour,xotask,5,4,245,245,main,negativefb,-99,hard,,0.6182744000007006,['c'],1,left,['3'],4,0.47842039999977715,54,,22,19,Vrouw,Rechts,1,
,xotask,dotcolour,xotask,6,4,246,246,main,negativefb,-99,hard,,0.6007707999997365,['c'],1,left,['3'],4,0.30000620000009803,54,,22,19,Vrouw,Rechts,1,
,xotask,dotcolour,xotask,7,4,247,247,main,negativefb,-99,hard,,0.6007674000002226,['c'],1,left,['3'],4,0.48896789999980683,52,,22,19,Vrouw,Rechts,1,
,xotask,dotcolour,xotask,8,4,248,248,main,negativefb,-99,easy,,0.5180071999993743,['n'],1,right,['2'],5,0.4173663999999917,8,,22,19,Vrouw,Rechts,1,
,xotask,dotcolour,xotask,9,4,249,249,main,negativefb,-99,easy,,0.8169261000002734,['c'],1,left,['3'],4,0.520723700000417,74,,22,19,Vrouw,Rechts,1,
,xotask,dotcolour,xotask,10,4,250,250,main,negativefb,-99,average,,0.5840742999998838,['n'],1,right,['2'],5,0.2691615000003367,18,,22,19,Vrouw,Rechts,1,
,xotask,dotcolour,xotask,11,4,251,251,main,negativefb,-99,hard,,0.7018687999998292,['n'],1,right,['3'],4,0.23957470000004832,26,,22,19,Vrouw,Rechts,1,
,xotask,dotcolour,xotask,12,4,252,252,main,negativefb,-99,hard,,0.8341290000007575,['c'],1,left,['8'],3,0.29313809999985097,53,,22,19,Vrouw,Rechts,1,
,xotask,dotcolour,xotask,13,4,253,253,main,negativefb,-99,easy,,0.9671716000002561,['n'],1,right,['2'],5,0.43580519999977696,5,,22,19,Vrouw,Rechts,1,
,xotask,dotcolour,xotask,14,4,254,254,main,negativefb,-99,easy,,0.6504461000004085,['n'],1,right,['1'],6,0.30565500000011525,8,,22,19,Vrouw,Rechts,1,
,xotask,dotcolour,xotask,15,4,255,255,main,negativefb,-99,average,,1.2170352999992247,['c'],1,left,['3'],4,0.7578290000001289,62,,22,19,Vrouw,Rechts,1,
,xotask,dotcolour,xotask,16,4,256,256,main,negativefb,-99,hard,,0.7005490999999893,['c'],1,left,['3'],4,0.33217579999927693,51,,22,19,Vrouw,Rechts,1,
,xotask,dotcolour,xotask,17,4,257,257,main,negativefb,-99,average,,0.6172654000001785,['n'],1,right,['2'],5,0.4148426000001564,19,,22,19,Vrouw,Rechts,1,
,xotask,dotcolour,xotask,18,4,258,258,main,negativefb,-99,easy,,0.8011296999993647,['c'],1,left,['3'],4,0.34277209999982006,72,,22,19,Vrouw,Rechts,1,
,xotask,dotcolour,xotask,19,4,259,259,main,negativefb,-99,average,,0.6683718999993289,['n'],1,right,['3'],4,0.40730660000008356,17,,22,19,Vrouw,Rechts,1,
,xotask,dotcolour,xotask,20,4,260,260,main,negativefb,-99,easy,,0.6510778000001665,['n'],1,right,['3'],4,0.3344274000000951,9,,22,19,Vrouw,Rechts,1,
,xotask,dotcolour,xotask,21,4,261,261,main,negativefb,-99,average,,0.6339400000006208,['c'],1,left,['8'],3,0.40864180000062333,61,,22,19,Vrouw,Rechts,1,
,xotask,dotcolour,xotask,22,4,262,262,main,negativefb,-99,average,,0.7675067999998646,['c'],1,left,['2'],5,0.25014720000035595,64,,22,19,Vrouw,Rechts,1,
,xotask,dotcolour,xotask,23,4,263,263,main,negativefb,-99,hard,,0.9011172000000442,['n'],1,right,['2'],5,0.42104419999941456,28,,22,19,Vrouw,Rechts,1,
,xotask,dotcolour,xotask,24,4,264,264,main,negativefb,-99,hard,,1.1667972000004738,['c'],1,left,['8'],3,0.30231219999950554,51,,22,19,Vrouw,Rechts,1,
,xotask,dotcolour,xotask,25,4,265,265,main,negativefb,-99,easy,,0.617859099999805,['n'],1,right,['1'],6,0.3777437999997346,9,,22,19,Vrouw,Rechts,1,
,xotask,dotcolour,xotask,26,4,266,266,main,negativefb,-99,average,,0.7510949999996228,['c'],1,left,['8'],3,1.3734407000001738,64,,22,19,Vrouw,Rechts,1,
,xotask,dotcolour,xotask,27,4,267,267,main,negativefb,-99,average,,0.6510238000000754,['c'],0,right,['9'],2,1.5110561999999845,17,,22,19,Vrouw,Rechts,1,
,xotask,dotcolour,xotask,28,4,268,268,main,negativefb,-99,easy,,0.6676192000004448,['c'],1,left,['3'],4,0.9758394000000408,70,,22,19,Vrouw,Rechts,1,
,xotask,dotcolour,xotask,29,4,269,269,main,negativefb,-99,hard,,1.3680174999999508,['c'],0,right,['8'],3,0.3476635000006354,25,,22,19,Vrouw,Rechts,1,
,xotask,dotcolour,xotask,30,4,270,270,main,negativefb,-99,average,,0.5175274000002901,['c'],1,left,['3'],4,0.46561559999918245,62,,22,19,Vrouw,Rechts,1,
,xotask,dotcolour,xotask,31,4,271,271,main,negativefb,-99,hard,,0.6169486999997389,['c'],1,left,['3'],4,0.4066597000000911,51,,22,19,Vrouw,Rechts,1,
,xotask,dotcolour,xotask,32,4,272,272,main,negativefb,-99,average,,0.5681808999997884,['c'],1,left,['3'],4,0.42469230000006064,61,,22,19,Vrouw,Rechts,1,
,xotask,dotcolour,xotask,33,4,273,273,main,negativefb,-99,easy,,0.7353865000004589,['n'],1,right,['3'],4,0.5078738000001977,9,,22,19,Vrouw,Rechts,1,
,xotask,dotcolour,xotask,34,4,274,274,main,negativefb,-99,average,,0.551268400000481,['n'],1,right,['3'],4,0.426789799999824,16,,22,19,Vrouw,Rechts,1,
,xotask,dotcolour,xotask,35,4,275,275,main,negativefb,-99,hard,,0.6517447999995056,['n'],1,right,['3'],4,0.4482711000000563,28,,22,19,Vrouw,Rechts,1,
,xotask,dotcolour,xotask,36,4,276,276,main,negativefb,-99,easy,,0.6350241999998616,['n'],1,right,['2'],5,0.589095900000757,5,,22,19,Vrouw,Rechts,1,
,xotask,dotcolour,xotask,37,4,277,277,main,negativefb,-99,average,,0.6513986999998451,['n'],1,right,['2'],5,0.25339249999979074,17,,22,19,Vrouw,Rechts,1,
,xotask,dotcolour,xotask,38,4,278,278,main,negativefb,-99,average,,1.1004091000004337,['c'],1,left,['3'],4,0.5755154999997103,60,,22,19,Vrouw,Rechts,1,
,xotask,dotcolour,xotask,39,4,279,279,main,negativefb,-99,average,,0.8844380999998975,['n'],1,right,['3'],4,0.6302236000001358,17,,22,19,Vrouw,Rechts,1,
,xotask,dotcolour,xotask,40,4,280,280,main,negativefb,-99,easy,,0.6511261999994531,['c'],1,left,['3'],4,0.3087398999996367,73,,22,19,Vrouw,Rechts,1,
,xotask,dotcolour,xotask,41,4,281,281,main,negativefb,-99,hard,,1.8343500999999378,['c'],1,left,['8'],3,0.3598874999997861,53,,22,19,Vrouw,Rechts,1,
,xotask,dotcolour,xotask,42,4,282,282,main,negativefb,-99,hard,,1.1666883999996571,['c'],0,right,['8'],3,0.2518470000004527,29,,22,19,Vrouw,Rechts,1,
,xotask,dotcolour,xotask,43,4,283,283,main,negativefb,-99,hard,,0.6007270999998582,['n'],1,right,['3'],4,0.3704111000006378,27,,22,19,Vrouw,Rechts,1,
,xotask,dotcolour,xotask,44,4,284,284,main,negativefb,-99,easy,,0.6510953999995763,['n'],1,right,['2'],5,0.2339350000002014,7,,22,19,Vrouw,Rechts,1,
,xotask,dotcolour,xotask,45,4,285,285,main,negativefb,-99,easy,,0.8501397999998517,['c'],1,left,['2'],5,0.6713368999999147,73,,22,19,Vrouw,Rechts,1,
,xotask,dotcolour,xotask,46,4,286,286,main,negativefb,-99,hard,,1.717902000000322,['n'],0,left,['9'],2,0.705067500000041,53,,22,19,Vrouw,Rechts,1,
,xotask,dotcolour,xotask,47,4,287,287,main,negativefb,-99,average,,0.9506284999997661,['n'],1,right,['8'],3,0.815560899999582,19,,22,19,Vrouw,Rechts,1,
,xotask,dotcolour,xotask,48,4,288,288,main,negativefb,-99,easy,,0.8501069999992978,['c'],1,left,['8'],3,0.8215350000000399,72,,22,19,Vrouw,Rechts,1,
,xotask,dotcolour,xotask,49,4,289,289,main,negativefb,-99,easy,,0.8340366000002177,['c'],1,left,['3'],4,0.292136500000197,71,,22,19,Vrouw,Rechts,1,
,xotask,dotcolour,xotask,50,4,290,290,main,negativefb,-99,average,,0.7176811999997881,['c'],1,left,['3'],4,0.47701779999988503,62,,22,19,Vrouw,Rechts,1,
,xotask,dotcolour,xotask,51,4,291,291,main,negativefb,-99,hard,,0.601952999999412,['n'],1,right,['3'],4,0.33143639999980223,29,,22,19,Vrouw,Rechts,1,
,xotask,dotcolour,xotask,52,4,292,292,main,negativefb,-99,hard,,1.2001547999998365,['n'],1,right,['9'],2,0.8225369000001592,26,,22,19,Vrouw,Rechts,1,
,xotask,dotcolour,xotask,53,4,293,293,main,negativefb,-99,average,,0.8005764999998064,['n'],1,right,['8'],3,0.34306540000034147,17,,22,19,Vrouw,Rechts,1,
,xotask,dotcolour,xotask,54,4,294,294,main,negativefb,-99,easy,,0.6014477000007901,['n'],1,right,['2'],5,0.3858546000001297,8,,22,19,Vrouw,Rechts,1,
,xotask,dotcolour,xotask,55,4,295,295,main,negativefb,-99,average,,0.6852780999997776,['c'],0,right,['0'],1,1.4718913000006069,19,,22,19,Vrouw,Rechts,1,
,xotask,dotcolour,xotask,56,4,296,296,main,negativefb,-99,average,,4.784410899999784,['n'],0,left,['9'],2,0.7422062999994523,62,,22,19,Vrouw,Rechts,1,
,xotask,dotcolour,xotask,57,4,297,297,main,negativefb,-99,easy,,0.9510282999999617,['c'],1,left,['2'],5,1.5161825999994107,72,,22,19,Vrouw,Rechts,1,
,xotask,dotcolour,xotask,58,4,298,298,main,negativefb,-99,average,,0.5678058999992572,['c'],1,left,['2'],5,0.24135799999930896,62,,22,19,Vrouw,Rechts,1,
,xotask,dotcolour,xotask,59,4,299,299,main,negativefb,-99,easy,,0.7179128999996465,['c'],1,left,['2'],5,0.22792149999986577,72,,22,19,Vrouw,Rechts,1,
,dotcolour,dotcolour,xotask,0,0,0,300,training,negativefb,97,easy,15,0.8181377999999313,['n'],1,right,['2'],5,2.0916723999998794,,,22,19,Vrouw,Rechts,1,
,dotcolour,dotcolour,xotask,1,0,1,301,training,negativefb,90,easy,63,0.6837955000000875,['c'],1,left,['2'],5,0.7081192000005103,,,22,19,Vrouw,Rechts,1,
,dotcolour,dotcolour,xotask,2,0,2,302,training,negativefb,94,average,54,0.5668212000000494,['c'],1,left,['2'],5,0.6657360999997763,,,22,19,Vrouw,Rechts,1,
,dotcolour,dotcolour,xotask,3,0,3,303,training,negativefb,80,hard,39,1.0162175000004936,['n'],1,right,['3'],4,1.3099476999996114,,,22,19,Vrouw,Rechts,1,
,dotcolour,dotcolour,xotask,4,0,4,304,training,negativefb,25,hard,38,1.4333474000004571,['n'],1,right,['3'],4,0.624234300000353,,,22,19,Vrouw,Rechts,1,
,dotcolour,dotcolour,xotask,5,0,5,305,training,negativefb,85,average,52,1.0338721999996778,['c'],1,left,['3'],4,2.830419900000379,,,22,19,Vrouw,Rechts,1,
,dotcolour,dotcolour,xotask,6,0,6,306,training,negativefb,100,easy,19,0.7170092000005752,['n'],1,right,['2'],5,2.6007196999998996,,,22,19,Vrouw,Rechts,1,
,dotcolour,dotcolour,xotask,7,0,7,307,training,negativefb,95,easy,17,0.583256099999744,['n'],1,right,['2'],5,1.255981100000099,,,22,19,Vrouw,Rechts,1,
,dotcolour,dotcolour,xotask,8,0,8,308,training,negativefb,58,easy,15,0.6164067999998224,['n'],1,right,['1'],6,0.2856811999999991,,,22,19,Vrouw,Rechts,1,
,dotcolour,dotcolour,xotask,9,0,9,309,training,negativefb,58,hard,44,1.3006686999997328,['c'],1,left,['9'],2,0.7185960999995586,,,22,19,Vrouw,Rechts,1,
,dotcolour,dotcolour,xotask,10,0,10,310,training,negativefb,76,easy,15,0.5506620999994993,['n'],1,right,['3'],4,0.5794577000006029,,,22,19,Vrouw,Rechts,1,
,dotcolour,dotcolour,xotask,11,0,11,311,training,negativefb,49,average,27,0.8830085999998118,['n'],1,right,['3'],4,0.2579879999993864,,,22,19,Vrouw,Rechts,1,
,dotcolour,dotcolour,xotask,12,0,12,312,training,negativefb,80,average,53,0.833267999999407,['c'],1,left,['2'],5,0.8939414000005854,,,22,19,Vrouw,Rechts,1,
,dotcolour,dotcolour,xotask,13,0,13,313,training,negativefb,92,average,26,0.7340383999999176,['n'],1,right,['2'],5,0.32557250000081694,,,22,19,Vrouw,Rechts,1,
,dotcolour,dotcolour,xotask,14,0,14,314,training,negativefb,50,hard,37,1.6333331000005273,['n'],1,right,['3'],4,0.20790279999982886,,,22,19,Vrouw,Rechts,1,
,dotcolour,dotcolour,xotask,15,0,15,315,training,negativefb,90,easy,65,0.6500062999994043,['c'],1,left,['3'],4,0.37406389999978273,,,22,19,Vrouw,Rechts,1,
,dotcolour,dotcolour,xotask,16,0,16,316,training,negativefb,60,hard,41,0.7500098000000435,['n'],0,left,['3'],4,0.177569699999367,,,22,19,Vrouw,Rechts,1,
,dotcolour,dotcolour,xotask,17,0,17,317,training,negativefb,87,easy,19,0.6508248000000094,['n'],1,right,['2'],5,0.2801956000002974,,,22,19,Vrouw,Rechts,1,
,dotcolour,dotcolour,xotask,18,0,18,318,training,negativefb,95,easy,61,0.5842769000000771,['c'],1,left,['3'],4,0.49398610000025656,,,22,19,Vrouw,Rechts,1,
,dotcolour,dotcolour,xotask,19,0,19,319,training,negativefb,50,hard,43,1.1667734999991808,['n'],0,left,['9'],2,0.18787580000025628,,,22,19,Vrouw,Rechts,1,
,dotcolour,dotcolour,xotask,20,0,20,320,training,negativefb,43,easy,65,0.7167611000004399,['c'],1,left,['1'],6,0.36012729999947624,,,22,19,Vrouw,Rechts,1,
,dotcolour,dotcolour,xotask,21,0,21,321,training,negativefb,54,average,28,0.7005859999999302,['n'],1,right,['3'],4,0.7742925000002288,,,22,19,Vrouw,Rechts,1,
,dotcolour,dotcolour,xotask,22,0,22,322,training,negativefb,62,hard,45,1.116419599999972,['c'],1,left,['9'],2,0.24301809999997204,,,22,19,Vrouw,Rechts,1,
,dotcolour,dotcolour,xotask,23,0,23,323,training,negativefb,77,average,55,0.684158999999454,['c'],1,left,['8'],3,0.518220800000563,,,22,19,Vrouw,Rechts,1,
,dotcolour,dotcolour,xotask,24,0,24,324,training,negativefb,90,hard,42,1.0836160999997446,['c'],1,left,['8'],3,0.2943900999998732,,,22,19,Vrouw,Rechts,1,
,dotcolour,dotcolour,xotask,25,0,25,325,training,negativefb,89,hard,37,0.8340957000000344,['n'],1,right,['3'],4,0.7696361999996952,,,22,19,Vrouw,Rechts,1,
,dotcolour,dotcolour,xotask,26,0,26,326,training,negativefb,17,hard,45,0.9328519999999116,['n'],0,left,['3'],4,0.5901035000006232,,,22,19,Vrouw,Rechts,1,
,dotcolour,dotcolour,xotask,27,0,27,327,training,negativefb,88,easy,65,1.0342069999996966,['c'],1,left,['2'],5,0.27650850000009086,,,22,19,Vrouw,Rechts,1,
,dotcolour,dotcolour,xotask,28,0,28,328,training,negativefb,95,average,54,0.8341270000000804,['c'],1,left,['3'],4,0.3765934000002744,,,22,19,Vrouw,Rechts,1,
,dotcolour,dotcolour,xotask,29,0,29,329,training,negativefb,16,hard,36,0.6505231000001004,['n'],1,right,['3'],4,0.3997929999995904,,,22,19,Vrouw,Rechts,1,
,dotcolour,dotcolour,xotask,30,0,30,330,training,negativefb,41,easy,61,0.6831607000003714,['c'],1,left,['3'],4,0.38152720000016416,,,22,19,Vrouw,Rechts,1,
,dotcolour,dotcolour,xotask,31,0,31,331,training,negativefb,84,easy,18,0.7834853999993356,['n'],1,right,['2'],5,0.2549957000001086,,,22,19,Vrouw,Rechts,1,
,dotcolour,dotcolour,xotask,32,0,32,332,training,negativefb,83,hard,45,1.3507030999999188,['c'],1,left,['8'],3,1.0864591000008659,,,22,19,Vrouw,Rechts,1,
,dotcolour,dotcolour,xotask,33,0,33,333,training,negativefb,55,average,26,0.8665619000003062,['n'],1,right,['3'],4,0.400895999999193,,,22,19,Vrouw,Rechts,1,
,dotcolour,dotcolour,xotask,34,0,34,334,training,negativefb,43,hard,37,1.200030699999843,['n'],1,right,['3'],4,0.37669820000064647,,,22,19,Vrouw,Rechts,1,
,dotcolour,dotcolour,xotask,35,0,35,335,training,negativefb,68,hard,43,0.9825835000001462,['c'],1,left,['3'],4,0.3943318999999974,,,22,19,Vrouw,Rechts,1,
,dotcolour,dotcolour,xotask,36,0,36,336,training,negativefb,59,average,29,0.6167443000003914,['n'],1,right,['3'],4,0.1697585000001709,,,22,19,Vrouw,Rechts,1,
,dotcolour,dotcolour,xotask,37,0,37,337,training,negativefb,64,average,51,0.9334398000000874,['c'],1,left,['3'],4,0.23802080000041315,,,22,19,Vrouw,Rechts,1,
,dotcolour,dotcolour,xotask,38,0,38,338,training,negativefb,65,easy,63,0.6163087999993877,['c'],1,left,['2'],5,0.2682604000001447,,,22,19,Vrouw,Rechts,1,
,dotcolour,dotcolour,xotask,39,0,39,339,training,negativefb,24,hard,35,1.033140800000183,['n'],1,right,['3'],4,0.36841110000023036,,,22,19,Vrouw,Rechts,1,
,dotcolour,dotcolour,xotask,40,0,40,340,training,negativefb,90,easy,62,0.9338260000004084,['c'],1,left,['2'],5,0.6767316999994364,,,22,19,Vrouw,Rechts,1,
,dotcolour,dotcolour,xotask,41,0,41,341,training,negativefb,18,easy,18,0.6161475999997492,['c'],0,right,['2'],5,0.40940210000007937,,,22,19,Vrouw,Rechts,1,
,dotcolour,dotcolour,xotask,42,0,42,342,training,negativefb,39,average,29,2.0489669999997204,['n'],1,right,['9'],2,0.8153752999996868,,,22,19,Vrouw,Rechts,1,
,dotcolour,dotcolour,xotask,43,0,43,343,training,negativefb,96,easy,61,0.6156247999997504,['c'],1,left,['2'],5,1.0297764000006282,,,22,19,Vrouw,Rechts,1,
,dotcolour,dotcolour,xotask,44,0,44,344,training,negativefb,90,hard,38,0.699554600000738,['n'],1,right,['3'],4,0.6893019999997705,,,22,19,Vrouw,Rechts,1,
,dotcolour,dotcolour,xotask,45,0,45,345,training,negativefb,63,hard,45,0.7990060000001904,['c'],1,left,['8'],3,0.6053166000001511,,,22,19,Vrouw,Rechts,1,
,dotcolour,dotcolour,xotask,46,0,46,346,training,negativefb,77,easy,61,0.6835773999991943,['c'],1,left,['2'],5,0.6585530000002109,,,22,19,Vrouw,Rechts,1,
,dotcolour,dotcolour,xotask,47,0,47,347,training,negativefb,72,average,54,0.7505281999992803,['c'],1,left,['2'],5,0.9384534999999232,,,22,19,Vrouw,Rechts,1,
,dotcolour,dotcolour,xotask,48,0,48,348,training,negativefb,65,average,25,0.6169909999998708,['n'],1,right,['2'],5,0.6845100000000457,,,22,19,Vrouw,Rechts,1,
,dotcolour,dotcolour,xotask,49,0,49,349,training,negativefb,59,easy,15,0.567488499999854,['n'],1,right,['2'],5,0.5784555000000182,,,22,19,Vrouw,Rechts,1,
,dotcolour,dotcolour,xotask,50,0,50,350,training,negativefb,64,easy,18,0.5506916000003912,['n'],1,right,['2'],5,0.5095454000002064,,,22,19,Vrouw,Rechts,1,
,dotcolour,dotcolour,xotask,51,0,51,351,training,negativefb,85,average,54,0.5999267000006512,['c'],1,left,['3'],4,1.2334191999998438,,,22,19,Vrouw,Rechts,1,
,dotcolour,dotcolour,xotask,52,0,52,352,training,negativefb,35,hard,41,0.633486300000186,['n'],0,left,['8'],3,0.551111700000547,,,22,19,Vrouw,Rechts,1,
,dotcolour,dotcolour,xotask,53,0,53,353,training,negativefb,57,average,28,0.5666897000000972,['n'],1,right,['2'],5,0.3299317000000883,,,22,19,Vrouw,Rechts,1,
,dotcolour,dotcolour,xotask,54,0,54,354,training,negativefb,83,average,28,0.7174573000002056,['n'],1,right,['3'],4,0.3932935000002544,,,22,19,Vrouw,Rechts,1,
,dotcolour,dotcolour,xotask,55,0,55,355,training,negativefb,74,average,54,0.7666933999998946,['c'],1,left,['2'],5,0.5314578000006804,,,22,19,Vrouw,Rechts,1,
,dotcolour,dotcolour,xotask,56,0,56,356,training,negativefb,77,hard,38,0.6822626000002856,['n'],1,right,['2'],5,0.4590581000002203,,,22,19,Vrouw,Rechts,1,
,dotcolour,dotcolour,xotask,57,0,57,357,training,negativefb,88,hard,39,0.7508526999999958,['n'],1,right,['3'],4,0.4275215000006938,,,22,19,Vrouw,Rechts,1,
,dotcolour,dotcolour,xotask,58,0,58,358,training,negativefb,56,average,26,0.5004349999999249,['n'],1,right,['3'],4,0.23844290000033652,,,22,19,Vrouw,Rechts,1,
,dotcolour,dotcolour,xotask,59,0,59,359,training,negativefb,74,average,51,0.9673001999999542,['c'],1,left,['2'],5,0.5263208000005761,,,22,19,Vrouw,Rechts,1,
,dotcolour,dotcolour,xotask,0,1,60,360,training,negativefb,26,average,51,1.133850000000166,['c'],1,left,['3'],4,0.6950629000002664,,,22,19,Vrouw,Rechts,1,
,dotcolour,dotcolour,xotask,1,1,61,361,training,negativefb,88,average,29,0.5671646000000692,['n'],1,right,['3'],4,0.3249521999996432,,,22,19,Vrouw,Rechts,1,
,dotcolour,dotcolour,xotask,2,1,62,362,training,negativefb,76,hard,42,0.8181245999994644,['c'],1,left,['8'],3,0.7274192999993829,,,22,19,Vrouw,Rechts,1,
,dotcolour,dotcolour,xotask,3,1,63,363,training,negativefb,53,average,54,0.6674888999996256,['n'],0,left,['3'],4,0.6489848000001075,,,22,19,Vrouw,Rechts,1,
,dotcolour,dotcolour,xotask,4,1,64,364,training,negativefb,96,average,53,0.8832468000000517,['c'],1,left,['3'],4,0.6673885999998674,,,22,19,Vrouw,Rechts,1,
,dotcolour,dotcolour,xotask,5,1,65,365,training,negativefb,61,easy,64,0.5832188999993377,['c'],1,left,['2'],5,0.4013121999996656,,,22,19,Vrouw,Rechts,1,
,dotcolour,dotcolour,xotask,6,1,66,366,training,negativefb,79,average,29,0.6170756000001347,['n'],1,right,['1'],6,0.3283277000000453,,,22,19,Vrouw,Rechts,1,
,dotcolour,dotcolour,xotask,7,1,67,367,training,negativefb,35,hard,39,0.6501861000006102,['n'],1,right,['3'],4,0.2582954999998037,,,22,19,Vrouw,Rechts,1,
,dotcolour,dotcolour,xotask,8,1,68,368,training,negativefb,47,hard,43,0.9336837999999261,['n'],0,left,['3'],4,0.37890729999980977,,,22,19,Vrouw,Rechts,1,
,dotcolour,dotcolour,xotask,9,1,69,369,training,negativefb,79,average,28,0.6496821999999156,['n'],1,right,['2'],5,0.36979780000001483,,,22,19,Vrouw,Rechts,1,
,dotcolour,dotcolour,xotask,10,1,70,370,training,negativefb,31,easy,64,0.6675802999998268,['n'],0,left,['0'],1,0.9523353000004136,,,22,19,Vrouw,Rechts,1,
,dotcolour,dotcolour,xotask,11,1,71,371,training,negativefb,86,average,25,0.7330891999999949,['n'],1,right,['2'],5,1.29288170000018,,,22,19,Vrouw,Rechts,1,
,dotcolour,dotcolour,xotask,12,1,72,372,training,negativefb,66,average,54,0.5497229000002335,['c'],1,left,['2'],5,0.5313550999999279,,,22,19,Vrouw,Rechts,1,
,dotcolour,dotcolour,xotask,13,1,73,373,training,negativefb,84,average,29,0.5168101999997816,['n'],1,right,['3'],4,0.3771168999992369,,,22,19,Vrouw,Rechts,1,
,dotcolour,dotcolour,xotask,14,1,74,374,training,negativefb,77,easy,16,0.5504747999993924,['n'],1,right,['2'],5,0.30141139999977895,,,22,19,Vrouw,Rechts,1,
,dotcolour,dotcolour,xotask,15,1,75,375,training,negativefb,65,hard,37,1.0335661999997683,['n'],1,right,['3'],4,0.31929070000023785,,,22,19,Vrouw,Rechts,1,
,dotcolour,dotcolour,xotask,16,1,76,376,training,negativefb,79,hard,37,0.9832985000002736,['n'],1,right,['3'],4,0.2121620999996594,,,22,19,Vrouw,Rechts,1,
,dotcolour,dotcolour,xotask,17,1,77,377,training,negativefb,87,easy,64,0.733151800000087,['c'],1,left,['2'],5,0.4151898000000074,,,22,19,Vrouw,Rechts,1,
,dotcolour,dotcolour,xotask,18,1,78,378,training,negativefb,60,average,28,0.566374399999404,['n'],1,right,['2'],5,0.28706830000010086,,,22,19,Vrouw,Rechts,1,
,dotcolour,dotcolour,xotask,19,1,79,379,training,negativefb,75,average,55,0.9506789000006393,['c'],1,left,['3'],4,0.34158599999955186,,,22,19,Vrouw,Rechts,1,
,dotcolour,dotcolour,xotask,20,1,80,380,training,negativefb,75,hard,37,0.8659520000001066,['n'],1,right,['3'],4,0.2859662999999273,,,22,19,Vrouw,Rechts,1,
,dotcolour,dotcolour,xotask,21,1,81,381,training,negativefb,88,hard,38,0.6489396999995733,['n'],1,right,['2'],5,0.3923813000001246,,,22,19,Vrouw,Rechts,1,
,dotcolour,dotcolour,xotask,22,1,82,382,training,negativefb,88,hard,37,0.6177752000003238,['n'],1,right,['3'],4,0.2804782000002888,,,22,19,Vrouw,Rechts,1,
,dotcolour,dotcolour,xotask,23,1,83,383,training,negativefb,87,easy,18,0.7655044999992242,['n'],1,right,['2'],5,0.34323889999996027,,,22,19,Vrouw,Rechts,1,
,dotcolour,dotcolour,xotask,24,1,84,384,training,negativefb,72,hard,43,1.3174721000004865,['n'],0,left,['3'],4,0.3090119999997114,,,22,19,Vrouw,Rechts,1,
,dotcolour,dotcolour,xotask,25,1,85,385,training,negativefb,71,easy,19,0.5665756000007605,['n'],1,right,['2'],5,0.20253979999961302,,,22,19,Vrouw,Rechts,1,
,dotcolour,dotcolour,xotask,26,1,86,386,training,negativefb,58,hard,41,1.066686699999991,['c'],1,left,['3'],4,0.2792827000002944,,,22,19,Vrouw,Rechts,1,
,dotcolour,dotcolour,xotask,27,1,87,387,training,negativefb,46,easy,18,0.5839405999995506,['n'],1,right,['1'],6,0.3177089999999225,,,22,19,Vrouw,Rechts,1,
,dotcolour,dotcolour,xotask,28,1,88,388,training,negativefb,97,easy,62,0.7836047999999209,['c'],1,left,['2'],5,1.2819601999999577,,,22,19,Vrouw,Rechts,1,
,dotcolour,dotcolour,xotask,29,1,89,389,training,negativefb,52,average,54,1.3171730000003663,['c'],1,left,['3'],4,0.2813161999993099,,,22,19,Vrouw,Rechts,1,
,dotcolour,dotcolour,xotask,30,1,90,390,training,negativefb,75,easy,19,0.6339723000000959,['n'],1,right,['2'],5,0.5328929999996035,,,22,19,Vrouw,Rechts,1,
,dotcolour,dotcolour,xotask,31,1,91,391,training,negativefb,75,average,51,0.9654914000002464,['c'],1,left,['2'],5,0.2564480999999432,,,22,19,Vrouw,Rechts,1,
,dotcolour,dotcolour,xotask,32,1,92,392,training,negativefb,72,hard,36,0.9171606999998403,['n'],1,right,['3'],4,0.17068530000051396,,,22,19,Vrouw,Rechts,1,
,dotcolour,dotcolour,xotask,33,1,93,393,training,negativefb,81,hard,38,0.8324531999996907,['n'],1,right,['3'],4,0.3380061999996542,,,22,19,Vrouw,Rechts,1,
,dotcolour,dotcolour,xotask,34,1,94,394,training,negativefb,38,average,25,0.8003263999999035,['n'],1,right,['2'],5,0.276926800000183,,,22,19,Vrouw,Rechts,1,
,dotcolour,dotcolour,xotask,35,1,95,395,training,negativefb,86,easy,61,0.8828402999997707,['c'],1,left,['2'],5,0.8627888000000894,,,22,19,Vrouw,Rechts,1,
,dotcolour,dotcolour,xotask,36,1,96,396,training,negativefb,63,hard,44,1.1334466000007524,['c'],1,left,['3'],4,0.4160751999997956,,,22,19,Vrouw,Rechts,1,
,dotcolour,dotcolour,xotask,37,1,97,397,training,negativefb,65,average,55,0.5996948000001794,['c'],1,left,['3'],4,0.3189706000002843,,,22,19,Vrouw,Rechts,1,
,dotcolour,dotcolour,xotask,38,1,98,398,training,negativefb,91,easy,17,0.6003781999997955,['n'],1,right,['2'],5,0.3147759000003134,,,22,19,Vrouw,Rechts,1,
,dotcolour,dotcolour,xotask,39,1,99,399,training,negativefb,64,easy,62,0.6171844000000419,['c'],1,left,['2'],5,0.2767087000001993,,,22,19,Vrouw,Rechts,1,
,dotcolour,dotcolour,xotask,40,1,100,400,training,negativefb,86,easy,64,0.6496136999994633,['c'],1,left,['3'],4,0.36043729999983043,,,22,19,Vrouw,Rechts,1,
,dotcolour,dotcolour,xotask,41,1,101,401,training,negativefb,96,easy,17,0.48386090000076365,['n'],1,right,['2'],5,0.6556413999996948,,,22,19,Vrouw,Rechts,1,
,dotcolour,dotcolour,xotask,42,1,102,402,training,negativefb,49,average,51,0.8828429000004689,['c'],1,left,['3'],4,0.2577902000002723,,,22,19,Vrouw,Rechts,1,
,dotcolour,dotcolour,xotask,43,1,103,403,training,negativefb,53,hard,42,1.3166623999995863,['n'],0,left,['8'],3,0.7956298999997671,,,22,19,Vrouw,Rechts,1,
,dotcolour,dotcolour,xotask,44,1,104,404,training,negativefb,66,hard,39,1.1836857999996937,['n'],1,right,['3'],4,0.33271530000001803,,,22,19,Vrouw,Rechts,1,
,dotcolour,dotcolour,xotask,45,1,105,405,training,negativefb,64,hard,41,0.950178699999924,['n'],0,left,['3'],4,0.1610686000003625,,,22,19,Vrouw,Rechts,1,
,dotcolour,dotcolour,xotask,46,1,106,406,training,negativefb,73,easy,15,0.6498536999997668,['n'],1,right,['2'],5,0.2726351999999679,,,22,19,Vrouw,Rechts,1,
,dotcolour,dotcolour,xotask,47,1,107,407,training,negativefb,33,hard,43,1.0332054999998945,['n'],0,left,['3'],4,0.16527270000005956,,,22,19,Vrouw,Rechts,1,
,dotcolour,dotcolour,xotask,48,1,108,408,training,negativefb,50,hard,41,0.915695799999412,['c'],1,left,['3'],4,0.2658590999999433,,,22,19,Vrouw,Rechts,1,
,dotcolour,dotcolour,xotask,49,1,109,409,training,negativefb,81,easy,19,0.8327225000002727,['n'],1,right,['2'],5,0.42171290000078443,,,22,19,Vrouw,Rechts,1,
,dotcolour,dotcolour,xotask,50,1,110,410,training,negativefb,33,average,28,0.6675568000000567,['c'],0,right,['0'],1,0.7468635999994149,,,22,19,Vrouw,Rechts,1,
,dotcolour,dotcolour,xotask,51,1,111,411,training,negativefb,65,average,54,0.8180495999995401,['c'],1,left,['3'],4,0.3003310000003694,,,22,19,Vrouw,Rechts,1,
,dotcolour,dotcolour,xotask,52,1,112,412,training,negativefb,30,average,25,0.5832989000000453,['n'],1,right,['2'],5,0.3049557000003915,,,22,19,Vrouw,Rechts,1,
,dotcolour,dotcolour,xotask,53,1,113,413,training,negativefb,70,easy,64,0.767724399999679,['c'],1,left,['2'],5,0.7267320000000836,,,22,19,Vrouw,Rechts,1,
,dotcolour,dotcolour,xotask,54,1,114,414,training,negativefb,70,hard,37,1.3163006000004316,['n'],1,right,['8'],3,0.32530120000046736,,,22,19,Vrouw,Rechts,1,
,dotcolour,dotcolour,xotask,55,1,115,415,training,negativefb,81,average,29,1.2495307000008324,['c'],0,right,['3'],4,0.3421035999999731,,,22,19,Vrouw,Rechts,1,
,dotcolour,dotcolour,xotask,56,1,116,416,training,negativefb,74,easy,15,0.6163807000002635,['n'],1,right,['2'],5,0.4242135000004055,,,22,19,Vrouw,Rechts,1,
,dotcolour,dotcolour,xotask,57,1,117,417,training,negativefb,95,easy,63,0.8001635000000533,['c'],1,left,['2'],5,0.2557223999992857,,,22,19,Vrouw,Rechts,1,
,dotcolour,dotcolour,xotask,58,1,118,418,training,negativefb,82,easy,61,0.6002997000005053,['c'],1,left,['1'],6,0.30228199999965,,,22,19,Vrouw,Rechts,1,
,dotcolour,dotcolour,xotask,59,1,119,419,training,negativefb,58,hard,45,1.4498708000000988,['c'],1,left,['3'],4,0.21536879999985103,,,22,19,Vrouw,Rechts,1,
,dotcolour,dotcolour,xotask,0,2,120,420,main,negativefb,-99,average,29,0.7344180999998571,['n'],1,right,['2'],5,1.3337854000001244,,,22,19,Vrouw,Rechts,1,
,dotcolour,dotcolour,xotask,1,2,121,421,main,negativefb,-99,easy,62,0.5177327000001242,['c'],1,left,['2'],5,0.37282450000020617,,,22,19,Vrouw,Rechts,1,
,dotcolour,dotcolour,xotask,2,2,122,422,main,negativefb,-99,hard,37,0.8505927000005613,['c'],0,right,['3'],4,0.18871690000014496,,,22,19,Vrouw,Rechts,1,
,dotcolour,dotcolour,xotask,3,2,123,423,main,negativefb,-99,easy,15,0.6503351000001203,['n'],1,right,['2'],5,0.5317369000003964,,,22,19,Vrouw,Rechts,1,
,dotcolour,dotcolour,xotask,4,2,124,424,main,negativefb,-99,hard,38,0.7679680999999619,['c'],0,right,['2'],5,0.2325330000003305,,,22,19,Vrouw,Rechts,1,
,dotcolour,dotcolour,xotask,5,2,125,425,main,negativefb,-99,average,27,0.7010317999993276,['n'],1,right,['3'],4,0.5156291000002966,,,22,19,Vrouw,Rechts,1,
,dotcolour,dotcolour,xotask,6,2,126,426,main,negativefb,-99,hard,43,0.6342600000007224,['c'],1,left,['3'],4,0.1983804000001328,,,22,19,Vrouw,Rechts,1,
,dotcolour,dotcolour,xotask,7,2,127,427,main,negativefb,-99,hard,38,0.9681001999997534,['c'],0,right,['3'],4,0.18384879999939585,,,22,19,Vrouw,Rechts,1,
,dotcolour,dotcolour,xotask,8,2,128,428,main,negativefb,-99,easy,15,0.5852642999998352,['n'],1,right,['2'],5,0.34639770000012504,,,22,19,Vrouw,Rechts,1,
,dotcolour,dotcolour,xotask,9,2,129,429,main,negativefb,-99,easy,65,0.8514733000001797,['c'],1,left,['1'],6,0.5799700000006851,,,22,19,Vrouw,Rechts,1,
,dotcolour,dotcolour,xotask,10,2,130,430,main,negativefb,-99,average,53,0.6002823999997418,['n'],0,left,['2'],5,0.23823620000075607,,,22,19,Vrouw,Rechts,1,
,dotcolour,dotcolour,xotask,11,2,131,431,main,negativefb,-99,easy,17,0.8335620999996536,['c'],0,right,['3'],4,0.2672873999999865,,,22,19,Vrouw,Rechts,1,
,dotcolour,dotcolour,xotask,12,2,132,432,main,negativefb,-99,hard,36,1.4347789999992528,['n'],1,right,['3'],4,0.24905549999948562,,,22,19,Vrouw,Rechts,1,
,dotcolour,dotcolour,xotask,13,2,133,433,main,negativefb,-99,hard,39,0.7671137999996063,['c'],0,right,['2'],5,0.2801945999999589,,,22,19,Vrouw,Rechts,1,
,dotcolour,dotcolour,xotask,14,2,134,434,main,negativefb,-99,average,53,0.784108699999706,['c'],1,left,['2'],5,0.2390728999998828,,,22,19,Vrouw,Rechts,1,
,dotcolour,dotcolour,xotask,15,2,135,435,main,negativefb,-99,hard,39,0.8335220999997546,['n'],1,right,['3'],4,0.3016642000002321,,,22,19,Vrouw,Rechts,1,
,dotcolour,dotcolour,xotask,16,2,136,436,main,negativefb,-99,average,54,0.5176141000001735,['c'],1,left,['2'],5,0.3011679000001095,,,22,19,Vrouw,Rechts,1,
,dotcolour,dotcolour,xotask,17,2,137,437,main,negativefb,-99,average,54,0.6507061000002068,['c'],1,left,['2'],5,0.2798927999992884,,,22,19,Vrouw,Rechts,1,
,dotcolour,dotcolour,xotask,18,2,138,438,main,negativefb,-99,average,26,0.7006430999999793,['n'],1,right,['2'],5,0.3058910999998261,,,22,19,Vrouw,Rechts,1,
,dotcolour,dotcolour,xotask,19,2,139,439,main,negativefb,-99,hard,44,0.684776599999168,['c'],1,left,['3'],4,0.2913545999999769,,,22,19,Vrouw,Rechts,1,
,dotcolour,dotcolour,xotask,20,2,140,440,main,negativefb,-99,easy,17,0.6671048999996856,['n'],1,right,['2'],5,0.28610049999952025,,,22,19,Vrouw,Rechts,1,
,dotcolour,dotcolour,xotask,21,2,141,441,main,negativefb,-99,easy,63,0.6172371000002386,['c'],1,left,['2'],5,0.2823318000000654,,,22,19,Vrouw,Rechts,1,
,dotcolour,dotcolour,xotask,22,2,142,442,main,negativefb,-99,average,26,0.8843556000001627,['n'],1,right,['2'],5,0.30789939999976923,,,22,19,Vrouw,Rechts,1,
,dotcolour,dotcolour,xotask,23,2,143,443,main,negativefb,-99,average,27,0.9844699999994191,['n'],1,right,['3'],4,0.22605440000006638,,,22,19,Vrouw,Rechts,1,
,dotcolour,dotcolour,xotask,24,2,144,444,main,negativefb,-99,easy,17,0.5836062000007587,['n'],1,right,['3'],4,0.3544077999995352,,,22,19,Vrouw,Rechts,1,
,dotcolour,dotcolour,xotask,25,2,145,445,main,negativefb,-99,easy,64,0.5681453999995938,['c'],1,left,['2'],5,0.32695130000047357,,,22,19,Vrouw,Rechts,1,
,dotcolour,dotcolour,xotask,26,2,146,446,main,negativefb,-99,average,51,0.5847241999999824,['c'],1,left,['2'],5,0.30722359999981563,,,22,19,Vrouw,Rechts,1,
,dotcolour,dotcolour,xotask,27,2,147,447,main,negativefb,-99,easy,15,0.4669138999997813,['n'],1,right,['2'],5,0.33344579999993584,,,22,19,Vrouw,Rechts,1,
,dotcolour,dotcolour,xotask,28,2,148,448,main,negativefb,-99,average,25,0.6680145999998786,['n'],1,right,['3'],4,0.26984230000016396,,,22,19,Vrouw,Rechts,1,
,dotcolour,dotcolour,xotask,29,2,149,449,main,negativefb,-99,hard,43,1.1341247000000294,['c'],1,left,['3'],4,0.3105371000001469,,,22,19,Vrouw,Rechts,1,
,dotcolour,dotcolour,xotask,30,2,150,450,main,negativefb,-99,hard,36,0.7174540000005436,['n'],1,right,['3'],4,0.3350622000007206,,,22,19,Vrouw,Rechts,1,
,dotcolour,dotcolour,xotask,31,2,151,451,main,negativefb,-99,easy,65,0.7509335000004285,['c'],1,left,['1'],6,0.37150019999990036,,,22,19,Vrouw,Rechts,1,
,dotcolour,dotcolour,xotask,32,2,152,452,main,negativefb,-99,average,51,0.7353640000001178,['c'],1,left,['2'],5,0.29613549999976385,,,22,19,Vrouw,Rechts,1,
,dotcolour,dotcolour,xotask,33,2,153,453,main,negativefb,-99,average,25,0.6501785000000382,['n'],1,right,['2'],5,0.34722629999942,,,22,19,Vrouw,Rechts,1,
,dotcolour,dotcolour,xotask,34,2,154,454,main,negativefb,-99,average,25,0.6178878000000623,['n'],1,right,['3'],4,0.30232189999969705,,,22,19,Vrouw,Rechts,1,
,dotcolour,dotcolour,xotask,35,2,155,455,main,negativefb,-99,hard,42,0.6011620999997831,['c'],1,left,['3'],4,0.3146417999996629,,,22,19,Vrouw,Rechts,1,
,dotcolour,dotcolour,xotask,36,2,156,456,main,negativefb,-99,average,54,0.5512632999998459,['n'],0,left,['0'],1,0.9045124000003852,,,22,19,Vrouw,Rechts,1,
,dotcolour,dotcolour,xotask,37,2,157,457,main,negativefb,-99,hard,39,1.2178654999997889,['n'],1,right,['3'],4,0.21254700000008597,,,22,19,Vrouw,Rechts,1,
,dotcolour,dotcolour,xotask,38,2,158,458,main,negativefb,-99,hard,41,0.6679724000005081,['c'],1,left,['3'],4,0.3299613999997746,,,22,19,Vrouw,Rechts,1,
,dotcolour,dotcolour,xotask,39,2,159,459,main,negativefb,-99,average,54,0.5501628000001801,['c'],1,left,['2'],5,0.2807313000002978,,,22,19,Vrouw,Rechts,1,
,dotcolour,dotcolour,xotask,40,2,160,460,main,negativefb,-99,easy,18,0.7335008999998536,['n'],1,right,['2'],5,0.31239350000032573,,,22,19,Vrouw,Rechts,1,
,dotcolour,dotcolour,xotask,41,2,161,461,main,negativefb,-99,easy,62,0.5998809000002439,['c'],1,left,['2'],5,0.26183450000007724,,,22,19,Vrouw,Rechts,1,
,dotcolour,dotcolour,xotask,42,2,162,462,main,negativefb,-99,average,25,0.6339938000000984,['n'],1,right,['3'],4,0.3305720999996993,,,22,19,Vrouw,Rechts,1,
,dotcolour,dotcolour,xotask,43,2,163,463,main,negativefb,-99,hard,44,1.2511789999998655,['c'],1,left,['3'],4,0.4118351999995866,,,22,19,Vrouw,Rechts,1,
,dotcolour,dotcolour,xotask,44,2,164,464,main,negativefb,-99,easy,15,0.6177373000000443,['n'],1,right,['3'],4,0.3397289999993518,,,22,19,Vrouw,Rechts,1,
,dotcolour,dotcolour,xotask,45,2,165,465,main,negativefb,-99,hard,35,0.7518319999999221,['n'],1,right,['3'],4,0.40116760000000795,,,22,19,Vrouw,Rechts,1,
,dotcolour,dotcolour,xotask,46,2,166,466,main,negativefb,-99,easy,18,0.46753760000046896,['n'],1,right,['2'],5,0.3032480999991094,,,22,19,Vrouw,Rechts,1,
,dotcolour,dotcolour,xotask,47,2,167,467,main,negativefb,-99,hard,43,0.7183194999997795,['c'],1,left,['3'],4,0.33540240000002086,,,22,19,Vrouw,Rechts,1,
,dotcolour,dotcolour,xotask,48,2,168,468,main,negativefb,-99,hard,43,0.7676156999996238,['c'],1,left,['3'],4,0.3800572000000102,,,22,19,Vrouw,Rechts,1,
,dotcolour,dotcolour,xotask,49,2,169,469,main,negativefb,-99,average,52,0.5683423000000403,['c'],1,left,['2'],5,0.3191041000000041,,,22,19,Vrouw,Rechts,1,
,dotcolour,dotcolour,xotask,50,2,170,470,main,negativefb,-99,hard,45,0.48385200000029727,['c'],1,left,['3'],4,0.3356372999996893,,,22,19,Vrouw,Rechts,1,
,dotcolour,dotcolour,xotask,51,2,171,471,main,negativefb,-99,hard,38,1.0504120999994484,['c'],0,right,['3'],4,0.2810908000001291,,,22,19,Vrouw,Rechts,1,
,dotcolour,dotcolour,xotask,52,2,172,472,main,negativefb,-99,easy,61,0.6680974999999307,['c'],1,left,['2'],5,0.3329872999993313,,,22,19,Vrouw,Rechts,1,
,dotcolour,dotcolour,xotask,53,2,173,473,main,negativefb,-99,easy,61,0.5839304000000993,['c'],1,left,['1'],6,0.33573580000029324,,,22,19,Vrouw,Rechts,1,
,dotcolour,dotcolour,xotask,54,2,174,474,main,negativefb,-99,easy,64,0.5506279000001086,['c'],1,left,['1'],6,0.33340659999976197,,,22,19,Vrouw,Rechts,1,
,dotcolour,dotcolour,xotask,55,2,175,475,main,negativefb,-99,average,27,0.7180278000005273,['n'],1,right,['2'],5,0.6033834000008937,,,22,19,Vrouw,Rechts,1,
,dotcolour,dotcolour,xotask,56,2,176,476,main,negativefb,-99,average,52,1.1019799999994575,['c'],1,left,['3'],4,0.4247635000001537,,,22,19,Vrouw,Rechts,1,
,dotcolour,dotcolour,xotask,57,2,177,477,main,negativefb,-99,easy,19,0.5672308000002886,['n'],1,right,['2'],5,0.3461293000000296,,,22,19,Vrouw,Rechts,1,
,dotcolour,dotcolour,xotask,58,2,178,478,main,negativefb,-99,easy,61,0.6346516000003248,['c'],1,left,['2'],5,0.7631424999999581,,,22,19,Vrouw,Rechts,1,
,dotcolour,dotcolour,xotask,59,2,179,479,main,negativefb,-99,hard,44,0.9334328000004462,['n'],0,left,['3'],4,0.42570190000060393,,,22,19,Vrouw,Rechts,1,
,dotcolour,dotcolour,xotask,0,3,180,480,main,negativefb,-99,average,29,0.8839587000002211,['n'],1,right,['3'],4,0.4106296999998449,,,22,19,Vrouw,Rechts,1,
,dotcolour,dotcolour,xotask,1,3,181,481,main,negativefb,-99,easy,62,0.7673064999999042,['c'],1,left,['2'],5,0.3246056999996654,,,22,19,Vrouw,Rechts,1,
,dotcolour,dotcolour,xotask,2,3,182,482,main,negativefb,-99,average,52,0.650891799999954,['c'],1,left,['3'],4,0.23050169999987702,,,22,19,Vrouw,Rechts,1,
,dotcolour,dotcolour,xotask,3,3,183,483,main,negativefb,-99,easy,64,0.5173958000004859,['c'],1,left,['1'],6,0.24974870000005467,,,22,19,Vrouw,Rechts,1,
,dotcolour,dotcolour,xotask,4,3,184,484,main,negativefb,-99,hard,45,0.8006212000000232,['c'],1,left,['3'],4,0.48044389999995474,,,22,19,Vrouw,Rechts,1,
,dotcolour,dotcolour,xotask,5,3,185,485,main,negativefb,-99,easy,61,0.5678527000000031,['c'],1,left,['2'],5,0.3526578999999401,,,22,19,Vrouw,Rechts,1,
,dotcolour,dotcolour,xotask,6,3,186,486,main,negativefb,-99,average,53,0.6844342000003962,['c'],1,left,['3'],4,0.33511950000047364,,,22,19,Vrouw,Rechts,1,
,dotcolour,dotcolour,xotask,7,3,187,487,main,negativefb,-99,easy,65,0.5838915999993333,['c'],1,left,['2'],5,0.3469445999999152,,,22,19,Vrouw,Rechts,1,
,dotcolour,dotcolour,xotask,8,3,188,488,main,negativefb,-99,average,26,0.7838684999996985,['n'],1,right,['2'],5,0.3429931000000579,,,22,19,Vrouw,Rechts,1,
,dotcolour,dotcolour,xotask,9,3,189,489,main,negativefb,-99,average,27,0.4827242000001206,['n'],1,right,['3'],4,0.2630322000004526,,,22,19,Vrouw,Rechts,1,
,dotcolour,dotcolour,xotask,10,3,190,490,main,negativefb,-99,hard,39,0.7507230000001073,['n'],1,right,['3'],4,0.30413880000014615,,,22,19,Vrouw,Rechts,1,
,dotcolour,dotcolour,xotask,11,3,191,491,main,negativefb,-99,hard,36,1.0173806000002514,['c'],0,right,['8'],3,0.643392799999674,,,22,19,Vrouw,Rechts,1,
,dotcolour,dotcolour,xotask,12,3,192,492,main,negativefb,-99,easy,15,0.6173499999995329,['n'],1,right,['2'],5,0.2982947000000422,,,22,19,Vrouw,Rechts,1,
,dotcolour,dotcolour,xotask,13,3,193,493,main,negativefb,-99,hard,41,0.816774599999917,['c'],1,left,['3'],4,0.2631332000000839,,,22,19,Vrouw,Rechts,1,
,dotcolour,dotcolour,xotask,14,3,194,494,main,negativefb,-99,average,26,0.7006894000005559,['n'],1,right,['2'],5,0.3128975999998147,,,22,19,Vrouw,Rechts,1,
,dotcolour,dotcolour,xotask,15,3,195,495,main,negativefb,-99,easy,19,0.5672466000005443,['n'],1,right,['1'],6,0.30394909999995434,,,22,19,Vrouw,Rechts,1,
,dotcolour,dotcolour,xotask,16,3,196,496,main,negativefb,-99,average,51,0.7680434000003515,['c'],1,left,['3'],4,0.31730870000046707,,,22,19,Vrouw,Rechts,1,
,dotcolour,dotcolour,xotask,17,3,197,497,main,negativefb,-99,average,25,0.5342171000002054,['n'],1,right,['2'],5,0.3393426000002364,,,22,19,Vrouw,Rechts,1,
,dotcolour,dotcolour,xotask,18,3,198,498,main,negativefb,-99,hard,38,0.884690099999716,['c'],0,right,['8'],3,0.25249709999934566,,,22,19,Vrouw,Rechts,1,
,dotcolour,dotcolour,xotask,19,3,199,499,main,negativefb,-99,easy,63,0.7673608000004606,['c'],1,left,['1'],6,0.3564678000002459,,,22,19,Vrouw,Rechts,1,
,dotcolour,dotcolour,xotask,20,3,200,500,main,negativefb,-99,average,51,0.6517257000004975,['c'],1,left,['3'],4,0.42841039999984787,,,22,19,Vrouw,Rechts,1,
,dotcolour,dotcolour,xotask,21,3,201,501,main,negativefb,-99,easy,18,0.6513336999996682,['n'],1,right,['2'],5,0.35475399999995716,,,22,19,Vrouw,Rechts,1,
,dotcolour,dotcolour,xotask,22,3,202,502,main,negativefb,-99,average,28,0.5670546000001195,['n'],1,right,['2'],5,0.3742906999996194,,,22,19,Vrouw,Rechts,1,
,dotcolour,dotcolour,xotask,23,3,203,503,main,negativefb,-99,easy,15,0.5513841000001776,['n'],1,right,['2'],5,0.3467004000003726,,,22,19,Vrouw,Rechts,1,
,dotcolour,dotcolour,xotask,24,3,204,504,main,negativefb,-99,average,52,0.6012712000001557,['c'],1,left,['3'],4,0.3499437999998918,,,22,19,Vrouw,Rechts,1,
,dotcolour,dotcolour,xotask,25,3,205,505,main,negativefb,-99,easy,64,0.601039000000128,['c'],1,left,['2'],5,0.3520158999999694,,,22,19,Vrouw,Rechts,1,
,dotcolour,dotcolour,xotask,26,3,206,506,main,negativefb,-99,easy,19,0.5847263999994539,['n'],1,right,['2'],5,0.30014029999983904,,,22,19,Vrouw,Rechts,1,
,dotcolour,dotcolour,xotask,27,3,207,507,main,negativefb,-99,average,28,0.6847932000000583,['n'],1,right,['3'],4,0.3173231000000669,,,22,19,Vrouw,Rechts,1,
,dotcolour,dotcolour,xotask,28,3,208,508,main,negativefb,-99,hard,36,0.9176958999996714,['c'],0,right,['3'],4,0.33298759999979666,,,22,19,Vrouw,Rechts,1,
,dotcolour,dotcolour,xotask,29,3,209,509,main,negativefb,-99,easy,64,0.851314900000034,['c'],1,left,['1'],6,0.31774140000015905,,,22,19,Vrouw,Rechts,1,
,dotcolour,dotcolour,xotask,30,3,210,510,main,negativefb,-99,hard,42,0.7168142999998963,['c'],1,left,['3'],4,0.3489890999999261,,,22,19,Vrouw,Rechts,1,
,dotcolour,dotcolour,xotask,31,3,211,511,main,negativefb,-99,easy,65,0.7015749000001961,['c'],1,left,['3'],4,0.35600650000014866,,,22,19,Vrouw,Rechts,1,
,dotcolour,dotcolour,xotask,32,3,212,512,main,negativefb,-99,easy,18,0.6670254000000568,['n'],1,right,['2'],5,0.3312745000002906,,,22,19,Vrouw,Rechts,1,
,dotcolour,dotcolour,xotask,33,3,213,513,main,negativefb,-99,hard,45,0.6338138000000981,['c'],1,left,['8'],3,0.6543368000002374,,,22,19,Vrouw,Rechts,1,
,dotcolour,dotcolour,xotask,34,3,214,514,main,negativefb,-99,average,27,0.5836319999998523,['n'],1,right,['3'],4,0.533382999999958,,,22,19,Vrouw,Rechts,1,
,dotcolour,dotcolour,xotask,35,3,215,515,main,negativefb,-99,average,51,0.6338937000000442,['c'],1,left,['3'],4,0.39087560000007215,,,22,19,Vrouw,Rechts,1,
,dotcolour,dotcolour,xotask,36,3,216,516,main,negativefb,-99,easy,18,0.6170572999999422,['n'],1,right,['2'],5,0.29537900000013906,,,22,19,Vrouw,Rechts,1,
,dotcolour,dotcolour,xotask,37,3,217,517,main,negativefb,-99,average,51,0.7010522000000492,['c'],1,left,['3'],4,0.32915979999961564,,,22,19,Vrouw,Rechts,1,
,dotcolour,dotcolour,xotask,38,3,218,518,main,negativefb,-99,easy,19,0.6502897999998822,['n'],1,right,['2'],5,0.32342179999977816,,,22,19,Vrouw,Rechts,1,
,dotcolour,dotcolour,xotask,39,3,219,519,main,negativefb,-99,average,55,0.6018487000001187,['c'],1,left,['3'],4,0.3505649999997331,,,22,19,Vrouw,Rechts,1,
,dotcolour,dotcolour,xotask,40,3,220,520,main,negativefb,-99,easy,15,0.4349190000002636,['n'],1,right,['1'],6,0.328619300000355,,,22,19,Vrouw,Rechts,1,
,dotcolour,dotcolour,xotask,41,3,221,521,main,negativefb,-99,hard,36,0.7344323000006625,['c'],0,right,['3'],4,0.33553050000045914,,,22,19,Vrouw,Rechts,1,
,dotcolour,dotcolour,xotask,42,3,222,522,main,negativefb,-99,hard,43,1.0510527000005823,['c'],1,left,['8'],3,0.272484600000098,,,22,19,Vrouw,Rechts,1,
,dotcolour,dotcolour,xotask,43,3,223,523,main,negativefb,-99,hard,36,1.4838950000003024,['c'],0,right,['3'],4,0.29127669999979844,,,22,19,Vrouw,Rechts,1,
,dotcolour,dotcolour,xotask,44,3,224,524,main,negativefb,-99,easy,63,0.7175828999997975,['c'],1,left,['2'],5,0.2999387999998362,,,22,19,Vrouw,Rechts,1,
,dotcolour,dotcolour,xotask,45,3,225,525,main,negativefb,-99,hard,41,0.8011436000006142,['c'],1,left,['2'],5,0.36878519999936543,,,22,19,Vrouw,Rechts,1,
,dotcolour,dotcolour,xotask,46,3,226,526,main,negativefb,-99,average,25,0.8504891000002317,['n'],1,right,['3'],4,0.3448950000001787,,,22,19,Vrouw,Rechts,1,
,dotcolour,dotcolour,xotask,47,3,227,527,main,negativefb,-99,average,54,0.6840174999997544,['c'],1,left,['3'],4,0.28062669999962964,,,22,19,Vrouw,Rechts,1,
,dotcolour,dotcolour,xotask,48,3,228,528,main,negativefb,-99,easy,61,0.6835600000003978,['c'],1,left,['2'],5,0.5637583999996423,,,22,19,Vrouw,Rechts,1,
,dotcolour,dotcolour,xotask,49,3,229,529,main,negativefb,-99,hard,45,1.5006959000002098,['c'],1,left,['8'],3,0.2904164999999921,,,22,19,Vrouw,Rechts,1,
,dotcolour,dotcolour,xotask,50,3,230,530,main,negativefb,-99,hard,44,0.7163964000001215,['c'],1,left,['8'],3,0.4031886000002487,,,22,19,Vrouw,Rechts,1,
,dotcolour,dotcolour,xotask,51,3,231,531,main,negativefb,-99,hard,39,0.8164335999999821,['n'],1,right,['3'],4,0.2751883999999336,,,22,19,Vrouw,Rechts,1,
,dotcolour,dotcolour,xotask,52,3,232,532,main,negativefb,-99,easy,17,0.48357039999973495,['n'],1,right,['3'],4,0.3738234000002194,,,22,19,Vrouw,Rechts,1,
,dotcolour,dotcolour,xotask,53,3,233,533,main,negativefb,-99,hard,44,0.7511219999996683,['c'],1,left,['3'],4,0.3381083000003855,,,22,19,Vrouw,Rechts,1,
,dotcolour,dotcolour,xotask,54,3,234,534,main,negativefb,-99,hard,38,1.3009142000000793,['n'],1,right,['8'],3,0.7369929999995293,,,22,19,Vrouw,Rechts,1,
,dotcolour,dotcolour,xotask,55,3,235,535,main,negativefb,-99,hard,37,0.7497799000002487,['c'],0,right,['3'],4,0.357608700000128,,,22,19,Vrouw,Rechts,1,
,dotcolour,dotcolour,xotask,56,3,236,536,main,negativefb,-99,hard,44,0.48369999999977153,['c'],1,left,['3'],4,0.3251940000000104,,,22,19,Vrouw,Rechts,1,
,dotcolour,dotcolour,xotask,57,3,237,537,main,negativefb,-99,average,28,1.2686703999997917,['n'],1,right,['3'],4,0.23023540000031062,,,22,19,Vrouw,Rechts,1,
,dotcolour,dotcolour,xotask,58,3,238,538,main,negativefb,-99,average,53,0.8340001999995366,['c'],1,left,['3'],4,0.332572600000276,,,22,19,Vrouw,Rechts,1,
,dotcolour,dotcolour,xotask,59,3,239,539,main,negativefb,-99,hard,38,0.7842797000002975,['n'],1,right,['8'],3,0.2643115000000762,,,22,19,Vrouw,Rechts,1,
,dotcolour,dotcolour,xotask,0,4,240,540,main,negativefb,-99,hard,41,1.333892200000264,['n'],0,left,['3'],4,0.49791970000023866,,,22,19,Vrouw,Rechts,1,
,dotcolour,dotcolour,xotask,1,4,241,541,main,negativefb,-99,easy,64,0.7852942999998049,['c'],1,left,['2'],5,0.3116792999999234,,,22,19,Vrouw,Rechts,1,
,dotcolour,dotcolour,xotask,2,4,242,542,main,negativefb,-99,hard,41,0.7501751999998305,['c'],1,left,['2'],5,0.33460849999937636,,,22,19,Vrouw,Rechts,1,
,dotcolour,dotcolour,xotask,3,4,243,543,main,negativefb,-99,hard,39,0.8513379999994868,['n'],1,right,['3'],4,0.3036589000003005,,,22,19,Vrouw,Rechts,1,
,dotcolour,dotcolour,xotask,4,4,244,544,main,negativefb,-99,hard,42,0.9845531999999366,['c'],1,left,['3'],4,0.3000668000004225,,,22,19,Vrouw,Rechts,1,
,dotcolour,dotcolour,xotask,5,4,245,545,main,negativefb,-99,hard,45,0.584478499999932,['c'],1,left,['3'],4,0.24213289999988774,,,22,19,Vrouw,Rechts,1,
,dotcolour,dotcolour,xotask,6,4,246,546,main,negativefb,-99,hard,36,1.151335300000028,['n'],1,right,['3'],4,0.2752874999996493,,,22,19,Vrouw,Rechts,1,
,dotcolour,dotcolour,xotask,7,4,247,547,main,negativefb,-99,easy,65,0.634824199999457,['c'],1,left,['2'],5,0.27236619999985123,,,22,19,Vrouw,Rechts,1,
,dotcolour,dotcolour,xotask,8,4,248,548,main,negativefb,-99,average,26,0.768375599999672,['n'],1,right,['2'],5,0.5676321999999345,,,22,19,Vrouw,Rechts,1,
,dotcolour,dotcolour,xotask,9,4,249,549,main,negativefb,-99,average,27,0.6008461999999781,['n'],1,right,['2'],5,0.32955500000025495,,,22,19,Vrouw,Rechts,1,
,dotcolour,dotcolour,xotask,10,4,250,550,main,negativefb,-99,average,53,0.5841417000001456,['c'],1,left,['3'],4,0.3101605000001655,,,22,19,Vrouw,Rechts,1,
,dotcolour,dotcolour,xotask,11,4,251,551,main,negativefb,-99,easy,19,0.5847897000003286,['n'],1,right,['2'],5,0.29977059999964695,,,22,19,Vrouw,Rechts,1,
,dotcolour,dotcolour,xotask,12,4,252,552,main,negativefb,-99,hard,35,0.6834632000000056,['n'],1,right,['2'],5,0.30036589999963326,,,22,19,Vrouw,Rechts,1,
,dotcolour,dotcolour,xotask,13,4,253,553,main,negativefb,-99,easy,65,0.7679533000000447,['c'],1,left,['2'],5,0.3315119999997478,,,22,19,Vrouw,Rechts,1,
,dotcolour,dotcolour,xotask,14,4,254,554,main,negativefb,-99,easy,15,0.5168771000007837,['n'],1,right,['2'],5,0.3375629000001936,,,22,19,Vrouw,Rechts,1,
,dotcolour,dotcolour,xotask,15,4,255,555,main,negativefb,-99,easy,65,0.9496859999999288,['c'],1,left,['2'],5,0.3747867000001861,,,22,19,Vrouw,Rechts,1,
,dotcolour,dotcolour,xotask,16,4,256,556,main,negativefb,-99,easy,62,0.7667412999999215,['c'],1,left,['3'],4,0.31402709999929357,,,22,19,Vrouw,Rechts,1,
,dotcolour,dotcolour,xotask,17,4,257,557,main,negativefb,-99,average,51,0.8502093000006425,['c'],1,left,['2'],5,0.37195059999976365,,,22,19,Vrouw,Rechts,1,
,dotcolour,dotcolour,xotask,18,4,258,558,main,negativefb,-99,easy,65,0.5001864000005298,['c'],1,left,['2'],5,0.2900382999996509,,,22,19,Vrouw,Rechts,1,
,dotcolour,dotcolour,xotask,19,4,259,559,main,negativefb,-99,hard,44,0.6020133000001806,['c'],1,left,['8'],3,0.5124995000005583,,,22,19,Vrouw,Rechts,1,
,dotcolour,dotcolour,xotask,20,4,260,560,main,negativefb,-99,hard,35,1.3335637999989558,['n'],1,right,['8'],3,0.3272385000000213,,,22,19,Vrouw,Rechts,1,
,dotcolour,dotcolour,xotask,21,4,261,561,main,negativefb,-99,easy,17,0.9341751000010845,['n'],1,right,['2'],5,0.5019357999990461,,,22,19,Vrouw,Rechts,1,
,dotcolour,dotcolour,xotask,22,4,262,562,main,negativefb,-99,average,27,0.5017422000000806,['n'],1,right,['3'],4,0.342338499998732,,,22,19,Vrouw,Rechts,1,
,dotcolour,dotcolour,xotask,23,4,263,563,main,negativefb,-99,average,25,0.3839090000001306,['n'],1,right,['3'],4,0.37859990000106336,,,22,19,Vrouw,Rechts,1,
,dotcolour,dotcolour,xotask,24,4,264,564,main,negativefb,-99,average,55,0.8676248000010673,['c'],1,left,['3'],4,0.30611270000008517,,,22,19,Vrouw,Rechts,1,
,dotcolour,dotcolour,xotask,25,4,265,565,main,negativefb,-99,easy,16,0.6016646000007313,['n'],1,right,['2'],5,0.3027527000012924,,,22,19,Vrouw,Rechts,1,
,dotcolour,dotcolour,xotask,26,4,266,566,main,negativefb,-99,easy,19,0.45049479999943287,['n'],1,right,['2'],5,0.3294711000016832,,,22,19,Vrouw,Rechts,1,
,dotcolour,dotcolour,xotask,27,4,267,567,main,negativefb,-99,easy,16,0.6348785000009229,['n'],1,right,['2'],5,0.7558411999998498,,,22,19,Vrouw,Rechts,1,
,dotcolour,dotcolour,xotask,28,4,268,568,main,negativefb,-99,average,26,0.5833249999996042,['n'],1,right,['3'],4,0.3907629999994242,,,22,19,Vrouw,Rechts,1,
,dotcolour,dotcolour,xotask,29,4,269,569,main,negativefb,-99,average,54,0.6006867999985843,['c'],1,left,['2'],5,0.40797180000117805,,,22,19,Vrouw,Rechts,1,
,dotcolour,dotcolour,xotask,30,4,270,570,main,negativefb,-99,average,54,0.4174199999997654,['c'],1,left,['3'],4,0.3768638999990799,,,22,19,Vrouw,Rechts,1,
,dotcolour,dotcolour,xotask,31,4,271,571,main,negativefb,-99,hard,41,1.2174164000007295,['c'],1,left,['3'],4,0.6178017999991425,,,22,19,Vrouw,Rechts,1,
,dotcolour,dotcolour,xotask,32,4,272,572,main,negativefb,-99,easy,61,0.5515831000011531,['c'],1,left,['2'],5,0.27553850000003877,,,22,19,Vrouw,Rechts,1,
,dotcolour,dotcolour,xotask,33,4,273,573,main,negativefb,-99,easy,18,0.6001367999997456,['n'],1,right,['2'],5,0.3867400999988604,,,22,19,Vrouw,Rechts,1,
,dotcolour,dotcolour,xotask,34,4,274,574,main,negativefb,-99,average,52,0.6167585000002873,['c'],1,left,['3'],4,0.3070151999982045,,,22,19,Vrouw,Rechts,1,
,dotcolour,dotcolour,xotask,35,4,275,575,main,negativefb,-99,hard,37,0.9181731999997282,['n'],1,right,['3'],4,0.6504984999992303,,,22,19,Vrouw,Rechts,1,
,dotcolour,dotcolour,xotask,36,4,276,576,main,negativefb,-99,easy,62,0.8019189999995433,['c'],1,left,['2'],5,0.30539200000021083,,,22,19,Vrouw,Rechts,1,
,dotcolour,dotcolour,xotask,37,4,277,577,main,negativefb,-99,average,51,1.701583500000197,['c'],1,left,['3'],4,0.43398900000102003,,,22,19,Vrouw,Rechts,1,
,dotcolour,dotcolour,xotask,38,4,278,578,main,negativefb,-99,easy,18,0.5170647999984794,['n'],1,right,['2'],5,0.30875689999993483,,,22,19,Vrouw,Rechts,1,
,dotcolour,dotcolour,xotask,39,4,279,579,main,negativefb,-99,average,55,0.5007282000005944,['c'],1,left,['3'],4,0.31729059999997844,,,22,19,Vrouw,Rechts,1,
,dotcolour,dotcolour,xotask,40,4,280,580,main,negativefb,-99,hard,41,1.3505098000005091,['c'],1,left,['8'],3,0.18730859999959648,,,22,19,Vrouw,Rechts,1,
,dotcolour,dotcolour,xotask,41,4,281,581,main,negativefb,-99,average,29,0.616780700000163,['n'],1,right,['3'],4,0.5875558999996429,,,22,19,Vrouw,Rechts,1,
,dotcolour,dotcolour,xotask,42,4,282,582,main,negativefb,-99,average,53,0.6832934000012756,['c'],1,left,['3'],4,0.2815222999997786,,,22,19,Vrouw,Rechts,1,
,dotcolour,dotcolour,xotask,43,4,283,583,main,negativefb,-99,easy,17,0.5174485000006825,['n'],1,right,['3'],4,0.4182084999993094,,,22,19,Vrouw,Rechts,1,
,dotcolour,dotcolour,xotask,44,4,284,584,main,negativefb,-99,average,26,0.5183505000004516,['n'],1,right,['3'],4,0.42245770000045013,,,22,19,Vrouw,Rechts,1,
,dotcolour,dotcolour,xotask,45,4,285,585,main,negativefb,-99,hard,45,0.800343700000667,['c'],1,left,['2'],5,0.494242500000837,,,22,19,Vrouw,Rechts,1,
,dotcolour,dotcolour,xotask,46,4,286,586,main,negativefb,-99,easy,62,0.5176190000001952,['c'],1,left,['2'],5,0.2229896999997436,,,22,19,Vrouw,Rechts,1,
,dotcolour,dotcolour,xotask,47,4,287,587,main,negativefb,-99,hard,37,0.38465090000136115,['c'],0,right,['8'],3,0.4552998999988631,,,22,19,Vrouw,Rechts,1,
,dotcolour,dotcolour,xotask,48,4,288,588,main,negativefb,-99,average,25,0.5187195999988035,['n'],1,right,['3'],4,0.4173754999992525,,,22,19,Vrouw,Rechts,1,
,dotcolour,dotcolour,xotask,49,4,289,589,main,negativefb,-99,hard,38,1.0503129999997327,['n'],1,right,['3'],4,0.22358019999956014,,,22,19,Vrouw,Rechts,1,
,dotcolour,dotcolour,xotask,50,4,290,590,main,negativefb,-99,average,29,0.6175404999994498,['n'],1,right,['3'],4,0.26213580000148795,,,22,19,Vrouw,Rechts,1,
,dotcolour,dotcolour,xotask,51,4,291,591,main,negativefb,-99,hard,39,1.067947899999126,['c'],0,right,['3'],4,0.2746000000006461,,,22,19,Vrouw,Rechts,1,
,dotcolour,dotcolour,xotask,52,4,292,592,main,negativefb,-99,hard,38,0.834708700000192,['n'],1,right,['3'],4,0.23135949999959848,,,22,19,Vrouw,Rechts,1,
,dotcolour,dotcolour,xotask,53,4,293,593,main,negativefb,-99,hard,42,1.1516841000011482,['n'],0,left,['3'],4,0.3043083000011393,,,22,19,Vrouw,Rechts,1,
,dotcolour,dotcolour,xotask,54,4,294,594,main,negativefb,-99,hard,35,1.117234899998948,['c'],0,right,['3'],4,0.7526491000007809,,,22,19,Vrouw,Rechts,1,
,dotcolour,dotcolour,xotask,55,4,295,595,main,negativefb,-99,average,27,0.650278499999331,['n'],1,right,['3'],4,0.29739040000094974,,,22,19,Vrouw,Rechts,1,
,dotcolour,dotcolour,xotask,56,4,296,596,main,negativefb,-99,easy,19,0.6509408000001713,['n'],1,right,['2'],5,0.30839259999993374,,,22,19,Vrouw,Rechts,1,
,dotcolour,dotcolour,xotask,57,4,297,597,main,negativefb,-99,hard,44,0.8339568000010331,['c'],1,left,['3'],4,0.23248659999990196,,,22,19,Vrouw,Rechts,1,
,dotcolour,dotcolour,xotask,58,4,298,598,main,negativefb,-99,easy,61,0.53482140000051,['c'],1,left,['2'],5,0.34542250000049535,,,22,19,Vrouw,Rechts,1,
,dotcolour,dotcolour,xotask,59,4,299,599,main,negativefb,-99,average,53,0.5010301000002073,['c'],1,left,['2'],5,0.27320789999976114,,,22,19,Vrouw,Rechts,1,
,dotcolour,dotcolour,xotask,0,0,0,600,training,negativefb,86,average,28,0.9341997999999876,['n'],1,right,['2'],5,0.6361321999993379,,,22,19,Vrouw,Rechts,1,
,dotcolour,dotcolour,xotask,1,0,1,601,training,negativefb,54,hard,39,0.6842944999989413,['n'],1,right,['3'],4,0.24754880000000412,,,22,19,Vrouw,Rechts,1,
,dotcolour,dotcolour,xotask,2,0,2,602,training,negativefb,47,average,51,0.516948799999227,['c'],1,left,['3'],4,0.27368189999833703,,,22,19,Vrouw,Rechts,1,
,dotcolour,dotcolour,xotask,3,0,3,603,training,negativefb,71,average,25,0.5665807000004861,['n'],1,right,['2'],5,0.2720860999997967,,,22,19,Vrouw,Rechts,1,
,dotcolour,dotcolour,xotask,4,0,4,604,training,negativefb,93,average,27,0.4829651999989437,['n'],1,right,['2'],5,0.28221359999952256,,,22,19,Vrouw,Rechts,1,
,dotcolour,dotcolour,xotask,5,0,5,605,training,negativefb,32,easy,19,0.3997421999993094,['n'],1,right,['2'],5,0.3269060000002355,,,22,19,Vrouw,Rechts,1,
,dotcolour,dotcolour,xotask,6,0,6,606,training,negativefb,69,hard,37,1.699818299999606,['n'],1,right,['8'],3,0.1734932999988814,,,22,19,Vrouw,Rechts,1,
,dotcolour,dotcolour,xotask,7,0,7,607,training,negativefb,57,hard,42,1.7509770000015124,['c'],1,left,['8'],3,0.16211660000044503,,,22,19,Vrouw,Rechts,1,
,dotcolour,dotcolour,xotask,8,0,8,608,training,negativefb,37,hard,39,1.0002879000003304,['n'],1,right,['3'],4,0.1794926000002306,,,22,19,Vrouw,Rechts,1,
,dotcolour,dotcolour,xotask,9,0,9,609,training,negativefb,78,easy,18,0.5998583000000508,['n'],1,right,['2'],5,0.2692655000009836,,,22,19,Vrouw,Rechts,1,
,dotcolour,dotcolour,xotask,10,0,10,610,training,negativefb,37,hard,35,0.8501087999993615,['n'],1,right,['3'],4,0.2803196000004391,,,22,19,Vrouw,Rechts,1,
,dotcolour,dotcolour,xotask,11,0,11,611,training,negativefb,54,easy,19,0.5833676000002015,['n'],1,right,['3'],4,0.19851700000072015,,,22,19,Vrouw,Rechts,1,
,dotcolour,dotcolour,xotask,12,0,12,612,training,negativefb,66,easy,62,0.8164003000001685,['c'],1,left,['2'],5,0.32585570000082953,,,22,19,Vrouw,Rechts,1,
,dotcolour,dotcolour,xotask,13,0,13,613,training,negativefb,80,average,54,0.4998666999999841,['c'],1,left,['2'],5,0.2604301999999734,,,22,19,Vrouw,Rechts,1,
,dotcolour,dotcolour,xotask,14,0,14,614,training,negativefb,56,hard,39,0.7168490000003658,['n'],1,right,['2'],5,0.2696410000007745,,,22,19,Vrouw,Rechts,1,
,dotcolour,dotcolour,xotask,15,0,15,615,training,negativefb,88,easy,16,0.45063309999932244,['n'],1,right,['2'],5,0.27311620000000403,,,22,19,Vrouw,Rechts,1,
,dotcolour,dotcolour,xotask,16,0,16,616,training,negativefb,73,easy,64,0.7168242000007012,['c'],1,left,['1'],6,0.29850729999998293,,,22,19,Vrouw,Rechts,1,
,dotcolour,dotcolour,xotask,17,0,17,617,training,negativefb,47,hard,43,0.899595800001407,['n'],0,left,['3'],4,0.40993969999908586,,,22,19,Vrouw,Rechts,1,
,dotcolour,dotcolour,xotask,18,0,18,618,training,negativefb,77,average,52,0.6342512999999599,['c'],1,left,['3'],4,0.23314079999909154,,,22,19,Vrouw,Rechts,1,
,dotcolour,dotcolour,xotask,19,0,19,619,training,negativefb,68,easy,63,0.43350159999863536,['c'],1,left,['2'],5,0.3177507999989757,,,22,19,Vrouw,Rechts,1,
,dotcolour,dotcolour,xotask,20,0,20,620,training,negativefb,79,hard,43,0.6339263000008941,['n'],0,left,['3'],4,0.3519286999999167,,,22,19,Vrouw,Rechts,1,
,dotcolour,dotcolour,xotask,21,0,21,621,training,negativefb,39,average,55,0.5335696999991342,['c'],1,left,['3'],4,0.2686317000006966,,,22,19,Vrouw,Rechts,1,
,dotcolour,dotcolour,xotask,22,0,22,622,training,negativefb,90,easy,64,0.5672663999994256,['c'],1,left,['2'],5,1.0270221999999194,,,22,19,Vrouw,Rechts,1,
,dotcolour,dotcolour,xotask,23,0,23,623,training,negativefb,36,easy,64,0.5663014000001567,['c'],1,left,['3'],4,0.29184859999986656,,,22,19,Vrouw,Rechts,1,
,dotcolour,dotcolour,xotask,24,0,24,624,training,negativefb,41,average,25,0.600591300000815,['n'],1,right,['3'],4,0.2961911999991571,,,22,19,Vrouw,Rechts,1,
,dotcolour,dotcolour,xotask,25,0,25,625,training,negativefb,54,hard,36,0.5829248000009102,['n'],1,right,['2'],5,0.21394019999934244,,,22,19,Vrouw,Rechts,1,
,dotcolour,dotcolour,xotask,26,0,26,626,training,negativefb,82,average,52,0.6334827000009682,['c'],1,left,['2'],5,0.2610640000002604,,,22,19,Vrouw,Rechts,1,
,dotcolour,dotcolour,xotask,27,0,27,627,training,negativefb,85,average,25,0.5166967000004661,['n'],1,right,['2'],5,0.3187811000007059,,,22,19,Vrouw,Rechts,1,
,dotcolour,dotcolour,xotask,28,0,28,628,training,negativefb,65,average,53,0.98347190000095,['c'],1,left,['3'],4,0.25834450000002107,,,22,19,Vrouw,Rechts,1,
,dotcolour,dotcolour,xotask,29,0,29,629,training,negativefb,80,hard,39,0.6169477000003099,['n'],1,right,['3'],4,0.3272995000006631,,,22,19,Vrouw,Rechts,1,
,dotcolour,dotcolour,xotask,30,0,30,630,training,negativefb,58,hard,45,0.999794600000314,['c'],1,left,['3'],4,0.290735799999311,,,22,19,Vrouw,Rechts,1,
,dotcolour,dotcolour,xotask,31,0,31,631,training,negativefb,68,easy,15,0.6336058999986562,['n'],1,right,['2'],5,0.2780579999998736,,,22,19,Vrouw,Rechts,1,
,dotcolour,dotcolour,xotask,32,0,32,632,training,negativefb,67,hard,44,1.166612700000769,['n'],0,left,['3'],4,0.23668929999985266,,,22,19,Vrouw,Rechts,1,
,dotcolour,dotcolour,xotask,33,0,33,633,training,negativefb,83,easy,61,0.7176476999993611,['c'],1,left,['2'],5,0.2146348999995098,,,22,19,Vrouw,Rechts,1,
,dotcolour,dotcolour,xotask,34,0,34,634,training,negativefb,80,easy,16,0.6337767000004533,['n'],1,right,['2'],5,0.2855541999997513,,,22,19,Vrouw,Rechts,1,
,dotcolour,dotcolour,xotask,35,0,35,635,training,negativefb,87,average,54,0.8003054999990127,['c'],1,left,['3'],4,0.2975753999999142,,,22,19,Vrouw,Rechts,1,
,dotcolour,dotcolour,xotask,36,0,36,636,training,negativefb,69,average,25,0.6837140999996336,['n'],1,right,['2'],5,0.4660033000000112,,,22,19,Vrouw,Rechts,1,
,dotcolour,dotcolour,xotask,37,0,37,637,training,negativefb,41,hard,44,0.8839014000004681,['n'],0,left,['3'],4,0.2195123000001331,,,22,19,Vrouw,Rechts,1,
,dotcolour,dotcolour,xotask,38,0,38,638,training,negativefb,45,average,51,0.6001235999992787,['c'],1,left,['3'],4,0.2919529999999213,,,22,19,Vrouw,Rechts,1,
,dotcolour,dotcolour,xotask,39,0,39,639,training,negativefb,81,average,26,0.5666295000009995,['n'],1,right,['2'],5,0.2653798999999708,,,22,19,Vrouw,Rechts,1,
,dotcolour,dotcolour,xotask,40,0,40,640,training,negativefb,88,hard,41,0.8172446000007767,['n'],0,left,['3'],4,0.3425826999991841,,,22,19,Vrouw,Rechts,1,
,dotcolour,dotcolour,xotask,41,0,41,641,training,negativefb,47,average,52,0.6676595999997517,['c'],1,left,['3'],4,0.24579830000038783,,,22,19,Vrouw,Rechts,1,
,dotcolour,dotcolour,xotask,42,0,42,642,training,negativefb,29,hard,35,0.7002796000015223,['c'],0,right,['0'],1,1.0248353999995743,,,22,19,Vrouw,Rechts,1,
,dotcolour,dotcolour,xotask,43,0,43,643,training,negativefb,95,easy,18,0.9327763999990566,['n'],1,right,['2'],5,0.5145042000003741,,,22,19,Vrouw,Rechts,1,
,dotcolour,dotcolour,xotask,44,0,44,644,training,negativefb,70,easy,64,0.5845167999996193,['c'],1,left,['2'],5,0.2625262000001385,,,22,19,Vrouw,Rechts,1,
,dotcolour,dotcolour,xotask,45,0,45,645,training,negativefb,91,easy,15,0.6503087999990385,['n'],1,right,['2'],5,0.635170300000027,,,22,19,Vrouw,Rechts,1,
,dotcolour,dotcolour,xotask,46,0,46,646,training,negativefb,37,hard,36,1.9163805000007414,['n'],1,right,['2'],5,0.6123267999992095,,,22,19,Vrouw,Rechts,1,
,dotcolour,dotcolour,xotask,47,0,47,647,training,negativefb,44,hard,42,0.7331180999990465,['c'],1,left,['3'],4,0.255297799998516,,,22,19,Vrouw,Rechts,1,
,dotcolour,dotcolour,xotask,48,0,48,648,training,negativefb,71,easy,65,0.6004568000007566,['c'],1,left,['2'],5,0.2692903999995906,,,22,19,Vrouw,Rechts,1,
,dotcolour,dotcolour,xotask,49,0,49,649,training,negativefb,48,average,29,0.5333465000003343,['n'],1,right,['2'],5,0.2541655000004539,,,22,19,Vrouw,Rechts,1,
