starttime,task,fbtask,firsttask,withinblocktrial,block,withintasktrial,trial,running,feedback,fbscore,difflevel,reddots,rt,resp,cor,cresp,conf_press,cj,RTconf,n_xes,stoptime,sub,age,gender,handedness,session,
1715070816,dotcolour,dotcolour,dotcolour,0,0,0,0,training,negativefb,100,easy,64,6.08442940000009,['c'],1,left,['3'],4,18.277156200000036,,,23,18,Man,Rechts,1,
,dotcolour,dotcolour,dotcolour,1,0,1,1,training,negativefb,83,hard,39,3.684440999999879,['n'],1,right,['3'],4,1.793869500000028,,,23,18,Man,Rechts,1,
,dotcolour,dotcolour,dotcolour,2,0,2,2,training,negativefb,95,easy,16,1.599054100000103,['n'],1,right,['1'],6,2.9936724000001504,,,23,18,Man,Rechts,1,
,dotcolour,dotcolour,dotcolour,3,0,3,3,training,negativefb,75,easy,65,2.0173227000000225,['c'],1,left,['1'],6,0.6890340999998443,,,23,18,Man,Rechts,1,
,dotcolour,dotcolour,dotcolour,4,0,4,4,training,negativefb,88,hard,43,4.901203800000076,['c'],1,left,['3'],4,1.7462961000001087,,,23,18,Man,Rechts,1,
,dotcolour,dotcolour,dotcolour,5,0,5,5,training,negativefb,98,easy,17,0.8331057000000328,['n'],1,right,['1'],6,2.409874299999956,,,23,18,Man,Rechts,1,
,dotcolour,dotcolour,dotcolour,6,0,6,6,training,negativefb,82,easy,64,0.8171267000000171,['c'],1,left,['1'],6,0.6010592000000088,,,23,18,Man,Rechts,1,
,dotcolour,dotcolour,dotcolour,7,0,7,7,training,negativefb,61,average,51,2.6514629000000696,['c'],1,left,['2'],5,0.7431848999999602,,,23,18,Man,Rechts,1,
,dotcolour,dotcolour,dotcolour,8,0,8,8,training,negativefb,74,average,51,2.0836240000001,['c'],1,left,['2'],5,1.1665975999999318,,,23,18,Man,Rechts,1,
,dotcolour,dotcolour,dotcolour,9,0,9,9,training,negativefb,90,average,55,1.0662202999999408,['c'],1,left,['1'],6,0.3409990000000107,,,23,18,Man,Rechts,1,
,dotcolour,dotcolour,dotcolour,10,0,10,10,training,negativefb,85,easy,61,0.832465799999909,['c'],1,left,['1'],6,0.3182595999999194,,,23,18,Man,Rechts,1,
,dotcolour,dotcolour,dotcolour,11,0,11,11,training,negativefb,60,hard,41,2.3507225000000744,['c'],1,left,['1'],6,0.5239152999999988,,,23,18,Man,Rechts,1,
,dotcolour,dotcolour,dotcolour,12,0,12,12,training,negativefb,35,average,29,1.0174713000001248,['n'],1,right,['1'],6,0.3500223000000915,,,23,18,Man,Rechts,1,
,dotcolour,dotcolour,dotcolour,13,0,13,13,training,negativefb,79,hard,45,2.0336328999999296,['c'],1,left,['2'],5,0.9425344999999652,,,23,18,Man,Rechts,1,
,dotcolour,dotcolour,dotcolour,14,0,14,14,training,negativefb,93,easy,65,0.9664697000000615,['c'],1,left,['1'],6,0.3700487000000976,,,23,18,Man,Rechts,1,
,dotcolour,dotcolour,dotcolour,15,0,15,15,training,negativefb,53,easy,64,0.8000294999999369,['c'],1,left,['1'],6,0.23598159999983181,,,23,18,Man,Rechts,1,
,dotcolour,dotcolour,dotcolour,16,0,16,16,training,negativefb,51,average,52,1.1846803999999338,['c'],1,left,['1'],6,0.22733119999998053,,,23,18,Man,Rechts,1,
,dotcolour,dotcolour,dotcolour,17,0,17,17,training,negativefb,70,average,28,0.9682568000000629,['n'],1,right,['1'],6,0.38835470000003625,,,23,18,Man,Rechts,1,
,dotcolour,dotcolour,dotcolour,18,0,18,18,training,negativefb,54,easy,16,0.7001557999999477,['n'],1,right,['1'],6,0.2810234999999466,,,23,18,Man,Rechts,1,
,dotcolour,dotcolour,dotcolour,19,0,19,19,training,negativefb,71,hard,35,2.132823599999938,['n'],1,right,['2'],5,1.3844242999998642,,,23,18,Man,Rechts,1,
,dotcolour,dotcolour,dotcolour,20,0,20,20,training,negativefb,54,hard,37,2.5334035999999287,['n'],1,right,['2'],5,0.5559405999999854,,,23,18,Man,Rechts,1,
,dotcolour,dotcolour,dotcolour,21,0,21,21,training,negativefb,66,hard,35,2.1501360000002023,['n'],1,right,['2'],5,0.7042622999999821,,,23,18,Man,Rechts,1,
,dotcolour,dotcolour,dotcolour,22,0,22,22,training,negativefb,74,hard,43,1.1831114999999954,['c'],1,left,['2'],5,0.7571574000000965,,,23,18,Man,Rechts,1,
,dotcolour,dotcolour,dotcolour,23,0,23,23,training,negativefb,68,hard,43,3.2666936000000533,['c'],1,left,['2'],5,0.9641159000000243,,,23,18,Man,Rechts,1,
,dotcolour,dotcolour,dotcolour,24,0,24,24,training,negativefb,83,easy,18,0.7502420999999231,['n'],1,right,['1'],6,0.28023979999989024,,,23,18,Man,Rechts,1,
,dotcolour,dotcolour,dotcolour,25,0,25,25,training,negativefb,56,hard,41,4.016467499999862,['c'],1,left,['2'],5,0.44456029999992097,,,23,18,Man,Rechts,1,
,dotcolour,dotcolour,dotcolour,26,0,26,26,training,negativefb,60,hard,43,1.367124399999966,['c'],1,left,['1'],6,0.20500750000019252,,,23,18,Man,Rechts,1,
,dotcolour,dotcolour,dotcolour,27,0,27,27,training,negativefb,69,average,53,1.3345432999999502,['c'],1,left,['2'],5,0.21543999999994412,,,23,18,Man,Rechts,1,
,dotcolour,dotcolour,dotcolour,28,0,28,28,training,negativefb,55,average,51,1.3672130999998444,['c'],1,left,['2'],5,0.13603220000004512,,,23,18,Man,Rechts,1,
,dotcolour,dotcolour,dotcolour,29,0,29,29,training,negativefb,94,average,26,0.9829032000000097,['n'],1,right,['1'],6,0.7394618000000719,,,23,18,Man,Rechts,1,
,dotcolour,dotcolour,dotcolour,30,0,30,30,training,negativefb,13,hard,36,2.099992899999961,['c'],0,right,['2'],5,1.7703996000000188,,,23,18,Man,Rechts,1,
,dotcolour,dotcolour,dotcolour,31,0,31,31,training,negativefb,82,hard,39,2.2338229000001775,['n'],1,right,['3'],4,2.7693678000000546,,,23,18,Man,Rechts,1,
,dotcolour,dotcolour,dotcolour,32,0,32,32,training,negativefb,71,average,28,0.667522100000042,['n'],1,right,['1'],6,0.18381700000009005,,,23,18,Man,Rechts,1,
,dotcolour,dotcolour,dotcolour,33,0,33,33,training,negativefb,11,easy,19,2.317552100000057,['c'],0,right,['0'],1,3.179990000000089,,,23,18,Man,Rechts,1,
,dotcolour,dotcolour,dotcolour,34,0,34,34,training,negativefb,59,average,29,1.516717700000072,['n'],1,right,['2'],5,0.807875999999851,,,23,18,Man,Rechts,1,
,dotcolour,dotcolour,dotcolour,35,0,35,35,training,negativefb,87,average,54,0.8998194999999214,['c'],1,left,['2'],5,0.3395454999999856,,,23,18,Man,Rechts,1,
,dotcolour,dotcolour,dotcolour,36,0,36,36,training,negativefb,76,average,51,1.2672939000001406,['c'],1,left,['1'],6,0.1881257000000005,,,23,18,Man,Rechts,1,
,dotcolour,dotcolour,dotcolour,37,0,37,37,training,negativefb,67,easy,65,1.317579300000034,['c'],1,left,['1'],6,0.1752784000000247,,,23,18,Man,Rechts,1,
,dotcolour,dotcolour,dotcolour,38,0,38,38,training,negativefb,74,average,54,1.2998531999999159,['c'],1,left,['1'],6,0.17357129999982135,,,23,18,Man,Rechts,1,
,dotcolour,dotcolour,dotcolour,39,0,39,39,training,negativefb,61,easy,62,0.73385159999998,['c'],1,left,['1'],6,0.1934268999998494,,,23,18,Man,Rechts,1,
,dotcolour,dotcolour,dotcolour,40,0,40,40,training,negativefb,62,easy,16,0.6829293999999209,['n'],1,right,['1'],6,0.23095009999997274,,,23,18,Man,Rechts,1,
,dotcolour,dotcolour,dotcolour,41,0,41,41,training,negativefb,55,average,28,1.1502473999998983,['n'],1,right,['1'],6,0.2956325000000106,,,23,18,Man,Rechts,1,
,dotcolour,dotcolour,dotcolour,42,0,42,42,training,negativefb,88,easy,63,0.7995613000002777,['c'],1,left,['1'],6,0.2439159999998992,,,23,18,Man,Rechts,1,
,dotcolour,dotcolour,dotcolour,43,0,43,43,training,negativefb,69,easy,15,0.6510690000000068,['n'],1,right,['1'],6,0.21752959999957966,,,23,18,Man,Rechts,1,
,dotcolour,dotcolour,dotcolour,44,0,44,44,training,negativefb,74,hard,38,1.6333012000000053,['n'],1,right,['2'],5,0.5116248999997879,,,23,18,Man,Rechts,1,
,dotcolour,dotcolour,dotcolour,45,0,45,45,training,negativefb,42,easy,62,0.6505858000000444,['c'],1,left,['1'],6,0.3689942000000883,,,23,18,Man,Rechts,1,
,dotcolour,dotcolour,dotcolour,46,0,46,46,training,negativefb,47,average,28,0.6661025000003065,['n'],1,right,['1'],6,0.19223760000022594,,,23,18,Man,Rechts,1,
,dotcolour,dotcolour,dotcolour,47,0,47,47,training,negativefb,87,hard,43,1.1166064000003644,['c'],1,left,['2'],5,3.267809500000112,,,23,18,Man,Rechts,1,
,dotcolour,dotcolour,dotcolour,48,0,48,48,training,negativefb,65,easy,17,0.5847272000000885,['n'],1,right,['2'],5,0.32120690000010654,,,23,18,Man,Rechts,1,
,dotcolour,dotcolour,dotcolour,49,0,49,49,training,negativefb,39,hard,44,1.299989000000096,['c'],1,left,['2'],5,0.5679835999999341,,,23,18,Man,Rechts,1,
,dotcolour,dotcolour,dotcolour,50,0,50,50,training,negativefb,52,average,25,0.7498203000000103,['n'],1,right,['1'],6,0.3807041999998546,,,23,18,Man,Rechts,1,
,dotcolour,dotcolour,dotcolour,51,0,51,51,training,negativefb,81,hard,38,2.0493522000001576,['n'],1,right,['2'],5,0.8518064999998387,,,23,18,Man,Rechts,1,
,dotcolour,dotcolour,dotcolour,52,0,52,52,training,negativefb,66,hard,45,3.8663690000003044,['c'],1,left,['2'],5,2.526230499999656,,,23,18,Man,Rechts,1,
,dotcolour,dotcolour,dotcolour,53,0,53,53,training,negativefb,37,average,28,0.7334344000000783,['n'],1,right,['2'],5,0.22808789999999135,,,23,18,Man,Rechts,1,
,dotcolour,dotcolour,dotcolour,54,0,54,54,training,negativefb,62,hard,36,0.9666231999999582,['n'],1,right,['1'],6,0.23662800000010975,,,23,18,Man,Rechts,1,
,dotcolour,dotcolour,dotcolour,55,0,55,55,training,negativefb,82,hard,39,1.9005695000000742,['n'],1,right,['3'],4,2.015236200000345,,,23,18,Man,Rechts,1,
,dotcolour,dotcolour,dotcolour,56,0,56,56,training,negativefb,72,average,27,0.7170335999999224,['n'],1,right,['1'],6,0.1610611000000972,,,23,18,Man,Rechts,1,
,dotcolour,dotcolour,dotcolour,57,0,57,57,training,negativefb,75,average,51,0.6993669000003138,['c'],1,left,['1'],6,0.15947830000004615,,,23,18,Man,Rechts,1,
,dotcolour,dotcolour,dotcolour,58,0,58,58,training,negativefb,69,easy,17,0.6672539000001052,['n'],1,right,['1'],6,0.11058289999982662,,,23,18,Man,Rechts,1,
,dotcolour,dotcolour,dotcolour,59,0,59,59,training,negativefb,41,easy,19,0.5508261999998467,['n'],1,right,['1'],6,0.16455050000013216,,,23,18,Man,Rechts,1,
,dotcolour,dotcolour,dotcolour,0,1,60,60,training,negativefb,50,easy,65,2.000153599999976,['c'],1,left,['1'],6,0.22620269999970333,,,23,18,Man,Rechts,1,
,dotcolour,dotcolour,dotcolour,1,1,61,61,training,negativefb,71,average,53,0.8336285000000316,['c'],1,left,['1'],6,0.16053980000015144,,,23,18,Man,Rechts,1,
,dotcolour,dotcolour,dotcolour,2,1,62,62,training,negativefb,23,easy,18,0.599878500000159,['n'],1,right,['1'],6,0.2741892000003645,,,23,18,Man,Rechts,1,
,dotcolour,dotcolour,dotcolour,3,1,63,63,training,negativefb,84,easy,64,0.9174235000000408,['c'],1,left,['1'],6,0.0985936999995829,,,23,18,Man,Rechts,1,
,dotcolour,dotcolour,dotcolour,4,1,64,64,training,negativefb,77,easy,62,0.6338915999999699,['c'],1,left,['1'],6,0.1415596000001642,,,23,18,Man,Rechts,1,
,dotcolour,dotcolour,dotcolour,5,1,65,65,training,negativefb,67,average,25,0.5847432999999,['n'],1,right,['1'],6,0.12876950000008947,,,23,18,Man,Rechts,1,
,dotcolour,dotcolour,dotcolour,6,1,66,66,training,negativefb,89,easy,18,0.5346858999996584,['n'],1,right,['1'],6,0.1902924000000894,,,23,18,Man,Rechts,1,
,dotcolour,dotcolour,dotcolour,7,1,67,67,training,negativefb,60,easy,64,0.6004950999999892,['c'],1,left,['1'],6,0.17568559999972422,,,23,18,Man,Rechts,1,
,dotcolour,dotcolour,dotcolour,8,1,68,68,training,negativefb,82,hard,37,0.8335351000000628,['n'],1,right,['2'],5,1.8397233999999116,,,23,18,Man,Rechts,1,
,dotcolour,dotcolour,dotcolour,9,1,69,69,training,negativefb,73,average,55,1.0012492000000748,['c'],1,left,['2'],5,0.5734809000000496,,,23,18,Man,Rechts,1,
,dotcolour,dotcolour,dotcolour,10,1,70,70,training,negativefb,78,hard,37,0.7838713000001007,['n'],1,right,['2'],5,0.6230061999999634,,,23,18,Man,Rechts,1,
,dotcolour,dotcolour,dotcolour,11,1,71,71,training,negativefb,86,hard,39,0.7667967000002136,['n'],1,right,['1'],6,0.8001597000002221,,,23,18,Man,Rechts,1,
,dotcolour,dotcolour,dotcolour,12,1,72,72,training,negativefb,63,hard,36,1.2507680000003347,['n'],1,right,['2'],5,0.1500026000003345,,,23,18,Man,Rechts,1,
,dotcolour,dotcolour,dotcolour,13,1,73,73,training,negativefb,81,average,29,0.7168865999997251,['n'],1,right,['1'],6,0.21151499999996304,,,23,18,Man,Rechts,1,
,dotcolour,dotcolour,dotcolour,14,1,74,74,training,negativefb,73,average,25,0.700255599999764,['n'],1,right,['1'],6,0.23956399999997302,,,23,18,Man,Rechts,1,
,dotcolour,dotcolour,dotcolour,15,1,75,75,training,negativefb,74,easy,64,1.065968399999747,['c'],1,left,['1'],6,0.1956571000000622,,,23,18,Man,Rechts,1,
,dotcolour,dotcolour,dotcolour,16,1,76,76,training,negativefb,66,hard,43,2.433002000000215,['c'],1,left,['2'],5,0.19506520000004457,,,23,18,Man,Rechts,1,
,dotcolour,dotcolour,dotcolour,17,1,77,77,training,negativefb,90,easy,15,0.6332016999999723,['n'],1,right,['1'],6,0.19468349999988277,,,23,18,Man,Rechts,1,
,dotcolour,dotcolour,dotcolour,18,1,78,78,training,negativefb,64,hard,45,0.8171947999999247,['c'],1,left,['1'],6,0.2022930000002816,,,23,18,Man,Rechts,1,
,dotcolour,dotcolour,dotcolour,19,1,79,79,training,negativefb,79,average,52,0.6837090999997599,['c'],1,left,['1'],6,0.11919739999984813,,,23,18,Man,Rechts,1,
,dotcolour,dotcolour,dotcolour,20,1,80,80,training,negativefb,86,easy,61,0.7170384999999442,['c'],1,left,['1'],6,0.11723739999979443,,,23,18,Man,Rechts,1,
,dotcolour,dotcolour,dotcolour,21,1,81,81,training,negativefb,92,average,27,0.6497522999998182,['n'],1,right,['1'],6,0.10294939999994313,,,23,18,Man,Rechts,1,
,dotcolour,dotcolour,dotcolour,22,1,82,82,training,negativefb,72,easy,19,0.5336591000000226,['n'],1,right,['1'],6,0.10128439999971306,,,23,18,Man,Rechts,1,
,dotcolour,dotcolour,dotcolour,23,1,83,83,training,negativefb,60,hard,38,1.5676856999998563,['n'],1,right,['2'],5,0.34673109999994267,,,23,18,Man,Rechts,1,
,dotcolour,dotcolour,dotcolour,24,1,84,84,training,negativefb,62,hard,43,2.850332900000012,['c'],1,left,['2'],5,0.09148599999980433,,,23,18,Man,Rechts,1,
,dotcolour,dotcolour,dotcolour,25,1,85,85,training,negativefb,56,hard,39,1.000250899999628,['n'],1,right,['2'],5,0.272372599999926,,,23,18,Man,Rechts,1,
,dotcolour,dotcolour,dotcolour,26,1,86,86,training,negativefb,32,hard,43,1.3173736999997345,['n'],0,left,['2'],5,0.8492856000002575,,,23,18,Man,Rechts,1,
,dotcolour,dotcolour,dotcolour,27,1,87,87,training,negativefb,56,average,27,0.8669432000001507,['n'],1,right,['1'],6,0.13989340000034645,,,23,18,Man,Rechts,1,
,dotcolour,dotcolour,dotcolour,28,1,88,88,training,negativefb,74,easy,65,0.5850660999999491,['c'],1,left,['1'],6,0.08750469999995403,,,23,18,Man,Rechts,1,
,dotcolour,dotcolour,dotcolour,29,1,89,89,training,negativefb,55,easy,16,0.5499718999999459,['n'],1,right,['1'],6,0.16639600000007704,,,23,18,Man,Rechts,1,
,dotcolour,dotcolour,dotcolour,30,1,90,90,training,negativefb,73,average,29,1.2489313999999467,['n'],1,right,['1'],6,0.11766110000007757,,,23,18,Man,Rechts,1,
,dotcolour,dotcolour,dotcolour,31,1,91,91,training,negativefb,50,easy,61,0.6502120999998624,['c'],1,left,['1'],6,0.0792249000000993,,,23,18,Man,Rechts,1,
,dotcolour,dotcolour,dotcolour,32,1,92,92,training,negativefb,54,hard,39,1.166964999999891,['n'],1,right,['1'],6,0.4064472999998543,,,23,18,Man,Rechts,1,
,dotcolour,dotcolour,dotcolour,33,1,93,93,training,negativefb,60,average,53,0.6662937000000966,['c'],1,left,['1'],6,0.10734169999977894,,,23,18,Man,Rechts,1,
,dotcolour,dotcolour,dotcolour,34,1,94,94,training,negativefb,49,easy,17,0.6324829000000136,['n'],1,right,['1'],6,0.11721179999995002,,,23,18,Man,Rechts,1,
,dotcolour,dotcolour,dotcolour,35,1,95,95,training,negativefb,90,easy,18,0.5670264000000316,['n'],1,right,['1'],6,0.12264559999994162,,,23,18,Man,Rechts,1,
,dotcolour,dotcolour,dotcolour,36,1,96,96,training,negativefb,75,average,25,0.516743900000165,['n'],1,right,['1'],6,0.13698629999998957,,,23,18,Man,Rechts,1,
,dotcolour,dotcolour,dotcolour,37,1,97,97,training,negativefb,61,hard,41,0.7338197999997647,['c'],1,left,['2'],5,0.7985600000001796,,,23,18,Man,Rechts,1,
,dotcolour,dotcolour,dotcolour,38,1,98,98,training,negativefb,64,hard,44,1.4496091999999408,['c'],1,left,['2'],5,0.0759594000001016,,,23,18,Man,Rechts,1,
,dotcolour,dotcolour,dotcolour,39,1,99,99,training,negativefb,64,hard,38,1.1347557999997662,['n'],1,right,['2'],5,0.10794930000020031,,,23,18,Man,Rechts,1,
,dotcolour,dotcolour,dotcolour,40,1,100,100,training,negativefb,47,average,29,0.6499198000001343,['n'],1,right,['2'],5,0.13404859999991459,,,23,18,Man,Rechts,1,
,dotcolour,dotcolour,dotcolour,41,1,101,101,training,negativefb,75,hard,35,1.2004328999996687,['n'],1,right,['1'],6,0.22493600000007063,,,23,18,Man,Rechts,1,
,dotcolour,dotcolour,dotcolour,42,1,102,102,training,negativefb,11,hard,42,1.0838364999999612,['n'],0,left,['2'],5,1.8691672999998445,,,23,18,Man,Rechts,1,
,dotcolour,dotcolour,dotcolour,43,1,103,103,training,negativefb,55,average,54,1.3500090000002274,['c'],1,left,['1'],6,0.5803178999999545,,,23,18,Man,Rechts,1,
,dotcolour,dotcolour,dotcolour,44,1,104,104,training,negativefb,48,hard,38,3.517550399999891,['c'],0,right,['2'],5,0.5279577999999674,,,23,18,Man,Rechts,1,
,dotcolour,dotcolour,dotcolour,45,1,105,105,training,negativefb,57,average,55,1.3662742999999864,['c'],1,left,['1'],6,0.2935226999998122,,,23,18,Man,Rechts,1,
,dotcolour,dotcolour,dotcolour,46,1,106,106,training,negativefb,68,easy,63,0.8498695999996926,['c'],1,left,['1'],6,0.17569140000023253,,,23,18,Man,Rechts,1,
,dotcolour,dotcolour,dotcolour,47,1,107,107,training,negativefb,30,average,55,0.9166692999997395,['c'],1,left,['1'],6,0.08388219999960711,,,23,18,Man,Rechts,1,
,dotcolour,dotcolour,dotcolour,48,1,108,108,training,negativefb,90,easy,18,0.5847297999998773,['n'],1,right,['1'],6,0.12979009999980917,,,23,18,Man,Rechts,1,
,dotcolour,dotcolour,dotcolour,49,1,109,109,training,negativefb,50,hard,41,1.8670059999999467,['c'],1,left,['2'],5,0.08268730000008873,,,23,18,Man,Rechts,1,
,dotcolour,dotcolour,dotcolour,50,1,110,110,training,negativefb,89,easy,16,0.8172636999997849,['n'],1,right,['1'],6,0.2625762000002396,,,23,18,Man,Rechts,1,
,dotcolour,dotcolour,dotcolour,51,1,111,111,training,negativefb,38,hard,43,0.9339316000000508,['c'],1,left,['1'],6,0.0709697000002052,,,23,18,Man,Rechts,1,
,dotcolour,dotcolour,dotcolour,52,1,112,112,training,negativefb,42,easy,15,0.5827159000000393,['n'],1,right,['1'],6,0.11730830000033166,,,23,18,Man,Rechts,1,
,dotcolour,dotcolour,dotcolour,53,1,113,113,training,negativefb,80,average,28,1.1841223000001264,['n'],1,right,['1'],6,0.2890957999998136,,,23,18,Man,Rechts,1,
,dotcolour,dotcolour,dotcolour,54,1,114,114,training,negativefb,58,average,51,1.3503413000003093,['c'],1,left,['1'],6,0.22353389999989304,,,23,18,Man,Rechts,1,
,dotcolour,dotcolour,dotcolour,55,1,115,115,training,negativefb,71,average,51,0.933780299999853,['c'],1,left,['2'],5,0.17795410000007905,,,23,18,Man,Rechts,1,
,dotcolour,dotcolour,dotcolour,56,1,116,116,training,negativefb,92,average,25,1.3828938999999991,['n'],1,right,['3'],4,1.2999241000002257,,,23,18,Man,Rechts,1,
,dotcolour,dotcolour,dotcolour,57,1,117,117,training,negativefb,74,hard,42,2.733468399999765,['c'],1,left,['3'],4,0.6506693000001178,,,23,18,Man,Rechts,1,
,dotcolour,dotcolour,dotcolour,58,1,118,118,training,negativefb,98,average,54,0.8341012000000774,['c'],1,left,['1'],6,0.7754657000000407,,,23,18,Man,Rechts,1,
,dotcolour,dotcolour,dotcolour,59,1,119,119,training,negativefb,82,easy,61,1.2334516999999323,['c'],1,left,['1'],6,0.20766139999977895,,,23,18,Man,Rechts,1,
,dotcolour,dotcolour,dotcolour,0,2,120,120,main,negativefb,-99,hard,41,3.300211300000228,['c'],1,left,['2'],5,0.17419299999983195,,,23,18,Man,Rechts,1,
,dotcolour,dotcolour,dotcolour,1,2,121,121,main,negativefb,-99,easy,15,0.7507632000001649,['n'],1,right,['1'],6,0.24947599999995873,,,23,18,Man,Rechts,1,
,dotcolour,dotcolour,dotcolour,2,2,122,122,main,negativefb,-99,easy,17,1.2510791999998219,['n'],1,right,['1'],6,0.10204600000042774,,,23,18,Man,Rechts,1,
,dotcolour,dotcolour,dotcolour,3,2,123,123,main,negativefb,-99,hard,39,1.583895400000074,['c'],0,right,['3'],4,1.451576599999953,,,23,18,Man,Rechts,1,
,dotcolour,dotcolour,dotcolour,4,2,124,124,main,negativefb,-99,average,53,0.8674998999999843,['c'],1,left,['1'],6,0.15948680000019522,,,23,18,Man,Rechts,1,
,dotcolour,dotcolour,dotcolour,5,2,125,125,main,negativefb,-99,average,26,0.7346277999999984,['n'],1,right,['1'],6,0.07692610000003697,,,23,18,Man,Rechts,1,
,dotcolour,dotcolour,dotcolour,6,2,126,126,main,negativefb,-99,average,26,0.6841155000001891,['n'],1,right,['1'],6,0.119720099999995,,,23,18,Man,Rechts,1,
,dotcolour,dotcolour,dotcolour,7,2,127,127,main,negativefb,-99,easy,18,0.7679011000000173,['n'],1,right,['1'],6,0.148515899999893,,,23,18,Man,Rechts,1,
,dotcolour,dotcolour,dotcolour,8,2,128,128,main,negativefb,-99,easy,63,0.8343183999995745,['c'],1,left,['1'],6,0.09391110000024128,,,23,18,Man,Rechts,1,
,dotcolour,dotcolour,dotcolour,9,2,129,129,main,negativefb,-99,average,29,0.8012290000001485,['n'],1,right,['1'],6,0.1399069000003692,,,23,18,Man,Rechts,1,
,dotcolour,dotcolour,dotcolour,10,2,130,130,main,negativefb,-99,easy,62,0.7175442000002477,['c'],1,left,['1'],6,0.10626880000017991,,,23,18,Man,Rechts,1,
,dotcolour,dotcolour,dotcolour,11,2,131,131,main,negativefb,-99,hard,36,0.800923000000239,['n'],1,right,['1'],6,0.126658099999986,,,23,18,Man,Rechts,1,
,dotcolour,dotcolour,dotcolour,12,2,132,132,main,negativefb,-99,average,54,0.7997712000001229,['c'],1,left,['1'],6,0.13068210000028557,,,23,18,Man,Rechts,1,
,dotcolour,dotcolour,dotcolour,13,2,133,133,main,negativefb,-99,hard,43,2.3832376000000295,['n'],0,left,['2'],5,0.11096290000023146,,,23,18,Man,Rechts,1,
,dotcolour,dotcolour,dotcolour,14,2,134,134,main,negativefb,-99,easy,18,0.8351923999998689,['n'],1,right,['1'],6,0.11424299999998766,,,23,18,Man,Rechts,1,
,dotcolour,dotcolour,dotcolour,15,2,135,135,main,negativefb,-99,easy,64,0.8007913000001281,['c'],1,left,['1'],6,0.09449679999988803,,,23,18,Man,Rechts,1,
,dotcolour,dotcolour,dotcolour,16,2,136,136,main,negativefb,-99,hard,35,0.6842141000001902,['n'],1,right,['1'],6,0.12787470000012036,,,23,18,Man,Rechts,1,
,dotcolour,dotcolour,dotcolour,17,2,137,137,main,negativefb,-99,hard,36,1.867454600000201,['c'],0,right,['2'],5,0.09711329999981899,,,23,18,Man,Rechts,1,
,dotcolour,dotcolour,dotcolour,18,2,138,138,main,negativefb,-99,average,55,2.2668376999999964,['c'],1,left,['1'],6,0.08397820000027423,,,23,18,Man,Rechts,1,
,dotcolour,dotcolour,dotcolour,19,2,139,139,main,negativefb,-99,average,27,0.73473150000018,['n'],1,right,['1'],6,0.09983130000000529,,,23,18,Man,Rechts,1,
,dotcolour,dotcolour,dotcolour,20,2,140,140,main,negativefb,-99,average,26,0.7008793999998488,['n'],1,right,['1'],6,0.06070380000028308,,,23,18,Man,Rechts,1,
,dotcolour,dotcolour,dotcolour,21,2,141,141,main,negativefb,-99,hard,41,1.400287500000104,['n'],0,left,['2'],5,0.6196593999998186,,,23,18,Man,Rechts,1,
,dotcolour,dotcolour,dotcolour,22,2,142,142,main,negativefb,-99,hard,41,3.3013260000002447,['c'],1,left,['2'],5,0.7196582999999919,,,23,18,Man,Rechts,1,
,dotcolour,dotcolour,dotcolour,23,2,143,143,main,negativefb,-99,average,53,0.6511429000001954,['c'],1,left,['1'],6,0.06606349999992744,,,23,18,Man,Rechts,1,
,dotcolour,dotcolour,dotcolour,24,2,144,144,main,negativefb,-99,hard,42,1.3505576000002293,['c'],1,left,['1'],6,0.010103699999945093,,,23,18,Man,Rechts,1,
,dotcolour,dotcolour,dotcolour,25,2,145,145,main,negativefb,-99,easy,17,0.7006944999998268,['n'],1,right,['1'],6,0.014826500000253873,,,23,18,Man,Rechts,1,
,dotcolour,dotcolour,dotcolour,26,2,146,146,main,negativefb,-99,average,26,1.2347225000003164,['n'],1,right,['1'],6,0.09332670000003418,,,23,18,Man,Rechts,1,
,dotcolour,dotcolour,dotcolour,27,2,147,147,main,negativefb,-99,easy,65,0.66758850000042,['c'],1,left,['1'],6,0.055174300000089715,,,23,18,Man,Rechts,1,
,dotcolour,dotcolour,dotcolour,28,2,148,148,main,negativefb,-99,hard,44,1.650312600000234,['n'],0,left,['2'],5,0.1317586999998639,,,23,18,Man,Rechts,1,
,dotcolour,dotcolour,dotcolour,29,2,149,149,main,negativefb,-99,easy,63,0.834141499999987,['c'],1,left,['1'],6,0.1098759000001337,,,23,18,Man,Rechts,1,
,dotcolour,dotcolour,dotcolour,30,2,150,150,main,negativefb,-99,average,29,0.6681976999998369,['n'],1,right,['1'],6,0.01604200000019773,,,23,18,Man,Rechts,1,
,dotcolour,dotcolour,dotcolour,31,2,151,151,main,negativefb,-99,hard,45,0.8506332000001748,['c'],1,left,['1'],6,0.054384200000185956,,,23,18,Man,Rechts,1,
,dotcolour,dotcolour,dotcolour,32,2,152,152,main,negativefb,-99,hard,44,2.0174839999999676,['c'],1,left,['2'],5,0.07635269999991579,,,23,18,Man,Rechts,1,
,dotcolour,dotcolour,dotcolour,33,2,153,153,main,negativefb,-99,hard,45,1.1184981000001244,['c'],1,left,['2'],5,0.06968389999974534,,,23,18,Man,Rechts,1,
,dotcolour,dotcolour,dotcolour,34,2,154,154,main,negativefb,-99,hard,37,1.750956099999712,['n'],1,right,['2'],5,0.02966310000010708,,,23,18,Man,Rechts,1,
,dotcolour,dotcolour,dotcolour,35,2,155,155,main,negativefb,-99,average,27,0.8507910999996966,['n'],1,right,['2'],5,0.052016699999967386,,,23,18,Man,Rechts,1,
,dotcolour,dotcolour,dotcolour,36,2,156,156,main,negativefb,-99,average,52,1.7668275999999423,['c'],1,left,['2'],5,0.051729100000102335,,,23,18,Man,Rechts,1,
,dotcolour,dotcolour,dotcolour,37,2,157,157,main,negativefb,-99,easy,18,0.6333157999997638,['n'],1,right,['1'],6,0.2006916000000274,,,23,18,Man,Rechts,1,
,dotcolour,dotcolour,dotcolour,38,2,158,158,main,negativefb,-99,easy,64,1.0850859000001947,['n'],0,left,['1'],6,0.046750100000281236,,,23,18,Man,Rechts,1,
,dotcolour,dotcolour,dotcolour,39,2,159,159,main,negativefb,-99,easy,61,2.5675986999999623,['c'],1,left,['1'],6,0.3506459999998697,,,23,18,Man,Rechts,1,
,dotcolour,dotcolour,dotcolour,40,2,160,160,main,negativefb,-99,average,53,3.734041000000161,['c'],1,left,['1'],6,0.052671599999939644,,,23,18,Man,Rechts,1,
,dotcolour,dotcolour,dotcolour,41,2,161,161,main,negativefb,-99,hard,45,1.600105700000313,['c'],1,left,['2'],5,0.18684159999975236,,,23,18,Man,Rechts,1,
,dotcolour,dotcolour,dotcolour,42,2,162,162,main,negativefb,-99,average,52,0.7673276000000442,['c'],1,left,['1'],6,0.09379289999969842,,,23,18,Man,Rechts,1,
,dotcolour,dotcolour,dotcolour,43,2,163,163,main,negativefb,-99,average,52,1.28289070000028,['c'],1,left,['2'],5,0.11918089999971926,,,23,18,Man,Rechts,1,
,dotcolour,dotcolour,dotcolour,44,2,164,164,main,negativefb,-99,easy,61,0.7679610000000139,['c'],1,left,['1'],6,0.03680330000042886,,,23,18,Man,Rechts,1,
,dotcolour,dotcolour,dotcolour,45,2,165,165,main,negativefb,-99,hard,39,1.833456599999863,['n'],1,right,['3'],4,0.3953225000000202,,,23,18,Man,Rechts,1,
,dotcolour,dotcolour,dotcolour,46,2,166,166,main,negativefb,-99,average,54,1.6668598000001111,['c'],1,left,['1'],6,0.07328229999984615,,,23,18,Man,Rechts,1,
,dotcolour,dotcolour,dotcolour,47,2,167,167,main,negativefb,-99,easy,18,1.6838932999999088,['n'],1,right,['1'],6,0.0999084000000039,,,23,18,Man,Rechts,1,
,dotcolour,dotcolour,dotcolour,48,2,168,168,main,negativefb,-99,easy,61,0.6679638000000523,['c'],1,left,['1'],6,0.07852440000033312,,,23,18,Man,Rechts,1,
,dotcolour,dotcolour,dotcolour,49,2,169,169,main,negativefb,-99,hard,38,1.5012805999999728,['n'],1,right,['3'],4,0.200702199999796,,,23,18,Man,Rechts,1,
,dotcolour,dotcolour,dotcolour,50,2,170,170,main,negativefb,-99,average,29,1.984846700000162,['n'],1,right,['3'],4,0.08178499999985434,,,23,18,Man,Rechts,1,
,dotcolour,dotcolour,dotcolour,51,2,171,171,main,negativefb,-99,average,51,1.417787099999714,['c'],1,left,['3'],4,0.8470113000003039,,,23,18,Man,Rechts,1,
,dotcolour,dotcolour,dotcolour,52,2,172,172,main,negativefb,-99,hard,39,1.5171277999997983,['n'],1,right,['3'],4,0.15294790000007197,,,23,18,Man,Rechts,1,
,dotcolour,dotcolour,dotcolour,53,2,173,173,main,negativefb,-99,hard,36,1.1499624000002768,['n'],1,right,['3'],4,0.24637209999991683,,,23,18,Man,Rechts,1,
,dotcolour,dotcolour,dotcolour,54,2,174,174,main,negativefb,-99,easy,18,1.0003372999999556,['n'],1,right,['1'],6,0.12509750000026543,,,23,18,Man,Rechts,1,
,dotcolour,dotcolour,dotcolour,55,2,175,175,main,negativefb,-99,easy,18,0.8512842999998611,['n'],1,right,['1'],6,0.08768529999997554,,,23,18,Man,Rechts,1,
,dotcolour,dotcolour,dotcolour,56,2,176,176,main,negativefb,-99,average,25,1.1833327999997891,['n'],1,right,['1'],6,0.09365509999997812,,,23,18,Man,Rechts,1,
,dotcolour,dotcolour,dotcolour,57,2,177,177,main,negativefb,-99,easy,16,0.9170941000002131,['n'],1,right,['1'],6,0.13338290000001507,,,23,18,Man,Rechts,1,
,dotcolour,dotcolour,dotcolour,58,2,178,178,main,negativefb,-99,easy,61,0.7494864999998754,['c'],1,left,['1'],6,0.11499529999991864,,,23,18,Man,Rechts,1,
,dotcolour,dotcolour,dotcolour,59,2,179,179,main,negativefb,-99,hard,37,1.6675946999998814,['n'],1,right,['2'],5,0.0926156999998966,,,23,18,Man,Rechts,1,
,dotcolour,dotcolour,dotcolour,0,3,180,180,main,negativefb,-99,hard,41,2.101287599999978,['n'],0,left,['2'],5,0.1764484000000266,,,23,18,Man,Rechts,1,
,dotcolour,dotcolour,dotcolour,1,3,181,181,main,negativefb,-99,hard,37,1.1342922999997427,['n'],1,right,['2'],5,0.10155639999993582,,,23,18,Man,Rechts,1,
,dotcolour,dotcolour,dotcolour,2,3,182,182,main,negativefb,-99,average,26,0.7340469999999186,['n'],1,right,['2'],5,0.10071220000008907,,,23,18,Man,Rechts,1,
,dotcolour,dotcolour,dotcolour,3,3,183,183,main,negativefb,-99,average,54,2.0672202000000652,['c'],1,left,['3'],4,0.36653359999991153,,,23,18,Man,Rechts,1,
,dotcolour,dotcolour,dotcolour,4,3,184,184,main,negativefb,-99,hard,45,1.9513172999995732,['c'],1,left,['3'],4,0.05043449999993754,,,23,18,Man,Rechts,1,
,dotcolour,dotcolour,dotcolour,5,3,185,185,main,negativefb,-99,easy,18,0.7506124999999884,['n'],1,right,['1'],6,0.042944100000113394,,,23,18,Man,Rechts,1,
,dotcolour,dotcolour,dotcolour,6,3,186,186,main,negativefb,-99,easy,63,0.9834320999998454,['c'],1,left,['1'],6,0.05094239999971251,,,23,18,Man,Rechts,1,
,dotcolour,dotcolour,dotcolour,7,3,187,187,main,negativefb,-99,average,28,1.0507637000000614,['n'],1,right,['1'],6,0.04781650000040827,,,23,18,Man,Rechts,1,
,dotcolour,dotcolour,dotcolour,8,3,188,188,main,negativefb,-99,average,26,1.35135659999969,['n'],1,right,['1'],6,1.2405658999996376,,,23,18,Man,Rechts,1,
,dotcolour,dotcolour,dotcolour,9,3,189,189,main,negativefb,-99,easy,65,0.9011977999998635,['c'],1,left,['1'],6,0.08443790000001172,,,23,18,Man,Rechts,1,
,dotcolour,dotcolour,dotcolour,10,3,190,190,main,negativefb,-99,hard,39,0.8673635000000104,['n'],1,right,['1'],6,0.05452239999976882,,,23,18,Man,Rechts,1,
,dotcolour,dotcolour,dotcolour,11,3,191,191,main,negativefb,-99,average,55,1.7833636000000297,['c'],1,left,['1'],6,0.01359569999976884,,,23,18,Man,Rechts,1,
,dotcolour,dotcolour,dotcolour,12,3,192,192,main,negativefb,-99,average,25,0.7168329999999514,['n'],1,right,['1'],6,0.04963739999993777,,,23,18,Man,Rechts,1,
,dotcolour,dotcolour,dotcolour,13,3,193,193,main,negativefb,-99,easy,65,0.6832856999999422,['c'],1,left,['1'],6,0.08546500000011292,,,23,18,Man,Rechts,1,
,dotcolour,dotcolour,dotcolour,14,3,194,194,main,negativefb,-99,easy,65,0.6013001999999688,['c'],1,left,['1'],6,0.042821700000331475,,,23,18,Man,Rechts,1,
,dotcolour,dotcolour,dotcolour,15,3,195,195,main,negativefb,-99,easy,62,0.5823657000000821,['c'],1,left,['1'],6,0.12301159999969968,,,23,18,Man,Rechts,1,
,dotcolour,dotcolour,dotcolour,16,3,196,196,main,negativefb,-99,hard,41,1.8347898000001805,['c'],1,left,['2'],5,0.06977069999993546,,,23,18,Man,Rechts,1,
,dotcolour,dotcolour,dotcolour,17,3,197,197,main,negativefb,-99,hard,37,2.3345135999998092,['n'],1,right,['3'],4,0.7255957000002127,,,23,18,Man,Rechts,1,
,dotcolour,dotcolour,dotcolour,18,3,198,198,main,negativefb,-99,easy,63,0.6840136999999231,['c'],1,left,['1'],6,0.06342009999980291,,,23,18,Man,Rechts,1,
,dotcolour,dotcolour,dotcolour,19,3,199,199,main,negativefb,-99,easy,15,3.6507379999998193,['n'],1,right,['1'],6,1.4354958000003535,,,23,18,Man,Rechts,1,
,dotcolour,dotcolour,dotcolour,20,3,200,200,main,negativefb,-99,easy,19,0.5840603999999985,['n'],1,right,['1'],6,0.026701300000240735,,,23,18,Man,Rechts,1,
,dotcolour,dotcolour,dotcolour,21,3,201,201,main,negativefb,-99,hard,42,2.5843918999999005,['n'],0,left,['2'],5,0.06051049999996394,,,23,18,Man,Rechts,1,
,dotcolour,dotcolour,dotcolour,22,3,202,202,main,negativefb,-99,hard,36,0.7846982000000935,['n'],1,right,['1'],6,0.07513509999989765,,,23,18,Man,Rechts,1,
,dotcolour,dotcolour,dotcolour,23,3,203,203,main,negativefb,-99,easy,19,0.4507229000000734,['n'],1,right,['1'],6,0.038900699999885546,,,23,18,Man,Rechts,1,
,dotcolour,dotcolour,dotcolour,24,3,204,204,main,negativefb,-99,average,29,0.4498601999998755,['n'],1,right,['1'],6,0.09318999999959487,,,23,18,Man,Rechts,1,
,dotcolour,dotcolour,dotcolour,25,3,205,205,main,negativefb,-99,hard,39,1.867052799999783,['n'],1,right,['3'],4,0.2953560999999354,,,23,18,Man,Rechts,1,
,dotcolour,dotcolour,dotcolour,26,3,206,206,main,negativefb,-99,easy,19,0.5846702999997433,['n'],1,right,['1'],6,0.24549430000024586,,,23,18,Man,Rechts,1,
,dotcolour,dotcolour,dotcolour,27,3,207,207,main,negativefb,-99,hard,43,1.1681230999997751,['c'],1,left,['1'],6,0.19848640000009254,,,23,18,Man,Rechts,1,
,dotcolour,dotcolour,dotcolour,28,3,208,208,main,negativefb,-99,easy,63,0.6663048999998864,['c'],1,left,['1'],6,0.12410069999987172,,,23,18,Man,Rechts,1,
,dotcolour,dotcolour,dotcolour,29,3,209,209,main,negativefb,-99,average,55,1.5672913999997036,['c'],1,left,['2'],5,0.19328420000010738,,,23,18,Man,Rechts,1,
,dotcolour,dotcolour,dotcolour,30,3,210,210,main,negativefb,-99,average,55,0.7499703999997109,['c'],1,left,['1'],6,0.029389700000137964,,,23,18,Man,Rechts,1,
,dotcolour,dotcolour,dotcolour,31,3,211,211,main,negativefb,-99,hard,39,1.5502834999997503,['n'],1,right,['2'],5,0.039362200000141456,,,23,18,Man,Rechts,1,
,dotcolour,dotcolour,dotcolour,32,3,212,212,main,negativefb,-99,average,28,0.8336710000003222,['n'],1,right,['2'],5,0.10939860000007684,,,23,18,Man,Rechts,1,
,dotcolour,dotcolour,dotcolour,33,3,213,213,main,negativefb,-99,hard,43,1.8842024999999012,['n'],0,left,['3'],4,0.062059900000349444,,,23,18,Man,Rechts,1,
,dotcolour,dotcolour,dotcolour,34,3,214,214,main,negativefb,-99,easy,19,0.7172294000001784,['n'],1,right,['1'],6,0.07212119999985589,,,23,18,Man,Rechts,1,
,dotcolour,dotcolour,dotcolour,35,3,215,215,main,negativefb,-99,average,25,0.6836141000003408,['n'],1,right,['1'],6,0.07473209999989194,,,23,18,Man,Rechts,1,
,dotcolour,dotcolour,dotcolour,36,3,216,216,main,negativefb,-99,hard,35,0.9843657999999778,['n'],1,right,['1'],6,0.05776719999994384,,,23,18,Man,Rechts,1,
,dotcolour,dotcolour,dotcolour,37,3,217,217,main,negativefb,-99,easy,64,0.7338228999997227,['c'],1,left,['1'],6,0.06713779999972758,,,23,18,Man,Rechts,1,
,dotcolour,dotcolour,dotcolour,38,3,218,218,main,negativefb,-99,easy,15,0.6837540000001354,['n'],1,right,['1'],6,0.08531330000005255,,,23,18,Man,Rechts,1,
,dotcolour,dotcolour,dotcolour,39,3,219,219,main,negativefb,-99,average,52,1.0006164000001263,['c'],1,left,['1'],6,0.11530990000028396,,,23,18,Man,Rechts,1,
,dotcolour,dotcolour,dotcolour,40,3,220,220,main,negativefb,-99,easy,62,0.6168645000002471,['c'],1,left,['1'],6,0.0784299000001738,,,23,18,Man,Rechts,1,
,dotcolour,dotcolour,dotcolour,41,3,221,221,main,negativefb,-99,hard,39,1.6000601000000643,['n'],1,right,['3'],4,0.1398300000000745,,,23,18,Man,Rechts,1,
,dotcolour,dotcolour,dotcolour,42,3,222,222,main,negativefb,-99,easy,17,1.067930200000319,['n'],1,right,['1'],6,0.2846439999998438,,,23,18,Man,Rechts,1,
,dotcolour,dotcolour,dotcolour,43,3,223,223,main,negativefb,-99,hard,43,1.3183069000001524,['n'],0,left,['1'],6,0.03774349999957849,,,23,18,Man,Rechts,1,
,dotcolour,dotcolour,dotcolour,44,3,224,224,main,negativefb,-99,hard,42,0.8159587000000101,['c'],1,left,['1'],6,0.06033639999986917,,,23,18,Man,Rechts,1,
,dotcolour,dotcolour,dotcolour,45,3,225,225,main,negativefb,-99,hard,36,0.8681991999997081,['n'],1,right,['1'],6,0.04026339999973061,,,23,18,Man,Rechts,1,
,dotcolour,dotcolour,dotcolour,46,3,226,226,main,negativefb,-99,average,51,0.6515689000002567,['c'],1,left,['1'],6,0.045686599999953614,,,23,18,Man,Rechts,1,
,dotcolour,dotcolour,dotcolour,47,3,227,227,main,negativefb,-99,hard,36,1.2505631999997604,['c'],0,right,['2'],5,0.03485420000015438,,,23,18,Man,Rechts,1,
,dotcolour,dotcolour,dotcolour,48,3,228,228,main,negativefb,-99,average,52,0.8841530999998213,['c'],1,left,['1'],6,0.05506729999979143,,,23,18,Man,Rechts,1,
,dotcolour,dotcolour,dotcolour,49,3,229,229,main,negativefb,-99,easy,16,0.6513056999997389,['n'],1,right,['1'],6,0.05117260000042734,,,23,18,Man,Rechts,1,
,dotcolour,dotcolour,dotcolour,50,3,230,230,main,negativefb,-99,average,55,0.6681234000002405,['c'],1,left,['1'],6,0.007712500000252476,,,23,18,Man,Rechts,1,
,dotcolour,dotcolour,dotcolour,51,3,231,231,main,negativefb,-99,average,51,0.650048500000139,['c'],1,left,['1'],6,0.013998800000081246,,,23,18,Man,Rechts,1,
,dotcolour,dotcolour,dotcolour,52,3,232,232,main,negativefb,-99,average,53,0.5998221000004378,['c'],1,left,['1'],6,0.045888900000136346,,,23,18,Man,Rechts,1,
,dotcolour,dotcolour,dotcolour,53,3,233,233,main,negativefb,-99,average,29,0.8339339999997719,['n'],1,right,['1'],6,0.052335300000322604,,,23,18,Man,Rechts,1,
,dotcolour,dotcolour,dotcolour,54,3,234,234,main,negativefb,-99,average,27,0.7338297000001148,['n'],1,right,['1'],6,0.05362439999998969,,,23,18,Man,Rechts,1,
,dotcolour,dotcolour,dotcolour,55,3,235,235,main,negativefb,-99,easy,17,0.5681219999996756,['n'],1,right,['1'],6,0.02154049999990093,,,23,18,Man,Rechts,1,
,dotcolour,dotcolour,dotcolour,56,3,236,236,main,negativefb,-99,hard,41,0.98418619999984,['c'],1,left,['2'],5,0.06197699999984252,,,23,18,Man,Rechts,1,
,dotcolour,dotcolour,dotcolour,57,3,237,237,main,negativefb,-99,easy,62,0.66745869999977,['n'],0,left,['1'],6,0.04982109999991735,,,23,18,Man,Rechts,1,
,dotcolour,dotcolour,dotcolour,58,3,238,238,main,negativefb,-99,average,26,1.7170842000000448,['n'],1,right,['1'],6,0.8847892999997384,,,23,18,Man,Rechts,1,
,dotcolour,dotcolour,dotcolour,59,3,239,239,main,negativefb,-99,hard,42,2.117248699999891,['n'],0,left,['2'],5,0.06093830000008893,,,23,18,Man,Rechts,1,
,dotcolour,dotcolour,dotcolour,0,4,240,240,main,negativefb,-99,average,26,0.7180754000000888,['n'],1,right,['1'],6,0.0328417000000627,,,23,18,Man,Rechts,1,
,dotcolour,dotcolour,dotcolour,1,4,241,241,main,negativefb,-99,easy,63,0.6336747999998806,['c'],1,left,['1'],6,0.06226239999978134,,,23,18,Man,Rechts,1,
,dotcolour,dotcolour,dotcolour,2,4,242,242,main,negativefb,-99,average,29,0.6507389000003059,['n'],1,right,['1'],6,0.0185857000001306,,,23,18,Man,Rechts,1,
,dotcolour,dotcolour,dotcolour,3,4,243,243,main,negativefb,-99,hard,39,0.6835558999996465,['n'],1,right,['1'],6,0.03947779999998602,,,23,18,Man,Rechts,1,
,dotcolour,dotcolour,dotcolour,4,4,244,244,main,negativefb,-99,easy,65,0.5841875999999502,['c'],1,left,['1'],6,0.016042100000049686,,,23,18,Man,Rechts,1,
,dotcolour,dotcolour,dotcolour,5,4,245,245,main,negativefb,-99,hard,43,0.6494299000000865,['n'],0,left,['1'],6,0.05327789999955712,,,23,18,Man,Rechts,1,
,dotcolour,dotcolour,dotcolour,6,4,246,246,main,negativefb,-99,easy,61,0.6325796999999511,['c'],1,left,['1'],6,0.09113430000024891,,,23,18,Man,Rechts,1,
,dotcolour,dotcolour,dotcolour,7,4,247,247,main,negativefb,-99,hard,41,0.6174854999999297,['n'],0,left,['1'],6,0.0798586000000796,,,23,18,Man,Rechts,1,
,dotcolour,dotcolour,dotcolour,8,4,248,248,main,negativefb,-99,average,55,0.5180322999999589,['c'],1,left,['1'],6,0.09652870000036273,,,23,18,Man,Rechts,1,
,dotcolour,dotcolour,dotcolour,9,4,249,249,main,negativefb,-99,easy,64,0.6014248000001317,['c'],1,left,['1'],6,0.06222649999972418,,,23,18,Man,Rechts,1,
,dotcolour,dotcolour,dotcolour,10,4,250,250,main,negativefb,-99,average,29,0.5674424000003455,['n'],1,right,['1'],6,0.078163399999994,,,23,18,Man,Rechts,1,
,dotcolour,dotcolour,dotcolour,11,4,251,251,main,negativefb,-99,average,55,0.5172483999999713,['c'],1,left,['1'],6,0.04727210000010018,,,23,18,Man,Rechts,1,
,dotcolour,dotcolour,dotcolour,12,4,252,252,main,negativefb,-99,average,52,1.017593399999896,['n'],0,left,['1'],6,0.005721300000004703,,,23,18,Man,Rechts,1,
,dotcolour,dotcolour,dotcolour,13,4,253,253,main,negativefb,-99,average,55,0.5837875000001986,['c'],1,left,['1'],6,0.007189100000232429,,,23,18,Man,Rechts,1,
,dotcolour,dotcolour,dotcolour,14,4,254,254,main,negativefb,-99,easy,15,0.583654099999876,['n'],1,right,['1'],6,0.6963506000001871,,,23,18,Man,Rechts,1,
,dotcolour,dotcolour,dotcolour,15,4,255,255,main,negativefb,-99,easy,18,0.5839832999999999,['n'],1,right,['1'],6,0.030661599999803002,,,23,18,Man,Rechts,1,
,dotcolour,dotcolour,dotcolour,16,4,256,256,main,negativefb,-99,average,52,0.5172215000002325,['c'],1,left,['1'],6,0.057902699999885954,,,23,18,Man,Rechts,1,
,dotcolour,dotcolour,dotcolour,17,4,257,257,main,negativefb,-99,easy,65,0.5004241000001457,['n'],0,left,['0'],1,2.516697099999874,,,23,18,Man,Rechts,1,
,dotcolour,dotcolour,dotcolour,18,4,258,258,main,negativefb,-99,hard,41,2.683917599999859,['c'],1,left,['1'],6,0.0769546999999875,,,23,18,Man,Rechts,1,
,dotcolour,dotcolour,dotcolour,19,4,259,259,main,negativefb,-99,easy,15,0.8009909000002153,['n'],1,right,['1'],6,0.4432816000003186,,,23,18,Man,Rechts,1,
,dotcolour,dotcolour,dotcolour,20,4,260,260,main,negativefb,-99,average,29,0.6185411999999815,['n'],1,right,['1'],6,0.009422999999969761,,,23,18,Man,Rechts,1,
,dotcolour,dotcolour,dotcolour,21,4,261,261,main,negativefb,-99,hard,41,2.1322626000001037,['n'],0,left,['2'],5,0.9100472000000082,,,23,18,Man,Rechts,1,
,dotcolour,dotcolour,dotcolour,22,4,262,262,main,negativefb,-99,easy,17,0.6177937000002203,['c'],0,right,['0'],1,2.0977312999998503,,,23,18,Man,Rechts,1,
,dotcolour,dotcolour,dotcolour,23,4,263,263,main,negativefb,-99,easy,15,0.8344587000001411,['n'],1,right,['1'],6,0.525477900000169,,,23,18,Man,Rechts,1,
,dotcolour,dotcolour,dotcolour,24,4,264,264,main,negativefb,-99,hard,39,1.851343100000122,['n'],1,right,['1'],6,0.4871441999998751,,,23,18,Man,Rechts,1,
,dotcolour,dotcolour,dotcolour,25,4,265,265,main,negativefb,-99,easy,15,0.5827219999996487,['n'],1,right,['1'],6,0.06869459999961691,,,23,18,Man,Rechts,1,
,dotcolour,dotcolour,dotcolour,26,4,266,266,main,negativefb,-99,average,52,1.2003141000000142,['c'],1,left,['2'],5,0.41909160000022894,,,23,18,Man,Rechts,1,
,dotcolour,dotcolour,dotcolour,27,4,267,267,main,negativefb,-99,easy,65,0.8002351999998609,['c'],1,left,['1'],6,0.07531710000012026,,,23,18,Man,Rechts,1,
,dotcolour,dotcolour,dotcolour,28,4,268,268,main,negativefb,-99,hard,42,1.1176246999998511,['n'],0,left,['3'],4,1.6367003000000295,,,23,18,Man,Rechts,1,
,dotcolour,dotcolour,dotcolour,29,4,269,269,main,negativefb,-99,hard,38,2.833887499999946,['n'],1,right,['2'],5,0.21018000000003667,,,23,18,Man,Rechts,1,
,dotcolour,dotcolour,dotcolour,30,4,270,270,main,negativefb,-99,hard,38,0.6177020999998604,['n'],1,right,['2'],5,0.02684610000005705,,,23,18,Man,Rechts,1,
,dotcolour,dotcolour,dotcolour,31,4,271,271,main,negativefb,-99,easy,62,0.7679238000000623,['c'],1,left,['1'],6,0.05195469999989655,,,23,18,Man,Rechts,1,
,dotcolour,dotcolour,dotcolour,32,4,272,272,main,negativefb,-99,hard,38,1.2170016999998552,['c'],0,right,['2'],5,0.058400500000061584,,,23,18,Man,Rechts,1,
,dotcolour,dotcolour,dotcolour,33,4,273,273,main,negativefb,-99,easy,17,0.6671154999999089,['n'],1,right,['1'],6,0.037715700000262586,,,23,18,Man,Rechts,1,
,dotcolour,dotcolour,dotcolour,34,4,274,274,main,negativefb,-99,average,54,0.9829409000003579,['c'],1,left,['1'],6,0.022083700000166573,,,23,18,Man,Rechts,1,
,dotcolour,dotcolour,dotcolour,35,4,275,275,main,negativefb,-99,easy,15,0.8005066999999144,['n'],1,right,['1'],6,0.029470800000126474,,,23,18,Man,Rechts,1,
,dotcolour,dotcolour,dotcolour,36,4,276,276,main,negativefb,-99,easy,62,0.733107800000198,['c'],1,left,['1'],6,0.06437840000035067,,,23,18,Man,Rechts,1,
,dotcolour,dotcolour,dotcolour,37,4,277,277,main,negativefb,-99,average,29,0.884013700000196,['n'],1,right,['2'],5,0.05092740000009144,,,23,18,Man,Rechts,1,
,dotcolour,dotcolour,dotcolour,38,4,278,278,main,negativefb,-99,hard,37,1.1009296000001996,['n'],1,right,['2'],5,0.8214797999999064,,,23,18,Man,Rechts,1,
,dotcolour,dotcolour,dotcolour,39,4,279,279,main,negativefb,-99,average,55,1.3675564000000122,['c'],1,left,['1'],6,0.07099039999957313,,,23,18,Man,Rechts,1,
,dotcolour,dotcolour,dotcolour,40,4,280,280,main,negativefb,-99,hard,45,0.8001403000002938,['c'],1,left,['1'],6,0.044911599999977625,,,23,18,Man,Rechts,1,
,dotcolour,dotcolour,dotcolour,41,4,281,281,main,negativefb,-99,average,55,0.5999517999998716,['c'],1,left,['1'],6,0.07698889999983294,,,23,18,Man,Rechts,1,
,dotcolour,dotcolour,dotcolour,42,4,282,282,main,negativefb,-99,hard,35,0.7008652999998048,['n'],1,right,['9'],2,2.2467028999999457,,,23,18,Man,Rechts,1,
,dotcolour,dotcolour,dotcolour,43,4,283,283,main,negativefb,-99,average,29,1.3343743000000359,['n'],1,right,['1'],6,0.08090840000022581,,,23,18,Man,Rechts,1,
,dotcolour,dotcolour,dotcolour,44,4,284,284,main,negativefb,-99,easy,64,0.651249800000187,['c'],1,left,['1'],6,0.012332399999650079,,,23,18,Man,Rechts,1,
,dotcolour,dotcolour,dotcolour,45,4,285,285,main,negativefb,-99,hard,36,1.7828876999997192,['n'],1,right,['2'],5,0.014107800000147108,,,23,18,Man,Rechts,1,
,dotcolour,dotcolour,dotcolour,46,4,286,286,main,negativefb,-99,easy,16,3.1498760999998012,['c'],0,right,['2'],5,0.08081200000015087,,,23,18,Man,Rechts,1,
,dotcolour,dotcolour,dotcolour,47,4,287,287,main,negativefb,-99,average,29,0.8511570999999094,['n'],1,right,['1'],6,0.05289970000012545,,,23,18,Man,Rechts,1,
,dotcolour,dotcolour,dotcolour,48,4,288,288,main,negativefb,-99,hard,45,1.4854423000001589,['c'],1,left,['2'],5,0.10387979999995878,,,23,18,Man,Rechts,1,
,dotcolour,dotcolour,dotcolour,49,4,289,289,main,negativefb,-99,average,28,0.8495001000001139,['n'],1,right,['1'],6,0.018662399999811896,,,23,18,Man,Rechts,1,
,dotcolour,dotcolour,dotcolour,50,4,290,290,main,negativefb,-99,hard,45,0.8502253999999994,['n'],0,left,['1'],6,0.2251709000001938,,,23,18,Man,Rechts,1,
,dotcolour,dotcolour,dotcolour,51,4,291,291,main,negativefb,-99,hard,37,0.9348939999999857,['c'],0,right,['1'],6,0.0835956000000806,,,23,18,Man,Rechts,1,
,dotcolour,dotcolour,dotcolour,52,4,292,292,main,negativefb,-99,easy,15,0.9179788999999801,['n'],1,right,['1'],6,0.5960373000002619,,,23,18,Man,Rechts,1,
,dotcolour,dotcolour,dotcolour,53,4,293,293,main,negativefb,-99,average,26,1.8340848999996524,['c'],0,right,['1'],6,0.036416599999938626,,,23,18,Man,Rechts,1,
,dotcolour,dotcolour,dotcolour,54,4,294,294,main,negativefb,-99,average,25,0.7173056999999972,['n'],1,right,['1'],6,0.030883899999935238,,,23,18,Man,Rechts,1,
,dotcolour,dotcolour,dotcolour,55,4,295,295,main,negativefb,-99,average,54,0.6498536999997668,['c'],1,left,['1'],6,0.04515919999994367,,,23,18,Man,Rechts,1,
,dotcolour,dotcolour,dotcolour,56,4,296,296,main,negativefb,-99,hard,35,1.2505443999998533,['n'],1,right,['1'],6,0.5781621999999516,,,23,18,Man,Rechts,1,
,dotcolour,dotcolour,dotcolour,57,4,297,297,main,negativefb,-99,easy,61,0.583763899999667,['c'],1,left,['1'],6,0.06100960000003397,,,23,18,Man,Rechts,1,
,dotcolour,dotcolour,dotcolour,58,4,298,298,main,negativefb,-99,hard,42,0.7670820999996977,['n'],0,left,['3'],4,1.252332199999728,,,23,18,Man,Rechts,1,
,dotcolour,dotcolour,dotcolour,59,4,299,299,main,negativefb,-99,hard,43,1.9507848000002923,['c'],1,left,['1'],6,0.06104620000041905,,,23,18,Man,Rechts,1,
,dotcolour,dotcolour,dotcolour,0,0,0,300,training,negativefb,63,easy,64,2.034314699999868,['c'],1,left,['1'],6,0.07570420000001832,,,23,18,Man,Rechts,1,
,dotcolour,dotcolour,dotcolour,1,0,1,301,training,negativefb,64,hard,45,1.066168700000162,['c'],1,left,['1'],6,0.08703839999998308,,,23,18,Man,Rechts,1,
,dotcolour,dotcolour,dotcolour,2,0,2,302,training,negativefb,95,average,55,0.5670922999997856,['c'],1,left,['3'],4,0.6283019000002241,,,23,18,Man,Rechts,1,
,dotcolour,dotcolour,dotcolour,3,0,3,303,training,negativefb,99,hard,43,0.5840385000001334,['c'],1,left,['2'],5,1.4204694999998537,,,23,18,Man,Rechts,1,
,dotcolour,dotcolour,dotcolour,4,0,4,304,training,negativefb,55,hard,39,3.918004699999983,['c'],0,right,['1'],6,0.022439500000018597,,,23,18,Man,Rechts,1,
,dotcolour,dotcolour,dotcolour,5,0,5,305,training,negativefb,52,easy,65,0.6822705999998107,['c'],1,left,['1'],6,0.034719500000392145,,,23,18,Man,Rechts,1,
,dotcolour,dotcolour,dotcolour,6,0,6,306,training,negativefb,60,hard,45,1.4829535000003489,['c'],1,left,['2'],5,0.9177079000000958,,,23,18,Man,Rechts,1,
,dotcolour,dotcolour,dotcolour,7,0,7,307,training,negativefb,52,easy,15,0.6339422000000923,['n'],1,right,['1'],6,0.2079054000000724,,,23,18,Man,Rechts,1,
,dotcolour,dotcolour,dotcolour,8,0,8,308,training,negativefb,53,easy,62,4.933656199999859,['c'],1,left,['1'],6,0.058404199999586126,,,23,18,Man,Rechts,1,
,dotcolour,dotcolour,dotcolour,9,0,9,309,training,negativefb,46,easy,64,0.600474999999733,['c'],1,left,['1'],6,0.08790920000001279,,,23,18,Man,Rechts,1,
,dotcolour,dotcolour,dotcolour,10,0,10,310,training,negativefb,69,easy,19,0.6675082000001566,['n'],1,right,['1'],6,0.08252850000008038,,,23,18,Man,Rechts,1,
,dotcolour,dotcolour,dotcolour,11,0,11,311,training,negativefb,61,easy,65,0.7504005999999208,['c'],1,left,['1'],6,0.049193299999842566,,,23,18,Man,Rechts,1,
,dotcolour,dotcolour,dotcolour,12,0,12,312,training,negativefb,55,average,26,0.6329829999999674,['n'],1,right,['1'],6,0.061626199999864184,,,23,18,Man,Rechts,1,
,dotcolour,dotcolour,dotcolour,13,0,13,313,training,negativefb,53,easy,16,0.5832133999997495,['c'],0,right,['1'],6,0.04470870000022842,,,23,18,Man,Rechts,1,
,dotcolour,dotcolour,dotcolour,14,0,14,314,training,negativefb,72,average,51,0.8334544999997888,['c'],1,left,['1'],6,0.07381029999987732,,,23,18,Man,Rechts,1,
,dotcolour,dotcolour,dotcolour,15,0,15,315,training,negativefb,79,average,29,0.5842478999998093,['n'],1,right,['1'],6,0.04778920000035214,,,23,18,Man,Rechts,1,
,dotcolour,dotcolour,dotcolour,16,0,16,316,training,negativefb,55,hard,41,3.198609000000033,['n'],0,left,['3'],4,0.07804919999989579,,,23,18,Man,Rechts,1,
,dotcolour,dotcolour,dotcolour,17,0,17,317,training,negativefb,59,average,27,2.71657550000009,['n'],1,right,['2'],5,0.36686539999982415,,,23,18,Man,Rechts,1,
,dotcolour,dotcolour,dotcolour,18,0,18,318,training,negativefb,55,average,28,1.5824862000004032,['c'],0,right,['1'],6,0.49652259999993476,,,23,18,Man,Rechts,1,
,dotcolour,dotcolour,dotcolour,19,0,19,319,training,negativefb,96,easy,15,0.7327972000002774,['n'],1,right,['1'],6,1.8234541000001627,,,23,18,Man,Rechts,1,
,dotcolour,dotcolour,dotcolour,20,0,20,320,training,negativefb,90,average,55,0.7164268000001357,['c'],1,left,['1'],6,0.11406889999989289,,,23,18,Man,Rechts,1,
,dotcolour,dotcolour,dotcolour,21,0,21,321,training,negativefb,44,hard,37,1.61633909999955,['c'],0,right,['2'],5,0.4687374000000091,,,23,18,Man,Rechts,1,
,dotcolour,dotcolour,dotcolour,22,0,22,322,training,negativefb,64,average,54,1.000357299999905,['c'],1,left,['1'],6,0.07463239999970028,,,23,18,Man,Rechts,1,
,dotcolour,dotcolour,dotcolour,23,0,23,323,training,negativefb,70,hard,41,1.950763199999983,['c'],1,left,['2'],5,0.8580090999998902,,,23,18,Man,Rechts,1,
,dotcolour,dotcolour,dotcolour,24,0,24,324,training,negativefb,68,easy,16,0.8167226999999002,['n'],1,right,['1'],6,0.11122280000017781,,,23,18,Man,Rechts,1,
,dotcolour,dotcolour,dotcolour,25,0,25,325,training,negativefb,63,average,55,0.6999286000000211,['c'],1,left,['1'],6,0.05548140000018975,,,23,18,Man,Rechts,1,
,dotcolour,dotcolour,dotcolour,26,0,26,326,training,negativefb,67,easy,18,0.5330625999999938,['n'],1,right,['1'],6,0.031928399999742396,,,23,18,Man,Rechts,1,
,dotcolour,dotcolour,dotcolour,27,0,27,327,training,negativefb,62,hard,41,1.7995875000001433,['c'],1,left,['2'],5,0.6066610999996556,,,23,18,Man,Rechts,1,
,dotcolour,dotcolour,dotcolour,28,0,28,328,training,negativefb,41,hard,38,1.4013526000003367,['c'],0,right,['3'],4,0.4631853000000774,,,23,18,Man,Rechts,1,
,dotcolour,dotcolour,dotcolour,29,0,29,329,training,negativefb,71,average,27,1.3006176999997479,['n'],1,right,['1'],6,0.40931769999997414,,,23,18,Man,Rechts,1,
,dotcolour,dotcolour,dotcolour,30,0,30,330,training,negativefb,52,hard,43,2.283766000000014,['n'],0,left,['2'],5,0.6293347000000722,,,23,18,Man,Rechts,1,
,dotcolour,dotcolour,dotcolour,31,0,31,331,training,negativefb,91,average,54,0.7838575000000674,['c'],1,left,['1'],6,0.7972584999997707,,,23,18,Man,Rechts,1,
,dotcolour,dotcolour,dotcolour,32,0,32,332,training,negativefb,75,hard,38,1.8337798000002294,['c'],0,right,['2'],5,0.8688794000004236,,,23,18,Man,Rechts,1,
,dotcolour,dotcolour,dotcolour,33,0,33,333,training,negativefb,69,average,29,3.8321310000001176,['n'],1,right,['3'],4,1.2405369000002793,,,23,18,Man,Rechts,1,
,dotcolour,dotcolour,dotcolour,34,0,34,334,training,negativefb,5,easy,64,2.8826380999998946,['n'],0,left,['3'],4,3.636786099999881,,,23,18,Man,Rechts,1,
,dotcolour,dotcolour,dotcolour,35,0,35,335,training,negativefb,71,average,26,0.7991250999998556,['n'],1,right,['1'],6,0.8027674999998453,,,23,18,Man,Rechts,1,
,dotcolour,dotcolour,dotcolour,36,0,36,336,training,negativefb,53,easy,18,0.7006549000002451,['n'],1,right,['1'],6,0.03876379999974233,,,23,18,Man,Rechts,1,
,dotcolour,dotcolour,dotcolour,37,0,37,337,training,negativefb,21,hard,37,2.700270300000284,['c'],0,right,['2'],5,0.8093295999997281,,,23,18,Man,Rechts,1,
,dotcolour,dotcolour,dotcolour,38,0,38,338,training,negativefb,43,easy,61,0.7341114999999263,['n'],0,left,['1'],6,0.14804300000014337,,,23,18,Man,Rechts,1,
,dotcolour,dotcolour,dotcolour,39,0,39,339,training,negativefb,2,average,55,0.633297500000026,['n'],0,left,['0'],1,2.749494599999707,,,23,18,Man,Rechts,1,
,dotcolour,dotcolour,dotcolour,40,0,40,340,training,negativefb,66,average,27,0.7491674999996576,['n'],1,right,['1'],6,0.32871690000001763,,,23,18,Man,Rechts,1,
,dotcolour,dotcolour,dotcolour,41,0,41,341,training,negativefb,90,average,26,0.6832713999997395,['n'],1,right,['1'],6,0.33680469999990237,,,23,18,Man,Rechts,1,
,dotcolour,dotcolour,dotcolour,42,0,42,342,training,negativefb,53,hard,42,0.8839603000001262,['c'],1,left,['2'],5,0.4801654999996572,,,23,18,Man,Rechts,1,
,dotcolour,dotcolour,dotcolour,43,0,43,343,training,negativefb,55,hard,38,2.2341230000001815,['c'],0,right,['1'],6,0.07601900000008754,,,23,18,Man,Rechts,1,
,dotcolour,dotcolour,dotcolour,44,0,44,344,training,negativefb,80,average,53,0.6508085000000392,['c'],1,left,['1'],6,0.04751619999979084,,,23,18,Man,Rechts,1,
,dotcolour,dotcolour,dotcolour,45,0,45,345,training,negativefb,76,hard,39,1.1823444999999992,['n'],1,right,['1'],6,0.2627950000000965,,,23,18,Man,Rechts,1,
,dotcolour,dotcolour,dotcolour,46,0,46,346,training,negativefb,51,easy,65,0.6996550000003481,['c'],1,left,['1'],6,0.05695060000016383,,,23,18,Man,Rechts,1,
,dotcolour,dotcolour,dotcolour,47,0,47,347,training,negativefb,70,easy,61,0.6331265999997413,['c'],1,left,['1'],6,0.06148970000003828,,,23,18,Man,Rechts,1,
,dotcolour,dotcolour,dotcolour,48,0,48,348,training,negativefb,61,easy,19,0.7004655000000639,['n'],1,right,['1'],6,0.00638570000000982,,,23,18,Man,Rechts,1,
,dotcolour,dotcolour,dotcolour,49,0,49,349,training,negativefb,58,average,54,1.3340112999999292,['c'],1,left,['1'],6,0.08206400000017311,,,23,18,Man,Rechts,1,
,dotcolour,dotcolour,dotcolour,50,0,50,350,training,negativefb,58,easy,61,0.6002763000001323,['c'],1,left,['1'],6,0.05450599999994665,,,23,18,Man,Rechts,1,
,dotcolour,dotcolour,dotcolour,51,0,51,351,training,negativefb,92,easy,17,0.6003897000000507,['n'],1,right,['1'],6,0.12399209999966843,,,23,18,Man,Rechts,1,
,dotcolour,dotcolour,dotcolour,52,0,52,352,training,negativefb,50,hard,41,1.0993938999999955,['c'],1,left,['1'],6,0.051918099999966216,,,23,18,Man,Rechts,1,
,dotcolour,dotcolour,dotcolour,53,0,53,353,training,negativefb,60,average,29,1.0665393999997832,['n'],1,right,['1'],6,0.0466180000003078,,,23,18,Man,Rechts,1,
,dotcolour,dotcolour,dotcolour,54,0,54,354,training,negativefb,51,hard,41,1.9327158999999483,['c'],1,left,['1'],6,0.0087613999999121,,,23,18,Man,Rechts,1,
,dotcolour,dotcolour,dotcolour,55,0,55,355,training,negativefb,65,hard,37,1.5998147000000245,['n'],1,right,['1'],6,0.6808438000002752,,,23,18,Man,Rechts,1,
,dotcolour,dotcolour,dotcolour,56,0,56,356,training,negativefb,57,hard,35,0.8000418000001446,['n'],1,right,['2'],5,0.05422659999976531,,,23,18,Man,Rechts,1,
,dotcolour,dotcolour,dotcolour,57,0,57,357,training,negativefb,59,easy,15,0.5675453000003472,['n'],1,right,['1'],6,0.19711580000011963,,,23,18,Man,Rechts,1,
,dotcolour,dotcolour,dotcolour,58,0,58,358,training,negativefb,77,average,53,0.7667362000001958,['c'],1,left,['1'],6,0.07155699999975695,,,23,18,Man,Rechts,1,
,dotcolour,dotcolour,dotcolour,59,0,59,359,training,negativefb,58,hard,39,2.101564799999778,['n'],1,right,['2'],5,0.3204588999997213,,,23,18,Man,Rechts,1,
,dotcolour,dotcolour,dotcolour,0,1,60,360,training,negativefb,55,hard,41,2.7511450000001787,['n'],0,left,['1'],6,0.46395289999964007,,,23,18,Man,Rechts,1,
,dotcolour,dotcolour,dotcolour,1,1,61,361,training,negativefb,62,easy,62,0.6332658000001175,['c'],1,left,['1'],6,0.06860979999964911,,,23,18,Man,Rechts,1,
,dotcolour,dotcolour,dotcolour,2,1,62,362,training,negativefb,68,average,54,0.5841267999999218,['c'],1,left,['1'],6,0.05105709999997998,,,23,18,Man,Rechts,1,
,dotcolour,dotcolour,dotcolour,3,1,63,363,training,negativefb,78,easy,18,0.6003137000002425,['n'],1,right,['1'],6,0.11292539999976725,,,23,18,Man,Rechts,1,
,dotcolour,dotcolour,dotcolour,4,1,64,364,training,negativefb,46,average,29,0.7823398000000452,['n'],1,right,['2'],5,0.20464799999990646,,,23,18,Man,Rechts,1,
,dotcolour,dotcolour,dotcolour,5,1,65,365,training,negativefb,60,easy,18,0.48295550000011644,['n'],1,right,['2'],5,0.04178249999995387,,,23,18,Man,Rechts,1,
,dotcolour,dotcolour,dotcolour,6,1,66,366,training,negativefb,48,average,29,0.9327447000000575,['n'],1,right,['2'],5,0.09145310000030804,,,23,18,Man,Rechts,1,
,dotcolour,dotcolour,dotcolour,7,1,67,367,training,negativefb,42,average,55,0.5830409000000145,['c'],1,left,['1'],6,0.04073030000017752,,,23,18,Man,Rechts,1,
,dotcolour,dotcolour,dotcolour,8,1,68,368,training,negativefb,48,hard,39,1.1162987000002431,['c'],0,right,['2'],5,0.06665990000010424,,,23,18,Man,Rechts,1,
,dotcolour,dotcolour,dotcolour,9,1,69,369,training,negativefb,51,hard,44,2.2165710999997827,['n'],0,left,['3'],4,0.1666864999997415,,,23,18,Man,Rechts,1,
,dotcolour,dotcolour,dotcolour,10,1,70,370,training,negativefb,56,hard,36,2.2670898999999736,['n'],1,right,['3'],4,0.17389520000006087,,,23,18,Man,Rechts,1,
,dotcolour,dotcolour,dotcolour,11,1,71,371,training,negativefb,85,hard,43,0.7007770000000164,['c'],1,left,['3'],4,1.211449299999913,,,23,18,Man,Rechts,1,
,dotcolour,dotcolour,dotcolour,12,1,72,372,training,negativefb,47,easy,19,3.9185614000002715,['n'],1,right,['1'],6,0.3023984000001292,,,23,18,Man,Rechts,1,
,dotcolour,dotcolour,dotcolour,13,1,73,373,training,negativefb,71,easy,63,3.016999500000111,['c'],1,left,['1'],6,0.4256863999999041,,,23,18,Man,Rechts,1,
,dotcolour,dotcolour,dotcolour,14,1,74,374,training,negativefb,63,average,52,0.6993123000002015,['c'],1,left,['1'],6,0.205832300000111,,,23,18,Man,Rechts,1,
,dotcolour,dotcolour,dotcolour,15,1,75,375,training,negativefb,74,average,52,0.8322278000000551,['c'],1,left,['1'],6,0.04416369999989911,,,23,18,Man,Rechts,1,
,dotcolour,dotcolour,dotcolour,16,1,76,376,training,negativefb,43,hard,41,1.1677143000001706,['n'],0,left,['2'],5,0.060286899999937305,,,23,18,Man,Rechts,1,
,dotcolour,dotcolour,dotcolour,17,1,77,377,training,negativefb,81,average,25,0.5841488000000936,['n'],1,right,['1'],6,0.32323059999998804,,,23,18,Man,Rechts,1,
,dotcolour,dotcolour,dotcolour,18,1,78,378,training,negativefb,41,easy,19,0.666989299999841,['n'],1,right,['1'],6,0.2917739999998048,,,23,18,Man,Rechts,1,
,dotcolour,dotcolour,dotcolour,19,1,79,379,training,negativefb,44,easy,62,0.9838888000003863,['c'],1,left,['1'],6,0.08024550000027375,,,23,18,Man,Rechts,1,
,dotcolour,dotcolour,dotcolour,20,1,80,380,training,negativefb,68,easy,64,0.5347311000000445,['c'],1,left,['1'],6,0.06428929999992761,,,23,18,Man,Rechts,1,
,dotcolour,dotcolour,dotcolour,21,1,81,381,training,negativefb,77,average,54,0.6334152999997968,['c'],1,left,['1'],6,0.07684590000008029,,,23,18,Man,Rechts,1,
,dotcolour,dotcolour,dotcolour,22,1,82,382,training,negativefb,65,average,26,0.6498430999999982,['n'],1,right,['1'],6,0.01622959999986051,,,23,18,Man,Rechts,1,
,dotcolour,dotcolour,dotcolour,23,1,83,383,training,negativefb,56,easy,19,0.5664792000002308,['n'],1,right,['1'],6,0.01638379999985773,,,23,18,Man,Rechts,1,
,dotcolour,dotcolour,dotcolour,24,1,84,384,training,negativefb,31,average,51,0.9011198000002878,['c'],1,left,['1'],6,0.21175189999985378,,,23,18,Man,Rechts,1,
,dotcolour,dotcolour,dotcolour,25,1,85,385,training,negativefb,59,easy,16,0.6673061999999845,['n'],1,right,['1'],6,0.008822499999951106,,,23,18,Man,Rechts,1,
,dotcolour,dotcolour,dotcolour,26,1,86,386,training,negativefb,55,hard,39,1.7331214000000728,['n'],1,right,['2'],5,0.036459999999806314,,,23,18,Man,Rechts,1,
,dotcolour,dotcolour,dotcolour,27,1,87,387,training,negativefb,54,hard,36,2.217644500000006,['n'],1,right,['1'],6,0.02600780000011582,,,23,18,Man,Rechts,1,
,dotcolour,dotcolour,dotcolour,28,1,88,388,training,negativefb,63,average,28,1.1327209999999468,['n'],1,right,['0'],1,1.3723973000001024,,,23,18,Man,Rechts,1,
,dotcolour,dotcolour,dotcolour,29,1,89,389,training,negativefb,49,easy,63,0.8165374999998676,['c'],1,left,['1'],6,0.13220490000003338,,,23,18,Man,Rechts,1,
,dotcolour,dotcolour,dotcolour,30,1,90,390,training,negativefb,63,average,52,0.766930400000092,['c'],1,left,['1'],6,0.0648020000003271,,,23,18,Man,Rechts,1,
,dotcolour,dotcolour,dotcolour,31,1,91,391,training,negativefb,54,easy,17,0.6000712999998541,['n'],1,right,['1'],6,0.15036129999998593,,,23,18,Man,Rechts,1,
,dotcolour,dotcolour,dotcolour,32,1,92,392,training,negativefb,64,average,54,1.0998736000001372,['c'],1,left,['2'],5,0.08426800000006551,,,23,18,Man,Rechts,1,
,dotcolour,dotcolour,dotcolour,33,1,93,393,training,negativefb,49,hard,36,0.6497351999996681,['n'],1,right,['1'],6,0.09546329999966474,,,23,18,Man,Rechts,1,
,dotcolour,dotcolour,dotcolour,34,1,94,394,training,negativefb,55,easy,65,0.5831557999999859,['c'],1,left,['1'],6,0.028104500000154076,,,23,18,Man,Rechts,1,
,dotcolour,dotcolour,dotcolour,35,1,95,395,training,negativefb,57,average,51,1.1995246000001316,['c'],1,left,['2'],5,0.08402200000000448,,,23,18,Man,Rechts,1,
,dotcolour,dotcolour,dotcolour,36,1,96,396,training,negativefb,64,average,29,0.5174182000000656,['n'],1,right,['1'],6,0.07572130000016841,,,23,18,Man,Rechts,1,
,dotcolour,dotcolour,dotcolour,37,1,97,397,training,negativefb,58,average,28,0.867001000000073,['n'],1,right,['1'],6,0.03896660000009433,,,23,18,Man,Rechts,1,
,dotcolour,dotcolour,dotcolour,38,1,98,398,training,negativefb,58,hard,43,0.6679951000000983,['c'],1,left,['1'],6,0.05818559999988793,,,23,18,Man,Rechts,1,
,dotcolour,dotcolour,dotcolour,39,1,99,399,training,negativefb,75,average,28,0.5512684999998783,['n'],1,right,['1'],6,0.07419210000034582,,,23,18,Man,Rechts,1,
,dotcolour,dotcolour,dotcolour,40,1,100,400,training,negativefb,63,hard,38,1.7666113000000223,['c'],0,right,['2'],5,0.992927299999792,,,23,18,Man,Rechts,1,
,dotcolour,dotcolour,dotcolour,41,1,101,401,training,negativefb,77,easy,15,0.5997416999998677,['n'],1,right,['1'],6,0.04119319999972504,,,23,18,Man,Rechts,1,
,dotcolour,dotcolour,dotcolour,42,1,102,402,training,negativefb,52,hard,44,1.5000274000003628,['n'],0,left,['2'],5,0.11593530000027386,,,23,18,Man,Rechts,1,
,dotcolour,dotcolour,dotcolour,43,1,103,403,training,negativefb,56,hard,39,2.033634500000062,['c'],0,right,['1'],6,0.11791420000008657,,,23,18,Man,Rechts,1,
,dotcolour,dotcolour,dotcolour,44,1,104,404,training,negativefb,18,easy,63,0.6338584000000083,['c'],1,left,['1'],6,0.5042660000003707,,,23,18,Man,Rechts,1,
,dotcolour,dotcolour,dotcolour,45,1,105,405,training,negativefb,76,hard,35,0.9503943999998228,['n'],1,right,['2'],5,0.09510580000005575,,,23,18,Man,Rechts,1,
,dotcolour,dotcolour,dotcolour,46,1,106,406,training,negativefb,56,average,25,1.1169560999996975,['n'],1,right,['2'],5,0.06285969999998997,,,23,18,Man,Rechts,1,
,dotcolour,dotcolour,dotcolour,47,1,107,407,training,negativefb,83,average,53,0.683888399999887,['c'],1,left,['2'],5,0.10519479999993564,,,23,18,Man,Rechts,1,
,dotcolour,dotcolour,dotcolour,48,1,108,408,training,negativefb,44,easy,15,0.666815300000053,['n'],1,right,['1'],6,0.0421504000000823,,,23,18,Man,Rechts,1,
,dotcolour,dotcolour,dotcolour,49,1,109,409,training,negativefb,62,hard,44,1.1657551000002968,['c'],1,left,['2'],5,0.09070740000015576,,,23,18,Man,Rechts,1,
,dotcolour,dotcolour,dotcolour,50,1,110,410,training,negativefb,61,hard,38,1.0011663999998746,['n'],1,right,['1'],6,0.015281599999980244,,,23,18,Man,Rechts,1,
,dotcolour,dotcolour,dotcolour,51,1,111,411,training,negativefb,72,hard,38,0.7156103000002076,['c'],0,right,['1'],6,0.09800850000010541,,,23,18,Man,Rechts,1,
,dotcolour,dotcolour,dotcolour,52,1,112,412,training,negativefb,58,easy,61,0.6498184000001856,['c'],1,left,['1'],6,0.043842400000357884,,,23,18,Man,Rechts,1,
,dotcolour,dotcolour,dotcolour,53,1,113,413,training,negativefb,49,hard,45,1.3663774000001467,['c'],1,left,['2'],5,0.0761691000002429,,,23,18,Man,Rechts,1,
,dotcolour,dotcolour,dotcolour,54,1,114,414,training,negativefb,50,easy,65,0.8001733000000968,['c'],1,left,['1'],6,0.0494883999999729,,,23,18,Man,Rechts,1,
,dotcolour,dotcolour,dotcolour,55,1,115,415,training,negativefb,54,hard,43,1.2346433000002435,['c'],1,left,['1'],6,0.04573130000017045,,,23,18,Man,Rechts,1,
,dotcolour,dotcolour,dotcolour,56,1,116,416,training,negativefb,59,easy,18,0.6169229000001906,['n'],1,right,['1'],6,0.09129440000015165,,,23,18,Man,Rechts,1,
,dotcolour,dotcolour,dotcolour,57,1,117,417,training,negativefb,66,easy,64,0.6331085000001622,['c'],1,left,['1'],6,0.03108620000011797,,,23,18,Man,Rechts,1,
,dotcolour,dotcolour,dotcolour,58,1,118,418,training,negativefb,72,hard,43,1.4337778999997681,['c'],1,left,['2'],5,0.07613219999984722,,,23,18,Man,Rechts,1,
,dotcolour,dotcolour,dotcolour,59,1,119,419,training,negativefb,66,average,26,0.6838737999996738,['n'],1,right,['1'],6,0.1424935000000005,,,23,18,Man,Rechts,1,
,xotask,dotcolour,dotcolour,0,2,120,420,main,negativefb,-99,average,,1.4186955999998645,['c'],1,left,['1'],6,0.08352839999997741,64,,23,18,Man,Rechts,1,
,xotask,dotcolour,dotcolour,1,2,121,421,main,negativefb,-99,average,,1.0009246000004168,['c'],1,left,['1'],6,0.048135800000181916,62,,23,18,Man,Rechts,1,
,xotask,dotcolour,dotcolour,2,2,122,422,main,negativefb,-99,easy,,0.9171765999999479,['n'],1,right,['1'],6,0.2187804000000142,7,,23,18,Man,Rechts,1,
,xotask,dotcolour,dotcolour,3,2,123,423,main,negativefb,-99,easy,,0.7179103000003124,['c'],1,left,['1'],6,0.06192429999964588,70,,23,18,Man,Rechts,1,
,xotask,dotcolour,dotcolour,4,2,124,424,main,negativefb,-99,easy,,0.7504672999998547,['n'],1,right,['1'],6,0.08660479999980453,5,,23,18,Man,Rechts,1,
,xotask,dotcolour,dotcolour,5,2,125,425,main,negativefb,-99,average,,1.5177684999998746,['n'],1,right,['2'],5,0.4475647999997818,15,,23,18,Man,Rechts,1,
,xotask,dotcolour,dotcolour,6,2,126,426,main,negativefb,-99,hard,,0.6335307000003922,['c'],0,right,['9'],2,1.1412052999999105,25,,23,18,Man,Rechts,1,
,xotask,dotcolour,dotcolour,7,2,127,427,main,negativefb,-99,hard,,3.501105499999994,['n'],1,right,['2'],5,0.4287433000004057,25,,23,18,Man,Rechts,1,
,xotask,dotcolour,dotcolour,8,2,128,428,main,negativefb,-99,average,,0.7682351999997081,['c'],1,left,['1'],6,0.06189319999975851,63,,23,18,Man,Rechts,1,
,xotask,dotcolour,dotcolour,9,2,129,429,main,negativefb,-99,average,,0.8492411000001994,['n'],1,right,['1'],6,0.12215740000010555,19,,23,18,Man,Rechts,1,
,xotask,dotcolour,dotcolour,10,2,130,430,main,negativefb,-99,average,,2.583231099999921,['n'],1,right,['2'],5,0.41542389999995066,19,,23,18,Man,Rechts,1,
,xotask,dotcolour,dotcolour,11,2,131,431,main,negativefb,-99,easy,,3.9334254999998848,['c'],1,left,['2'],5,0.23379410000006828,74,,23,18,Man,Rechts,1,
,xotask,dotcolour,dotcolour,12,2,132,432,main,negativefb,-99,hard,,1.2338898999996673,['c'],1,left,['2'],5,0.015648699999928795,52,,23,18,Man,Rechts,1,
,xotask,dotcolour,dotcolour,13,2,133,433,main,negativefb,-99,average,,1.2335620000003473,['c'],1,left,['2'],5,0.022483199999896897,63,,23,18,Man,Rechts,1,
,xotask,dotcolour,dotcolour,14,2,134,434,main,negativefb,-99,hard,,2.9672390000000632,['n'],1,right,['2'],5,0.0634752999999364,25,,23,18,Man,Rechts,1,
,xotask,dotcolour,dotcolour,15,2,135,435,main,negativefb,-99,hard,,1.5682471000000078,['n'],1,right,['2'],5,0.3762429000003067,27,,23,18,Man,Rechts,1,
,xotask,dotcolour,dotcolour,16,2,136,436,main,negativefb,-99,average,,1.0662523999999394,['c'],1,left,['2'],5,0.05525630000011006,62,,23,18,Man,Rechts,1,
,xotask,dotcolour,dotcolour,17,2,137,437,main,negativefb,-99,easy,,1.315958000000137,['c'],1,left,['2'],5,0.05774519999977201,73,,23,18,Man,Rechts,1,
,xotask,dotcolour,dotcolour,18,2,138,438,main,negativefb,-99,easy,,0.8834257999997135,['c'],1,left,['2'],5,0.06951759999992646,71,,23,18,Man,Rechts,1,
,xotask,dotcolour,dotcolour,19,2,139,439,main,negativefb,-99,easy,,1.250412200000028,['n'],1,right,['2'],5,0.07221100000015213,7,,23,18,Man,Rechts,1,
,xotask,dotcolour,dotcolour,20,2,140,440,main,negativefb,-99,hard,,0.9502039999997578,['c'],1,left,['2'],5,0.09611600000016551,51,,23,18,Man,Rechts,1,
,xotask,dotcolour,dotcolour,21,2,141,441,main,negativefb,-99,average,,1.601541200000156,['n'],0,left,['1'],6,0.03808310000022175,64,,23,18,Man,Rechts,1,
,xotask,dotcolour,dotcolour,22,2,142,442,main,negativefb,-99,easy,,0.8677502000000459,['c'],1,left,['1'],6,0.4263997000002746,73,,23,18,Man,Rechts,1,
,xotask,dotcolour,dotcolour,23,2,143,443,main,negativefb,-99,easy,,0.7681600000000799,['c'],1,left,['1'],6,0.03618430000005901,71,,23,18,Man,Rechts,1,
,xotask,dotcolour,dotcolour,24,2,144,444,main,negativefb,-99,hard,,2.750041300000248,['c'],1,left,['2'],5,0.10981900000024325,53,,23,18,Man,Rechts,1,
,xotask,dotcolour,dotcolour,25,2,145,445,main,negativefb,-99,average,,3.016964800000096,['c'],1,left,['3'],4,0.07388199999968492,64,,23,18,Man,Rechts,1,
,xotask,dotcolour,dotcolour,26,2,146,446,main,negativefb,-99,easy,,0.8509229000001142,['c'],1,left,['1'],6,0.06908849999990707,73,,23,18,Man,Rechts,1,
,xotask,dotcolour,dotcolour,27,2,147,447,main,negativefb,-99,easy,,0.7347341999998207,['n'],1,right,['1'],6,0.062044499999956315,5,,23,18,Man,Rechts,1,
,xotask,dotcolour,dotcolour,28,2,148,448,main,negativefb,-99,easy,,1.250409799999943,['c'],1,left,['1'],6,0.09888620000037918,71,,23,18,Man,Rechts,1,
,xotask,dotcolour,dotcolour,29,2,149,449,main,negativefb,-99,hard,,2.051158100000066,['c'],0,right,['1'],6,0.03735640000013518,27,,23,18,Man,Rechts,1,
,xotask,dotcolour,dotcolour,30,2,150,450,main,negativefb,-99,hard,,0.8164191000000756,['c'],1,left,['1'],6,0.012589399999797024,53,,23,18,Man,Rechts,1,
,xotask,dotcolour,dotcolour,31,2,151,451,main,negativefb,-99,hard,,0.7670233000003464,['c'],1,left,['1'],6,0.029712900000049558,53,,23,18,Man,Rechts,1,
,xotask,dotcolour,dotcolour,32,2,152,452,main,negativefb,-99,easy,,0.8340115999999398,['c'],1,left,['1'],6,0.0849449000002096,74,,23,18,Man,Rechts,1,
,xotask,dotcolour,dotcolour,33,2,153,453,main,negativefb,-99,easy,,0.8845233000001826,['n'],1,right,['1'],6,0.6473456999997325,5,,23,18,Man,Rechts,1,
,xotask,dotcolour,dotcolour,34,2,154,454,main,negativefb,-99,hard,,1.9676727000000938,['n'],0,left,['2'],5,0.45583299999998417,51,,23,18,Man,Rechts,1,
,xotask,dotcolour,dotcolour,35,2,155,455,main,negativefb,-99,average,,0.8679171999997379,['n'],1,right,['2'],5,0.07619119999981194,16,,23,18,Man,Rechts,1,
,xotask,dotcolour,dotcolour,36,2,156,456,main,negativefb,-99,hard,,0.6669663999996374,['c'],1,left,['1'],6,0.0467503999998371,52,,23,18,Man,Rechts,1,
,xotask,dotcolour,dotcolour,37,2,157,457,main,negativefb,-99,average,,0.9998990000003687,['n'],1,right,['1'],6,0.022441300000082265,18,,23,18,Man,Rechts,1,
,xotask,dotcolour,dotcolour,38,2,158,458,main,negativefb,-99,average,,2.283664999999928,['c'],1,left,['2'],5,0.0748687999998765,63,,23,18,Man,Rechts,1,
,xotask,dotcolour,dotcolour,39,2,159,459,main,negativefb,-99,easy,,1.0842210999999224,['n'],1,right,['2'],5,0.005223300000125164,9,,23,18,Man,Rechts,1,
,xotask,dotcolour,dotcolour,40,2,160,460,main,negativefb,-99,hard,,1.5507588999998916,['n'],0,left,['2'],5,0.048225300000012794,51,,23,18,Man,Rechts,1,
,xotask,dotcolour,dotcolour,41,2,161,461,main,negativefb,-99,hard,,0.8169621000001825,['c'],0,right,['2'],5,0.07764910000014424,26,,23,18,Man,Rechts,1,
,xotask,dotcolour,dotcolour,42,2,162,462,main,negativefb,-99,hard,,0.9344070000001921,['n'],1,right,['2'],5,0.046720400000140216,27,,23,18,Man,Rechts,1,
,xotask,dotcolour,dotcolour,43,2,163,463,main,negativefb,-99,hard,,1.301069699999971,['n'],1,right,['2'],5,0.37006560000008903,27,,23,18,Man,Rechts,1,
,xotask,dotcolour,dotcolour,44,2,164,464,main,negativefb,-99,average,,0.8997861000002558,['n'],1,right,['2'],5,0.05677200000036464,16,,23,18,Man,Rechts,1,
,xotask,dotcolour,dotcolour,45,2,165,465,main,negativefb,-99,average,,1.0011337999999341,['n'],1,right,['2'],5,0.10272719999966284,16,,23,18,Man,Rechts,1,
,xotask,dotcolour,dotcolour,46,2,166,466,main,negativefb,-99,easy,,1.3177175999999236,['c'],0,right,['2'],5,0.06280680000008942,8,,23,18,Man,Rechts,1,
,xotask,dotcolour,dotcolour,47,2,167,467,main,negativefb,-99,average,,2.3013035999997555,['c'],1,left,['2'],5,0.04921580000018366,61,,23,18,Man,Rechts,1,
,xotask,dotcolour,dotcolour,48,2,168,468,main,negativefb,-99,average,,0.6845319999997628,['n'],1,right,['2'],5,0.02104540000027555,19,,23,18,Man,Rechts,1,
,xotask,dotcolour,dotcolour,49,2,169,469,main,negativefb,-99,average,,0.8009399999996276,['n'],1,right,['3'],4,0.1329132999999274,19,,23,18,Man,Rechts,1,
,xotask,dotcolour,dotcolour,50,2,170,470,main,negativefb,-99,easy,,0.9010404999999082,['n'],1,right,['2'],5,0.500401199999942,7,,23,18,Man,Rechts,1,
,xotask,dotcolour,dotcolour,51,2,171,471,main,negativefb,-99,average,,0.6673389000002317,['n'],1,right,['2'],5,0.13389349999988553,15,,23,18,Man,Rechts,1,
,xotask,dotcolour,dotcolour,52,2,172,472,main,negativefb,-99,hard,,0.7832096000001911,['c'],1,left,['2'],5,0.05834150000009686,54,,23,18,Man,Rechts,1,
,xotask,dotcolour,dotcolour,53,2,173,473,main,negativefb,-99,hard,,0.8342959000001429,['n'],1,right,['2'],5,0.07145430000036868,28,,23,18,Man,Rechts,1,
,xotask,dotcolour,dotcolour,54,2,174,474,main,negativefb,-99,easy,,0.6175743999997394,['c'],1,left,['2'],5,0.06946430000016335,70,,23,18,Man,Rechts,1,
,xotask,dotcolour,dotcolour,55,2,175,475,main,negativefb,-99,hard,,0.7173166000002311,['c'],1,left,['2'],5,0.0864357000000382,54,,23,18,Man,Rechts,1,
,xotask,dotcolour,dotcolour,56,2,176,476,main,negativefb,-99,easy,,0.6342540000000554,['n'],1,right,['2'],5,0.09061199999996461,5,,23,18,Man,Rechts,1,
,xotask,dotcolour,dotcolour,57,2,177,477,main,negativefb,-99,average,,0.7333314000002247,['c'],1,left,['2'],5,0.12248520000002827,64,,23,18,Man,Rechts,1,
,xotask,dotcolour,dotcolour,58,2,178,478,main,negativefb,-99,easy,,0.600264000000152,['n'],1,right,['2'],5,0.12641519999988304,9,,23,18,Man,Rechts,1,
,xotask,dotcolour,dotcolour,59,2,179,479,main,negativefb,-99,hard,,1.3005327000000761,['n'],1,right,['2'],5,0.0546980999997686,26,,23,18,Man,Rechts,1,
,xotask,dotcolour,dotcolour,0,3,180,480,main,negativefb,-99,average,,0.6510729999999967,['c'],1,left,['2'],5,0.04920560000027763,64,,23,18,Man,Rechts,1,
,xotask,dotcolour,dotcolour,1,3,181,481,main,negativefb,-99,average,,0.5843064000000595,['n'],1,right,['2'],5,0.0013130000002092856,19,,23,18,Man,Rechts,1,
,xotask,dotcolour,dotcolour,2,3,182,482,main,negativefb,-99,hard,,2.9328732000003583,['c'],1,left,['1'],6,0.07642960000021048,53,,23,18,Man,Rechts,1,
,xotask,dotcolour,dotcolour,3,3,183,483,main,negativefb,-99,hard,,1.0673190999996223,['c'],1,left,['1'],6,0.02390109999987544,53,,23,18,Man,Rechts,1,
,xotask,dotcolour,dotcolour,4,3,184,484,main,negativefb,-99,easy,,0.7847705000003771,['c'],1,left,['1'],6,0.0250303999996504,73,,23,18,Man,Rechts,1,
,xotask,dotcolour,dotcolour,5,3,185,485,main,negativefb,-99,hard,,1.267624000000069,['c'],1,left,['1'],6,0.790335000000141,51,,23,18,Man,Rechts,1,
,xotask,dotcolour,dotcolour,6,3,186,486,main,negativefb,-99,hard,,2.467576800000188,['n'],0,left,['1'],6,0.5320879000000787,53,,23,18,Man,Rechts,1,
,xotask,dotcolour,dotcolour,7,3,187,487,main,negativefb,-99,hard,,0.7173370999998951,['n'],1,right,['2'],5,0.0027826999998978863,25,,23,18,Man,Rechts,1,
,xotask,dotcolour,dotcolour,8,3,188,488,main,negativefb,-99,average,,0.9333670999999413,['c'],1,left,['1'],6,0.05456449999974211,63,,23,18,Man,Rechts,1,
,xotask,dotcolour,dotcolour,9,3,189,489,main,negativefb,-99,average,,0.7175729999999021,['c'],1,left,['1'],6,0.03247740000006161,62,,23,18,Man,Rechts,1,
,xotask,dotcolour,dotcolour,10,3,190,490,main,negativefb,-99,hard,,1.6666887000001225,['n'],1,right,['2'],5,0.04525680000006105,29,,23,18,Man,Rechts,1,
,xotask,dotcolour,dotcolour,11,3,191,491,main,negativefb,-99,easy,,1.0012574000002132,['n'],1,right,['2'],5,0.004303799999888724,8,,23,18,Man,Rechts,1,
,xotask,dotcolour,dotcolour,12,3,192,492,main,negativefb,-99,easy,,0.7845218000002205,['c'],0,right,['0'],1,1.0934871999997995,5,,23,18,Man,Rechts,1,
,xotask,dotcolour,dotcolour,13,3,193,493,main,negativefb,-99,easy,,0.7999413000002278,['n'],1,right,['1'],6,0.0992658999998639,6,,23,18,Man,Rechts,1,
,xotask,dotcolour,dotcolour,14,3,194,494,main,negativefb,-99,easy,,1.034295899999961,['c'],1,left,['1'],6,0.5985628000003089,72,,23,18,Man,Rechts,1,
,xotask,dotcolour,dotcolour,15,3,195,495,main,negativefb,-99,hard,,1.834663300000102,['c'],1,left,['2'],5,0.4774237000001449,53,,23,18,Man,Rechts,1,
,xotask,dotcolour,dotcolour,16,3,196,496,main,negativefb,-99,average,,0.8179470000000038,['c'],1,left,['1'],6,0.13882740000008198,63,,23,18,Man,Rechts,1,
,xotask,dotcolour,dotcolour,17,3,197,497,main,negativefb,-99,average,,1.5179809000001114,['c'],1,left,['1'],6,0.01018659999999727,63,,23,18,Man,Rechts,1,
,xotask,dotcolour,dotcolour,18,3,198,498,main,negativefb,-99,easy,,4.717559699999583,['n'],0,left,['3'],4,1.621301599999697,73,,23,18,Man,Rechts,1,
,xotask,dotcolour,dotcolour,19,3,199,499,main,negativefb,-99,easy,,0.7334728999999243,['c'],1,left,['1'],6,0.2001658000003772,72,,23,18,Man,Rechts,1,
,xotask,dotcolour,dotcolour,20,3,200,500,main,negativefb,-99,hard,,1.0671259000000646,['n'],1,right,['3'],4,2.9824171999998725,27,,23,18,Man,Rechts,1,
,xotask,dotcolour,dotcolour,21,3,201,501,main,negativefb,-99,hard,,1.6345831999997245,['c'],1,left,['2'],5,0.8708463000002666,53,,23,18,Man,Rechts,1,
,xotask,dotcolour,dotcolour,22,3,202,502,main,negativefb,-99,average,,0.7004945000003318,['n'],1,right,['1'],6,0.2092956999999842,15,,23,18,Man,Rechts,1,
,xotask,dotcolour,dotcolour,23,3,203,503,main,negativefb,-99,hard,,0.5506371999999828,['n'],1,right,['1'],6,0.0034269000002495886,25,,23,18,Man,Rechts,1,
,xotask,dotcolour,dotcolour,24,3,204,504,main,negativefb,-99,hard,,1.1496852000000217,['c'],1,left,['2'],5,0.38218330000017886,54,,23,18,Man,Rechts,1,
,xotask,dotcolour,dotcolour,25,3,205,505,main,negativefb,-99,hard,,0.6672735000001921,['n'],1,right,['1'],6,0.028758599999946455,27,,23,18,Man,Rechts,1,
,xotask,dotcolour,dotcolour,26,3,206,506,main,negativefb,-99,hard,,0.5995781999999963,['n'],1,right,['1'],6,0.05259939999996277,29,,23,18,Man,Rechts,1,
,xotask,dotcolour,dotcolour,27,3,207,507,main,negativefb,-99,easy,,0.6667273000002751,['n'],1,right,['1'],6,0.0726607999999942,6,,23,18,Man,Rechts,1,
,xotask,dotcolour,dotcolour,28,3,208,508,main,negativefb,-99,easy,,0.7008691999999428,['c'],1,left,['1'],6,0.06642510000028778,70,,23,18,Man,Rechts,1,
,xotask,dotcolour,dotcolour,29,3,209,509,main,negativefb,-99,average,,0.6169588999996449,['n'],1,right,['1'],6,0.06415689999994356,18,,23,18,Man,Rechts,1,
,xotask,dotcolour,dotcolour,30,3,210,510,main,negativefb,-99,hard,,0.7341581999999107,['c'],1,left,['1'],6,0.04100370000014664,51,,23,18,Man,Rechts,1,
,xotask,dotcolour,dotcolour,31,3,211,511,main,negativefb,-99,average,,0.6667995999996492,['c'],0,right,['1'],6,0.021496599999863975,18,,23,18,Man,Rechts,1,
,xotask,dotcolour,dotcolour,32,3,212,512,main,negativefb,-99,easy,,0.7002308999999514,['n'],1,right,['1'],6,0.09825869999986026,6,,23,18,Man,Rechts,1,
,xotask,dotcolour,dotcolour,33,3,213,513,main,negativefb,-99,average,,0.5163849000000482,['n'],1,right,['1'],6,0.01737090000005992,18,,23,18,Man,Rechts,1,
,xotask,dotcolour,dotcolour,34,3,214,514,main,negativefb,-99,average,,0.800728700000036,['n'],1,right,['1'],6,0.42539480000004914,15,,23,18,Man,Rechts,1,
,xotask,dotcolour,dotcolour,35,3,215,515,main,negativefb,-99,easy,,0.6172944999998435,['n'],1,right,['1'],6,0.12155730000040421,9,,23,18,Man,Rechts,1,
,xotask,dotcolour,dotcolour,36,3,216,516,main,negativefb,-99,average,,2.21691090000013,['c'],1,left,['2'],5,0.08449270000028264,61,,23,18,Man,Rechts,1,
,xotask,dotcolour,dotcolour,37,3,217,517,main,negativefb,-99,hard,,1.017261800000142,['c'],1,left,['2'],5,0.04965870000023642,50,,23,18,Man,Rechts,1,
,xotask,dotcolour,dotcolour,38,3,218,518,main,negativefb,-99,easy,,0.6671258999999736,['c'],1,left,['1'],6,0.34168880000015633,71,,23,18,Man,Rechts,1,
,xotask,dotcolour,dotcolour,39,3,219,519,main,negativefb,-99,average,,0.600049300000137,['n'],1,right,['1'],6,0.00855890000002546,19,,23,18,Man,Rechts,1,
,xotask,dotcolour,dotcolour,40,3,220,520,main,negativefb,-99,hard,,1.2171057000000474,['c'],0,right,['3'],4,0.41657149999991816,29,,23,18,Man,Rechts,1,
,xotask,dotcolour,dotcolour,41,3,221,521,main,negativefb,-99,easy,,0.8006795999999667,['n'],1,right,['1'],6,0.0887908999998217,7,,23,18,Man,Rechts,1,
,xotask,dotcolour,dotcolour,42,3,222,522,main,negativefb,-99,easy,,0.5186867000002167,['n'],1,right,['1'],6,0.11334609999994427,5,,23,18,Man,Rechts,1,
,xotask,dotcolour,dotcolour,43,3,223,523,main,negativefb,-99,easy,,0.6844734999999673,['c'],1,left,['1'],6,0.01908190000040122,72,,23,18,Man,Rechts,1,
,xotask,dotcolour,dotcolour,44,3,224,524,main,negativefb,-99,easy,,0.5672451999998884,['c'],1,left,['1'],6,0.05226969999966968,74,,23,18,Man,Rechts,1,
,xotask,dotcolour,dotcolour,45,3,225,525,main,negativefb,-99,average,,0.6012636000000384,['n'],1,right,['1'],6,0.05922439999994822,18,,23,18,Man,Rechts,1,
,xotask,dotcolour,dotcolour,46,3,226,526,main,negativefb,-99,easy,,0.683838200000082,['n'],1,right,['1'],6,0.02994079999962196,8,,23,18,Man,Rechts,1,
,xotask,dotcolour,dotcolour,47,3,227,527,main,negativefb,-99,average,,0.7501524000003883,['n'],1,right,['1'],6,0.1123090000000957,17,,23,18,Man,Rechts,1,
,xotask,dotcolour,dotcolour,48,3,228,528,main,negativefb,-99,average,,0.6178890000001047,['c'],1,left,['1'],6,0.060125800000150775,64,,23,18,Man,Rechts,1,
,xotask,dotcolour,dotcolour,49,3,229,529,main,negativefb,-99,hard,,0.6834268000002339,['n'],1,right,['1'],6,0.03983330000028218,25,,23,18,Man,Rechts,1,
,xotask,dotcolour,dotcolour,50,3,230,530,main,negativefb,-99,average,,0.7337682000002133,['c'],1,left,['1'],6,0.01701890000003914,62,,23,18,Man,Rechts,1,
,xotask,dotcolour,dotcolour,51,3,231,531,main,negativefb,-99,easy,,0.5162688999998863,['n'],1,right,['1'],6,0.045356400000400754,8,,23,18,Man,Rechts,1,
,xotask,dotcolour,dotcolour,52,3,232,532,main,negativefb,-99,hard,,0.5515871999996307,['n'],1,right,['1'],6,0.005794500000320113,29,,23,18,Man,Rechts,1,
,xotask,dotcolour,dotcolour,53,3,233,533,main,negativefb,-99,average,,0.583484899999803,['c'],1,left,['1'],6,0.07135479999988092,64,,23,18,Man,Rechts,1,
,xotask,dotcolour,dotcolour,54,3,234,534,main,negativefb,-99,average,,0.784744700000374,['n'],1,right,['1'],6,0.11770350000006147,18,,23,18,Man,Rechts,1,
,xotask,dotcolour,dotcolour,55,3,235,535,main,negativefb,-99,average,,0.6332924000003004,['c'],1,left,['1'],6,0.06498599999986254,64,,23,18,Man,Rechts,1,
,xotask,dotcolour,dotcolour,56,3,236,536,main,negativefb,-99,easy,,0.7512615000000551,['c'],1,left,['1'],6,0.06503430000020671,73,,23,18,Man,Rechts,1,
,xotask,dotcolour,dotcolour,57,3,237,537,main,negativefb,-99,easy,,0.6174068999998781,['c'],1,left,['1'],6,0.03823050000028161,72,,23,18,Man,Rechts,1,
,xotask,dotcolour,dotcolour,58,3,238,538,main,negativefb,-99,hard,,0.517536299999847,['c'],1,left,['1'],6,0.04884500000025582,50,,23,18,Man,Rechts,1,
,xotask,dotcolour,dotcolour,59,3,239,539,main,negativefb,-99,hard,,0.5845264999998108,['n'],1,right,['1'],6,0.01617679999981192,26,,23,18,Man,Rechts,1,
,xotask,dotcolour,dotcolour,0,4,240,540,main,negativefb,-99,average,,0.6341340999997556,['n'],1,right,['1'],6,0.0367842999999084,18,,23,18,Man,Rechts,1,
,xotask,dotcolour,dotcolour,1,4,241,541,main,negativefb,-99,hard,,0.6176734999999098,['n'],1,right,['1'],6,0.05103529999996681,26,,23,18,Man,Rechts,1,
,xotask,dotcolour,dotcolour,2,4,242,542,main,negativefb,-99,easy,,0.6015622999998413,['c'],1,left,['1'],6,0.02575090000027558,71,,23,18,Man,Rechts,1,
,xotask,dotcolour,dotcolour,3,4,243,543,main,negativefb,-99,easy,,1.0997619000004306,['c'],1,left,['1'],6,0.05408599999964281,73,,23,18,Man,Rechts,1,
,xotask,dotcolour,dotcolour,4,4,244,544,main,negativefb,-99,average,,0.5839750000000095,['n'],1,right,['1'],6,0.04558679999991,15,,23,18,Man,Rechts,1,
,xotask,dotcolour,dotcolour,5,4,245,545,main,negativefb,-99,hard,,0.9501643999997214,['c'],1,left,['1'],6,0.03914359999998851,54,,23,18,Man,Rechts,1,
,xotask,dotcolour,dotcolour,6,4,246,546,main,negativefb,-99,average,,0.7506187999997564,['c'],1,left,['1'],6,0.05639520000022458,62,,23,18,Man,Rechts,1,
,xotask,dotcolour,dotcolour,7,4,247,547,main,negativefb,-99,average,,0.6506778999996641,['c'],1,left,['1'],6,0.077145599999767,61,,23,18,Man,Rechts,1,
,xotask,dotcolour,dotcolour,8,4,248,548,main,negativefb,-99,hard,,0.6676117000001796,['c'],1,left,['1'],6,0.5442736999998488,53,,23,18,Man,Rechts,1,
,xotask,dotcolour,dotcolour,9,4,249,549,main,negativefb,-99,easy,,0.6844442999999956,['c'],1,left,['1'],6,0.08039000000007945,71,,23,18,Man,Rechts,1,
,xotask,dotcolour,dotcolour,10,4,250,550,main,negativefb,-99,average,,0.5174944000000323,['n'],1,right,['1'],6,0.049157300000388204,19,,23,18,Man,Rechts,1,
,xotask,dotcolour,dotcolour,11,4,251,551,main,negativefb,-99,easy,,0.5166133000002446,['n'],1,right,['1'],6,0.0038253999996413768,6,,23,18,Man,Rechts,1,
,xotask,dotcolour,dotcolour,12,4,252,552,main,negativefb,-99,easy,,0.4993427999997948,['n'],1,right,['1'],6,0.055791299999782495,5,,23,18,Man,Rechts,1,
,xotask,dotcolour,dotcolour,13,4,253,553,main,negativefb,-99,average,,0.4848965999999564,['n'],1,right,['1'],6,0.0035287000000607804,15,,23,18,Man,Rechts,1,
,xotask,dotcolour,dotcolour,14,4,254,554,main,negativefb,-99,hard,,1.2831921000001785,['n'],0,left,['2'],5,0.6173627000002853,52,,23,18,Man,Rechts,1,
,xotask,dotcolour,dotcolour,15,4,255,555,main,negativefb,-99,average,,0.6506427999997868,['n'],1,right,['2'],5,0.07072040000002744,15,,23,18,Man,Rechts,1,
,xotask,dotcolour,dotcolour,16,4,256,556,main,negativefb,-99,easy,,0.5176983000001201,['n'],1,right,['2'],5,0.015835900000183756,9,,23,18,Man,Rechts,1,
,xotask,dotcolour,dotcolour,17,4,257,557,main,negativefb,-99,hard,,0.8499692000000323,['c'],1,left,['2'],5,0.09420349999982136,50,,23,18,Man,Rechts,1,
,xotask,dotcolour,dotcolour,18,4,258,558,main,negativefb,-99,hard,,0.7854324999998425,['c'],1,left,['2'],5,0.08416379999971468,51,,23,18,Man,Rechts,1,
,xotask,dotcolour,dotcolour,19,4,259,559,main,negativefb,-99,easy,,0.517717900000207,['n'],1,right,['2'],5,0.0844056000000819,9,,23,18,Man,Rechts,1,
,xotask,dotcolour,dotcolour,20,4,260,560,main,negativefb,-99,easy,,0.5685876000002281,['n'],1,right,['2'],5,0.018964300000334333,8,,23,18,Man,Rechts,1,
,xotask,dotcolour,dotcolour,21,4,261,561,main,negativefb,-99,hard,,0.4823279999995975,['n'],1,right,['2'],5,0.04047339999988253,25,,23,18,Man,Rechts,1,
,xotask,dotcolour,dotcolour,22,4,262,562,main,negativefb,-99,hard,,0.8502852999999959,['n'],1,right,['2'],5,0.05314939999971102,29,,23,18,Man,Rechts,1,
,xotask,dotcolour,dotcolour,23,4,263,563,main,negativefb,-99,average,,0.7343773000002329,['n'],1,right,['2'],5,0.038835399999697984,15,,23,18,Man,Rechts,1,
,xotask,dotcolour,dotcolour,24,4,264,564,main,negativefb,-99,average,,0.6330856999998105,['n'],1,right,['1'],6,0.05321159999994052,18,,23,18,Man,Rechts,1,
,xotask,dotcolour,dotcolour,25,4,265,565,main,negativefb,-99,easy,,0.5501976999998988,['n'],1,right,['1'],6,0.045161300000017945,9,,23,18,Man,Rechts,1,
,xotask,dotcolour,dotcolour,26,4,266,566,main,negativefb,-99,easy,,1.0503951999999117,['n'],0,left,['2'],5,0.3228986000003715,71,,23,18,Man,Rechts,1,
,xotask,dotcolour,dotcolour,27,4,267,567,main,negativefb,-99,hard,,1.6850469999999405,['n'],0,left,['3'],4,1.2270951999998942,51,,23,18,Man,Rechts,1,
,xotask,dotcolour,dotcolour,28,4,268,568,main,negativefb,-99,average,,1.5332354000001942,['n'],0,left,['2'],5,0.2387300000000323,64,,23,18,Man,Rechts,1,
,xotask,dotcolour,dotcolour,29,4,269,569,main,negativefb,-99,average,,0.7504024999998364,['n'],1,right,['1'],6,0.008101699999770062,15,,23,18,Man,Rechts,1,
,xotask,dotcolour,dotcolour,30,4,270,570,main,negativefb,-99,easy,,0.9013654000000315,['c'],1,left,['2'],5,0.6119628999999804,72,,23,18,Man,Rechts,1,
,xotask,dotcolour,dotcolour,31,4,271,571,main,negativefb,-99,hard,,0.6673455000000104,['n'],1,right,['1'],6,0.0018242000001009728,25,,23,18,Man,Rechts,1,
,xotask,dotcolour,dotcolour,32,4,272,572,main,negativefb,-99,hard,,1.0831087999999909,['c'],1,left,['2'],5,0.05581370000027164,51,,23,18,Man,Rechts,1,
,xotask,dotcolour,dotcolour,33,4,273,573,main,negativefb,-99,average,,0.8001489000002948,['n'],1,right,['1'],6,0.09390829999983907,16,,23,18,Man,Rechts,1,
,xotask,dotcolour,dotcolour,34,4,274,574,main,negativefb,-99,hard,,1.3345134999999573,['n'],0,left,['3'],4,0.47863090000009834,53,,23,18,Man,Rechts,1,
,xotask,dotcolour,dotcolour,35,4,275,575,main,negativefb,-99,hard,,1.716918799999803,['n'],0,left,['2'],5,0.5437532999999348,52,,23,18,Man,Rechts,1,
,xotask,dotcolour,dotcolour,36,4,276,576,main,negativefb,-99,easy,,0.6172633999999562,['n'],1,right,['1'],6,0.12251619999960894,7,,23,18,Man,Rechts,1,
,xotask,dotcolour,dotcolour,37,4,277,577,main,negativefb,-99,easy,,0.6676738999999543,['n'],1,right,['1'],6,0.019924100000025646,9,,23,18,Man,Rechts,1,
,xotask,dotcolour,dotcolour,38,4,278,578,main,negativefb,-99,easy,,0.8844199000000117,['c'],1,left,['1'],6,0.04813130000002275,70,,23,18,Man,Rechts,1,
,xotask,dotcolour,dotcolour,39,4,279,579,main,negativefb,-99,hard,,0.8669818999997005,['n'],1,right,['3'],4,0.42870330000005197,26,,23,18,Man,Rechts,1,
,xotask,dotcolour,dotcolour,40,4,280,580,main,negativefb,-99,average,,0.7843668999998954,['n'],0,left,['3'],4,0.045003799999904004,62,,23,18,Man,Rechts,1,
,xotask,dotcolour,dotcolour,41,4,281,581,main,negativefb,-99,easy,,0.7677404999999453,['n'],1,right,['1'],6,0.16606269999965662,6,,23,18,Man,Rechts,1,
,xotask,dotcolour,dotcolour,42,4,282,582,main,negativefb,-99,average,,0.8678325000000768,['c'],1,left,['1'],6,0.08538499999986016,62,,23,18,Man,Rechts,1,
,xotask,dotcolour,dotcolour,43,4,283,583,main,negativefb,-99,hard,,0.7345527999996193,['n'],1,right,['1'],6,0.052871300000333576,28,,23,18,Man,Rechts,1,
,xotask,dotcolour,dotcolour,44,4,284,584,main,negativefb,-99,hard,,0.9509582000000592,['n'],0,left,['3'],4,1.7419845000003988,54,,23,18,Man,Rechts,1,
,xotask,dotcolour,dotcolour,45,4,285,585,main,negativefb,-99,average,,1.1341412000001583,['n'],0,left,['2'],5,0.8354017999999996,64,,23,18,Man,Rechts,1,
,xotask,dotcolour,dotcolour,46,4,286,586,main,negativefb,-99,average,,0.8191203000001224,['c'],1,left,['1'],6,0.2501554999998916,62,,23,18,Man,Rechts,1,
,xotask,dotcolour,dotcolour,47,4,287,587,main,negativefb,-99,average,,0.7011941000000661,['n'],1,right,['1'],6,0.29271079999989524,17,,23,18,Man,Rechts,1,
,xotask,dotcolour,dotcolour,48,4,288,588,main,negativefb,-99,hard,,0.9341342000002442,['n'],1,right,['2'],5,0.07717389999970692,29,,23,18,Man,Rechts,1,
,xotask,dotcolour,dotcolour,49,4,289,589,main,negativefb,-99,average,,0.6176615999997921,['c'],1,left,['1'],6,0.10596040000018547,60,,23,18,Man,Rechts,1,
,xotask,dotcolour,dotcolour,50,4,290,590,main,negativefb,-99,hard,,0.7504868000000897,['n'],1,right,['2'],5,0.14499799999975949,25,,23,18,Man,Rechts,1,
,xotask,dotcolour,dotcolour,51,4,291,591,main,negativefb,-99,average,,0.5164426999999705,['c'],1,left,['1'],6,0.047567500000241125,61,,23,18,Man,Rechts,1,
,xotask,dotcolour,dotcolour,52,4,292,592,main,negativefb,-99,easy,,1.8676226000002316,['c'],1,left,['2'],5,0.07626260000006369,72,,23,18,Man,Rechts,1,
,xotask,dotcolour,dotcolour,53,4,293,593,main,negativefb,-99,easy,,0.7508594000000812,['c'],1,left,['1'],6,0.13999379999995654,73,,23,18,Man,Rechts,1,
,xotask,dotcolour,dotcolour,54,4,294,594,main,negativefb,-99,easy,,0.951403499999742,['n'],1,right,['2'],5,0.12999979999995048,8,,23,18,Man,Rechts,1,
,xotask,dotcolour,dotcolour,55,4,295,595,main,negativefb,-99,easy,,0.716790200000105,['c'],1,left,['1'],6,0.08160150000003341,70,,23,18,Man,Rechts,1,
,xotask,dotcolour,dotcolour,56,4,296,596,main,negativefb,-99,average,,1.2178048999999191,['c'],1,left,['2'],5,0.07784270000001925,64,,23,18,Man,Rechts,1,
,xotask,dotcolour,dotcolour,57,4,297,597,main,negativefb,-99,easy,,0.8182686000000103,['c'],1,left,['1'],6,0.2669700000001285,71,,23,18,Man,Rechts,1,
,xotask,dotcolour,dotcolour,58,4,298,598,main,negativefb,-99,hard,,1.267922500000168,['n'],1,right,['1'],6,0.7265902999997707,28,,23,18,Man,Rechts,1,
,xotask,dotcolour,dotcolour,59,4,299,599,main,negativefb,-99,hard,,0.6181464999999662,['n'],1,right,['1'],6,0.08966610000015862,27,,23,18,Man,Rechts,1,
,dotcolour,dotcolour,dotcolour,0,0,0,600,training,negativefb,64,hard,39,1.56826030000002,['c'],0,right,['1'],6,0.07263950000015029,,,23,18,Man,Rechts,1,
,dotcolour,dotcolour,dotcolour,1,0,1,601,training,negativefb,77,hard,39,2.416416500000196,['n'],1,right,['2'],5,0.33404909999990196,,,23,18,Man,Rechts,1,
,dotcolour,dotcolour,dotcolour,2,0,2,602,training,negativefb,37,hard,43,0.8332862999995996,['c'],1,left,['1'],6,0.07072500000003856,,,23,18,Man,Rechts,1,
,dotcolour,dotcolour,dotcolour,3,0,3,603,training,negativefb,56,average,29,0.5831597000001238,['n'],1,right,['1'],6,0.1809758999997939,,,23,18,Man,Rechts,1,
,dotcolour,dotcolour,dotcolour,4,0,4,604,training,negativefb,50,average,52,0.6656235000000379,['c'],1,left,['2'],5,0.09113909999996395,,,23,18,Man,Rechts,1,
,dotcolour,dotcolour,dotcolour,5,0,5,605,training,negativefb,64,average,55,0.6834236999998211,['c'],1,left,['1'],6,0.07641619999958493,,,23,18,Man,Rechts,1,
,dotcolour,dotcolour,dotcolour,6,0,6,606,training,negativefb,60,average,54,0.46778130000029705,['c'],1,left,['1'],6,0.07928889999993771,,,23,18,Man,Rechts,1,
,dotcolour,dotcolour,dotcolour,7,0,7,607,training,negativefb,54,easy,15,0.6158328000001347,['n'],1,right,['1'],6,0.05239449999999124,,,23,18,Man,Rechts,1,
,dotcolour,dotcolour,dotcolour,8,0,8,608,training,negativefb,5,easy,15,0.5323107000003802,['c'],0,right,['0'],1,1.1965407000002415,,,23,18,Man,Rechts,1,
,dotcolour,dotcolour,dotcolour,9,0,9,609,training,negativefb,73,average,51,0.7012472999999773,['c'],1,left,['1'],6,0.08887730000014926,,,23,18,Man,Rechts,1,
,dotcolour,dotcolour,dotcolour,10,0,10,610,training,negativefb,62,easy,62,0.665928200000053,['c'],1,left,['1'],6,0.02680720000034853,,,23,18,Man,Rechts,1,
,dotcolour,dotcolour,dotcolour,11,0,11,611,training,negativefb,46,hard,39,0.7171646000001601,['n'],1,right,['1'],6,0.14222550000022238,,,23,18,Man,Rechts,1,
,dotcolour,dotcolour,dotcolour,12,0,12,612,training,negativefb,77,easy,18,0.8337808999999652,['n'],1,right,['1'],6,0.08701840000003358,,,23,18,Man,Rechts,1,
,dotcolour,dotcolour,dotcolour,13,0,13,613,training,negativefb,69,hard,44,1.7505878000001758,['c'],1,left,['2'],5,0.60629229999995,,,23,18,Man,Rechts,1,
,dotcolour,dotcolour,dotcolour,14,0,14,614,training,negativefb,86,average,29,0.6996736000000965,['n'],1,right,['2'],5,0.14607699999987744,,,23,18,Man,Rechts,1,
,dotcolour,dotcolour,dotcolour,15,0,15,615,training,negativefb,64,easy,17,0.699181899999985,['n'],1,right,['2'],5,0.05706700000018827,,,23,18,Man,Rechts,1,
,dotcolour,dotcolour,dotcolour,16,0,16,616,training,negativefb,62,average,26,0.6171229000001404,['n'],1,right,['2'],5,0.10175360000039291,,,23,18,Man,Rechts,1,
,dotcolour,dotcolour,dotcolour,17,0,17,617,training,negativefb,46,easy,64,0.9832316000001811,['c'],1,left,['2'],5,0.12270779999971637,,,23,18,Man,Rechts,1,
,dotcolour,dotcolour,dotcolour,18,0,18,618,training,negativefb,66,average,25,0.5829273999997895,['n'],1,right,['2'],5,0.054875299999821436,,,23,18,Man,Rechts,1,
,dotcolour,dotcolour,dotcolour,19,0,19,619,training,negativefb,81,average,53,1.2509084000002986,['c'],1,left,['2'],5,0.0665764999998828,,,23,18,Man,Rechts,1,
,dotcolour,dotcolour,dotcolour,20,0,20,620,training,negativefb,50,hard,39,1.3502627000002576,['n'],1,right,['3'],4,0.1222237000001769,,,23,18,Man,Rechts,1,
,dotcolour,dotcolour,dotcolour,21,0,21,621,training,negativefb,74,easy,64,0.6332084999999097,['c'],1,left,['2'],5,0.043872799999917333,,,23,18,Man,Rechts,1,
,dotcolour,dotcolour,dotcolour,22,0,22,622,training,negativefb,89,average,28,0.5669497999997475,['n'],1,right,['1'],6,0.043779000000085944,,,23,18,Man,Rechts,1,
,dotcolour,dotcolour,dotcolour,23,0,23,623,training,negativefb,67,average,26,0.5337062999997215,['n'],1,right,['1'],6,0.05345660000011776,,,23,18,Man,Rechts,1,
,dotcolour,dotcolour,dotcolour,24,0,24,624,training,negativefb,52,easy,63,0.5831933999998,['c'],1,left,['1'],6,0.06000059999996665,,,23,18,Man,Rechts,1,
,dotcolour,dotcolour,dotcolour,25,0,25,625,training,negativefb,79,hard,44,1.15046940000002,['c'],1,left,['1'],6,0.09973450000006778,,,23,18,Man,Rechts,1,
,dotcolour,dotcolour,dotcolour,26,0,26,626,training,negativefb,25,hard,41,0.5663683000002493,['n'],0,left,['8'],3,2.481467099999918,,,23,18,Man,Rechts,1,
,dotcolour,dotcolour,dotcolour,27,0,27,627,training,negativefb,66,easy,16,1.633845299999848,['n'],1,right,['1'],6,0.31593370000018695,,,23,18,Man,Rechts,1,
,dotcolour,dotcolour,dotcolour,28,0,28,628,training,negativefb,63,average,55,0.8324895000000652,['c'],1,left,['1'],6,0.10214490000043952,,,23,18,Man,Rechts,1,
,dotcolour,dotcolour,dotcolour,29,0,29,629,training,negativefb,65,hard,41,1.9345133000001624,['c'],1,left,['2'],5,0.1808899000002384,,,23,18,Man,Rechts,1,
,dotcolour,dotcolour,dotcolour,30,0,30,630,training,negativefb,97,average,51,0.834128999999848,['c'],1,left,['1'],6,2.837170199999946,,,23,18,Man,Rechts,1,
,dotcolour,dotcolour,dotcolour,31,0,31,631,training,negativefb,57,easy,63,0.6838131999998041,['c'],1,left,['1'],6,0.1672100999999202,,,23,18,Man,Rechts,1,
,dotcolour,dotcolour,dotcolour,32,0,32,632,training,negativefb,46,easy,19,0.5840847000004032,['n'],1,right,['1'],6,0.05704849999983708,,,23,18,Man,Rechts,1,
,dotcolour,dotcolour,dotcolour,33,0,33,633,training,negativefb,74,easy,19,0.783182300000135,['n'],1,right,['1'],6,0.0881440999996812,,,23,18,Man,Rechts,1,
,dotcolour,dotcolour,dotcolour,34,0,34,634,training,negativefb,88,hard,45,0.7669222999998055,['c'],1,left,['2'],5,0.35855409999976473,,,23,18,Man,Rechts,1,
,dotcolour,dotcolour,dotcolour,35,0,35,635,training,negativefb,61,average,28,1.2341352000003099,['n'],1,right,['2'],5,0.17465229999970688,,,23,18,Man,Rechts,1,
,dotcolour,dotcolour,dotcolour,36,0,36,636,training,negativefb,57,hard,38,0.7337462999998934,['n'],1,right,['2'],5,0.010952399999951012,,,23,18,Man,Rechts,1,
,dotcolour,dotcolour,dotcolour,37,0,37,637,training,negativefb,61,average,51,0.6339756000002126,['c'],1,left,['1'],6,0.1696206000001439,,,23,18,Man,Rechts,1,
,dotcolour,dotcolour,dotcolour,38,0,38,638,training,negativefb,47,easy,15,0.6823897999997826,['n'],1,right,['1'],6,0.03196219999972527,,,23,18,Man,Rechts,1,
,dotcolour,dotcolour,dotcolour,39,0,39,639,training,negativefb,56,hard,42,0.8344852999998693,['c'],1,left,['1'],6,0.10857689999966169,,,23,18,Man,Rechts,1,
,dotcolour,dotcolour,dotcolour,40,0,40,640,training,negativefb,61,easy,15,0.45062629999983983,['n'],1,right,['1'],6,0.023067399999945337,,,23,18,Man,Rechts,1,
,dotcolour,dotcolour,dotcolour,41,0,41,641,training,negativefb,64,hard,42,0.6500605999999607,['n'],0,left,['1'],6,0.11653200000000652,,,23,18,Man,Rechts,1,
,dotcolour,dotcolour,dotcolour,42,0,42,642,training,negativefb,77,easy,17,0.5832918999999492,['n'],1,right,['1'],6,0.11269229999970776,,,23,18,Man,Rechts,1,
,dotcolour,dotcolour,dotcolour,43,0,43,643,training,negativefb,68,easy,62,0.8166955000001508,['c'],1,left,['1'],6,0.3476480999997875,,,23,18,Man,Rechts,1,
