starttime,task,fbtask,firsttask,withinblocktrial,block,withintasktrial,trial,running,feedback,fbscore,difflevel,n_xes,rt,resp,cor,cresp,conf_press,cj,RTconf,reddots,stoptime,sub,age,gender,handedness,session,
1715076421,xotask,xotask,xotask,0,0,0,0,training,negativefb,7,average,16,6.417305800000577,['c'],0,right,['8'],3,4.231045100000301,,,34,18,Man,Rechts,1,
,xotask,xotask,xotask,1,0,1,1,training,negativefb,100,easy,74,1.717393599999923,['c'],1,left,['2'],5,3.44756789999974,,,34,18,Man,Rechts,1,
,xotask,xotask,xotask,2,0,2,2,training,negativefb,99,average,19,1.5506626999995206,['n'],1,right,['3'],4,2.399447099999634,,,34,18,Man,Rechts,1,
,xotask,xotask,xotask,3,0,3,3,training,negativefb,97,average,18,1.3833338000004005,['n'],1,right,['3'],4,4.31961020000017,,,34,18,Man,Rechts,1,
,xotask,xotask,xotask,4,0,4,4,training,negativefb,17,hard,26,1.6154712999996264,['c'],0,right,['3'],4,8.865312500000073,,,34,18,Man,Rechts,1,
,xotask,xotask,xotask,5,0,5,5,training,negativefb,75,average,16,3.766551300000174,['n'],1,right,['8'],3,1.0928924999998344,,,34,18,Man,Rechts,1,
,xotask,xotask,xotask,6,0,6,6,training,negativefb,63,average,15,3.7509823999998844,['n'],1,right,['2'],5,1.7229090000000724,,,34,18,Man,Rechts,1,
,xotask,xotask,xotask,7,0,7,7,training,negativefb,99,easy,72,1.367333499999404,['c'],1,left,['2'],5,0.7508428999999524,,,34,18,Man,Rechts,1,
,xotask,xotask,xotask,8,0,8,8,training,negativefb,21,hard,28,3.8840210999997,['c'],0,right,['3'],4,0.7173636999996233,,,34,18,Man,Rechts,1,
,xotask,xotask,xotask,9,0,9,9,training,negativefb,75,easy,8,1.2343200999994224,['n'],1,right,['3'],4,0.6072342999996181,,,34,18,Man,Rechts,1,
,xotask,xotask,xotask,10,0,10,10,training,negativefb,82,easy,7,3.7822856000002503,['n'],1,right,['3'],4,1.0646285000002536,,,34,18,Man,Rechts,1,
,xotask,xotask,xotask,11,0,11,11,training,negativefb,39,average,19,2.867182999999386,['c'],0,right,['2'],5,1.6672865000000456,,,34,18,Man,Rechts,1,
,xotask,xotask,xotask,12,0,12,12,training,negativefb,67,average,61,2.917476699999497,['c'],1,left,['2'],5,0.4512227000004714,,,34,18,Man,Rechts,1,
,xotask,xotask,xotask,13,0,13,13,training,negativefb,50,average,19,5.450069299999996,['n'],1,right,['8'],3,1.2238750000005894,,,34,18,Man,Rechts,1,
,xotask,xotask,xotask,14,0,14,14,training,negativefb,83,easy,6,1.8495616000000155,['n'],1,right,['1'],6,1.1966279999996914,,,34,18,Man,Rechts,1,
,xotask,xotask,xotask,15,0,15,15,training,negativefb,50,hard,25,3.9327032000001054,['c'],0,right,['3'],4,0.3920992000003025,,,34,18,Man,Rechts,1,
,xotask,xotask,xotask,16,0,16,16,training,negativefb,88,average,17,1.1836897000002864,['n'],1,right,['2'],5,0.6733484999995198,,,34,18,Man,Rechts,1,
,xotask,xotask,xotask,17,0,17,17,training,negativefb,61,hard,52,4.334933799999817,['c'],1,left,['3'],4,1.0494142999996257,,,34,18,Man,Rechts,1,
,xotask,xotask,xotask,18,0,18,18,training,negativefb,83,average,15,1.7001833000003899,['n'],1,right,['2'],5,0.6910678000003827,,,34,18,Man,Rechts,1,
,xotask,xotask,xotask,19,0,19,19,training,negativefb,58,easy,72,1.9995137000005343,['c'],1,left,['1'],6,0.2472522999996727,,,34,18,Man,Rechts,1,
,xotask,xotask,xotask,20,0,20,20,training,negativefb,67,easy,9,1.6333654000000024,['n'],1,right,['2'],5,0.22784970000066096,,,34,18,Man,Rechts,1,
,xotask,xotask,xotask,21,0,21,21,training,negativefb,90,hard,51,1.18460259999938,['c'],1,left,['1'],6,0.2763772999996945,,,34,18,Man,Rechts,1,
,xotask,xotask,xotask,22,0,22,22,training,negativefb,83,easy,5,1.2508345999995072,['n'],1,right,['1'],6,0.20800320000034844,,,34,18,Man,Rechts,1,
,xotask,xotask,xotask,23,0,23,23,training,negativefb,58,hard,50,1.8663793999994596,['c'],1,left,['2'],5,0.3005003999996916,,,34,18,Man,Rechts,1,
,xotask,xotask,xotask,24,0,24,24,training,negativefb,81,hard,52,1.3998839999994743,['c'],1,left,['2'],5,0.42455659999995987,,,34,18,Man,Rechts,1,
,xotask,xotask,xotask,25,0,25,25,training,negativefb,51,hard,54,1.7516476000000694,['c'],1,left,['1'],6,0.4264731000002939,,,34,18,Man,Rechts,1,
,xotask,xotask,xotask,26,0,26,26,training,negativefb,63,easy,73,4.500980900000286,['c'],1,left,['2'],5,0.3659205000003567,,,34,18,Man,Rechts,1,
,xotask,xotask,xotask,27,0,27,27,training,negativefb,44,hard,25,1.4162427000001117,['n'],1,right,['3'],4,0.7499830999995538,,,34,18,Man,Rechts,1,
,xotask,xotask,xotask,28,0,28,28,training,negativefb,47,hard,52,3.1174108000004708,['n'],0,left,['8'],3,0.38730409999971016,,,34,18,Man,Rechts,1,
,xotask,xotask,xotask,29,0,29,29,training,negativefb,24,hard,28,5.066558399999849,['c'],0,right,['2'],5,0.7616256999999678,,,34,18,Man,Rechts,1,
,xotask,xotask,xotask,30,0,30,30,training,negativefb,61,hard,27,3.649770500000159,['n'],1,right,['9'],2,0.5137165000005552,,,34,18,Man,Rechts,1,
,xotask,xotask,xotask,31,0,31,31,training,negativefb,73,hard,50,3.233362200000556,['n'],0,left,['3'],4,0.6762613999999303,,,34,18,Man,Rechts,1,
,xotask,xotask,xotask,32,0,32,32,training,negativefb,85,easy,73,1.1342635999999402,['c'],1,left,['1'],6,0.28432510000038747,,,34,18,Man,Rechts,1,
,xotask,xotask,xotask,33,0,33,33,training,negativefb,41,hard,52,1.9515302999998312,['c'],1,left,['2'],5,0.3705368000000817,,,34,18,Man,Rechts,1,
,xotask,xotask,xotask,34,0,34,34,training,negativefb,65,average,18,1.9165923999998995,['n'],1,right,['3'],4,0.1755272000000332,,,34,18,Man,Rechts,1,
,xotask,xotask,xotask,35,0,35,35,training,negativefb,25,average,64,4.250582799999393,['n'],0,left,['8'],3,1.0386478000000352,,,34,18,Man,Rechts,1,
,xotask,xotask,xotask,36,0,36,36,training,negativefb,90,easy,70,1.166251800000282,['c'],1,left,['2'],5,0.8309460000000399,,,34,18,Man,Rechts,1,
,xotask,xotask,xotask,37,0,37,37,training,negativefb,17,hard,29,1.799770499999795,['c'],0,right,['2'],5,0.8854393999999957,,,34,18,Man,Rechts,1,
,xotask,xotask,xotask,38,0,38,38,training,negativefb,81,average,61,1.0827117999997427,['c'],1,left,['1'],6,0.26242720000027475,,,34,18,Man,Rechts,1,
,xotask,xotask,xotask,39,0,39,39,training,negativefb,65,easy,72,1.4012708999998722,['c'],1,left,['1'],6,0.3248794999999518,,,34,18,Man,Rechts,1,
,xotask,xotask,xotask,40,0,40,40,training,negativefb,98,easy,5,1.5672126999998,['n'],1,right,['2'],5,1.721491899999819,,,34,18,Man,Rechts,1,
,xotask,xotask,xotask,41,0,41,41,training,negativefb,58,average,62,1.8174640999995972,['c'],1,left,['2'],5,0.23530570000002626,,,34,18,Man,Rechts,1,
,xotask,xotask,xotask,42,0,42,42,training,negativefb,58,easy,8,1.4658759000003556,['n'],1,right,['1'],6,0.13497370000004594,,,34,18,Man,Rechts,1,
,xotask,xotask,xotask,43,0,43,43,training,negativefb,66,hard,53,1.4673892999999225,['c'],1,left,['1'],6,0.23954129999947327,,,34,18,Man,Rechts,1,
,xotask,xotask,xotask,44,0,44,44,training,negativefb,90,average,62,1.4170251999994434,['c'],1,left,['1'],6,0.19774600000073406,,,34,18,Man,Rechts,1,
,xotask,xotask,xotask,45,0,45,45,training,negativefb,70,easy,73,0.9172544000002745,['c'],1,left,['1'],6,0.20982120000007853,,,34,18,Man,Rechts,1,
,xotask,xotask,xotask,46,0,46,46,training,negativefb,50,average,61,0.8841314000001148,['c'],1,left,['1'],6,0.1656184999992547,,,34,18,Man,Rechts,1,
,xotask,xotask,xotask,47,0,47,47,training,negativefb,95,easy,8,1.2164777000007234,['n'],1,right,['2'],5,0.7269985000002634,,,34,18,Man,Rechts,1,
,xotask,xotask,xotask,48,0,48,48,training,negativefb,73,hard,25,2.0514937000007194,['n'],1,right,['2'],5,0.5682338000005984,,,34,18,Man,Rechts,1,
,xotask,xotask,xotask,49,0,49,49,training,negativefb,47,hard,25,2.7998021000003064,['n'],1,right,['3'],4,0.7138321000002179,,,34,18,Man,Rechts,1,
,xotask,xotask,xotask,50,0,50,50,training,negativefb,56,easy,9,1.916593599999942,['n'],1,right,['2'],5,0.3047618999999031,,,34,18,Man,Rechts,1,
,xotask,xotask,xotask,51,0,51,51,training,negativefb,73,average,63,1.9002900000004956,['c'],1,left,['2'],5,0.44070149999970454,,,34,18,Man,Rechts,1,
,xotask,xotask,xotask,52,0,52,52,training,negativefb,77,average,62,1.3510829000006197,['c'],1,left,['2'],5,0.3057804000000033,,,34,18,Man,Rechts,1,
,xotask,xotask,xotask,53,0,53,53,training,negativefb,63,easy,72,1.5840594999999666,['c'],1,left,['1'],6,0.2383322000005137,,,34,18,Man,Rechts,1,
,xotask,xotask,xotask,54,0,54,54,training,negativefb,58,easy,9,1.6000655999996525,['n'],1,right,['2'],5,0.19680179999977554,,,34,18,Man,Rechts,1,
,xotask,xotask,xotask,55,0,55,55,training,negativefb,49,hard,29,5.067235200000141,['n'],1,right,['9'],2,0.9149642000002132,,,34,18,Man,Rechts,1,
,xotask,xotask,xotask,56,0,56,56,training,negativefb,72,average,62,1.4502637999994477,['c'],1,left,['1'],6,0.22764450000067882,,,34,18,Man,Rechts,1,
,xotask,xotask,xotask,57,0,57,57,training,negativefb,58,easy,70,0.9331018999992011,['c'],1,left,['1'],6,0.1503562999996575,,,34,18,Man,Rechts,1,
,xotask,xotask,xotask,58,0,58,58,training,negativefb,53,average,61,1.5666171000002578,['c'],1,left,['2'],5,0.28094289999989996,,,34,18,Man,Rechts,1,
,xotask,xotask,xotask,59,0,59,59,training,negativefb,78,hard,52,1.6007799999997587,['c'],1,left,['2'],5,0.1660905000007915,,,34,18,Man,Rechts,1,
,xotask,xotask,xotask,0,1,60,60,training,negativefb,85,easy,72,0.9344504999999117,['c'],1,left,['1'],6,0.5419721000007485,,,34,18,Man,Rechts,1,
,xotask,xotask,xotask,1,1,61,61,training,negativefb,87,easy,72,0.6847188000001552,['c'],1,left,['1'],6,0.21300960000007763,,,34,18,Man,Rechts,1,
,xotask,xotask,xotask,2,1,62,62,training,negativefb,40,average,17,2.3827287000003707,['c'],0,right,['2'],5,0.24651059999996505,,,34,18,Man,Rechts,1,
,xotask,xotask,xotask,3,1,63,63,training,negativefb,57,hard,54,1.1673798000001625,['c'],1,left,['1'],6,0.18190640000011626,,,34,18,Man,Rechts,1,
,xotask,xotask,xotask,4,1,64,64,training,negativefb,79,easy,73,0.7339970999992147,['c'],1,left,['1'],6,0.1767656000001807,,,34,18,Man,Rechts,1,
,xotask,xotask,xotask,5,1,65,65,training,negativefb,92,hard,54,0.9495008999992933,['c'],1,left,['1'],6,0.14863179999974818,,,34,18,Man,Rechts,1,
,xotask,xotask,xotask,6,1,66,66,training,negativefb,80,easy,5,1.0170152000000598,['n'],1,right,['2'],5,0.9024109000001772,,,34,18,Man,Rechts,1,
,xotask,xotask,xotask,7,1,67,67,training,negativefb,56,average,60,1.1669823999991422,['c'],1,left,['2'],5,0.2589246000006824,,,34,18,Man,Rechts,1,
,xotask,xotask,xotask,8,1,68,68,training,negativefb,78,easy,8,1.1840720000000147,['n'],1,right,['2'],5,0.4335254999996323,,,34,18,Man,Rechts,1,
,xotask,xotask,xotask,9,1,69,69,training,negativefb,60,average,63,1.5004720999995698,['c'],1,left,['2'],5,0.2049423000007664,,,34,18,Man,Rechts,1,
,xotask,xotask,xotask,10,1,70,70,training,negativefb,69,easy,7,0.8997887999994418,['n'],1,right,['1'],6,0.15297620000001189,,,34,18,Man,Rechts,1,
,xotask,xotask,xotask,11,1,71,71,training,negativefb,63,easy,7,0.8664078000001609,['n'],1,right,['1'],6,0.2160422999995717,,,34,18,Man,Rechts,1,
,xotask,xotask,xotask,12,1,72,72,training,negativefb,66,average,64,1.0005113999995956,['c'],1,left,['1'],6,0.27085840000017924,,,34,18,Man,Rechts,1,
,xotask,xotask,xotask,13,1,73,73,training,negativefb,60,average,17,0.8001516999993328,['n'],1,right,['1'],6,0.5892245999993975,,,34,18,Man,Rechts,1,
,xotask,xotask,xotask,14,1,74,74,training,negativefb,57,hard,51,2.5662077999995745,['c'],1,left,['2'],5,0.35842779999984486,,,34,18,Man,Rechts,1,
,xotask,xotask,xotask,15,1,75,75,training,negativefb,72,hard,50,1.2503403000000617,['c'],1,left,['2'],5,0.37391070000012405,,,34,18,Man,Rechts,1,
,xotask,xotask,xotask,16,1,76,76,training,negativefb,54,hard,25,1.699726699999701,['c'],0,right,['2'],5,0.3001896999994642,,,34,18,Man,Rechts,1,
,xotask,xotask,xotask,17,1,77,77,training,negativefb,39,hard,53,3.300370599999951,['n'],0,left,['3'],4,1.668173700000807,,,34,18,Man,Rechts,1,
,xotask,xotask,xotask,18,1,78,78,training,negativefb,61,hard,25,1.7167346000005637,['n'],1,right,['3'],4,1.5557251000000178,,,34,18,Man,Rechts,1,
,xotask,xotask,xotask,19,1,79,79,training,negativefb,89,hard,26,3.034262599999238,['n'],1,right,['9'],2,2.068086100000073,,,34,18,Man,Rechts,1,
,xotask,xotask,xotask,20,1,80,80,training,negativefb,66,easy,71,1.1672246999996787,['c'],1,left,['1'],6,0.17768489999980375,,,34,18,Man,Rechts,1,
,xotask,xotask,xotask,21,1,81,81,training,negativefb,60,average,15,1.4006534000000102,['n'],1,right,['2'],5,0.16261439999925642,,,34,18,Man,Rechts,1,
,xotask,xotask,xotask,22,1,82,82,training,negativefb,89,easy,9,1.233073900000818,['n'],1,right,['2'],5,1.1479749000000083,,,34,18,Man,Rechts,1,
,xotask,xotask,xotask,23,1,83,83,training,negativefb,35,average,63,1.2665956000000733,['c'],1,left,['2'],5,0.4105937000003905,,,34,18,Man,Rechts,1,
,xotask,xotask,xotask,24,1,84,84,training,negativefb,55,easy,8,2.4173237999993944,['n'],1,right,['1'],6,1.1466309000006731,,,34,18,Man,Rechts,1,
,xotask,xotask,xotask,25,1,85,85,training,negativefb,65,easy,74,1.1338967000001503,['c'],1,left,['1'],6,0.16803900000013527,,,34,18,Man,Rechts,1,
,xotask,xotask,xotask,26,1,86,86,training,negativefb,51,average,19,1.3010752999998658,['n'],1,right,['2'],5,0.2531644000000597,,,34,18,Man,Rechts,1,
,xotask,xotask,xotask,27,1,87,87,training,negativefb,46,easy,9,1.399615399999675,['n'],1,right,['2'],5,1.0755066000001534,,,34,18,Man,Rechts,1,
,xotask,xotask,xotask,28,1,88,88,training,negativefb,48,hard,26,1.0177622000001065,['n'],1,right,['2'],5,0.2075618000008035,,,34,18,Man,Rechts,1,
,xotask,xotask,xotask,29,1,89,89,training,negativefb,56,average,18,1.0498097999998208,['n'],1,right,['2'],5,0.32577279999986786,,,34,18,Man,Rechts,1,
,xotask,xotask,xotask,30,1,90,90,training,negativefb,65,hard,54,1.5169864999998026,['c'],1,left,['2'],5,0.16458380000040052,,,34,18,Man,Rechts,1,
,xotask,xotask,xotask,31,1,91,91,training,negativefb,68,easy,73,1.6161200999995344,['c'],1,left,['1'],6,0.2772200999997949,,,34,18,Man,Rechts,1,
,xotask,xotask,xotask,32,1,92,92,training,negativefb,59,average,60,4.60093599999982,['c'],1,left,['2'],5,0.8663385999998354,,,34,18,Man,Rechts,1,
,xotask,xotask,xotask,33,1,93,93,training,negativefb,65,easy,7,1.2168694000001778,['n'],1,right,['2'],5,0.2556279000000359,,,34,18,Man,Rechts,1,
,xotask,xotask,xotask,34,1,94,94,training,negativefb,55,hard,25,1.6845069999999396,['n'],1,right,['3'],4,0.18523030000051222,,,34,18,Man,Rechts,1,
,xotask,xotask,xotask,35,1,95,95,training,negativefb,56,hard,29,2.3158473999992566,['n'],1,right,['8'],3,0.2382010999999693,,,34,18,Man,Rechts,1,
,xotask,xotask,xotask,36,1,96,96,training,negativefb,55,hard,54,1.0168929000001299,['c'],1,left,['1'],6,0.4117787999994107,,,34,18,Man,Rechts,1,
,xotask,xotask,xotask,37,1,97,97,training,negativefb,47,average,63,1.2333152000001064,['c'],1,left,['2'],5,0.20219809999980498,,,34,18,Man,Rechts,1,
,xotask,xotask,xotask,38,1,98,98,training,negativefb,71,average,64,0.9998533999996653,['c'],1,left,['1'],6,0.27471109999987675,,,34,18,Man,Rechts,1,
,xotask,xotask,xotask,39,1,99,99,training,negativefb,56,hard,29,1.9329284999994343,['c'],0,right,['3'],4,0.5542978000003131,,,34,18,Man,Rechts,1,
,xotask,xotask,xotask,40,1,100,100,training,negativefb,64,hard,51,4.083076499999152,['c'],1,left,['8'],3,0.3930945000001884,,,34,18,Man,Rechts,1,
,xotask,xotask,xotask,41,1,101,101,training,negativefb,65,hard,25,2.8514008000001922,['c'],0,right,['8'],3,0.23173150000002352,,,34,18,Man,Rechts,1,
,xotask,xotask,xotask,42,1,102,102,training,negativefb,71,easy,9,1.4503175999998348,['n'],1,right,['2'],5,0.16498039999987668,,,34,18,Man,Rechts,1,
,xotask,xotask,xotask,43,1,103,103,training,negativefb,43,average,16,0.8833089999998265,['n'],1,right,['2'],5,0.1459740000000238,,,34,18,Man,Rechts,1,
,xotask,xotask,xotask,44,1,104,104,training,negativefb,22,hard,53,2.350699199999326,['c'],1,left,['3'],4,0.6552599999995437,,,34,18,Man,Rechts,1,
,xotask,xotask,xotask,45,1,105,105,training,negativefb,52,easy,72,1.0167013000000225,['c'],1,left,['1'],6,0.1564730000000054,,,34,18,Man,Rechts,1,
,xotask,xotask,xotask,46,1,106,106,training,negativefb,66,hard,28,1.3667374999995445,['n'],1,right,['3'],4,1.2400054999998247,,,34,18,Man,Rechts,1,
,xotask,xotask,xotask,47,1,107,107,training,negativefb,34,easy,71,1.3666516999992382,['c'],1,left,['2'],5,0.26312140000027284,,,34,18,Man,Rechts,1,
,xotask,xotask,xotask,48,1,108,108,training,negativefb,62,easy,8,0.8838016999998217,['n'],1,right,['1'],6,0.14618780000000697,,,34,18,Man,Rechts,1,
,xotask,xotask,xotask,49,1,109,109,training,negativefb,72,hard,51,1.383896199999981,['c'],1,left,['2'],5,0.4221406999995452,,,34,18,Man,Rechts,1,
,xotask,xotask,xotask,50,1,110,110,training,negativefb,68,average,19,1.0339081000001897,['n'],1,right,['2'],5,0.3712271000003966,,,34,18,Man,Rechts,1,
,xotask,xotask,xotask,51,1,111,111,training,negativefb,84,easy,73,0.9828569000001153,['c'],1,left,['1'],6,0.16599909999968077,,,34,18,Man,Rechts,1,
,xotask,xotask,xotask,52,1,112,112,training,negativefb,63,easy,74,0.8167088000000149,['c'],1,left,['1'],6,0.10216889999992418,,,34,18,Man,Rechts,1,
,xotask,xotask,xotask,53,1,113,113,training,negativefb,66,average,61,0.7172974000004615,['c'],1,left,['1'],6,0.14189139999962208,,,34,18,Man,Rechts,1,
,xotask,xotask,xotask,54,1,114,114,training,negativefb,64,average,19,0.9008882999996786,['n'],1,right,['2'],5,0.29263580000042566,,,34,18,Man,Rechts,1,
,xotask,xotask,xotask,55,1,115,115,training,negativefb,83,average,63,1.1667355999998108,['c'],1,left,['2'],5,0.21021120000023075,,,34,18,Man,Rechts,1,
,xotask,xotask,xotask,56,1,116,116,training,negativefb,56,hard,27,1.5508127000002787,['c'],0,right,['2'],5,0.22775829999955022,,,34,18,Man,Rechts,1,
,xotask,xotask,xotask,57,1,117,117,training,negativefb,60,average,19,2.1334225999999035,['n'],1,right,['2'],5,0.15823340000042663,,,34,18,Man,Rechts,1,
,xotask,xotask,xotask,58,1,118,118,training,negativefb,46,average,60,0.8677648000002591,['c'],1,left,['2'],5,0.1653059000000212,,,34,18,Man,Rechts,1,
,xotask,xotask,xotask,59,1,119,119,training,negativefb,54,average,16,5.500946000000113,['c'],0,right,['3'],4,0.32343670000045677,,,34,18,Man,Rechts,1,
,xotask,xotask,xotask,0,2,120,120,main,negativefb,-99,hard,29,2.4508151999998518,['n'],1,right,['8'],3,0.33921970000028523,,,34,18,Man,Rechts,1,
,xotask,xotask,xotask,1,2,121,121,main,negativefb,-99,easy,8,1.4670664000004763,['n'],1,right,['3'],4,0.15597220000017842,,,34,18,Man,Rechts,1,
,xotask,xotask,xotask,2,2,122,122,main,negativefb,-99,easy,72,1.4674494999999297,['c'],1,left,['2'],5,0.14084469999943394,,,34,18,Man,Rechts,1,
,xotask,xotask,xotask,3,2,123,123,main,negativefb,-99,easy,7,1.0015864999995756,['n'],1,right,['2'],5,0.13524099999995087,,,34,18,Man,Rechts,1,
,xotask,xotask,xotask,4,2,124,124,main,negativefb,-99,hard,54,3.267681399999674,['c'],1,left,['3'],4,0.12748970000029658,,,34,18,Man,Rechts,1,
,xotask,xotask,xotask,5,2,125,125,main,negativefb,-99,easy,73,1.25023340000007,['c'],1,left,['2'],5,0.24188319999939267,,,34,18,Man,Rechts,1,
,xotask,xotask,xotask,6,2,126,126,main,negativefb,-99,hard,27,1.6506887000005008,['n'],1,right,['8'],3,0.4471062000002348,,,34,18,Man,Rechts,1,
,xotask,xotask,xotask,7,2,127,127,main,negativefb,-99,hard,53,1.017399700000169,['c'],1,left,['3'],4,0.6455022000000099,,,34,18,Man,Rechts,1,
,xotask,xotask,xotask,8,2,128,128,main,negativefb,-99,easy,74,0.9840180000001055,['c'],1,left,['1'],6,0.10980059999928926,,,34,18,Man,Rechts,1,
,xotask,xotask,xotask,9,2,129,129,main,negativefb,-99,average,16,1.4005747000001065,['n'],1,right,['2'],5,0.12302079999972193,,,34,18,Man,Rechts,1,
,xotask,xotask,xotask,10,2,130,130,main,negativefb,-99,average,17,1.584338000000571,['n'],1,right,['3'],4,0.15931170000021666,,,34,18,Man,Rechts,1,
,xotask,xotask,xotask,11,2,131,131,main,negativefb,-99,average,15,5.9855171999997765,['n'],1,right,['8'],3,0.3387550999996165,,,34,18,Man,Rechts,1,
,xotask,xotask,xotask,12,2,132,132,main,negativefb,-99,average,64,1.4503220999995392,['c'],1,left,['2'],5,0.1640847999997277,,,34,18,Man,Rechts,1,
,xotask,xotask,xotask,13,2,133,133,main,negativefb,-99,easy,7,4.867241800000556,['n'],1,right,['8'],3,0.19541490000028716,,,34,18,Man,Rechts,1,
,xotask,xotask,xotask,14,2,134,134,main,negativefb,-99,hard,52,1.3844702999995206,['c'],1,left,['2'],5,0.12651000000005297,,,34,18,Man,Rechts,1,
,xotask,xotask,xotask,15,2,135,135,main,negativefb,-99,average,61,1.068089599999439,['c'],1,left,['1'],6,0.10299339999983204,,,34,18,Man,Rechts,1,
,xotask,xotask,xotask,16,2,136,136,main,negativefb,-99,hard,25,2.0844308000005185,['n'],1,right,['2'],5,0.10428810000030353,,,34,18,Man,Rechts,1,
,xotask,xotask,xotask,17,2,137,137,main,negativefb,-99,hard,25,0.8506279000002905,['n'],1,right,['2'],5,0.09140129999923374,,,34,18,Man,Rechts,1,
,xotask,xotask,xotask,18,2,138,138,main,negativefb,-99,average,63,1.2327268999997614,['n'],0,left,['3'],4,0.09557670000049256,,,34,18,Man,Rechts,1,
,xotask,xotask,xotask,19,2,139,139,main,negativefb,-99,hard,53,1.9176191000005929,['c'],1,left,['3'],4,0.09601769999972021,,,34,18,Man,Rechts,1,
,xotask,xotask,xotask,20,2,140,140,main,negativefb,-99,easy,71,2.533817900000031,['c'],1,left,['2'],5,0.41627489999973477,,,34,18,Man,Rechts,1,
,xotask,xotask,xotask,21,2,141,141,main,negativefb,-99,average,60,0.9848788999997851,['c'],1,left,['3'],4,0.13637000000016997,,,34,18,Man,Rechts,1,
,xotask,xotask,xotask,22,2,142,142,main,negativefb,-99,average,64,1.0159556999997221,['c'],1,left,['3'],4,0.10753940000086004,,,34,18,Man,Rechts,1,
,xotask,xotask,xotask,23,2,143,143,main,negativefb,-99,easy,73,1.0843119000001025,['c'],1,left,['1'],6,0.10848469999928056,,,34,18,Man,Rechts,1,
,xotask,xotask,xotask,24,2,144,144,main,negativefb,-99,hard,52,2.4332173000002513,['c'],1,left,['2'],5,0.08825559999968391,,,34,18,Man,Rechts,1,
,xotask,xotask,xotask,25,2,145,145,main,negativefb,-99,easy,8,1.0672193000000334,['n'],1,right,['2'],5,0.09898520000024291,,,34,18,Man,Rechts,1,
,xotask,xotask,xotask,26,2,146,146,main,negativefb,-99,easy,8,0.6506275000001551,['n'],1,right,['2'],5,0.10094160000062402,,,34,18,Man,Rechts,1,
,xotask,xotask,xotask,27,2,147,147,main,negativefb,-99,easy,9,0.9010189000000537,['n'],1,right,['1'],6,0.10163860000011482,,,34,18,Man,Rechts,1,
,xotask,xotask,xotask,28,2,148,148,main,negativefb,-99,hard,25,0.7174552999995285,['n'],1,right,['1'],6,0.10243500000069616,,,34,18,Man,Rechts,1,
,xotask,xotask,xotask,29,2,149,149,main,negativefb,-99,hard,29,0.6509161000003587,['n'],1,right,['1'],6,0.16823359999943932,,,34,18,Man,Rechts,1,
,xotask,xotask,xotask,30,2,150,150,main,negativefb,-99,easy,6,0.7665321000004042,['n'],1,right,['1'],6,0.14787860000069486,,,34,18,Man,Rechts,1,
,xotask,xotask,xotask,31,2,151,151,main,negativefb,-99,easy,8,0.6512217999998029,['n'],1,right,['1'],6,0.12408909999976458,,,34,18,Man,Rechts,1,
,xotask,xotask,xotask,32,2,152,152,main,negativefb,-99,easy,71,2.867127999999866,['c'],1,left,['3'],4,0.12586349999946833,,,34,18,Man,Rechts,1,
,xotask,xotask,xotask,33,2,153,153,main,negativefb,-99,hard,27,1.2176803999991535,['c'],0,right,['3'],4,0.14460659999986092,,,34,18,Man,Rechts,1,
,xotask,xotask,xotask,34,2,154,154,main,negativefb,-99,average,15,2.1010255000001052,['n'],1,right,['3'],4,1.3126463999997213,,,34,18,Man,Rechts,1,
,xotask,xotask,xotask,35,2,155,155,main,negativefb,-99,average,64,1.3175828000003094,['c'],1,left,['2'],5,0.12847269999929267,,,34,18,Man,Rechts,1,
,xotask,xotask,xotask,36,2,156,156,main,negativefb,-99,average,18,1.5510561999999481,['n'],1,right,['8'],3,0.13421759999982896,,,34,18,Man,Rechts,1,
,xotask,xotask,xotask,37,2,157,157,main,negativefb,-99,hard,53,1.1007624000003489,['c'],1,left,['2'],5,0.10227279999980965,,,34,18,Man,Rechts,1,
,xotask,xotask,xotask,38,2,158,158,main,negativefb,-99,easy,6,1.3674032999997507,['n'],1,right,['3'],4,1.0202338999997664,,,34,18,Man,Rechts,1,
,xotask,xotask,xotask,39,2,159,159,main,negativefb,-99,hard,54,3.367497999999614,['c'],1,left,['3'],4,0.12509380000028614,,,34,18,Man,Rechts,1,
,xotask,xotask,xotask,40,2,160,160,main,negativefb,-99,easy,74,0.9170948999999382,['c'],1,left,['2'],5,0.10004860000026383,,,34,18,Man,Rechts,1,
,xotask,xotask,xotask,41,2,161,161,main,negativefb,-99,average,16,2.201243400000749,['n'],1,right,['3'],4,0.10528570000042237,,,34,18,Man,Rechts,1,
,xotask,xotask,xotask,42,2,162,162,main,negativefb,-99,hard,26,1.2016687000004822,['n'],1,right,['3'],4,0.10225910000008298,,,34,18,Man,Rechts,1,
,xotask,xotask,xotask,43,2,163,163,main,negativefb,-99,average,19,0.7674432000003435,['n'],1,right,['3'],4,0.09967419999975391,,,34,18,Man,Rechts,1,
,xotask,xotask,xotask,44,2,164,164,main,negativefb,-99,easy,72,1.3509355000005598,['c'],1,left,['1'],6,0.04246619999958057,,,34,18,Man,Rechts,1,
,xotask,xotask,xotask,45,2,165,165,main,negativefb,-99,average,17,1.2172601000002032,['n'],1,right,['2'],5,0.12120599999980186,,,34,18,Man,Rechts,1,
,xotask,xotask,xotask,46,2,166,166,main,negativefb,-99,hard,50,1.6513426999999865,['c'],1,left,['2'],5,0.1231711999998879,,,34,18,Man,Rechts,1,
,xotask,xotask,xotask,47,2,167,167,main,negativefb,-99,hard,51,0.8344617999991897,['c'],1,left,['2'],5,0.08575910000035947,,,34,18,Man,Rechts,1,
,xotask,xotask,xotask,48,2,168,168,main,negativefb,-99,average,61,0.9515140000003157,['c'],1,left,['1'],6,0.11710420000054,,,34,18,Man,Rechts,1,
,xotask,xotask,xotask,49,2,169,169,main,negativefb,-99,easy,74,0.6674970000003668,['c'],1,left,['1'],6,0.3743777999998201,,,34,18,Man,Rechts,1,
,xotask,xotask,xotask,50,2,170,170,main,negativefb,-99,hard,51,1.6686792999998943,['c'],1,left,['2'],5,0.6141837000004671,,,34,18,Man,Rechts,1,
,xotask,xotask,xotask,51,2,171,171,main,negativefb,-99,average,63,1.3015937999998641,['c'],1,left,['1'],6,0.17813569999998435,,,34,18,Man,Rechts,1,
,xotask,xotask,xotask,52,2,172,172,main,negativefb,-99,hard,28,1.1674880999999004,['c'],0,right,['2'],5,0.15724870000030933,,,34,18,Man,Rechts,1,
,xotask,xotask,xotask,53,2,173,173,main,negativefb,-99,average,18,1.4678291000000172,['n'],1,right,['3'],4,0.30969069999991916,,,34,18,Man,Rechts,1,
,xotask,xotask,xotask,54,2,174,174,main,negativefb,-99,easy,70,1.084316399999807,['c'],1,left,['1'],6,0.11159690000022238,,,34,18,Man,Rechts,1,
,xotask,xotask,xotask,55,2,175,175,main,negativefb,-99,easy,6,0.8178672000003644,['n'],1,right,['1'],6,0.11438650000036432,,,34,18,Man,Rechts,1,
,xotask,xotask,xotask,56,2,176,176,main,negativefb,-99,hard,29,1.3009329999995316,['c'],0,right,['2'],5,0.09891380000044592,,,34,18,Man,Rechts,1,
,xotask,xotask,xotask,57,2,177,177,main,negativefb,-99,average,64,1.4655837999998766,['c'],1,left,['2'],5,0.13288009999996575,,,34,18,Man,Rechts,1,
,xotask,xotask,xotask,58,2,178,178,main,negativefb,-99,average,16,1.718092300000535,['n'],1,right,['3'],4,0.13178749999951833,,,34,18,Man,Rechts,1,
,xotask,xotask,xotask,59,2,179,179,main,negativefb,-99,average,60,1.11762329999965,['c'],1,left,['2'],5,0.07484260000001086,,,34,18,Man,Rechts,1,
,xotask,xotask,xotask,0,3,180,180,main,negativefb,-99,hard,50,1.2667379000004075,['c'],1,left,['2'],5,0.07750140000007377,,,34,18,Man,Rechts,1,
,xotask,xotask,xotask,1,3,181,181,main,negativefb,-99,average,15,0.7352425999997649,['n'],1,right,['2'],5,1.4054893000002266,,,34,18,Man,Rechts,1,
,xotask,xotask,xotask,2,3,182,182,main,negativefb,-99,hard,54,1.2172260000006645,['n'],0,left,['2'],5,0.06915089999984048,,,34,18,Man,Rechts,1,
,xotask,xotask,xotask,3,3,183,183,main,negativefb,-99,average,60,3.6662734000001365,['c'],1,left,['3'],4,0.08057850000022881,,,34,18,Man,Rechts,1,
,xotask,xotask,xotask,4,3,184,184,main,negativefb,-99,average,15,1.5506421999998565,['n'],1,right,['3'],4,0.1049654999987979,,,34,18,Man,Rechts,1,
,xotask,xotask,xotask,5,3,185,185,main,negativefb,-99,average,62,1.8341235000007146,['c'],1,left,['2'],5,0.11602780000066559,,,34,18,Man,Rechts,1,
,xotask,xotask,xotask,6,3,186,186,main,negativefb,-99,hard,53,1.9341493000010814,['c'],1,left,['3'],4,0.1547219000003679,,,34,18,Man,Rechts,1,
,xotask,xotask,xotask,7,3,187,187,main,negativefb,-99,average,19,1.6010210000004008,['n'],1,right,['3'],4,0.13316449999911129,,,34,18,Man,Rechts,1,
,xotask,xotask,xotask,8,3,188,188,main,negativefb,-99,hard,29,1.1834343999998964,['n'],1,right,['3'],4,0.1456091000000015,,,34,18,Man,Rechts,1,
,xotask,xotask,xotask,9,3,189,189,main,negativefb,-99,average,18,0.9177188000012393,['n'],1,right,['3'],4,0.09622559999843361,,,34,18,Man,Rechts,1,
,xotask,xotask,xotask,10,3,190,190,main,negativefb,-99,average,64,1.3003755000008823,['c'],1,left,['1'],6,0.13763049999943178,,,34,18,Man,Rechts,1,
,xotask,xotask,xotask,11,3,191,191,main,negativefb,-99,average,16,3.833921100000225,['n'],1,right,['8'],3,0.16313700000137032,,,34,18,Man,Rechts,1,
,xotask,xotask,xotask,12,3,192,192,main,negativefb,-99,easy,74,1.2496585999997478,['c'],1,left,['2'],5,0.27653319999990345,,,34,18,Man,Rechts,1,
,xotask,xotask,xotask,13,3,193,193,main,negativefb,-99,average,64,1.1001692000008916,['c'],1,left,['2'],5,0.1345595000002504,,,34,18,Man,Rechts,1,
,xotask,xotask,xotask,14,3,194,194,main,negativefb,-99,hard,54,0.8007843000013963,['c'],1,left,['2'],5,0.1214693999991141,,,34,18,Man,Rechts,1,
,xotask,xotask,xotask,15,3,195,195,main,negativefb,-99,average,61,0.767595600000277,['c'],1,left,['2'],5,0.12682820000009087,,,34,18,Man,Rechts,1,
,xotask,xotask,xotask,16,3,196,196,main,negativefb,-99,average,19,0.7179576999988058,['c'],0,right,['2'],5,0.14250109999920824,,,34,18,Man,Rechts,1,
,xotask,xotask,xotask,17,3,197,197,main,negativefb,-99,average,61,1.08431820000078,['c'],1,left,['2'],5,0.11864939999941271,,,34,18,Man,Rechts,1,
,xotask,xotask,xotask,18,3,198,198,main,negativefb,-99,average,62,0.7005209999988438,['c'],1,left,['1'],6,0.13415359999999055,,,34,18,Man,Rechts,1,
,xotask,xotask,xotask,19,3,199,199,main,negativefb,-99,hard,27,0.7837806999996246,['c'],0,right,['1'],6,0.13850749999983236,,,34,18,Man,Rechts,1,
,xotask,xotask,xotask,20,3,200,200,main,negativefb,-99,hard,54,2.5007452000008925,['c'],1,left,['2'],5,0.12951439999960712,,,34,18,Man,Rechts,1,
,xotask,xotask,xotask,21,3,201,201,main,negativefb,-99,hard,54,0.7841212999992422,['c'],1,left,['2'],5,0.09441510000033304,,,34,18,Man,Rechts,1,
,xotask,xotask,xotask,22,3,202,202,main,negativefb,-99,easy,7,1.5848907999989024,['n'],1,right,['2'],5,0.26814919999924314,,,34,18,Man,Rechts,1,
,xotask,xotask,xotask,23,3,203,203,main,negativefb,-99,hard,25,0.7009095000012167,['n'],1,right,['2'],5,0.0942417000005662,,,34,18,Man,Rechts,1,
,xotask,xotask,xotask,24,3,204,204,main,negativefb,-99,average,63,2.782323200000974,['c'],1,left,['8'],3,0.14053570000032778,,,34,18,Man,Rechts,1,
,xotask,xotask,xotask,25,3,205,205,main,negativefb,-99,average,15,4.701102200000605,['n'],1,right,['3'],4,0.3241628000014316,,,34,18,Man,Rechts,1,
,xotask,xotask,xotask,26,3,206,206,main,negativefb,-99,hard,28,4.434056899999632,['n'],1,right,['3'],4,0.8464930999998614,,,34,18,Man,Rechts,1,
,xotask,xotask,xotask,27,3,207,207,main,negativefb,-99,easy,72,2.0845918000013626,['c'],1,left,['3'],4,0.17811769999934768,,,34,18,Man,Rechts,1,
,xotask,xotask,xotask,28,3,208,208,main,negativefb,-99,hard,28,1.4838211000005685,['n'],1,right,['3'],4,0.12839659999917785,,,34,18,Man,Rechts,1,
,xotask,xotask,xotask,29,3,209,209,main,negativefb,-99,average,17,1.2000872999997227,['n'],1,right,['2'],5,0.18900759999996808,,,34,18,Man,Rechts,1,
,xotask,xotask,xotask,30,3,210,210,main,negativefb,-99,easy,73,1.2841506000004301,['c'],1,left,['2'],5,0.09847669999908248,,,34,18,Man,Rechts,1,
,xotask,xotask,xotask,31,3,211,211,main,negativefb,-99,easy,73,0.8838104000005842,['c'],1,left,['1'],6,0.10756530000071507,,,34,18,Man,Rechts,1,
,xotask,xotask,xotask,32,3,212,212,main,negativefb,-99,hard,51,1.0673215000006167,['c'],1,left,['2'],5,0.09359919999951671,,,34,18,Man,Rechts,1,
,xotask,xotask,xotask,33,3,213,213,main,negativefb,-99,hard,51,0.884670700001152,['c'],1,left,['2'],5,0.0958067999999912,,,34,18,Man,Rechts,1,
,xotask,xotask,xotask,34,3,214,214,main,negativefb,-99,hard,29,1.4676102999983414,['c'],0,right,['3'],4,0.09871369999927992,,,34,18,Man,Rechts,1,
,xotask,xotask,xotask,35,3,215,215,main,negativefb,-99,easy,7,1.5513479000001098,['n'],1,right,['2'],5,0.12941530000171042,,,34,18,Man,Rechts,1,
,xotask,xotask,xotask,36,3,216,216,main,negativefb,-99,easy,72,1.0013429000009637,['c'],1,left,['1'],6,0.09364690000074916,,,34,18,Man,Rechts,1,
,xotask,xotask,xotask,37,3,217,217,main,negativefb,-99,easy,5,1.1181197999994765,['n'],1,right,['1'],6,0.09451230000013311,,,34,18,Man,Rechts,1,
,xotask,xotask,xotask,38,3,218,218,main,negativefb,-99,hard,27,2.032704900000681,['c'],0,right,['9'],2,0.7459177000000636,,,34,18,Man,Rechts,1,
,xotask,xotask,xotask,39,3,219,219,main,negativefb,-99,easy,6,1.9348842000017612,['n'],1,right,['1'],6,0.12030930000037188,,,34,18,Man,Rechts,1,
,xotask,xotask,xotask,40,3,220,220,main,negativefb,-99,hard,50,3.6003249999994296,['n'],0,left,['8'],3,0.46864580000146816,,,34,18,Man,Rechts,1,
,xotask,xotask,xotask,41,3,221,221,main,negativefb,-99,hard,29,1.2847438999997394,['n'],1,right,['8'],3,0.3903119999995397,,,34,18,Man,Rechts,1,
,xotask,xotask,xotask,42,3,222,222,main,negativefb,-99,hard,52,1.9675600999999006,['c'],1,left,['3'],4,1.5935181000004377,,,34,18,Man,Rechts,1,
,xotask,xotask,xotask,43,3,223,223,main,negativefb,-99,average,15,1.7836563000000751,['n'],1,right,['3'],4,0.259694500000478,,,34,18,Man,Rechts,1,
,xotask,xotask,xotask,44,3,224,224,main,negativefb,-99,average,60,1.367270599999756,['c'],1,left,['2'],5,0.1553418999992573,,,34,18,Man,Rechts,1,
,xotask,xotask,xotask,45,3,225,225,main,negativefb,-99,easy,6,1.751326200001131,['n'],1,right,['2'],5,0.16044390000024578,,,34,18,Man,Rechts,1,
,xotask,xotask,xotask,46,3,226,226,main,negativefb,-99,average,63,2.2017537000010634,['c'],1,left,['2'],5,0.1468523000003188,,,34,18,Man,Rechts,1,
,xotask,xotask,xotask,47,3,227,227,main,negativefb,-99,easy,5,1.0508457999985694,['n'],1,right,['1'],6,0.10827049999898009,,,34,18,Man,Rechts,1,
,xotask,xotask,xotask,48,3,228,228,main,negativefb,-99,easy,72,1.0007967999990797,['c'],1,left,['1'],6,0.12863800000013725,,,34,18,Man,Rechts,1,
,xotask,xotask,xotask,49,3,229,229,main,negativefb,-99,easy,73,0.8011193000002095,['c'],1,left,['1'],6,0.12458040000092296,,,34,18,Man,Rechts,1,
,xotask,xotask,xotask,50,3,230,230,main,negativefb,-99,easy,74,0.5509058000006917,['c'],1,left,['1'],6,0.13049230000069656,,,34,18,Man,Rechts,1,
,xotask,xotask,xotask,51,3,231,231,main,negativefb,-99,easy,71,0.6169191000008141,['c'],1,left,['1'],6,0.08553419999952894,,,34,18,Man,Rechts,1,
,xotask,xotask,xotask,52,3,232,232,main,negativefb,-99,hard,25,3.600816300000588,['n'],1,right,['8'],3,0.4114246999997704,,,34,18,Man,Rechts,1,
,xotask,xotask,xotask,53,3,233,233,main,negativefb,-99,easy,73,1.8511830999996164,['c'],1,left,['3'],4,0.33846580000135873,,,34,18,Man,Rechts,1,
,xotask,xotask,xotask,54,3,234,234,main,negativefb,-99,easy,8,0.7501265999999305,['n'],1,right,['2'],5,0.6313862000006338,,,34,18,Man,Rechts,1,
,xotask,xotask,xotask,55,3,235,235,main,negativefb,-99,average,19,1.4674347000000125,['n'],1,right,['3'],4,0.2849240999985341,,,34,18,Man,Rechts,1,
,xotask,xotask,xotask,56,3,236,236,main,negativefb,-99,hard,25,1.8841802999995707,['n'],1,right,['3'],4,0.23867479999898933,,,34,18,Man,Rechts,1,
,xotask,xotask,xotask,57,3,237,237,main,negativefb,-99,easy,7,0.933917799999108,['n'],1,right,['2'],5,0.1918584999984887,,,34,18,Man,Rechts,1,
,xotask,xotask,xotask,58,3,238,238,main,negativefb,-99,easy,5,0.5499276999998983,['n'],1,right,['2'],5,0.13964520000081393,,,34,18,Man,Rechts,1,
,xotask,xotask,xotask,59,3,239,239,main,negativefb,-99,easy,8,0.7678415000009409,['n'],1,right,['1'],6,0.14401010000074166,,,34,18,Man,Rechts,1,
,xotask,xotask,xotask,0,4,240,240,main,negativefb,-99,average,18,2.700433799998791,['n'],1,right,['3'],4,0.12563629999931436,,,34,18,Man,Rechts,1,
,xotask,xotask,xotask,1,4,241,241,main,negativefb,-99,easy,6,1.0326213000007556,['n'],1,right,['2'],5,0.09628549999979441,,,34,18,Man,Rechts,1,
,xotask,xotask,xotask,2,4,242,242,main,negativefb,-99,easy,9,1.5182396000000153,['n'],1,right,['3'],4,0.1129058000005898,,,34,18,Man,Rechts,1,
,xotask,xotask,xotask,3,4,243,243,main,negativefb,-99,average,61,1.7016165000004548,['c'],1,left,['2'],5,0.7461384999987786,,,34,18,Man,Rechts,1,
,xotask,xotask,xotask,4,4,244,244,main,negativefb,-99,easy,71,0.6846547999994073,['c'],1,left,['2'],5,0.12197469999955501,,,34,18,Man,Rechts,1,
,xotask,xotask,xotask,5,4,245,245,main,negativefb,-99,easy,70,0.8845696000007592,['c'],1,left,['2'],5,0.13083460000052582,,,34,18,Man,Rechts,1,
,xotask,xotask,xotask,6,4,246,246,main,negativefb,-99,average,63,0.7174883000006957,['c'],1,left,['1'],6,0.19484579999880225,,,34,18,Man,Rechts,1,
,xotask,xotask,xotask,7,4,247,247,main,negativefb,-99,hard,50,0.7844953999992867,['c'],1,left,['1'],6,0.12380630000006931,,,34,18,Man,Rechts,1,
,xotask,xotask,xotask,8,4,248,248,main,negativefb,-99,hard,51,2.3011220000007597,['c'],1,left,['3'],4,0.212065600000642,,,34,18,Man,Rechts,1,
,xotask,xotask,xotask,9,4,249,249,main,negativefb,-99,average,16,2.3674183000002813,['n'],1,right,['3'],4,0.2857066999986273,,,34,18,Man,Rechts,1,
,xotask,xotask,xotask,10,4,250,250,main,negativefb,-99,easy,72,1.0341587000002619,['c'],1,left,['2'],5,0.17857130000083998,,,34,18,Man,Rechts,1,
,xotask,xotask,xotask,11,4,251,251,main,negativefb,-99,easy,73,1.0513101999986247,['c'],1,left,['2'],5,0.14558759999999893,,,34,18,Man,Rechts,1,
,xotask,xotask,xotask,12,4,252,252,main,negativefb,-99,easy,7,1.0665056999987428,['n'],1,right,['1'],6,0.4109351000006427,,,34,18,Man,Rechts,1,
,xotask,xotask,xotask,13,4,253,253,main,negativefb,-99,hard,50,1.5842998000007356,['c'],1,left,['8'],3,0.8355510999990656,,,34,18,Man,Rechts,1,
,xotask,xotask,xotask,14,4,254,254,main,negativefb,-99,easy,9,6.035422099999778,['n'],1,right,['2'],5,0.5142331999995804,,,34,18,Man,Rechts,1,
,xotask,xotask,xotask,15,4,255,255,main,negativefb,-99,average,17,2.401626299999407,['n'],1,right,['2'],5,0.05450779999955557,,,34,18,Man,Rechts,1,
,xotask,xotask,xotask,16,4,256,256,main,negativefb,-99,easy,71,1.2172964999990654,['c'],1,left,['2'],5,0.2682139999997162,,,34,18,Man,Rechts,1,
,xotask,xotask,xotask,17,4,257,257,main,negativefb,-99,easy,72,0.7329293999991933,['c'],1,left,['1'],6,0.1246742000002996,,,34,18,Man,Rechts,1,
,xotask,xotask,xotask,18,4,258,258,main,negativefb,-99,average,61,0.6677682999998069,['c'],1,left,['1'],6,0.10219919999872218,,,34,18,Man,Rechts,1,
,xotask,xotask,xotask,19,4,259,259,main,negativefb,-99,hard,29,1.7177415000005567,['n'],1,right,['2'],5,0.11845440000070084,,,34,18,Man,Rechts,1,
,xotask,xotask,xotask,20,4,260,260,main,negativefb,-99,average,17,1.8173555999983364,['n'],1,right,['9'],2,1.07427110000026,,,34,18,Man,Rechts,1,
,xotask,xotask,xotask,21,4,261,261,main,negativefb,-99,average,60,3.0185189000003447,['c'],1,left,['3'],4,0.11106430000108958,,,34,18,Man,Rechts,1,
,xotask,xotask,xotask,22,4,262,262,main,negativefb,-99,average,18,1.1509938999988663,['n'],1,right,['2'],5,0.10952189999989059,,,34,18,Man,Rechts,1,
,xotask,xotask,xotask,23,4,263,263,main,negativefb,-99,easy,73,0.9669225000016013,['c'],1,left,['2'],5,0.11609470000075817,,,34,18,Man,Rechts,1,
,xotask,xotask,xotask,24,4,264,264,main,negativefb,-99,easy,5,0.6842661999999109,['n'],1,right,['2'],5,0.11612140000033833,,,34,18,Man,Rechts,1,
,xotask,xotask,xotask,25,4,265,265,main,negativefb,-99,hard,28,1.0665031999997154,['n'],1,right,['2'],5,0.08639109999967332,,,34,18,Man,Rechts,1,
,xotask,xotask,xotask,26,4,266,266,main,negativefb,-99,average,15,0.7511768999993365,['n'],1,right,['2'],5,0.08469499999955588,,,34,18,Man,Rechts,1,
,xotask,xotask,xotask,27,4,267,267,main,negativefb,-99,average,62,1.951321900000039,['c'],1,left,['8'],3,0.5961664999995264,,,34,18,Man,Rechts,1,
,xotask,xotask,xotask,28,4,268,268,main,negativefb,-99,average,18,2.902170900000783,['n'],1,right,['3'],4,0.16188490000058664,,,34,18,Man,Rechts,1,
,xotask,xotask,xotask,29,4,269,269,main,negativefb,-99,hard,51,1.5516509000008227,['c'],1,left,['3'],4,0.4789952999999514,,,34,18,Man,Rechts,1,
,xotask,xotask,xotask,30,4,270,270,main,negativefb,-99,easy,6,0.6502098000000842,['n'],1,right,['1'],6,0.3784371000001556,,,34,18,Man,Rechts,1,
,xotask,xotask,xotask,31,4,271,271,main,negativefb,-99,hard,51,1.4840097999986028,['c'],1,left,['8'],3,0.8497973999983515,,,34,18,Man,Rechts,1,
,xotask,xotask,xotask,32,4,272,272,main,negativefb,-99,easy,6,6.667146199999479,['n'],1,right,['3'],4,0.10907959999894956,,,34,18,Man,Rechts,1,
,xotask,xotask,xotask,33,4,273,273,main,negativefb,-99,hard,25,1.784564199999295,['n'],1,right,['3'],4,0.06638029999885475,,,34,18,Man,Rechts,1,
,xotask,xotask,xotask,34,4,274,274,main,negativefb,-99,average,17,1.567866999999751,['n'],1,right,['8'],3,0.13821459999962826,,,34,18,Man,Rechts,1,
,xotask,xotask,xotask,35,4,275,275,main,negativefb,-99,hard,54,5.201342399999703,['c'],1,left,['8'],3,0.477293699999791,,,34,18,Man,Rechts,1,
,xotask,xotask,xotask,36,4,276,276,main,negativefb,-99,hard,26,1.9842375999996875,['n'],1,right,['3'],4,0.09974909999982629,,,34,18,Man,Rechts,1,
,xotask,xotask,xotask,37,4,277,277,main,negativefb,-99,hard,25,1.118101400001251,['n'],1,right,['3'],4,0.11605190000045695,,,34,18,Man,Rechts,1,
,xotask,xotask,xotask,38,4,278,278,main,negativefb,-99,easy,74,1.2991870999994717,['c'],1,left,['2'],5,0.6997832999986713,,,34,18,Man,Rechts,1,
,xotask,xotask,xotask,39,4,279,279,main,negativefb,-99,hard,54,1.0331882999998925,['c'],1,left,['2'],5,0.08710170000085782,,,34,18,Man,Rechts,1,
,xotask,xotask,xotask,40,4,280,280,main,negativefb,-99,average,18,1.1000800000001618,['n'],1,right,['2'],5,0.08844069999940984,,,34,18,Man,Rechts,1,
,xotask,xotask,xotask,41,4,281,281,main,negativefb,-99,hard,51,1.4168549000005441,['c'],1,left,['3'],4,0.11718979999932344,,,34,18,Man,Rechts,1,
,xotask,xotask,xotask,42,4,282,282,main,negativefb,-99,hard,27,1.3178185999986454,['n'],1,right,['3'],4,0.0999837999988813,,,34,18,Man,Rechts,1,
,xotask,xotask,xotask,43,4,283,283,main,negativefb,-99,hard,50,1.1990388999984134,['c'],1,left,['3'],4,0.12162089999947057,,,34,18,Man,Rechts,1,
,xotask,xotask,xotask,44,4,284,284,main,negativefb,-99,hard,52,2.0172415999986697,['c'],1,left,['3'],4,0.3562999999994645,,,34,18,Man,Rechts,1,
,xotask,xotask,xotask,45,4,285,285,main,negativefb,-99,average,64,1.0337194000003365,['c'],1,left,['2'],5,0.1259927000010066,,,34,18,Man,Rechts,1,
,xotask,xotask,xotask,46,4,286,286,main,negativefb,-99,easy,7,1.034766099999615,['n'],1,right,['2'],5,0.13636330000008456,,,34,18,Man,Rechts,1,
,xotask,xotask,xotask,47,4,287,287,main,negativefb,-99,hard,26,2.4338686000010057,['n'],1,right,['8'],3,0.36305199999878823,,,34,18,Man,Rechts,1,
,xotask,xotask,xotask,48,4,288,288,main,negativefb,-99,average,63,1.667444599999726,['c'],1,left,['3'],4,0.21835300000020652,,,34,18,Man,Rechts,1,
,xotask,xotask,xotask,49,4,289,289,main,negativefb,-99,hard,25,1.9339566999988165,['n'],1,right,['8'],3,0.39713819999997213,,,34,18,Man,Rechts,1,
,xotask,xotask,xotask,50,4,290,290,main,negativefb,-99,easy,70,9.91730920000009,['n'],0,left,['9'],2,1.146349000000555,,,34,18,Man,Rechts,1,
,xotask,xotask,xotask,51,4,291,291,main,negativefb,-99,average,16,1.3512687999991613,['n'],1,right,['3'],4,1.5425675999995292,,,34,18,Man,Rechts,1,
,xotask,xotask,xotask,52,4,292,292,main,negativefb,-99,easy,73,1.1339714999994612,['c'],1,left,['2'],5,0.37391960000059044,,,34,18,Man,Rechts,1,
,xotask,xotask,xotask,53,4,293,293,main,negativefb,-99,average,61,1.0504027000006317,['c'],1,left,['2'],5,0.1889692999993713,,,34,18,Man,Rechts,1,
,xotask,xotask,xotask,54,4,294,294,main,negativefb,-99,average,62,0.6172907000000123,['c'],1,left,['2'],5,0.12596540000049572,,,34,18,Man,Rechts,1,
,xotask,xotask,xotask,55,4,295,295,main,negativefb,-99,average,63,0.5675504999999248,['c'],1,left,['2'],5,0.1311783999990439,,,34,18,Man,Rechts,1,
,xotask,xotask,xotask,56,4,296,296,main,negativefb,-99,hard,26,1.067182500000854,['n'],1,right,['3'],4,0.2917969999998604,,,34,18,Man,Rechts,1,
,xotask,xotask,xotask,57,4,297,297,main,negativefb,-99,easy,7,0.9004032000011648,['n'],1,right,['1'],6,0.18913100000099803,,,34,18,Man,Rechts,1,
,xotask,xotask,xotask,58,4,298,298,main,negativefb,-99,hard,26,2.0174567000012757,['n'],1,right,['3'],4,0.22940460000063467,,,34,18,Man,Rechts,1,
,xotask,xotask,xotask,59,4,299,299,main,negativefb,-99,easy,8,0.6170445999996446,['n'],1,right,['2'],5,0.3646842000016477,,,34,18,Man,Rechts,1,
,xotask,xotask,xotask,0,0,0,300,training,negativefb,53,easy,74,1.1846762999994098,['c'],1,left,['1'],6,0.15111289999913424,,,34,18,Man,Rechts,1,
,xotask,xotask,xotask,1,0,1,301,training,negativefb,83,easy,5,0.9673852999985684,['n'],1,right,['2'],5,1.2020747999995365,,,34,18,Man,Rechts,1,
,xotask,xotask,xotask,2,0,2,302,training,negativefb,37,hard,25,2.4172379999999976,['n'],1,right,['3'],4,0.23358140000163985,,,34,18,Man,Rechts,1,
,xotask,xotask,xotask,3,0,3,303,training,negativefb,46,hard,26,0.9165174999998271,['n'],1,right,['2'],5,0.13175909999881696,,,34,18,Man,Rechts,1,
,xotask,xotask,xotask,4,0,4,304,training,negativefb,57,easy,70,0.9510594000003039,['c'],1,left,['1'],6,0.07195270000011078,,,34,18,Man,Rechts,1,
,xotask,xotask,xotask,5,0,5,305,training,negativefb,71,easy,8,0.8669413000006898,['n'],1,right,['1'],6,0.07470920000014303,,,34,18,Man,Rechts,1,
,xotask,xotask,xotask,6,0,6,306,training,negativefb,54,easy,7,0.7997181000009732,['n'],1,right,['1'],6,0.08798750000096334,,,34,18,Man,Rechts,1,
,xotask,xotask,xotask,7,0,7,307,training,negativefb,47,average,62,0.9497196000011172,['c'],1,left,['2'],5,0.08630239999911282,,,34,18,Man,Rechts,1,
,xotask,xotask,xotask,8,0,8,308,training,negativefb,43,hard,54,1.083534100000179,['c'],1,left,['2'],5,0.055784800000765244,,,34,18,Man,Rechts,1,
,xotask,xotask,xotask,9,0,9,309,training,negativefb,96,easy,5,0.6664566999988892,['n'],1,right,['1'],6,0.5796590999998443,,,34,18,Man,Rechts,1,
,xotask,xotask,xotask,10,0,10,310,training,negativefb,40,easy,73,1.4498192000010022,['c'],1,left,['2'],5,0.0835506000003079,,,34,18,Man,Rechts,1,
,xotask,xotask,xotask,11,0,11,311,training,negativefb,56,hard,27,1.983408899999631,['n'],1,right,['2'],5,0.047856299999693874,,,34,18,Man,Rechts,1,
,xotask,xotask,xotask,12,0,12,312,training,negativefb,34,average,61,2.3503122000001895,['c'],1,left,['3'],4,0.19982060000074853,,,34,18,Man,Rechts,1,
,xotask,xotask,xotask,13,0,13,313,training,negativefb,52,average,19,2.317108699999153,['n'],1,right,['3'],4,0.3239450000000943,,,34,18,Man,Rechts,1,
,xotask,xotask,xotask,14,0,14,314,training,negativefb,59,hard,50,1.8000027000016416,['c'],1,left,['3'],4,0.12632200000007288,,,34,18,Man,Rechts,1,
,xotask,xotask,xotask,15,0,15,315,training,negativefb,51,hard,50,1.2669972999992751,['c'],1,left,['3'],4,0.15964460000031977,,,34,18,Man,Rechts,1,
,xotask,xotask,xotask,16,0,16,316,training,negativefb,64,average,60,2.5669495000001916,['c'],1,left,['3'],4,0.10683520000020508,,,34,18,Man,Rechts,1,
,xotask,xotask,xotask,17,0,17,317,training,negativefb,62,hard,28,3.3854604000007384,['c'],0,right,['3'],4,0.06340230000023439,,,34,18,Man,Rechts,1,
,xotask,xotask,xotask,18,0,18,318,training,negativefb,73,average,19,2.0671302000009746,['n'],1,right,['2'],5,0.5390481999984331,,,34,18,Man,Rechts,1,
,xotask,xotask,xotask,19,0,19,319,training,negativefb,72,hard,29,1.1507165000002715,['n'],1,right,['3'],4,0.07898800000111805,,,34,18,Man,Rechts,1,
,xotask,xotask,xotask,20,0,20,320,training,negativefb,38,hard,26,1.4502529000001232,['n'],1,right,['3'],4,0.3790692000002309,,,34,18,Man,Rechts,1,
,xotask,xotask,xotask,21,0,21,321,training,negativefb,59,easy,72,0.9667762999997649,['c'],1,left,['1'],6,0.08529519999865443,,,34,18,Man,Rechts,1,
,xotask,xotask,xotask,22,0,22,322,training,negativefb,52,average,62,1.3000986999995803,['c'],1,left,['2'],5,0.07038379999903555,,,34,18,Man,Rechts,1,
,xotask,xotask,xotask,23,0,23,323,training,negativefb,70,easy,73,0.5840893000004144,['c'],1,left,['2'],5,0.07672389999970619,,,34,18,Man,Rechts,1,
,xotask,xotask,xotask,24,0,24,324,training,negativefb,62,hard,51,1.5835869000002276,['c'],1,left,['2'],5,0.05869919999895501,,,34,18,Man,Rechts,1,
,xotask,xotask,xotask,25,0,25,325,training,negativefb,75,average,64,0.850320899999133,['c'],1,left,['2'],5,0.08635210000102234,,,34,18,Man,Rechts,1,
,xotask,xotask,xotask,26,0,26,326,training,negativefb,63,hard,51,0.7166639000006398,['c'],1,left,['2'],5,0.07820429999992484,,,34,18,Man,Rechts,1,
,xotask,xotask,xotask,27,0,27,327,training,negativefb,49,hard,25,1.6664242000006197,['c'],0,right,['3'],4,0.136213100000532,,,34,18,Man,Rechts,1,
,xotask,xotask,xotask,28,0,28,328,training,negativefb,55,hard,27,7.451136499999848,['c'],0,right,['8'],3,0.34533270000065386,,,34,18,Man,Rechts,1,
,xotask,xotask,xotask,29,0,29,329,training,negativefb,59,average,64,0.9324203000014677,['c'],1,left,['2'],5,0.10275729999921168,,,34,18,Man,Rechts,1,
,xotask,xotask,xotask,30,0,30,330,training,negativefb,64,average,62,0.9503126999989036,['c'],1,left,['2'],5,0.10882329999913054,,,34,18,Man,Rechts,1,
,xotask,xotask,xotask,31,0,31,331,training,negativefb,58,easy,7,0.9165456999999151,['n'],1,right,['1'],6,0.0685163999987708,,,34,18,Man,Rechts,1,
,xotask,xotask,xotask,32,0,32,332,training,negativefb,52,hard,51,1.9662118000014743,['c'],1,left,['3'],4,0.04275620000044,,,34,18,Man,Rechts,1,
,xotask,xotask,xotask,33,0,33,333,training,negativefb,73,average,19,1.1335786999989068,['n'],1,right,['3'],4,0.11646400000063295,,,34,18,Man,Rechts,1,
,xotask,xotask,xotask,34,0,34,334,training,negativefb,56,easy,72,0.8996982999997272,['c'],1,left,['1'],6,0.02723599999990256,,,34,18,Man,Rechts,1,
,xotask,xotask,xotask,35,0,35,335,training,negativefb,71,easy,70,1.0012087999984942,['c'],1,left,['1'],6,0.04303849999996601,,,34,18,Man,Rechts,1,
,xotask,xotask,xotask,36,0,36,336,training,negativefb,84,easy,70,1.000752799998736,['c'],1,left,['1'],6,1.2816680000014458,,,34,18,Man,Rechts,1,
,xotask,xotask,xotask,37,0,37,337,training,negativefb,72,easy,6,1.06725920000099,['n'],1,right,['1'],6,0.09873289999995905,,,34,18,Man,Rechts,1,
,xotask,xotask,xotask,38,0,38,338,training,negativefb,57,average,16,1.83298780000041,['n'],1,right,['8'],3,0.32528089999868826,,,34,18,Man,Rechts,1,
,xotask,xotask,xotask,39,0,39,339,training,negativefb,34,easy,7,0.8821122999997897,['n'],1,right,['2'],5,0.10085739999885845,,,34,18,Man,Rechts,1,
,xotask,xotask,xotask,40,0,40,340,training,negativefb,50,average,64,1.7665744999994786,['c'],1,left,['2'],5,0.07435280000026978,,,34,18,Man,Rechts,1,
,xotask,xotask,xotask,41,0,41,341,training,negativefb,57,average,19,1.4010871000009502,['n'],1,right,['3'],4,0.1520314999997936,,,34,18,Man,Rechts,1,
,xotask,xotask,xotask,42,0,42,342,training,negativefb,95,average,62,1.7332049999986339,['c'],1,left,['2'],5,0.8932569999997213,,,34,18,Man,Rechts,1,
,xotask,xotask,xotask,43,0,43,343,training,negativefb,43,average,19,2.183108199998969,['n'],1,right,['2'],5,0.1464895000008255,,,34,18,Man,Rechts,1,
,xotask,xotask,xotask,44,0,44,344,training,negativefb,22,average,60,2.6166806999990513,['c'],1,left,['2'],5,0.3080866000000242,,,34,18,Man,Rechts,1,
,xotask,xotask,xotask,45,0,45,345,training,negativefb,69,average,15,0.9994795000002341,['n'],1,right,['1'],6,0.09592290000000503,,,34,18,Man,Rechts,1,
,xotask,xotask,xotask,46,0,46,346,training,negativefb,72,hard,50,1.399260399999548,['c'],1,left,['3'],4,0.12478969999938272,,,34,18,Man,Rechts,1,
,xotask,xotask,xotask,47,0,47,347,training,negativefb,37,easy,6,1.2999865999991016,['n'],1,right,['2'],5,0.11602579999998852,,,34,18,Man,Rechts,1,
,xotask,xotask,xotask,48,0,48,348,training,negativefb,65,hard,52,2.982562600000165,['c'],1,left,['3'],4,0.2562574000003224,,,34,18,Man,Rechts,1,
,xotask,xotask,xotask,49,0,49,349,training,negativefb,84,easy,7,1.6840358000008564,['n'],1,right,['2'],5,0.29826429999957327,,,34,18,Man,Rechts,1,
,xotask,xotask,xotask,50,0,50,350,training,negativefb,72,average,19,1.932734199999686,['n'],1,right,['3'],4,0.20901290000074368,,,34,18,Man,Rechts,1,
,xotask,xotask,xotask,51,0,51,351,training,negativefb,60,hard,54,1.7828599000004033,['c'],1,left,['2'],5,0.1219466000002285,,,34,18,Man,Rechts,1,
,xotask,xotask,xotask,52,0,52,352,training,negativefb,65,easy,6,1.1173787000006996,['n'],1,right,['1'],6,0.11251290000109293,,,34,18,Man,Rechts,1,
,xotask,xotask,xotask,53,0,53,353,training,negativefb,69,easy,71,1.282929900000454,['c'],1,left,['1'],6,0.11366809999890393,,,34,18,Man,Rechts,1,
,xotask,xotask,xotask,54,0,54,354,training,negativefb,76,hard,29,1.9174826000016765,['n'],1,right,['2'],5,0.5441936000006535,,,34,18,Man,Rechts,1,
,xotask,xotask,xotask,55,0,55,355,training,negativefb,38,average,18,1.032629999999699,['n'],1,right,['3'],4,0.4576890000007552,,,34,18,Man,Rechts,1,
,xotask,xotask,xotask,56,0,56,356,training,negativefb,53,hard,29,1.2169186000010086,['n'],1,right,['3'],4,0.14378399999986868,,,34,18,Man,Rechts,1,
,xotask,xotask,xotask,57,0,57,357,training,negativefb,64,easy,72,0.9674381999993784,['c'],1,left,['1'],6,0.08308329999999842,,,34,18,Man,Rechts,1,
,xotask,xotask,xotask,58,0,58,358,training,negativefb,69,hard,52,1.0999038000009023,['c'],1,left,['1'],6,0.09959469999921566,,,34,18,Man,Rechts,1,
,xotask,xotask,xotask,59,0,59,359,training,negativefb,65,average,18,1.351255099998525,['n'],1,right,['2'],5,0.1776196999999229,,,34,18,Man,Rechts,1,
,xotask,xotask,xotask,0,1,60,360,training,negativefb,73,average,16,1.817353100001128,['n'],1,right,['3'],4,0.16742130000056932,,,34,18,Man,Rechts,1,
,xotask,xotask,xotask,1,1,61,361,training,negativefb,76,average,15,0.8333696000008786,['n'],1,right,['3'],4,0.28766080000059446,,,34,18,Man,Rechts,1,
,xotask,xotask,xotask,2,1,62,362,training,negativefb,58,hard,27,0.6673059000004287,['n'],1,right,['3'],4,0.08149229999980889,,,34,18,Man,Rechts,1,
,xotask,xotask,xotask,3,1,63,363,training,negativefb,63,easy,6,0.6166604999998526,['n'],1,right,['2'],5,0.06218609999996261,,,34,18,Man,Rechts,1,
,xotask,xotask,xotask,4,1,64,364,training,negativefb,52,hard,53,1.617435199999818,['c'],1,left,['3'],4,0.08291789999930188,,,34,18,Man,Rechts,1,
,xotask,xotask,xotask,5,1,65,365,training,negativefb,61,average,61,1.3329779000014241,['c'],1,left,['8'],3,0.5139514000002237,,,34,18,Man,Rechts,1,
,xotask,xotask,xotask,6,1,66,366,training,negativefb,59,easy,73,1.9997408000017458,['c'],1,left,['1'],6,0.04592179999963264,,,34,18,Man,Rechts,1,
,xotask,xotask,xotask,7,1,67,367,training,negativefb,59,easy,73,1.1010761999987153,['c'],1,left,['2'],5,0.06434390000140411,,,34,18,Man,Rechts,1,
,xotask,xotask,xotask,8,1,68,368,training,negativefb,65,average,64,1.2003612000007706,['c'],1,left,['2'],5,0.0375648999997793,,,34,18,Man,Rechts,1,
,xotask,xotask,xotask,9,1,69,369,training,negativefb,72,average,63,0.583260600000358,['c'],1,left,['2'],5,0.14902860000074725,,,34,18,Man,Rechts,1,
,xotask,xotask,xotask,10,1,70,370,training,negativefb,51,hard,51,1.2838097000003472,['c'],1,left,['2'],5,0.03529979999984789,,,34,18,Man,Rechts,1,
,xotask,xotask,xotask,11,1,71,371,training,negativefb,38,easy,71,0.9183677999990323,['c'],1,left,['1'],6,0.0781728000001749,,,34,18,Man,Rechts,1,
,xotask,xotask,xotask,12,1,72,372,training,negativefb,85,hard,28,1.566966100001082,['n'],1,right,['2'],5,0.36402819999966596,,,34,18,Man,Rechts,1,
,xotask,xotask,xotask,13,1,73,373,training,negativefb,72,easy,72,0.8662781000002724,['c'],1,left,['1'],6,0.17139289999977336,,,34,18,Man,Rechts,1,
,xotask,xotask,xotask,14,1,74,374,training,negativefb,72,hard,27,2.366176899999118,['c'],0,right,['3'],4,0.10128639999857114,,,34,18,Man,Rechts,1,
,xotask,xotask,xotask,15,1,75,375,training,negativefb,60,hard,28,1.8673883999999816,['c'],0,right,['3'],4,0.04722360000050685,,,34,18,Man,Rechts,1,
,xotask,xotask,xotask,16,1,76,376,training,negativefb,85,easy,71,0.9500470000002679,['c'],1,left,['1'],6,0.5037869999996474,,,34,18,Man,Rechts,1,
,xotask,xotask,xotask,17,1,77,377,training,negativefb,75,average,61,0.6836210999990726,['c'],1,left,['2'],5,0.760246100000586,,,34,18,Man,Rechts,1,
,xotask,xotask,xotask,18,1,78,378,training,negativefb,80,easy,72,1.1669335000005958,['c'],1,left,['1'],6,0.1478210000004765,,,34,18,Man,Rechts,1,
,xotask,xotask,xotask,19,1,79,379,training,negativefb,62,hard,53,1.0174856999983604,['c'],1,left,['2'],5,0.08532229999946139,,,34,18,Man,Rechts,1,
,xotask,xotask,xotask,20,1,80,380,training,negativefb,62,average,17,1.2997065000017756,['n'],1,right,['2'],5,0.09354680000069493,,,34,18,Man,Rechts,1,
,xotask,xotask,xotask,21,1,81,381,training,negativefb,72,hard,53,1.1337573000000702,['c'],1,left,['1'],6,0.07787780000035127,,,34,18,Man,Rechts,1,
,xotask,xotask,xotask,22,1,82,382,training,negativefb,64,average,15,1.3493283999996493,['n'],1,right,['2'],5,0.1011199000004126,,,34,18,Man,Rechts,1,
,xotask,xotask,xotask,23,1,83,383,training,negativefb,46,easy,70,0.9003118999989965,['c'],1,left,['1'],6,0.14887269999962882,,,34,18,Man,Rechts,1,
,xotask,xotask,xotask,24,1,84,384,training,negativefb,51,hard,28,1.4658982999990258,['n'],1,right,['3'],4,0.15632229999937408,,,34,18,Man,Rechts,1,
,xotask,xotask,xotask,25,1,85,385,training,negativefb,61,easy,71,0.9502869999996619,['c'],1,left,['1'],6,0.0881333999986964,,,34,18,Man,Rechts,1,
,xotask,xotask,xotask,26,1,86,386,training,negativefb,50,easy,5,1.2162614999997459,['n'],1,right,['2'],5,0.10852369999884104,,,34,18,Man,Rechts,1,
,xotask,xotask,xotask,27,1,87,387,training,negativefb,64,easy,7,1.7168619999993098,['n'],1,right,['2'],5,0.08335570000053849,,,34,18,Man,Rechts,1,
,xotask,xotask,xotask,28,1,88,388,training,negativefb,49,easy,6,1.2513305000011314,['n'],1,right,['2'],5,0.10256660000050033,,,34,18,Man,Rechts,1,
,xotask,xotask,xotask,29,1,89,389,training,negativefb,55,average,15,1.233534699998927,['n'],1,right,['3'],4,0.11221340000156488,,,34,18,Man,Rechts,1,
,xotask,xotask,xotask,30,1,90,390,training,negativefb,58,hard,50,1.5681442999994033,['c'],1,left,['3'],4,0.11009760000160895,,,34,18,Man,Rechts,1,
,xotask,xotask,xotask,31,1,91,391,training,negativefb,79,average,63,1.848719899999196,['c'],1,left,['3'],4,0.4082682999996905,,,34,18,Man,Rechts,1,
,xotask,xotask,xotask,32,1,92,392,training,negativefb,54,hard,54,1.0173572999992757,['c'],1,left,['2'],5,0.20764969999981986,,,34,18,Man,Rechts,1,
,xotask,xotask,xotask,33,1,93,393,training,negativefb,54,average,64,1.0498590000006516,['c'],1,left,['2'],5,0.014037699998880271,,,34,18,Man,Rechts,1,
,xotask,xotask,xotask,34,1,94,394,training,negativefb,52,easy,6,1.384700900000098,['n'],1,right,['2'],5,0.11835269999937736,,,34,18,Man,Rechts,1,
,xotask,xotask,xotask,35,1,95,395,training,negativefb,37,hard,27,1.4834585999997216,['n'],1,right,['3'],4,0.14273289999982808,,,34,18,Man,Rechts,1,
,xotask,xotask,xotask,36,1,96,396,training,negativefb,79,average,62,1.5490764999995008,['c'],1,left,['2'],5,0.4264179999991029,,,34,18,Man,Rechts,1,
,xotask,xotask,xotask,37,1,97,397,training,negativefb,60,easy,8,3.066579600001205,['n'],1,right,['1'],6,0.15149969999947643,,,34,18,Man,Rechts,1,
,xotask,xotask,xotask,38,1,98,398,training,negativefb,59,easy,9,1.2501310000006924,['n'],1,right,['2'],5,0.11141250000036962,,,34,18,Man,Rechts,1,
,xotask,xotask,xotask,39,1,99,399,training,negativefb,46,hard,50,2.316393400000379,['c'],1,left,['3'],4,0.10249189999922237,,,34,18,Man,Rechts,1,
,xotask,xotask,xotask,40,1,100,400,training,negativefb,50,average,16,1.433271899999454,['n'],1,right,['2'],5,0.13759729999947012,,,34,18,Man,Rechts,1,
,xotask,xotask,xotask,41,1,101,401,training,negativefb,41,average,19,0.7006029000003764,['n'],1,right,['2'],5,0.09584960000029241,,,34,18,Man,Rechts,1,
,xotask,xotask,xotask,42,1,102,402,training,negativefb,82,easy,6,0.8502509000009013,['n'],1,right,['1'],6,0.13827800000035495,,,34,18,Man,Rechts,1,
,xotask,xotask,xotask,43,1,103,403,training,negativefb,64,hard,54,3.150831899998593,['c'],1,left,['3'],4,0.22340840000106255,,,34,18,Man,Rechts,1,
,xotask,xotask,xotask,44,1,104,404,training,negativefb,56,hard,26,1.0177868999999191,['c'],0,right,['3'],4,0.13447489999998652,,,34,18,Man,Rechts,1,
,xotask,xotask,xotask,45,1,105,405,training,negativefb,53,average,16,2.2180846000010206,['n'],1,right,['8'],3,0.2483315000008588,,,34,18,Man,Rechts,1,
,xotask,xotask,xotask,46,1,106,406,training,negativefb,43,easy,7,1.7001247000007425,['c'],0,right,['2'],5,0.09816339999997581,,,34,18,Man,Rechts,1,
,xotask,xotask,xotask,47,1,107,407,training,negativefb,50,average,15,2.0000872000000527,['n'],1,right,['3'],4,0.15827840000019933,,,34,18,Man,Rechts,1,
,xotask,xotask,xotask,48,1,108,408,training,negativefb,70,easy,73,1.100564200000008,['c'],1,left,['1'],6,0.14022529999965627,,,34,18,Man,Rechts,1,
,xotask,xotask,xotask,49,1,109,409,training,negativefb,62,easy,73,0.8328324000012799,['c'],1,left,['1'],6,0.18982680000044638,,,34,18,Man,Rechts,1,
,xotask,xotask,xotask,50,1,110,410,training,negativefb,64,average,63,1.1663449999996374,['c'],1,left,['2'],5,0.18299819999992906,,,34,18,Man,Rechts,1,
,xotask,xotask,xotask,51,1,111,411,training,negativefb,46,average,62,0.8507463999994798,['c'],1,left,['2'],5,0.11819009999999253,,,34,18,Man,Rechts,1,
,xotask,xotask,xotask,52,1,112,412,training,negativefb,68,hard,29,1.4996498999989853,['n'],1,right,['3'],4,0.13326020000022254,,,34,18,Man,Rechts,1,
,xotask,xotask,xotask,53,1,113,413,training,negativefb,38,hard,54,1.9675815999999031,['n'],0,left,['8'],3,0.1453471000004356,,,34,18,Man,Rechts,1,
,xotask,xotask,xotask,54,1,114,414,training,negativefb,48,hard,29,4.017468000000008,['c'],0,right,['8'],3,0.18745669999952952,,,34,18,Man,Rechts,1,
,xotask,xotask,xotask,55,1,115,415,training,negativefb,58,hard,26,1.8165510999988328,['n'],1,right,['3'],4,0.41925569999875734,,,34,18,Man,Rechts,1,
,xotask,xotask,xotask,56,1,116,416,training,negativefb,49,hard,51,1.6345662000003358,['c'],1,left,['2'],5,0.26533000000017637,,,34,18,Man,Rechts,1,
,xotask,xotask,xotask,57,1,117,417,training,negativefb,58,average,61,0.7330782999997609,['c'],1,left,['2'],5,0.12923399999999674,,,34,18,Man,Rechts,1,
,xotask,xotask,xotask,58,1,118,418,training,negativefb,43,average,15,2.2671084000012343,['n'],1,right,['3'],4,0.594416199999614,,,34,18,Man,Rechts,1,
,xotask,xotask,xotask,59,1,119,419,training,negativefb,78,easy,6,1.0165598999992653,['n'],1,right,['1'],6,0.26574520000031043,,,34,18,Man,Rechts,1,
,dotcolour,xotask,xotask,0,2,120,420,main,negativefb,-99,average,,1.251424299998689,['n'],1,right,['2'],5,2.119255100000373,28,,34,18,Man,Rechts,1,
,dotcolour,xotask,xotask,1,2,121,421,main,negativefb,-99,easy,,0.9181171999989601,['c'],1,left,['1'],6,0.11035039999842411,64,,34,18,Man,Rechts,1,
,dotcolour,xotask,xotask,2,2,122,422,main,negativefb,-99,easy,,0.834785600000032,['c'],1,left,['1'],6,0.09734879999996338,64,,34,18,Man,Rechts,1,
,dotcolour,xotask,xotask,3,2,123,423,main,negativefb,-99,average,,1.3831220000010944,['n'],1,right,['3'],4,0.6952611000015168,29,,34,18,Man,Rechts,1,
,dotcolour,xotask,xotask,4,2,124,424,main,negativefb,-99,easy,,0.8998530999997456,['c'],1,left,['1'],6,0.31248389999927895,62,,34,18,Man,Rechts,1,
,dotcolour,xotask,xotask,5,2,125,425,main,negativefb,-99,easy,,1.1842599999999948,['n'],1,right,['2'],5,0.3338500000008935,19,,34,18,Man,Rechts,1,
,dotcolour,xotask,xotask,6,2,126,426,main,negativefb,-99,easy,,1.2506679999987682,['c'],1,left,['2'],5,0.13532000000122935,62,,34,18,Man,Rechts,1,
,dotcolour,xotask,xotask,7,2,127,427,main,negativefb,-99,hard,,3.3843834999988758,['c'],0,right,['8'],3,0.16326870000011695,39,,34,18,Man,Rechts,1,
,dotcolour,xotask,xotask,8,2,128,428,main,negativefb,-99,average,,1.3681917000012618,['c'],1,left,['3'],4,0.07116850000056729,53,,34,18,Man,Rechts,1,
,dotcolour,xotask,xotask,9,2,129,429,main,negativefb,-99,average,,0.9347541999995883,['n'],1,right,['2'],5,0.0872933999999077,26,,34,18,Man,Rechts,1,
,dotcolour,xotask,xotask,10,2,130,430,main,negativefb,-99,hard,,3.6675768999994034,['n'],0,left,['3'],4,0.10665580000022601,41,,34,18,Man,Rechts,1,
,dotcolour,xotask,xotask,11,2,131,431,main,negativefb,-99,hard,,2.3498829000000114,['c'],1,left,['8'],3,0.08939999999893189,43,,34,18,Man,Rechts,1,
,dotcolour,xotask,xotask,12,2,132,432,main,negativefb,-99,easy,,1.2505779000002804,['n'],1,right,['1'],6,0.020487100000536884,16,,34,18,Man,Rechts,1,
,dotcolour,xotask,xotask,13,2,133,433,main,negativefb,-99,hard,,1.88329689999955,['c'],1,left,['8'],3,0.0652208999999857,42,,34,18,Man,Rechts,1,
,dotcolour,xotask,xotask,14,2,134,434,main,negativefb,-99,easy,,1.2011320999990858,['n'],1,right,['1'],6,0.10272280000026512,16,,34,18,Man,Rechts,1,
,dotcolour,xotask,xotask,15,2,135,435,main,negativefb,-99,easy,,0.734366399999999,['n'],0,left,['1'],6,0.06246830000054615,63,,34,18,Man,Rechts,1,
,dotcolour,xotask,xotask,16,2,136,436,main,negativefb,-99,hard,,2.850492999999915,['c'],0,right,['3'],4,0.13044169999920996,37,,34,18,Man,Rechts,1,
,dotcolour,xotask,xotask,17,2,137,437,main,negativefb,-99,average,,2.7837588000002143,['n'],1,right,['3'],4,0.1590678000011394,27,,34,18,Man,Rechts,1,
,dotcolour,xotask,xotask,18,2,138,438,main,negativefb,-99,hard,,2.101028499999302,['c'],0,right,['3'],4,0.2857644999985496,39,,34,18,Man,Rechts,1,
,dotcolour,xotask,xotask,19,2,139,439,main,negativefb,-99,average,,6.1177845999991405,['n'],0,left,['8'],3,0.3507540999999037,52,,34,18,Man,Rechts,1,
,dotcolour,xotask,xotask,20,2,140,440,main,negativefb,-99,hard,,2.734252000000197,['n'],1,right,['9'],2,0.23595299999942654,39,,34,18,Man,Rechts,1,
,dotcolour,xotask,xotask,21,2,141,441,main,negativefb,-99,hard,,2.7175422000000253,['c'],1,left,['8'],3,0.36677610000151617,41,,34,18,Man,Rechts,1,
,dotcolour,xotask,xotask,22,2,142,442,main,negativefb,-99,hard,,4.467132199999469,['c'],1,left,['8'],3,0.50183990000005,44,,34,18,Man,Rechts,1,
,dotcolour,xotask,xotask,23,2,143,443,main,negativefb,-99,hard,,4.134658599999966,['n'],1,right,['3'],4,0.35647980000067037,37,,34,18,Man,Rechts,1,
,dotcolour,xotask,xotask,24,2,144,444,main,negativefb,-99,easy,,1.0341267999992851,['c'],1,left,['2'],5,0.20685499999854073,63,,34,18,Man,Rechts,1,
,dotcolour,xotask,xotask,25,2,145,445,main,negativefb,-99,average,,1.1008253999989392,['c'],1,left,['2'],5,0.10654039999826637,54,,34,18,Man,Rechts,1,
,dotcolour,xotask,xotask,26,2,146,446,main,negativefb,-99,hard,,2.7011349000003975,['n'],1,right,['3'],4,0.21928789999947185,35,,34,18,Man,Rechts,1,
,dotcolour,xotask,xotask,27,2,147,447,main,negativefb,-99,hard,,2.4687508000006346,['n'],1,right,['8'],3,0.1845064999997703,36,,34,18,Man,Rechts,1,
,dotcolour,xotask,xotask,28,2,148,448,main,negativefb,-99,hard,,1.8342387000011513,['n'],0,left,['8'],3,0.16047460000118008,41,,34,18,Man,Rechts,1,
,dotcolour,xotask,xotask,29,2,149,449,main,negativefb,-99,hard,,1.8348339000003762,['n'],1,right,['8'],3,0.2025403000006918,39,,34,18,Man,Rechts,1,
,dotcolour,xotask,xotask,30,2,150,450,main,negativefb,-99,hard,,2.2511212000008527,['c'],1,left,['3'],4,0.8086435000004712,42,,34,18,Man,Rechts,1,
,dotcolour,xotask,xotask,31,2,151,451,main,negativefb,-99,easy,,1.7345240000013291,['n'],1,right,['2'],5,0.11624929999925371,17,,34,18,Man,Rechts,1,
,dotcolour,xotask,xotask,32,2,152,452,main,negativefb,-99,hard,,2.550872400001026,['n'],1,right,['8'],3,0.6588119000007282,39,,34,18,Man,Rechts,1,
,dotcolour,xotask,xotask,33,2,153,453,main,negativefb,-99,average,,4.217434299998786,['c'],1,left,['3'],4,0.1363376999997854,52,,34,18,Man,Rechts,1,
,dotcolour,xotask,xotask,34,2,154,454,main,negativefb,-99,hard,,3.1519977999996627,['c'],0,right,['8'],3,0.26221020000048156,39,,34,18,Man,Rechts,1,
,dotcolour,xotask,xotask,35,2,155,455,main,negativefb,-99,average,,1.7848274000007223,['n'],1,right,['2'],5,0.15682210000159102,28,,34,18,Man,Rechts,1,
,dotcolour,xotask,xotask,36,2,156,456,main,negativefb,-99,hard,,1.1003686000003654,['c'],1,left,['2'],5,0.27622539999902074,45,,34,18,Man,Rechts,1,
,dotcolour,xotask,xotask,37,2,157,457,main,negativefb,-99,average,,0.8009690999988379,['n'],1,right,['2'],5,0.20176510000055714,29,,34,18,Man,Rechts,1,
,dotcolour,xotask,xotask,38,2,158,458,main,negativefb,-99,easy,,1.1842483000000357,['n'],1,right,['1'],6,0.11489220000112255,17,,34,18,Man,Rechts,1,
,dotcolour,xotask,xotask,39,2,159,459,main,negativefb,-99,average,,2.2010407999987365,['n'],1,right,['2'],5,0.5993199000004097,25,,34,18,Man,Rechts,1,
,dotcolour,xotask,xotask,40,2,160,460,main,negativefb,-99,average,,1.2675354000002699,['c'],1,left,['2'],5,0.21242979999988165,54,,34,18,Man,Rechts,1,
,dotcolour,xotask,xotask,41,2,161,461,main,negativefb,-99,easy,,0.9012473000002501,['c'],1,left,['2'],5,0.2977200000004814,63,,34,18,Man,Rechts,1,
,dotcolour,xotask,xotask,42,2,162,462,main,negativefb,-99,average,,1.2509068999988813,['c'],1,left,['3'],4,0.10062199999993027,53,,34,18,Man,Rechts,1,
,dotcolour,xotask,xotask,43,2,163,463,main,negativefb,-99,easy,,0.7347790000003442,['c'],1,left,['1'],6,0.1153785999995307,61,,34,18,Man,Rechts,1,
,dotcolour,xotask,xotask,44,2,164,464,main,negativefb,-99,easy,,0.6011232000000746,['c'],1,left,['1'],6,0.08803989999978512,62,,34,18,Man,Rechts,1,
,dotcolour,xotask,xotask,45,2,165,465,main,negativefb,-99,easy,,0.8172250999996322,['n'],1,right,['1'],6,0.09212500000103319,17,,34,18,Man,Rechts,1,
,dotcolour,xotask,xotask,46,2,166,466,main,negativefb,-99,easy,,0.7497241999990365,['c'],1,left,['1'],6,0.07538220000060392,63,,34,18,Man,Rechts,1,
,dotcolour,xotask,xotask,47,2,167,467,main,negativefb,-99,average,,1.350888799999666,['c'],1,left,['2'],5,0.13983770000049844,52,,34,18,Man,Rechts,1,
,dotcolour,xotask,xotask,48,2,168,468,main,negativefb,-99,easy,,1.0008904000005714,['n'],1,right,['1'],6,0.10259860000041954,19,,34,18,Man,Rechts,1,
,dotcolour,xotask,xotask,49,2,169,469,main,negativefb,-99,average,,1.3004805000000488,['c'],1,left,['2'],5,0.2639110999989498,55,,34,18,Man,Rechts,1,
,dotcolour,xotask,xotask,50,2,170,470,main,negativefb,-99,easy,,1.0336333000013838,['n'],1,right,['1'],6,0.1084246999998868,19,,34,18,Man,Rechts,1,
,dotcolour,xotask,xotask,51,2,171,471,main,negativefb,-99,hard,,2.000134899999466,['c'],1,left,['3'],4,0.6738729999997304,43,,34,18,Man,Rechts,1,
,dotcolour,xotask,xotask,52,2,172,472,main,negativefb,-99,average,,2.7354071000008844,['n'],0,left,['8'],3,0.45872700000109035,51,,34,18,Man,Rechts,1,
,dotcolour,xotask,xotask,53,2,173,473,main,negativefb,-99,average,,1.8686588000000484,['c'],1,left,['3'],4,0.2864110000009532,52,,34,18,Man,Rechts,1,
,dotcolour,xotask,xotask,54,2,174,474,main,negativefb,-99,hard,,1.75055489999977,['n'],0,left,['8'],3,0.17379220000111673,41,,34,18,Man,Rechts,1,
,dotcolour,xotask,xotask,55,2,175,475,main,negativefb,-99,easy,,0.9173804999991262,['n'],1,right,['2'],5,1.114791600000899,18,,34,18,Man,Rechts,1,
,dotcolour,xotask,xotask,56,2,176,476,main,negativefb,-99,average,,4.201051800000641,['n'],1,right,['2'],5,0.15020050000021,26,,34,18,Man,Rechts,1,
,dotcolour,xotask,xotask,57,2,177,477,main,negativefb,-99,average,,1.2998585000004823,['n'],1,right,['2'],5,0.09339179999915359,25,,34,18,Man,Rechts,1,
,dotcolour,xotask,xotask,58,2,178,478,main,negativefb,-99,easy,,0.8012202999998408,['n'],1,right,['1'],6,0.08252859999993234,15,,34,18,Man,Rechts,1,
,dotcolour,xotask,xotask,59,2,179,479,main,negativefb,-99,average,,0.6330194000001939,['n'],1,right,['1'],6,0.15879010000026028,26,,34,18,Man,Rechts,1,
,dotcolour,xotask,xotask,0,3,180,480,main,negativefb,-99,hard,,2.6512158999994426,['n'],1,right,['3'],4,0.09329070000057982,35,,34,18,Man,Rechts,1,
,dotcolour,xotask,xotask,1,3,181,481,main,negativefb,-99,hard,,2.5185505999997986,['c'],0,right,['3'],4,0.13385740000012447,38,,34,18,Man,Rechts,1,
,dotcolour,xotask,xotask,2,3,182,482,main,negativefb,-99,average,,0.9687795999998343,['n'],1,right,['3'],4,0.06602170000041951,26,,34,18,Man,Rechts,1,
,dotcolour,xotask,xotask,3,3,183,483,main,negativefb,-99,average,,2.4337336999997206,['c'],1,left,['2'],5,0.07158140000137792,52,,34,18,Man,Rechts,1,
,dotcolour,xotask,xotask,4,3,184,484,main,negativefb,-99,easy,,0.8680411999994249,['n'],1,right,['2'],5,0.0670138000004954,18,,34,18,Man,Rechts,1,
,dotcolour,xotask,xotask,5,3,185,485,main,negativefb,-99,easy,,0.851590500000384,['c'],1,left,['1'],6,0.04715020000003278,65,,34,18,Man,Rechts,1,
,dotcolour,xotask,xotask,6,3,186,486,main,negativefb,-99,average,,2.3520988000000216,['c'],1,left,['2'],5,0.3682403999991948,51,,34,18,Man,Rechts,1,
,dotcolour,xotask,xotask,7,3,187,487,main,negativefb,-99,hard,,1.9681211999995867,['n'],1,right,['3'],4,0.06688860000031127,36,,34,18,Man,Rechts,1,
,dotcolour,xotask,xotask,8,3,188,488,main,negativefb,-99,hard,,1.8339608999995107,['n'],0,left,['3'],4,0.06421779999982391,41,,34,18,Man,Rechts,1,
,dotcolour,xotask,xotask,9,3,189,489,main,negativefb,-99,hard,,1.7339477999994415,['n'],1,right,['3'],4,0.12125639999976556,36,,34,18,Man,Rechts,1,
,dotcolour,xotask,xotask,10,3,190,490,main,negativefb,-99,average,,0.8845439999986411,['n'],1,right,['2'],5,0.10542160000113654,26,,34,18,Man,Rechts,1,
,dotcolour,xotask,xotask,11,3,191,491,main,negativefb,-99,average,,0.6001266000002943,['n'],1,right,['2'],5,0.06176630000118166,27,,34,18,Man,Rechts,1,
,dotcolour,xotask,xotask,12,3,192,492,main,negativefb,-99,easy,,1.21763159999864,['c'],1,left,['2'],5,0.06812139999965439,61,,34,18,Man,Rechts,1,
,dotcolour,xotask,xotask,13,3,193,493,main,negativefb,-99,easy,,0.5342653000006976,['c'],1,left,['1'],6,0.06924979999894276,65,,34,18,Man,Rechts,1,
,dotcolour,xotask,xotask,14,3,194,494,main,negativefb,-99,hard,,2.017644700001256,['c'],1,left,['3'],4,0.09830590000092343,44,,34,18,Man,Rechts,1,
,dotcolour,xotask,xotask,15,3,195,495,main,negativefb,-99,average,,0.9504259000004822,['n'],1,right,['3'],4,0.09691659999953117,29,,34,18,Man,Rechts,1,
,dotcolour,xotask,xotask,16,3,196,496,main,negativefb,-99,hard,,1.9507565999992948,['n'],0,left,['8'],3,0.13618700000006356,45,,34,18,Man,Rechts,1,
,dotcolour,xotask,xotask,17,3,197,497,main,negativefb,-99,average,,2.7016385000006267,['c'],1,left,['8'],3,0.4553749999995489,54,,34,18,Man,Rechts,1,
,dotcolour,xotask,xotask,18,3,198,498,main,negativefb,-99,hard,,1.7674698999999237,['n'],1,right,['3'],4,0.17596529999900667,35,,34,18,Man,Rechts,1,
,dotcolour,xotask,xotask,19,3,199,499,main,negativefb,-99,hard,,2.5838929999990796,['n'],0,left,['8'],3,0.17759920000025886,43,,34,18,Man,Rechts,1,
,dotcolour,xotask,xotask,20,3,200,500,main,negativefb,-99,hard,,1.2179804999996122,['n'],0,left,['8'],3,0.11557100000027276,41,,34,18,Man,Rechts,1,
,dotcolour,xotask,xotask,21,3,201,501,main,negativefb,-99,easy,,1.2342036999998527,['n'],1,right,['2'],5,0.09399200000007113,18,,34,18,Man,Rechts,1,
,dotcolour,xotask,xotask,22,3,202,502,main,negativefb,-99,average,,0.6011527999999089,['n'],1,right,['2'],5,0.08346059999894351,25,,34,18,Man,Rechts,1,
,dotcolour,xotask,xotask,23,3,203,503,main,negativefb,-99,easy,,0.53404589999991,['n'],1,right,['2'],5,0.5070403999998234,19,,34,18,Man,Rechts,1,
,dotcolour,xotask,xotask,24,3,204,504,main,negativefb,-99,hard,,1.300528800000393,['c'],1,left,['3'],4,0.10806389999925159,43,,34,18,Man,Rechts,1,
,dotcolour,xotask,xotask,25,3,205,505,main,negativefb,-99,average,,1.0343038999999408,['c'],1,left,['3'],4,0.15162579999923764,51,,34,18,Man,Rechts,1,
,dotcolour,xotask,xotask,26,3,206,506,main,negativefb,-99,average,,0.7184507999991183,['c'],1,left,['2'],5,0.12520089999998163,55,,34,18,Man,Rechts,1,
,dotcolour,xotask,xotask,27,3,207,507,main,negativefb,-99,average,,0.7342763000015111,['c'],1,left,['2'],5,0.16359960000045248,51,,34,18,Man,Rechts,1,
,dotcolour,xotask,xotask,28,3,208,508,main,negativefb,-99,easy,,0.9677988000003097,['n'],1,right,['1'],6,0.05630089999976917,17,,34,18,Man,Rechts,1,
,dotcolour,xotask,xotask,29,3,209,509,main,negativefb,-99,easy,,0.5840672999984236,['n'],1,right,['1'],6,0.08713010000064969,17,,34,18,Man,Rechts,1,
,dotcolour,xotask,xotask,30,3,210,510,main,negativefb,-99,average,,1.1667532000010397,['n'],1,right,['2'],5,0.08603709999988496,28,,34,18,Man,Rechts,1,
,dotcolour,xotask,xotask,31,3,211,511,main,negativefb,-99,easy,,1.0510947999991913,['c'],1,left,['2'],5,0.04937350000000151,62,,34,18,Man,Rechts,1,
,dotcolour,xotask,xotask,32,3,212,512,main,negativefb,-99,average,,0.8681980999990628,['n'],1,right,['2'],5,0.06888960000105726,28,,34,18,Man,Rechts,1,
,dotcolour,xotask,xotask,33,3,213,513,main,negativefb,-99,easy,,0.6841076999990037,['n'],0,left,['1'],6,0.1352681999997003,61,,34,18,Man,Rechts,1,
,dotcolour,xotask,xotask,34,3,214,514,main,negativefb,-99,hard,,1.6669583000002604,['n'],1,right,['3'],4,0.07242960000075982,35,,34,18,Man,Rechts,1,
,dotcolour,xotask,xotask,35,3,215,515,main,negativefb,-99,hard,,1.3189324000013585,['n'],1,right,['3'],4,0.08188539999900968,37,,34,18,Man,Rechts,1,
,dotcolour,xotask,xotask,36,3,216,516,main,negativefb,-99,average,,0.6340769000016735,['n'],1,right,['2'],5,1.0455679000006057,25,,34,18,Man,Rechts,1,
,dotcolour,xotask,xotask,37,3,217,517,main,negativefb,-99,easy,,1.468024100000548,['c'],1,left,['1'],6,0.10647240000071179,65,,34,18,Man,Rechts,1,
,dotcolour,xotask,xotask,38,3,218,518,main,negativefb,-99,average,,1.1016259000007267,['c'],1,left,['2'],5,0.13121439999849827,52,,34,18,Man,Rechts,1,
,dotcolour,xotask,xotask,39,3,219,519,main,negativefb,-99,easy,,1.1183012000001327,['n'],1,right,['2'],5,0.1375147000017023,15,,34,18,Man,Rechts,1,
,dotcolour,xotask,xotask,40,3,220,520,main,negativefb,-99,easy,,1.1831985999997414,['c'],1,left,['2'],5,0.06997659999979078,62,,34,18,Man,Rechts,1,
,dotcolour,xotask,xotask,41,3,221,521,main,negativefb,-99,easy,,0.8183012000008603,['n'],1,right,['1'],6,0.05113799999890034,19,,34,18,Man,Rechts,1,
,dotcolour,xotask,xotask,42,3,222,522,main,negativefb,-99,average,,1.1992563999992853,['c'],1,left,['2'],5,0.01775420000012673,54,,34,18,Man,Rechts,1,
,dotcolour,xotask,xotask,43,3,223,523,main,negativefb,-99,average,,1.2997328999990714,['c'],1,left,['2'],5,0.08591750000050524,51,,34,18,Man,Rechts,1,
,dotcolour,xotask,xotask,44,3,224,524,main,negativefb,-99,hard,,1.167266099999324,['n'],1,right,['2'],5,0.05217559999982768,38,,34,18,Man,Rechts,1,
,dotcolour,xotask,xotask,45,3,225,525,main,negativefb,-99,hard,,0.8013637000003655,['n'],1,right,['2'],5,0.03476500000033411,35,,34,18,Man,Rechts,1,
,dotcolour,xotask,xotask,46,3,226,526,main,negativefb,-99,average,,0.5330950000006851,['n'],1,right,['2'],5,0.0286828999996942,29,,34,18,Man,Rechts,1,
,dotcolour,xotask,xotask,47,3,227,527,main,negativefb,-99,easy,,1.0003892999993695,['c'],1,left,['1'],6,0.06100770000011835,62,,34,18,Man,Rechts,1,
,dotcolour,xotask,xotask,48,3,228,528,main,negativefb,-99,easy,,1.4684620999996696,['n'],1,right,['2'],5,0.36179449999872304,17,,34,18,Man,Rechts,1,
,dotcolour,xotask,xotask,49,3,229,529,main,negativefb,-99,hard,,2.117886500000168,['c'],0,right,['9'],2,1.1673114000004716,35,,34,18,Man,Rechts,1,
,dotcolour,xotask,xotask,50,3,230,530,main,negativefb,-99,easy,,1.6511549999995623,['c'],1,left,['2'],5,0.09472199999981967,61,,34,18,Man,Rechts,1,
,dotcolour,xotask,xotask,51,3,231,531,main,negativefb,-99,average,,1.0181204000000434,['c'],1,left,['2'],5,0.09995410000010452,52,,34,18,Man,Rechts,1,
,dotcolour,xotask,xotask,52,3,232,532,main,negativefb,-99,hard,,0.9011336000003212,['n'],0,left,['9'],2,2.444214200000715,41,,34,18,Man,Rechts,1,
,dotcolour,xotask,xotask,53,3,233,533,main,negativefb,-99,easy,,1.9339407000006759,['n'],1,right,['2'],5,0.0866623999991134,16,,34,18,Man,Rechts,1,
,dotcolour,xotask,xotask,54,3,234,534,main,negativefb,-99,average,,0.5512269999999262,['n'],1,right,['2'],5,0.054304399998727604,25,,34,18,Man,Rechts,1,
,dotcolour,xotask,xotask,55,3,235,535,main,negativefb,-99,hard,,8.284343699999226,['c'],1,left,['3'],4,0.24880160000066098,43,,34,18,Man,Rechts,1,
,dotcolour,xotask,xotask,56,3,236,536,main,negativefb,-99,hard,,4.734241199999815,['n'],0,left,['8'],3,0.6188648999996076,42,,34,18,Man,Rechts,1,
,dotcolour,xotask,xotask,57,3,237,537,main,negativefb,-99,hard,,1.902021899999454,['c'],1,left,['3'],4,0.5745062999994843,43,,34,18,Man,Rechts,1,
,dotcolour,xotask,xotask,58,3,238,538,main,negativefb,-99,easy,,0.8844645000008313,['n'],1,right,['2'],5,1.829330900000059,17,,34,18,Man,Rechts,1,
,dotcolour,xotask,xotask,59,3,239,539,main,negativefb,-99,easy,,1.0849355999998807,['c'],1,left,['2'],5,0.0419051999997464,62,,34,18,Man,Rechts,1,
,dotcolour,xotask,xotask,0,4,240,540,main,negativefb,-99,easy,,2.5684696000007534,['c'],1,left,['2'],5,0.07572659999823372,62,,34,18,Man,Rechts,1,
,dotcolour,xotask,xotask,1,4,241,541,main,negativefb,-99,average,,1.4509163000002445,['n'],0,left,['2'],5,0.04813289999947301,51,,34,18,Man,Rechts,1,
,dotcolour,xotask,xotask,2,4,242,542,main,negativefb,-99,average,,0.7329771999993682,['c'],1,left,['2'],5,0.04953229999955511,52,,34,18,Man,Rechts,1,
,dotcolour,xotask,xotask,3,4,243,543,main,negativefb,-99,easy,,0.799529199999597,['n'],1,right,['2'],5,0.05543780000152765,15,,34,18,Man,Rechts,1,
,dotcolour,xotask,xotask,4,4,244,544,main,negativefb,-99,average,,1.301323899999261,['c'],1,left,['2'],5,0.08230269999876327,54,,34,18,Man,Rechts,1,
,dotcolour,xotask,xotask,5,4,245,545,main,negativefb,-99,average,,0.618139300000621,['n'],1,right,['2'],5,0.07151760000124341,25,,34,18,Man,Rechts,1,
,dotcolour,xotask,xotask,6,4,246,546,main,negativefb,-99,easy,,1.0167036000002554,['c'],1,left,['2'],5,0.07625669999833917,64,,34,18,Man,Rechts,1,
,dotcolour,xotask,xotask,7,4,247,547,main,negativefb,-99,easy,,0.7175151999999798,['n'],1,right,['2'],5,0.0697595999990881,18,,34,18,Man,Rechts,1,
,dotcolour,xotask,xotask,8,4,248,548,main,negativefb,-99,hard,,1.2343344000000798,['c'],1,left,['3'],4,0.07450719999906141,43,,34,18,Man,Rechts,1,
,dotcolour,xotask,xotask,9,4,249,549,main,negativefb,-99,hard,,1.367912300000171,['c'],1,left,['3'],4,0.026006000000052154,45,,34,18,Man,Rechts,1,
,dotcolour,xotask,xotask,10,4,250,550,main,negativefb,-99,easy,,0.8002914999997301,['n'],1,right,['1'],6,0.05804030000035709,15,,34,18,Man,Rechts,1,
,dotcolour,xotask,xotask,11,4,251,551,main,negativefb,-99,average,,0.6511507000013808,['n'],1,right,['1'],6,0.0785745000011957,26,,34,18,Man,Rechts,1,
,dotcolour,xotask,xotask,12,4,252,552,main,negativefb,-99,average,,0.7174448999994638,['n'],1,right,['2'],5,0.07907479999994393,29,,34,18,Man,Rechts,1,
,dotcolour,xotask,xotask,13,4,253,553,main,negativefb,-99,easy,,0.6506771000003937,['n'],1,right,['2'],5,0.08351679999941553,16,,34,18,Man,Rechts,1,
,dotcolour,xotask,xotask,14,4,254,554,main,negativefb,-99,hard,,2.118354600001112,['n'],0,left,['3'],4,0.052015199999004835,44,,34,18,Man,Rechts,1,
,dotcolour,xotask,xotask,15,4,255,555,main,negativefb,-99,easy,,1.033413200000723,['c'],1,left,['2'],5,0.04186739999931888,64,,34,18,Man,Rechts,1,
,dotcolour,xotask,xotask,16,4,256,556,main,negativefb,-99,average,,0.9000110999986646,['n'],1,right,['2'],5,0.06924760000038077,27,,34,18,Man,Rechts,1,
,dotcolour,xotask,xotask,17,4,257,557,main,negativefb,-99,average,,0.9002385999992839,['c'],1,left,['2'],5,0.03940799999872979,55,,34,18,Man,Rechts,1,
,dotcolour,xotask,xotask,18,4,258,558,main,negativefb,-99,hard,,0.8165818999987096,['c'],0,right,['2'],5,0.08583630000066478,35,,34,18,Man,Rechts,1,
,dotcolour,xotask,xotask,19,4,259,559,main,negativefb,-99,average,,0.6171374999994441,['c'],1,left,['2'],5,0.11442039999928966,54,,34,18,Man,Rechts,1,
,dotcolour,xotask,xotask,20,4,260,560,main,negativefb,-99,average,,1.8851470999998128,['n'],1,right,['3'],4,0.09092099999907077,28,,34,18,Man,Rechts,1,
,dotcolour,xotask,xotask,21,4,261,561,main,negativefb,-99,easy,,1.018062999999529,['c'],1,left,['1'],6,0.07979650000015681,62,,34,18,Man,Rechts,1,
,dotcolour,xotask,xotask,22,4,262,562,main,negativefb,-99,hard,,1.2679210000005696,['n'],1,right,['3'],4,0.09932020000087505,35,,34,18,Man,Rechts,1,
,dotcolour,xotask,xotask,23,4,263,563,main,negativefb,-99,hard,,2.5504681000002165,['n'],1,right,['0'],1,1.8577518999991298,39,,34,18,Man,Rechts,1,
,dotcolour,xotask,xotask,24,4,264,564,main,negativefb,-99,hard,,3.8355016999994405,['c'],1,left,['3'],4,0.14305229999990843,43,,34,18,Man,Rechts,1,
,dotcolour,xotask,xotask,25,4,265,565,main,negativefb,-99,hard,,1.7677746999997908,['n'],1,right,['3'],4,0.4917983000013919,39,,34,18,Man,Rechts,1,
,dotcolour,xotask,xotask,26,4,266,566,main,negativefb,-99,hard,,1.667691399999967,['c'],1,left,['8'],3,0.1420244000000821,45,,34,18,Man,Rechts,1,
,dotcolour,xotask,xotask,27,4,267,567,main,negativefb,-99,easy,,0.9340638999983639,['c'],1,left,['3'],4,0.09997780000048806,64,,34,18,Man,Rechts,1,
,dotcolour,xotask,xotask,28,4,268,568,main,negativefb,-99,easy,,0.7839640000001964,['n'],1,right,['2'],5,0.09026860000085435,16,,34,18,Man,Rechts,1,
,dotcolour,xotask,xotask,29,4,269,569,main,negativefb,-99,average,,1.1010946000005788,['c'],1,left,['2'],5,0.08335040000019944,55,,34,18,Man,Rechts,1,
,dotcolour,xotask,xotask,30,4,270,570,main,negativefb,-99,average,,0.9013149000002159,['n'],1,right,['2'],5,0.06811930000003485,26,,34,18,Man,Rechts,1,
,dotcolour,xotask,xotask,31,4,271,571,main,negativefb,-99,average,,2.1347912999990513,['n'],0,left,['8'],3,0.19720260000030976,51,,34,18,Man,Rechts,1,
,dotcolour,xotask,xotask,32,4,272,572,main,negativefb,-99,easy,,0.85082710000097,['c'],1,left,['3'],4,0.6207334000009723,62,,34,18,Man,Rechts,1,
,dotcolour,xotask,xotask,33,4,273,573,main,negativefb,-99,hard,,2.000689599999532,['c'],1,left,['3'],4,0.2770431000008102,42,,34,18,Man,Rechts,1,
,dotcolour,xotask,xotask,34,4,274,574,main,negativefb,-99,hard,,1.0338076999996701,['n'],0,left,['3'],4,0.07282490000034159,41,,34,18,Man,Rechts,1,
,dotcolour,xotask,xotask,35,4,275,575,main,negativefb,-99,hard,,1.317475199999535,['n'],0,left,['3'],4,0.13028459999986808,41,,34,18,Man,Rechts,1,
,dotcolour,xotask,xotask,36,4,276,576,main,negativefb,-99,easy,,0.8335800999993808,['n'],1,right,['2'],5,0.08540709999942919,19,,34,18,Man,Rechts,1,
,dotcolour,xotask,xotask,37,4,277,577,main,negativefb,-99,hard,,2.0006408999997802,['c'],0,right,['2'],5,0.10595359999933862,37,,34,18,Man,Rechts,1,
,dotcolour,xotask,xotask,38,4,278,578,main,negativefb,-99,hard,,1.117165900001055,['n'],1,right,['2'],5,0.1142997999995714,39,,34,18,Man,Rechts,1,
,dotcolour,xotask,xotask,39,4,279,579,main,negativefb,-99,hard,,1.2003135999984806,['c'],0,right,['2'],5,0.1660716999995202,37,,34,18,Man,Rechts,1,
,dotcolour,xotask,xotask,40,4,280,580,main,negativefb,-99,hard,,1.1005048000006354,['n'],0,left,['8'],3,0.14838960000088264,41,,34,18,Man,Rechts,1,
,dotcolour,xotask,xotask,41,4,281,581,main,negativefb,-99,average,,1.0171677999987878,['c'],1,left,['2'],5,0.11869259999912174,53,,34,18,Man,Rechts,1,
,dotcolour,xotask,xotask,42,4,282,582,main,negativefb,-99,average,,1.6511341000004904,['n'],1,right,['3'],4,0.1362938000002032,26,,34,18,Man,Rechts,1,
,dotcolour,xotask,xotask,43,4,283,583,main,negativefb,-99,average,,0.8674897000000783,['n'],1,right,['3'],4,0.07296010000027309,28,,34,18,Man,Rechts,1,
,dotcolour,xotask,xotask,44,4,284,584,main,negativefb,-99,hard,,0.6012999999984459,['n'],0,left,['3'],4,0.05453579999993963,41,,34,18,Man,Rechts,1,
,dotcolour,xotask,xotask,45,4,285,585,main,negativefb,-99,hard,,0.9844651000003068,['n'],1,right,['3'],4,0.12640250000004016,38,,34,18,Man,Rechts,1,
,dotcolour,xotask,xotask,46,4,286,586,main,negativefb,-99,hard,,0.8181723999987298,['n'],1,right,['3'],4,0.06533049999961804,37,,34,18,Man,Rechts,1,
,dotcolour,xotask,xotask,47,4,287,587,main,negativefb,-99,hard,,0.8836413999997603,['n'],1,right,['8'],3,0.11609660000067379,38,,34,18,Man,Rechts,1,
,dotcolour,xotask,xotask,48,4,288,588,main,negativefb,-99,average,,0.6172250999989046,['n'],0,left,['8'],3,0.13584459999947285,51,,34,18,Man,Rechts,1,
,dotcolour,xotask,xotask,49,4,289,589,main,negativefb,-99,easy,,2.6343034999990778,['n'],1,right,['2'],5,0.10597390000111773,16,,34,18,Man,Rechts,1,
,dotcolour,xotask,xotask,50,4,290,590,main,negativefb,-99,easy,,0.9512541000003694,['c'],1,left,['2'],5,0.12059270000099787,63,,34,18,Man,Rechts,1,
,dotcolour,xotask,xotask,51,4,291,591,main,negativefb,-99,easy,,1.018817800000761,['n'],1,right,['2'],5,0.07498730000042997,19,,34,18,Man,Rechts,1,
,dotcolour,xotask,xotask,52,4,292,592,main,negativefb,-99,easy,,0.7669313000005786,['n'],1,right,['1'],6,0.09904439999991155,19,,34,18,Man,Rechts,1,
,dotcolour,xotask,xotask,53,4,293,593,main,negativefb,-99,average,,1.2011579999998503,['n'],1,right,['1'],6,0.06349969999973837,25,,34,18,Man,Rechts,1,
,dotcolour,xotask,xotask,54,4,294,594,main,negativefb,-99,easy,,0.6998734000007971,['c'],1,left,['1'],6,0.04275280000001658,62,,34,18,Man,Rechts,1,
,dotcolour,xotask,xotask,55,4,295,595,main,negativefb,-99,easy,,0.6670574999989185,['n'],1,right,['1'],6,0.08661279999978433,17,,34,18,Man,Rechts,1,
,dotcolour,xotask,xotask,56,4,296,596,main,negativefb,-99,easy,,0.73518950000107,['c'],1,left,['1'],6,0.08694610000020475,64,,34,18,Man,Rechts,1,
,dotcolour,xotask,xotask,57,4,297,597,main,negativefb,-99,easy,,0.6840840999993816,['c'],1,left,['1'],6,0.05724050000026182,62,,34,18,Man,Rechts,1,
,dotcolour,xotask,xotask,58,4,298,598,main,negativefb,-99,average,,0.7172277000008762,['n'],1,right,['1'],6,0.08254010000018752,27,,34,18,Man,Rechts,1,
,dotcolour,xotask,xotask,59,4,299,599,main,negativefb,-99,average,,1.083375199999864,['c'],1,left,['1'],6,0.10078410000096483,53,,34,18,Man,Rechts,1,
,xotask,xotask,xotask,0,0,0,600,training,negativefb,51,average,15,3.0843772999996872,['n'],1,right,['3'],4,0.0802663999984361,,,34,18,Man,Rechts,1,
,xotask,xotask,xotask,1,0,1,601,training,negativefb,67,hard,50,1.1664573999987624,['c'],1,left,['2'],5,0.06350159999965399,,,34,18,Man,Rechts,1,
,xotask,xotask,xotask,2,0,2,602,training,negativefb,59,average,19,1.5004279000004317,['c'],0,right,['2'],5,0.02555190000020957,,,34,18,Man,Rechts,1,
,xotask,xotask,xotask,3,0,3,603,training,negativefb,58,average,17,1.0998294000000897,['n'],1,right,['3'],4,0.07637789999898814,,,34,18,Man,Rechts,1,
,xotask,xotask,xotask,4,0,4,604,training,negativefb,52,easy,7,0.7843329999996058,['n'],1,right,['3'],4,0.05863870000030147,,,34,18,Man,Rechts,1,
,xotask,xotask,xotask,5,0,5,605,training,negativefb,47,hard,26,1.5661443999997573,['c'],0,right,['3'],4,0.2821820999997726,,,34,18,Man,Rechts,1,
,xotask,xotask,xotask,6,0,6,606,training,negativefb,67,average,17,0.999052600000141,['n'],1,right,['3'],4,0.11070730000028561,,,34,18,Man,Rechts,1,
,xotask,xotask,xotask,7,0,7,607,training,negativefb,58,easy,8,1.1328460999993695,['n'],1,right,['3'],4,0.06968140000026324,,,34,18,Man,Rechts,1,
,xotask,xotask,xotask,8,0,8,608,training,negativefb,84,average,16,1.1179952000002231,['n'],1,right,['2'],5,0.31850999999915075,,,34,18,Man,Rechts,1,
,xotask,xotask,xotask,9,0,9,609,training,negativefb,64,hard,51,2.450589400001263,['n'],0,left,['3'],4,0.06360919999860926,,,34,18,Man,Rechts,1,
,xotask,xotask,xotask,10,0,10,610,training,negativefb,70,average,17,0.883229900000515,['n'],1,right,['2'],5,0.0738989000001311,,,34,18,Man,Rechts,1,
,xotask,xotask,xotask,11,0,11,611,training,negativefb,44,average,64,1.0175353000013274,['n'],0,left,['1'],6,0.06277820000104839,,,34,18,Man,Rechts,1,
,xotask,xotask,xotask,12,0,12,612,training,negativefb,64,easy,72,1.0661681000001408,['c'],1,left,['1'],6,0.06617370000094525,,,34,18,Man,Rechts,1,
,xotask,xotask,xotask,13,0,13,613,training,negativefb,61,hard,27,1.3988491999989492,['n'],1,right,['8'],3,0.3119595999996818,,,34,18,Man,Rechts,1,
,xotask,xotask,xotask,14,0,14,614,training,negativefb,67,easy,7,1.817498299998988,['n'],1,right,['2'],5,0.3548984000008204,,,34,18,Man,Rechts,1,
,xotask,xotask,xotask,15,0,15,615,training,negativefb,52,easy,72,1.0504290999997465,['c'],1,left,['1'],6,0.0584500000004482,,,34,18,Man,Rechts,1,
,xotask,xotask,xotask,16,0,16,616,training,negativefb,75,average,16,1.2173466999993252,['n'],1,right,['3'],4,0.08837940000012168,,,34,18,Man,Rechts,1,
,xotask,xotask,xotask,17,0,17,617,training,negativefb,60,easy,71,0.9829491999989841,['c'],1,left,['1'],6,0.06154650000098627,,,34,18,Man,Rechts,1,
,xotask,xotask,xotask,18,0,18,618,training,negativefb,60,hard,50,1.7171149999994668,['n'],0,left,['2'],5,0.09442500000113796,,,34,18,Man,Rechts,1,
,xotask,xotask,xotask,19,0,19,619,training,negativefb,63,easy,8,0.9510755999999674,['n'],1,right,['2'],5,0.06146409999928437,,,34,18,Man,Rechts,1,
,xotask,xotask,xotask,20,0,20,620,training,negativefb,70,easy,73,0.8325496000015846,['c'],1,left,['1'],6,0.09819389999938721,,,34,18,Man,Rechts,1,
,xotask,xotask,xotask,21,0,21,621,training,negativefb,65,average,15,2.7331785000005766,['n'],1,right,['2'],5,0.09610269999939192,,,34,18,Man,Rechts,1,
,xotask,xotask,xotask,22,0,22,622,training,negativefb,68,easy,73,0.8331013999995776,['c'],1,left,['1'],6,0.052308199999970384,,,34,18,Man,Rechts,1,
,xotask,xotask,xotask,23,0,23,623,training,negativefb,78,easy,9,1.0846744999998919,['n'],1,right,['1'],6,0.22234299999945506,,,34,18,Man,Rechts,1,
,xotask,xotask,xotask,24,0,24,624,training,negativefb,57,average,61,0.9833521000000474,['c'],1,left,['2'],5,0.12647060000017518,,,34,18,Man,Rechts,1,
,xotask,xotask,xotask,25,0,25,625,training,negativefb,62,average,61,2.200863300000492,['c'],1,left,['8'],3,1.1374419999992824,,,34,18,Man,Rechts,1,
,xotask,xotask,xotask,26,0,26,626,training,negativefb,75,hard,50,1.3494164000003366,['c'],1,left,['3'],4,0.23023280000052182,,,34,18,Man,Rechts,1,
,xotask,xotask,xotask,27,0,27,627,training,negativefb,72,easy,73,0.7998410000000149,['c'],1,left,['1'],6,0.09362399999918125,,,34,18,Man,Rechts,1,
,xotask,xotask,xotask,28,0,28,628,training,negativefb,63,hard,26,1.1011701999996149,['n'],1,right,['2'],5,0.07003979999899457,,,34,18,Man,Rechts,1,
,xotask,xotask,xotask,29,0,29,629,training,negativefb,69,hard,27,2.483708399999159,['n'],1,right,['3'],4,0.2805940999987797,,,34,18,Man,Rechts,1,
,xotask,xotask,xotask,30,0,30,630,training,negativefb,64,hard,53,1.199967699998524,['c'],1,left,['2'],5,0.1499619000005623,,,34,18,Man,Rechts,1,
,xotask,xotask,xotask,31,0,31,631,training,negativefb,32,average,62,0.7158856999994896,['c'],1,left,['1'],6,0.1709763999988354,,,34,18,Man,Rechts,1,
,xotask,xotask,xotask,32,0,32,632,training,negativefb,45,easy,7,1.2178356999993412,['n'],1,right,['2'],5,0.09970459999931336,,,34,18,Man,Rechts,1,
,xotask,xotask,xotask,33,0,33,633,training,negativefb,76,easy,9,0.9511167999989993,['n'],1,right,['2'],5,0.1617329000000609,,,34,18,Man,Rechts,1,
,xotask,xotask,xotask,34,0,34,634,training,negativefb,44,hard,28,1.1827723999995214,['n'],1,right,['2'],5,0.06844929999897431,,,34,18,Man,Rechts,1,
,xotask,xotask,xotask,35,0,35,635,training,negativefb,51,hard,28,0.6825095000003785,['n'],1,right,['2'],5,0.05399269999907119,,,34,18,Man,Rechts,1,
,xotask,xotask,xotask,36,0,36,636,training,negativefb,42,hard,52,1.6503688000011607,['c'],1,left,['3'],4,0.10659060000034515,,,34,18,Man,Rechts,1,
,xotask,xotask,xotask,37,0,37,637,training,negativefb,65,easy,5,1.03304560000106,['n'],1,right,['2'],5,0.1330189000000246,,,34,18,Man,Rechts,1,
,xotask,xotask,xotask,38,0,38,638,training,negativefb,68,easy,70,1.1174897000000783,['c'],1,left,['2'],5,0.07527950000076089,,,34,18,Man,Rechts,1,
,xotask,xotask,xotask,39,0,39,639,training,negativefb,50,average,60,1.8332360999993398,['c'],1,left,['3'],4,0.27120279999871855,,,34,18,Man,Rechts,1,
,xotask,xotask,xotask,40,0,40,640,training,negativefb,74,easy,72,0.9174643000005744,['c'],1,left,['1'],6,0.08746760000030918,,,34,18,Man,Rechts,1,
,xotask,xotask,xotask,41,0,41,641,training,negativefb,79,hard,25,1.3666012000012415,['c'],0,right,['2'],5,0.07019140000011248,,,34,18,Man,Rechts,1,
,xotask,xotask,xotask,42,0,42,642,training,negativefb,58,hard,52,1.3501766000008502,['c'],1,left,['2'],5,0.06941270000061195,,,34,18,Man,Rechts,1,
,xotask,xotask,xotask,43,0,43,643,training,negativefb,37,hard,52,1.3004490999992413,['c'],1,left,['2'],5,0.09458900000026915,,,34,18,Man,Rechts,1,
,xotask,xotask,xotask,44,0,44,644,training,negativefb,51,hard,29,2.683545399999275,['c'],0,right,['3'],4,0.44814990000122634,,,34,18,Man,Rechts,1,
,xotask,xotask,xotask,45,0,45,645,training,negativefb,71,easy,70,1.6673633000009431,['c'],1,left,['2'],5,0.12341360000027635,,,34,18,Man,Rechts,1,
,xotask,xotask,xotask,46,0,46,646,training,negativefb,71,average,61,1.2333251000000018,['c'],1,left,['1'],6,0.09314590000030876,,,34,18,Man,Rechts,1,
,xotask,xotask,xotask,47,0,47,647,training,negativefb,55,average,15,6.099654799998461,['n'],1,right,['2'],5,0.2052984000001743,,,34,18,Man,Rechts,1,
,xotask,xotask,xotask,48,0,48,648,training,negativefb,59,hard,54,2.1838771999991877,['n'],0,left,['3'],4,0.06183489999966696,,,34,18,Man,Rechts,1,
,xotask,xotask,xotask,49,0,49,649,training,negativefb,67,easy,7,0.9001327000005404,['n'],1,right,['2'],5,0.08003429999916989,,,34,18,Man,Rechts,1,
,xotask,xotask,xotask,50,0,50,650,training,negativefb,58,average,61,2.1663974999992206,['c'],1,left,['2'],5,0.08699840000008408,,,34,18,Man,Rechts,1,
,xotask,xotask,xotask,51,0,51,651,training,negativefb,46,average,62,0.9832841999996162,['c'],1,left,['2'],5,0.07636850000017148,,,34,18,Man,Rechts,1,
,xotask,xotask,xotask,52,0,52,652,training,negativefb,73,hard,29,2.0494075999995403,['n'],1,right,['8'],3,0.14396510000005946,,,34,18,Man,Rechts,1,
,xotask,xotask,xotask,53,0,53,653,training,negativefb,80,easy,71,1.250086399999418,['c'],1,left,['2'],5,0.1286033000014868,,,34,18,Man,Rechts,1,
,xotask,xotask,xotask,54,0,54,654,training,negativefb,63,average,16,1.200531399999818,['n'],1,right,['2'],5,0.06772330000057991,,,34,18,Man,Rechts,1,
,xotask,xotask,xotask,55,0,55,655,training,negativefb,55,average,62,2.2001479000009567,['c'],1,left,['2'],5,0.05674189999990631,,,34,18,Man,Rechts,1,
,xotask,xotask,xotask,56,0,56,656,training,negativefb,72,hard,29,1.5992385999998078,['n'],1,right,['3'],4,0.30310370000006515,,,34,18,Man,Rechts,1,
,xotask,xotask,xotask,57,0,57,657,training,negativefb,73,hard,50,2.2501021999996738,['c'],1,left,['3'],4,1.3845579999997426,,,34,18,Man,Rechts,1,
,xotask,xotask,xotask,58,0,58,658,training,negativefb,45,average,64,1.0843815000007453,['c'],1,left,['2'],5,0.09420649999992747,,,34,18,Man,Rechts,1,
,xotask,xotask,xotask,59,0,59,659,training,negativefb,68,easy,9,0.9494111000003613,['n'],1,right,['2'],5,0.08510969999952067,,,34,18,Man,Rechts,1,
,xotask,xotask,xotask,0,1,60,660,training,negativefb,72,easy,7,0.7840852999997878,['n'],1,right,['2'],5,0.10282100000040373,,,34,18,Man,Rechts,1,
,xotask,xotask,xotask,1,1,61,661,training,negativefb,44,average,19,0.5830372000000352,['n'],1,right,['2'],5,0.05955080000057933,,,34,18,Man,Rechts,1,
,xotask,xotask,xotask,2,1,62,662,training,negativefb,61,average,16,0.6002593000011984,['n'],1,right,['2'],5,0.05769750000035856,,,34,18,Man,Rechts,1,
,xotask,xotask,xotask,3,1,63,663,training,negativefb,79,easy,8,0.5669992000002821,['n'],1,right,['2'],5,0.05729079999946407,,,34,18,Man,Rechts,1,
,xotask,xotask,xotask,4,1,64,664,training,negativefb,77,easy,8,0.5661132000004727,['n'],1,right,['2'],5,0.06423570000151813,,,34,18,Man,Rechts,1,
,xotask,xotask,xotask,5,1,65,665,training,negativefb,54,easy,74,0.8668935999994574,['c'],1,left,['1'],6,0.03529840000010154,,,34,18,Man,Rechts,1,
,xotask,xotask,xotask,6,1,66,666,training,negativefb,70,hard,25,1.0676500999998098,['n'],1,right,['2'],5,0.054865699999936623,,,34,18,Man,Rechts,1,
,xotask,xotask,xotask,7,1,67,667,training,negativefb,51,hard,53,1.3174369000007573,['c'],1,left,['2'],5,0.05612000000110129,,,34,18,Man,Rechts,1,
,xotask,xotask,xotask,8,1,68,668,training,negativefb,60,hard,54,1.5346636999984185,['c'],1,left,['3'],4,0.05652089999966847,,,34,18,Man,Rechts,1,
,xotask,xotask,xotask,9,1,69,669,training,negativefb,71,hard,28,1.0663457999999082,['n'],1,right,['3'],4,0.11572490000071411,,,34,18,Man,Rechts,1,
,xotask,xotask,xotask,10,1,70,670,training,negativefb,64,average,15,1.1992706000000908,['n'],1,right,['2'],5,0.06428280000000086,,,34,18,Man,Rechts,1,
,xotask,xotask,xotask,11,1,71,671,training,negativefb,76,average,64,1.200692699998399,['c'],1,left,['2'],5,0.08589109999957145,,,34,18,Man,Rechts,1,
,xotask,xotask,xotask,12,1,72,672,training,negativefb,62,hard,27,2.316170600000987,['c'],0,right,['3'],4,0.10151209999821731,,,34,18,Man,Rechts,1,
,xotask,xotask,xotask,13,1,73,673,training,negativefb,51,hard,52,1.4187388000009378,['c'],1,left,['3'],4,0.048347300000386895,,,34,18,Man,Rechts,1,
,xotask,xotask,xotask,14,1,74,674,training,negativefb,59,average,15,0.7164751000000251,['n'],1,right,['2'],5,0.06619959999989078,,,34,18,Man,Rechts,1,
,xotask,xotask,xotask,15,1,75,675,training,negativefb,69,easy,72,1.3006373000007443,['c'],1,left,['1'],6,0.25154509999993024,,,34,18,Man,Rechts,1,
,xotask,xotask,xotask,16,1,76,676,training,negativefb,68,average,18,1.0341224000003422,['n'],1,right,['2'],5,0.08057799999915005,,,34,18,Man,Rechts,1,
