starttime,task,fbtask,firsttask,withinblocktrial,block,withintasktrial,trial,running,feedback,fbscore,difflevel,n_xes,rt,resp,cor,cresp,conf_press,cj,RTconf,reddots,stoptime,sub,age,gender,handedness,session,
1714984273,xotask,xotask,dotcolour,0,0,0,0,training,negativefb,11,average,64,4.6175757999999405,['n'],0,left,['8'],3,6.1904766999996355,,,19,19,Vrouw,Rechts,1,
,xotask,xotask,dotcolour,1,0,1,1,training,negativefb,69,hard,28,4.433328999999503,['c'],0,right,['9'],2,3.4989584999993895,,,19,19,Vrouw,Rechts,1,
,xotask,xotask,dotcolour,2,0,2,2,training,negativefb,70,hard,26,2.982941799999935,['n'],1,right,['9'],2,2.0382604000005813,,,19,19,Vrouw,Rechts,1,
,xotask,xotask,dotcolour,3,0,3,3,training,negativefb,22,hard,50,2.433070499999303,['n'],0,left,['9'],2,1.9954012999996849,,,19,19,Vrouw,Rechts,1,
,xotask,xotask,dotcolour,4,0,4,4,training,negativefb,94,average,16,2.13297859999966,['n'],1,right,['2'],5,2.286121999999523,,,19,19,Vrouw,Rechts,1,
,xotask,xotask,dotcolour,5,0,5,5,training,negativefb,97,average,60,1.700451300000168,['c'],1,left,['2'],5,1.2537913999994998,,,19,19,Vrouw,Rechts,1,
,xotask,xotask,dotcolour,6,0,6,6,training,negativefb,78,easy,73,1.7505989999999656,['c'],1,left,['2'],5,1.0220112999995763,,,19,19,Vrouw,Rechts,1,
,xotask,xotask,dotcolour,7,0,7,7,training,negativefb,36,easy,9,1.366087499999594,['n'],1,right,['2'],5,0.7906944000005751,,,19,19,Vrouw,Rechts,1,
,xotask,xotask,dotcolour,8,0,8,8,training,negativefb,80,average,17,1.4004182999997283,['n'],1,right,['2'],5,1.0475159999996322,,,19,19,Vrouw,Rechts,1,
,xotask,xotask,dotcolour,9,0,9,9,training,negativefb,81,average,62,1.4661866999995254,['c'],1,left,['2'],5,0.9079701999999088,,,19,19,Vrouw,Rechts,1,
,xotask,xotask,dotcolour,10,0,10,10,training,negativefb,98,easy,71,2.8833088999999745,['c'],1,left,['3'],4,3.419934900000044,,,19,19,Vrouw,Rechts,1,
,xotask,xotask,dotcolour,11,0,11,11,training,negativefb,91,hard,54,1.6171881999998732,['c'],1,left,['2'],5,1.0662892999998803,,,19,19,Vrouw,Rechts,1,
,xotask,xotask,dotcolour,12,0,12,12,training,negativefb,90,easy,7,1.4169867000000522,['n'],1,right,['2'],5,3.2548656999997547,,,19,19,Vrouw,Rechts,1,
,xotask,xotask,dotcolour,13,0,13,13,training,negativefb,93,hard,27,1.3494304000005286,['n'],1,right,['2'],5,1.1420536000005086,,,19,19,Vrouw,Rechts,1,
,xotask,xotask,dotcolour,14,0,14,14,training,negativefb,4,easy,72,2.200721600000179,['n'],0,left,['9'],2,1.5931310000005396,,,19,19,Vrouw,Rechts,1,
,xotask,xotask,dotcolour,15,0,15,15,training,negativefb,84,average,18,1.5166278999995484,['n'],1,right,['2'],5,0.7242238999997426,,,19,19,Vrouw,Rechts,1,
,xotask,xotask,dotcolour,16,0,16,16,training,negativefb,93,hard,54,1.3677394999995158,['c'],1,left,['3'],4,1.3367760000000999,,,19,19,Vrouw,Rechts,1,
,xotask,xotask,dotcolour,17,0,17,17,training,negativefb,18,average,18,2.665950800000246,['c'],0,right,['3'],4,1.105313600000045,,,19,19,Vrouw,Rechts,1,
,xotask,xotask,dotcolour,18,0,18,18,training,negativefb,54,hard,51,2.699982299999647,['c'],1,left,['3'],4,1.3447758000002068,,,19,19,Vrouw,Rechts,1,
,xotask,xotask,dotcolour,19,0,19,19,training,negativefb,56,hard,28,2.0683477000002313,['n'],1,right,['8'],3,1.1441999999997279,,,19,19,Vrouw,Rechts,1,
,xotask,xotask,dotcolour,20,0,20,20,training,negativefb,84,easy,70,1.4831590000003416,['c'],1,left,['3'],4,0.7122847999999067,,,19,19,Vrouw,Rechts,1,
,xotask,xotask,dotcolour,21,0,21,21,training,negativefb,97,easy,70,2.317280999999639,['c'],1,left,['8'],3,1.2149982000000819,,,19,19,Vrouw,Rechts,1,
,xotask,xotask,dotcolour,22,0,22,22,training,negativefb,99,easy,70,1.1000256999996054,['c'],1,left,['3'],4,1.6585949999998775,,,19,19,Vrouw,Rechts,1,
,xotask,xotask,dotcolour,23,0,23,23,training,negativefb,18,hard,51,1.833679100000154,['n'],0,left,['8'],3,1.5661731000000145,,,19,19,Vrouw,Rechts,1,
,xotask,xotask,dotcolour,24,0,24,24,training,negativefb,27,hard,51,1.2672923999998602,['n'],0,left,['3'],4,0.5726539999996021,,,19,19,Vrouw,Rechts,1,
,xotask,xotask,dotcolour,25,0,25,25,training,negativefb,74,average,15,1.1836510000002818,['n'],1,right,['3'],4,0.5264667000001282,,,19,19,Vrouw,Rechts,1,
,xotask,xotask,dotcolour,26,0,26,26,training,negativefb,52,average,16,4.750857100000758,['n'],1,right,['8'],3,2.283785099999477,,,19,19,Vrouw,Rechts,1,
,xotask,xotask,dotcolour,27,0,27,27,training,negativefb,66,average,62,2.8505701999993107,['n'],0,left,['0'],1,1.3582128999996712,,,19,19,Vrouw,Rechts,1,
,xotask,xotask,dotcolour,28,0,28,28,training,negativefb,99,easy,71,2.0005424999999377,['c'],1,left,['8'],3,2.496462099999917,,,19,19,Vrouw,Rechts,1,
,xotask,xotask,dotcolour,29,0,29,29,training,negativefb,43,hard,54,1.4838071000003765,['n'],0,left,['3'],4,2.3928882999998677,,,19,19,Vrouw,Rechts,1,
,xotask,xotask,dotcolour,30,0,30,30,training,negativefb,85,hard,53,3.833231700000397,['c'],1,left,['3'],4,1.511441100000411,,,19,19,Vrouw,Rechts,1,
,xotask,xotask,dotcolour,31,0,31,31,training,negativefb,98,average,61,1.583897400000751,['c'],1,left,['3'],4,0.8675210999999763,,,19,19,Vrouw,Rechts,1,
,xotask,xotask,dotcolour,32,0,32,32,training,negativefb,48,easy,8,0.9330030000000988,['n'],1,right,['9'],2,0.9394736000003832,,,19,19,Vrouw,Rechts,1,
,xotask,xotask,dotcolour,33,0,33,33,training,negativefb,55,average,62,1.2842560999997659,['c'],1,left,['2'],5,0.6990308999993431,,,19,19,Vrouw,Rechts,1,
,xotask,xotask,dotcolour,34,0,34,34,training,negativefb,87,easy,6,0.9678412999992361,['n'],1,right,['9'],2,0.8962858000004417,,,19,19,Vrouw,Rechts,1,
,xotask,xotask,dotcolour,35,0,35,35,training,negativefb,69,hard,29,3.1999315000002753,['n'],1,right,['9'],2,0.9811653000006118,,,19,19,Vrouw,Rechts,1,
,xotask,xotask,dotcolour,36,0,36,36,training,negativefb,56,hard,28,1.7838173999998617,['n'],1,right,['9'],2,0.37368100000003324,,,19,19,Vrouw,Rechts,1,
,xotask,xotask,dotcolour,37,0,37,37,training,negativefb,18,hard,54,2.4013640999992276,['n'],0,left,['8'],3,1.207485099999758,,,19,19,Vrouw,Rechts,1,
,xotask,xotask,dotcolour,38,0,38,38,training,negativefb,94,average,16,1.3160837999994328,['n'],1,right,['1'],6,1.2911371999998664,,,19,19,Vrouw,Rechts,1,
,xotask,xotask,dotcolour,39,0,39,39,training,negativefb,90,easy,71,1.2497826999997415,['c'],1,left,['2'],5,0.9818675999995321,,,19,19,Vrouw,Rechts,1,
,xotask,xotask,dotcolour,40,0,40,40,training,negativefb,94,average,62,1.2844541000004028,['c'],1,left,['2'],5,0.6752606999998534,,,19,19,Vrouw,Rechts,1,
,xotask,xotask,dotcolour,41,0,41,41,training,negativefb,86,easy,70,1.7498448000005737,['c'],1,left,['3'],4,0.7785667999996804,,,19,19,Vrouw,Rechts,1,
,xotask,xotask,dotcolour,42,0,42,42,training,negativefb,57,hard,26,1.1346734999997352,['n'],1,right,['2'],5,1.71883649999927,,,19,19,Vrouw,Rechts,1,
,xotask,xotask,dotcolour,43,0,43,43,training,negativefb,93,average,60,1.5660930000003646,['c'],1,left,['2'],5,0.9225987999998324,,,19,19,Vrouw,Rechts,1,
,xotask,xotask,dotcolour,44,0,44,44,training,negativefb,88,easy,70,2.0008295999996335,['c'],1,left,['2'],5,0.8055964000004678,,,19,19,Vrouw,Rechts,1,
,xotask,xotask,dotcolour,45,0,45,45,training,negativefb,94,average,19,0.8839440000001559,['n'],1,right,['2'],5,1.5547335000001112,,,19,19,Vrouw,Rechts,1,
,xotask,xotask,dotcolour,46,0,46,46,training,negativefb,79,easy,5,1.1497245000000476,['n'],1,right,['1'],6,0.6616205999998783,,,19,19,Vrouw,Rechts,1,
,xotask,xotask,dotcolour,47,0,47,47,training,negativefb,34,easy,9,1.100408199999947,['n'],1,right,['1'],6,0.7914553999999043,,,19,19,Vrouw,Rechts,1,
,xotask,xotask,dotcolour,48,0,48,48,training,negativefb,58,hard,27,1.1509195999997246,['n'],1,right,['1'],6,0.41042410000045493,,,19,19,Vrouw,Rechts,1,
,xotask,xotask,dotcolour,49,0,49,49,training,negativefb,65,easy,9,0.8836411999991469,['n'],1,right,['1'],6,0.390961399999469,,,19,19,Vrouw,Rechts,1,
,xotask,xotask,dotcolour,50,0,50,50,training,negativefb,16,hard,29,1.5832891000000018,['c'],0,right,['3'],4,1.2245505000000776,,,19,19,Vrouw,Rechts,1,
,xotask,xotask,dotcolour,51,0,51,51,training,negativefb,91,average,18,4.8498092999998335,['n'],1,right,['2'],5,1.2056079999993017,,,19,19,Vrouw,Rechts,1,
,xotask,xotask,dotcolour,52,0,52,52,training,negativefb,87,average,62,1.8165444000005664,['c'],1,left,['3'],4,1.4134034999997311,,,19,19,Vrouw,Rechts,1,
,xotask,xotask,dotcolour,53,0,53,53,training,negativefb,89,easy,9,1.0671738000000914,['n'],1,right,['3'],4,1.4905537000004188,,,19,19,Vrouw,Rechts,1,
,xotask,xotask,dotcolour,54,0,54,54,training,negativefb,84,average,19,1.0665317000002688,['n'],1,right,['1'],6,1.1794866000000184,,,19,19,Vrouw,Rechts,1,
,xotask,xotask,dotcolour,55,0,55,55,training,negativefb,63,easy,5,1.7498170999997456,['n'],1,right,['1'],6,1.0550362000003588,,,19,19,Vrouw,Rechts,1,
,xotask,xotask,dotcolour,56,0,56,56,training,negativefb,90,hard,25,3.100860100000318,['n'],1,right,['3'],4,1.152787900000476,,,19,19,Vrouw,Rechts,1,
,xotask,xotask,dotcolour,57,0,57,57,training,negativefb,66,easy,9,2.6668471000002683,['n'],1,right,['1'],6,0.9121550999998362,,,19,19,Vrouw,Rechts,1,
,xotask,xotask,dotcolour,58,0,58,58,training,negativefb,80,hard,54,2.550331199999164,['c'],1,left,['3'],4,1.8382810000002792,,,19,19,Vrouw,Rechts,1,
,xotask,xotask,dotcolour,59,0,59,59,training,negativefb,30,average,63,4.9832619999997405,['n'],0,left,['2'],5,0.42131419999986974,,,19,19,Vrouw,Rechts,1,
,xotask,xotask,dotcolour,0,1,60,60,training,negativefb,93,easy,70,6.418322099999386,['c'],1,left,['8'],3,1.3211957000003167,,,19,19,Vrouw,Rechts,1,
,xotask,xotask,dotcolour,1,1,61,61,training,negativefb,81,average,62,1.3000020999998014,['c'],1,left,['3'],4,0.8800040000005538,,,19,19,Vrouw,Rechts,1,
,xotask,xotask,dotcolour,2,1,62,62,training,negativefb,99,easy,5,1.6005199000001085,['n'],1,right,['3'],4,4.341101800000615,,,19,19,Vrouw,Rechts,1,
,xotask,xotask,dotcolour,3,1,63,63,training,negativefb,70,hard,54,2.15033399999993,['n'],0,left,['8'],3,1.249042699999336,,,19,19,Vrouw,Rechts,1,
,xotask,xotask,dotcolour,4,1,64,64,training,negativefb,17,hard,52,2.2673212999998213,['n'],0,left,['8'],3,0.7639719000007972,,,19,19,Vrouw,Rechts,1,
,xotask,xotask,dotcolour,5,1,65,65,training,negativefb,93,average,19,0.9504604000003383,['n'],1,right,['2'],5,0.9354391999995642,,,19,19,Vrouw,Rechts,1,
,xotask,xotask,dotcolour,6,1,66,66,training,negativefb,94,easy,73,1.7847069999997984,['c'],1,left,['2'],5,2.0506644000006418,,,19,19,Vrouw,Rechts,1,
,xotask,xotask,dotcolour,7,1,67,67,training,negativefb,91,average,16,1.0336311000000933,['n'],1,right,['2'],5,0.8471663000000262,,,19,19,Vrouw,Rechts,1,
,xotask,xotask,dotcolour,8,1,68,68,training,negativefb,97,easy,6,1.1006373999998686,['n'],1,right,['2'],5,0.6731728000004296,,,19,19,Vrouw,Rechts,1,
,xotask,xotask,dotcolour,9,1,69,69,training,negativefb,56,easy,70,1.134547599999678,['c'],1,left,['2'],5,0.6255971999999019,,,19,19,Vrouw,Rechts,1,
,xotask,xotask,dotcolour,10,1,70,70,training,negativefb,86,easy,73,1.0171730000001844,['c'],1,left,['2'],5,0.383978500000012,,,19,19,Vrouw,Rechts,1,
,xotask,xotask,dotcolour,11,1,71,71,training,negativefb,81,average,17,0.983977999999297,['n'],1,right,['2'],5,0.3534327999996094,,,19,19,Vrouw,Rechts,1,
,xotask,xotask,dotcolour,12,1,72,72,training,negativefb,90,hard,50,1.6494611999996778,['c'],1,left,['2'],5,0.4895406000005096,,,19,19,Vrouw,Rechts,1,
,xotask,xotask,dotcolour,13,1,73,73,training,negativefb,61,hard,25,1.8839863000002879,['n'],1,right,['3'],4,0.8188639999998486,,,19,19,Vrouw,Rechts,1,
,xotask,xotask,dotcolour,14,1,74,74,training,negativefb,85,average,16,2.067138299999897,['n'],1,right,['3'],4,0.7191379999994751,,,19,19,Vrouw,Rechts,1,
,xotask,xotask,dotcolour,15,1,75,75,training,negativefb,86,easy,5,0.9493779999993421,['n'],1,right,['2'],5,0.5568749999993088,,,19,19,Vrouw,Rechts,1,
,xotask,xotask,dotcolour,16,1,76,76,training,negativefb,64,average,62,1.849477200000365,['c'],1,left,['2'],5,0.7005879999996978,,,19,19,Vrouw,Rechts,1,
,xotask,xotask,dotcolour,17,1,77,77,training,negativefb,90,easy,8,1.682787599999756,['n'],1,right,['1'],6,0.8060887999999977,,,19,19,Vrouw,Rechts,1,
,xotask,xotask,dotcolour,18,1,78,78,training,negativefb,71,easy,7,1.2820367000003898,['n'],1,right,['2'],5,0.5549095000005764,,,19,19,Vrouw,Rechts,1,
,xotask,xotask,dotcolour,19,1,79,79,training,negativefb,30,hard,26,1.8663589999996475,['n'],1,right,['3'],4,0.9852756000000227,,,19,19,Vrouw,Rechts,1,
,xotask,xotask,dotcolour,20,1,80,80,training,negativefb,81,hard,54,1.5825584999993225,['c'],1,left,['2'],5,0.554917899999964,,,19,19,Vrouw,Rechts,1,
,xotask,xotask,dotcolour,21,1,81,81,training,negativefb,70,easy,70,2.2658987000004345,['c'],1,left,['2'],5,0.63474320000023,,,19,19,Vrouw,Rechts,1,
,xotask,xotask,dotcolour,22,1,82,82,training,negativefb,38,hard,54,2.5325906999996732,['c'],1,left,['2'],5,0.5558638999991672,,,19,19,Vrouw,Rechts,1,
,xotask,xotask,dotcolour,23,1,83,83,training,negativefb,95,easy,8,1.0003712999996424,['n'],1,right,['2'],5,0.7981424999998126,,,19,19,Vrouw,Rechts,1,
,xotask,xotask,dotcolour,24,1,84,84,training,negativefb,75,hard,26,0.8672788000003493,['n'],1,right,['2'],5,0.6435724000002665,,,19,19,Vrouw,Rechts,1,
,xotask,xotask,dotcolour,25,1,85,85,training,negativefb,96,easy,70,1.233160400000088,['c'],1,left,['3'],4,1.3046347999998034,,,19,19,Vrouw,Rechts,1,
,xotask,xotask,dotcolour,26,1,86,86,training,negativefb,91,easy,6,0.9170500000000175,['n'],1,right,['1'],6,0.4557350999994014,,,19,19,Vrouw,Rechts,1,
,xotask,xotask,dotcolour,27,1,87,87,training,negativefb,65,average,60,1.5329532999994626,['c'],1,left,['2'],5,0.44027249999999185,,,19,19,Vrouw,Rechts,1,
,xotask,xotask,dotcolour,28,1,88,88,training,negativefb,34,average,64,1.0995622000000367,['c'],1,left,['2'],5,0.39561979999962205,,,19,19,Vrouw,Rechts,1,
,xotask,xotask,dotcolour,29,1,89,89,training,negativefb,87,hard,28,1.0331909999995332,['n'],1,right,['3'],4,0.8110169999999925,,,19,19,Vrouw,Rechts,1,
,xotask,xotask,dotcolour,30,1,90,90,training,negativefb,93,easy,8,1.0336500999992495,['n'],1,right,['2'],5,0.7370375000000422,,,19,19,Vrouw,Rechts,1,
,xotask,xotask,dotcolour,31,1,91,91,training,negativefb,91,easy,8,0.9675188000001071,['n'],1,right,['1'],6,1.557795000000624,,,19,19,Vrouw,Rechts,1,
,xotask,xotask,dotcolour,32,1,92,92,training,negativefb,95,average,19,0.9161930000000211,['n'],1,right,['2'],5,0.43442380000033154,,,19,19,Vrouw,Rechts,1,
,xotask,xotask,dotcolour,33,1,93,93,training,negativefb,50,hard,52,1.782870300000468,['c'],1,left,['3'],4,1.0417662999998356,,,19,19,Vrouw,Rechts,1,
,xotask,xotask,dotcolour,34,1,94,94,training,negativefb,94,easy,73,2.133333799999491,['c'],1,left,['3'],4,0.8665092000001096,,,19,19,Vrouw,Rechts,1,
,xotask,xotask,dotcolour,35,1,95,95,training,negativefb,60,average,60,1.317898299999797,['c'],1,left,['3'],4,0.5151206000000457,,,19,19,Vrouw,Rechts,1,
,xotask,xotask,dotcolour,36,1,96,96,training,negativefb,46,hard,54,1.3496628000002602,['c'],1,left,['3'],4,0.36849869999969087,,,19,19,Vrouw,Rechts,1,
,xotask,xotask,dotcolour,37,1,97,97,training,negativefb,41,average,17,0.8999915000003966,['n'],1,right,['3'],4,0.8059095000007801,,,19,19,Vrouw,Rechts,1,
,xotask,xotask,dotcolour,38,1,98,98,training,negativefb,46,average,15,0.8177598000002035,['n'],1,right,['3'],4,0.3816495999999461,,,19,19,Vrouw,Rechts,1,
,xotask,xotask,dotcolour,39,1,99,99,training,negativefb,77,hard,28,1.4669144999998025,['n'],1,right,['3'],4,0.5312584000002971,,,19,19,Vrouw,Rechts,1,
,xotask,xotask,dotcolour,40,1,100,100,training,negativefb,81,easy,72,2.4675035000000207,['c'],1,left,['3'],4,0.6598400000002584,,,19,19,Vrouw,Rechts,1,
,xotask,xotask,dotcolour,41,1,101,101,training,negativefb,60,easy,9,0.8833415999997669,['n'],1,right,['2'],5,0.7025748999994903,,,19,19,Vrouw,Rechts,1,
,xotask,xotask,dotcolour,42,1,102,102,training,negativefb,89,hard,27,1.0501758999998856,['n'],1,right,['3'],4,0.6559929000004558,,,19,19,Vrouw,Rechts,1,
,xotask,xotask,dotcolour,43,1,103,103,training,negativefb,91,average,60,4.583542400000624,['c'],1,left,['8'],3,2.847006099999817,,,19,19,Vrouw,Rechts,1,
,xotask,xotask,dotcolour,44,1,104,104,training,negativefb,63,average,61,2.783106400000179,['c'],1,left,['8'],3,1.3418725999999879,,,19,19,Vrouw,Rechts,1,
,xotask,xotask,dotcolour,45,1,105,105,training,negativefb,96,average,17,1.11666090000017,['n'],1,right,['1'],6,2.0114322999997967,,,19,19,Vrouw,Rechts,1,
,xotask,xotask,dotcolour,46,1,106,106,training,negativefb,45,hard,27,2.7509479000000283,['n'],1,right,['8'],3,1.9973072000002503,,,19,19,Vrouw,Rechts,1,
,xotask,xotask,dotcolour,47,1,107,107,training,negativefb,26,hard,29,1.1666629000001194,['n'],1,right,['1'],6,1.046257500000138,,,19,19,Vrouw,Rechts,1,
,xotask,xotask,dotcolour,48,1,108,108,training,negativefb,79,average,63,1.7005599000003713,['c'],1,left,['3'],4,0.8485590999998749,,,19,19,Vrouw,Rechts,1,
,xotask,xotask,dotcolour,49,1,109,109,training,negativefb,28,hard,29,2.8827860000001237,['c'],0,right,['2'],5,1.5318030999997063,,,19,19,Vrouw,Rechts,1,
,xotask,xotask,dotcolour,50,1,110,110,training,negativefb,46,average,16,2.016887200000383,['n'],1,right,['8'],3,0.2688078000001042,,,19,19,Vrouw,Rechts,1,
,xotask,xotask,dotcolour,51,1,111,111,training,negativefb,96,easy,71,1.2839437999991787,['c'],1,left,['1'],6,1.790626599999996,,,19,19,Vrouw,Rechts,1,
,xotask,xotask,dotcolour,52,1,112,112,training,negativefb,70,average,19,9.201530100000127,['n'],1,right,['8'],3,0.7754806000002645,,,19,19,Vrouw,Rechts,1,
,xotask,xotask,dotcolour,53,1,113,113,training,negativefb,41,hard,54,2.1834391000002142,['c'],1,left,['3'],4,0.609008299999914,,,19,19,Vrouw,Rechts,1,
,xotask,xotask,dotcolour,54,1,114,114,training,negativefb,50,hard,52,1.850821800000631,['c'],1,left,['3'],4,0.6467703999996957,,,19,19,Vrouw,Rechts,1,
,xotask,xotask,dotcolour,55,1,115,115,training,negativefb,39,hard,28,1.1669166000001496,['n'],1,right,['2'],5,1.670965199999955,,,19,19,Vrouw,Rechts,1,
,xotask,xotask,dotcolour,56,1,116,116,training,negativefb,62,easy,74,2.217128799999955,['c'],1,left,['3'],4,0.49081379999915953,,,19,19,Vrouw,Rechts,1,
,xotask,xotask,dotcolour,57,1,117,117,training,negativefb,72,average,60,1.5833681999993132,['c'],1,left,['3'],4,0.7844671999991988,,,19,19,Vrouw,Rechts,1,
,xotask,xotask,dotcolour,58,1,118,118,training,negativefb,40,hard,54,0.8664856000004875,['c'],1,left,['3'],4,0.3348329999998896,,,19,19,Vrouw,Rechts,1,
,xotask,xotask,dotcolour,59,1,119,119,training,negativefb,68,average,61,3.451488700000482,['n'],0,left,['8'],3,0.8388429000005999,,,19,19,Vrouw,Rechts,1,
,dotcolour,xotask,dotcolour,0,2,120,120,main,negativefb,-99,hard,,2.4337635000001683,['c'],0,right,['3'],4,6.280138099999931,35,,19,19,Vrouw,Rechts,1,
,dotcolour,xotask,dotcolour,1,2,121,121,main,negativefb,-99,easy,,3.499800600000526,['n'],0,left,['8'],3,0.8825541999995039,62,,19,19,Vrouw,Rechts,1,
,dotcolour,xotask,dotcolour,2,2,122,122,main,negativefb,-99,hard,,5.034110200000214,['n'],1,right,['8'],3,0.9338524000004327,35,,19,19,Vrouw,Rechts,1,
,dotcolour,xotask,dotcolour,3,2,123,123,main,negativefb,-99,average,,1.3337827000004836,['n'],1,right,['2'],5,1.6043806000006953,26,,19,19,Vrouw,Rechts,1,
,dotcolour,xotask,dotcolour,4,2,124,124,main,negativefb,-99,easy,,2.0522227999999814,['n'],1,right,['3'],4,0.9396820000001753,16,,19,19,Vrouw,Rechts,1,
,dotcolour,xotask,dotcolour,5,2,125,125,main,negativefb,-99,hard,,2.117611200000283,['c'],1,left,['1'],6,1.065492599999743,45,,19,19,Vrouw,Rechts,1,
,dotcolour,xotask,dotcolour,6,2,126,126,main,negativefb,-99,easy,,1.4010161999995034,['n'],1,right,['2'],5,1.0319194000003336,17,,19,19,Vrouw,Rechts,1,
,dotcolour,xotask,dotcolour,7,2,127,127,main,negativefb,-99,average,,2.3012433999992936,['c'],1,left,['2'],5,1.1073777999999947,52,,19,19,Vrouw,Rechts,1,
,dotcolour,xotask,dotcolour,8,2,128,128,main,negativefb,-99,average,,1.534492599999794,['c'],1,left,['1'],6,0.4501012999999148,53,,19,19,Vrouw,Rechts,1,
,dotcolour,xotask,dotcolour,9,2,129,129,main,negativefb,-99,average,,3.267945399999917,['c'],0,right,['3'],4,0.6784873999995398,28,,19,19,Vrouw,Rechts,1,
,dotcolour,xotask,dotcolour,10,2,130,130,main,negativefb,-99,average,,1.5495242999995753,['n'],1,right,['3'],4,1.2939790999998877,26,,19,19,Vrouw,Rechts,1,
,dotcolour,xotask,dotcolour,11,2,131,131,main,negativefb,-99,easy,,2.0011820999998235,['c'],1,left,['2'],5,2.387715400000161,62,,19,19,Vrouw,Rechts,1,
,dotcolour,xotask,dotcolour,12,2,132,132,main,negativefb,-99,average,,1.367306699999972,['c'],1,left,['2'],5,0.8383404000005612,52,,19,19,Vrouw,Rechts,1,
,dotcolour,xotask,dotcolour,13,2,133,133,main,negativefb,-99,hard,,0.9675596999995832,['n'],0,left,['2'],5,0.6788777000001573,41,,19,19,Vrouw,Rechts,1,
,dotcolour,xotask,dotcolour,14,2,134,134,main,negativefb,-99,average,,1.484463499999947,['c'],1,left,['1'],6,1.14612599999964,51,,19,19,Vrouw,Rechts,1,
,dotcolour,xotask,dotcolour,15,2,135,135,main,negativefb,-99,average,,2.7169168000000354,['n'],1,right,['2'],5,1.2560380000004443,27,,19,19,Vrouw,Rechts,1,
,dotcolour,xotask,dotcolour,16,2,136,136,main,negativefb,-99,average,,3.1846137000002273,['c'],1,left,['2'],5,0.8795959000008224,51,,19,19,Vrouw,Rechts,1,
,dotcolour,xotask,dotcolour,17,2,137,137,main,negativefb,-99,hard,,1.567493900000045,['c'],1,left,['2'],5,0.6469400000005407,44,,19,19,Vrouw,Rechts,1,
,dotcolour,xotask,dotcolour,18,2,138,138,main,negativefb,-99,average,,1.5670626999999513,['n'],1,right,['2'],5,0.7916556000000128,29,,19,19,Vrouw,Rechts,1,
,dotcolour,xotask,dotcolour,19,2,139,139,main,negativefb,-99,hard,,2.550953599999957,['c'],1,left,['3'],4,0.9147394000001441,41,,19,19,Vrouw,Rechts,1,
,dotcolour,xotask,dotcolour,20,2,140,140,main,negativefb,-99,easy,,1.3514746000000741,['n'],1,right,['3'],4,1.1447790000001987,19,,19,19,Vrouw,Rechts,1,
,dotcolour,xotask,dotcolour,21,2,141,141,main,negativefb,-99,easy,,0.9174204999999347,['n'],1,right,['2'],5,0.9672056999997949,18,,19,19,Vrouw,Rechts,1,
,dotcolour,xotask,dotcolour,22,2,142,142,main,negativefb,-99,easy,,1.1006053000000975,['n'],1,right,['1'],6,0.9736368000003495,16,,19,19,Vrouw,Rechts,1,
,dotcolour,xotask,dotcolour,23,2,143,143,main,negativefb,-99,easy,,1.067738300000201,['n'],1,right,['1'],6,0.6370046000001821,17,,19,19,Vrouw,Rechts,1,
,dotcolour,xotask,dotcolour,24,2,144,144,main,negativefb,-99,hard,,2.4344482999995307,['n'],1,right,['8'],3,1.2345356000005268,35,,19,19,Vrouw,Rechts,1,
,dotcolour,xotask,dotcolour,25,2,145,145,main,negativefb,-99,easy,,1.385306700000001,['c'],1,left,['1'],6,0.8196576000000277,65,,19,19,Vrouw,Rechts,1,
,dotcolour,xotask,dotcolour,26,2,146,146,main,negativefb,-99,average,,3.399890900000173,['c'],1,left,['1'],6,0.5478665000000547,54,,19,19,Vrouw,Rechts,1,
,dotcolour,xotask,dotcolour,27,2,147,147,main,negativefb,-99,average,,1.033823300000222,['c'],1,left,['1'],6,0.3561299000002691,53,,19,19,Vrouw,Rechts,1,
,dotcolour,xotask,dotcolour,28,2,148,148,main,negativefb,-99,easy,,1.2006667999994534,['c'],1,left,['1'],6,0.4712554999996428,61,,19,19,Vrouw,Rechts,1,
,dotcolour,xotask,dotcolour,29,2,149,149,main,negativefb,-99,easy,,0.8176619000005303,['c'],1,left,['1'],6,1.5011613999995461,64,,19,19,Vrouw,Rechts,1,
,dotcolour,xotask,dotcolour,30,2,150,150,main,negativefb,-99,easy,,1.0345884999996997,['n'],1,right,['1'],6,0.4642248000000109,16,,19,19,Vrouw,Rechts,1,
,dotcolour,xotask,dotcolour,31,2,151,151,main,negativefb,-99,hard,,1.3665130999997928,['n'],1,right,['2'],5,1.5118731999991724,36,,19,19,Vrouw,Rechts,1,
,dotcolour,xotask,dotcolour,32,2,152,152,main,negativefb,-99,easy,,1.2517928999996002,['c'],1,left,['1'],6,0.4102781000001414,64,,19,19,Vrouw,Rechts,1,
,dotcolour,xotask,dotcolour,33,2,153,153,main,negativefb,-99,easy,,0.9669193000008818,['c'],1,left,['1'],6,0.37272500000017317,63,,19,19,Vrouw,Rechts,1,
,dotcolour,xotask,dotcolour,34,2,154,154,main,negativefb,-99,hard,,1.184056000000055,['n'],1,right,['3'],4,1.1194368999995277,38,,19,19,Vrouw,Rechts,1,
,dotcolour,xotask,dotcolour,35,2,155,155,main,negativefb,-99,easy,,0.9012738000001264,['n'],1,right,['1'],6,0.30357610000010027,16,,19,19,Vrouw,Rechts,1,
,dotcolour,xotask,dotcolour,36,2,156,156,main,negativefb,-99,average,,1.5997616999993625,['c'],1,left,['3'],4,1.09264660000008,54,,19,19,Vrouw,Rechts,1,
,dotcolour,xotask,dotcolour,37,2,157,157,main,negativefb,-99,easy,,1.351045399999748,['c'],1,left,['1'],6,0.5713250999997399,65,,19,19,Vrouw,Rechts,1,
,dotcolour,xotask,dotcolour,38,2,158,158,main,negativefb,-99,hard,,3.884729599999446,['n'],0,left,['8'],3,1.4742365000001882,44,,19,19,Vrouw,Rechts,1,
,dotcolour,xotask,dotcolour,39,2,159,159,main,negativefb,-99,hard,,1.767775399999664,['n'],1,right,['3'],4,1.2975620999995954,36,,19,19,Vrouw,Rechts,1,
,dotcolour,xotask,dotcolour,40,2,160,160,main,negativefb,-99,average,,4.768353700000262,['n'],1,right,['8'],3,1.3194739999999001,26,,19,19,Vrouw,Rechts,1,
,dotcolour,xotask,dotcolour,41,2,161,161,main,negativefb,-99,easy,,0.8348999999998341,['n'],1,right,['1'],6,0.29811740000059217,15,,19,19,Vrouw,Rechts,1,
,dotcolour,xotask,dotcolour,42,2,162,162,main,negativefb,-99,hard,,2.568341799999871,['n'],1,right,['3'],4,0.6160141999998814,37,,19,19,Vrouw,Rechts,1,
,dotcolour,xotask,dotcolour,43,2,163,163,main,negativefb,-99,average,,1.5678312000000005,['n'],1,right,['3'],4,0.2176116999999067,26,,19,19,Vrouw,Rechts,1,
,dotcolour,xotask,dotcolour,44,2,164,164,main,negativefb,-99,average,,1.5509746999996423,['c'],1,left,['3'],4,0.6594524000001911,53,,19,19,Vrouw,Rechts,1,
,dotcolour,xotask,dotcolour,45,2,165,165,main,negativefb,-99,average,,1.551282800000081,['n'],1,right,['8'],3,0.3081038999998782,29,,19,19,Vrouw,Rechts,1,
,dotcolour,xotask,dotcolour,46,2,166,166,main,negativefb,-99,easy,,2.8506566999994902,['c'],1,left,['3'],4,0.3664307999997618,63,,19,19,Vrouw,Rechts,1,
,dotcolour,xotask,dotcolour,47,2,167,167,main,negativefb,-99,average,,2.551382999999987,['c'],0,right,['2'],5,0.5389407999991818,28,,19,19,Vrouw,Rechts,1,
,dotcolour,xotask,dotcolour,48,2,168,168,main,negativefb,-99,hard,,1.4008708999999726,['c'],1,left,['2'],5,0.27063770000040677,45,,19,19,Vrouw,Rechts,1,
,dotcolour,xotask,dotcolour,49,2,169,169,main,negativefb,-99,hard,,1.5840470000002824,['n'],0,left,['3'],4,0.9486207999998442,43,,19,19,Vrouw,Rechts,1,
,dotcolour,xotask,dotcolour,50,2,170,170,main,negativefb,-99,hard,,1.835280100000091,['c'],0,right,['8'],3,1.8138936999994257,38,,19,19,Vrouw,Rechts,1,
,dotcolour,xotask,dotcolour,51,2,171,171,main,negativefb,-99,average,,2.6505434999999125,['n'],1,right,['8'],3,1.9406926000001476,25,,19,19,Vrouw,Rechts,1,
,dotcolour,xotask,dotcolour,52,2,172,172,main,negativefb,-99,easy,,0.600412800000413,['c'],1,left,['3'],4,1.4396647000003213,65,,19,19,Vrouw,Rechts,1,
,dotcolour,xotask,dotcolour,53,2,173,173,main,negativefb,-99,easy,,0.7835549999999785,['n'],1,right,['3'],4,2.2800910999994812,19,,19,19,Vrouw,Rechts,1,
,dotcolour,xotask,dotcolour,54,2,174,174,main,negativefb,-99,hard,,1.7009971999996196,['c'],1,left,['3'],4,1.3939933999999994,41,,19,19,Vrouw,Rechts,1,
,dotcolour,xotask,dotcolour,55,2,175,175,main,negativefb,-99,hard,,1.3329641999998785,['n'],1,right,['3'],4,0.7900700999998662,38,,19,19,Vrouw,Rechts,1,
,dotcolour,xotask,dotcolour,56,2,176,176,main,negativefb,-99,average,,3.2999262000003,['n'],0,left,['8'],3,0.8114706000005754,51,,19,19,Vrouw,Rechts,1,
,dotcolour,xotask,dotcolour,57,2,177,177,main,negativefb,-99,hard,,1.7677395999999135,['n'],1,right,['9'],2,2.5645836999992753,37,,19,19,Vrouw,Rechts,1,
,dotcolour,xotask,dotcolour,58,2,178,178,main,negativefb,-99,hard,,2.950335200000154,['c'],1,left,['8'],3,1.4329363999995621,43,,19,19,Vrouw,Rechts,1,
,dotcolour,xotask,dotcolour,59,2,179,179,main,negativefb,-99,hard,,1.6675806000002922,['c'],1,left,['3'],4,1.37359269999979,42,,19,19,Vrouw,Rechts,1,
,dotcolour,xotask,dotcolour,0,3,180,180,main,negativefb,-99,average,,2.201538499999515,['c'],0,right,['3'],4,0.7293310000004567,29,,19,19,Vrouw,Rechts,1,
,dotcolour,xotask,dotcolour,1,3,181,181,main,negativefb,-99,average,,1.0513621999998577,['n'],1,right,['3'],4,3.210811400000239,25,,19,19,Vrouw,Rechts,1,
,dotcolour,xotask,dotcolour,2,3,182,182,main,negativefb,-99,average,,1.1177797000000282,['c'],1,left,['3'],4,1.1821389999995517,51,,19,19,Vrouw,Rechts,1,
,dotcolour,xotask,dotcolour,3,3,183,183,main,negativefb,-99,hard,,0.9004452999997739,['c'],1,left,['3'],4,0.5880937000001722,41,,19,19,Vrouw,Rechts,1,
,dotcolour,xotask,dotcolour,4,3,184,184,main,negativefb,-99,easy,,0.5340552999996362,['n'],1,right,['2'],5,0.6240106999994168,18,,19,19,Vrouw,Rechts,1,
,dotcolour,xotask,dotcolour,5,3,185,185,main,negativefb,-99,easy,,0.8507127000002583,['n'],1,right,['2'],5,0.6460194999999658,19,,19,19,Vrouw,Rechts,1,
,dotcolour,xotask,dotcolour,6,3,186,186,main,negativefb,-99,easy,,1.9346179000003758,['c'],1,left,['1'],6,1.1203464999998687,61,,19,19,Vrouw,Rechts,1,
,dotcolour,xotask,dotcolour,7,3,187,187,main,negativefb,-99,average,,1.1507742000003418,['n'],1,right,['2'],5,0.7342122999998537,28,,19,19,Vrouw,Rechts,1,
,dotcolour,xotask,dotcolour,8,3,188,188,main,negativefb,-99,average,,0.9008910000002288,['n'],1,right,['1'],6,0.5490055000000211,27,,19,19,Vrouw,Rechts,1,
,dotcolour,xotask,dotcolour,9,3,189,189,main,negativefb,-99,hard,,3.867775600000641,['n'],0,left,['8'],3,1.7097934000003079,44,,19,19,Vrouw,Rechts,1,
,dotcolour,xotask,dotcolour,10,3,190,190,main,negativefb,-99,hard,,2.7500686000003043,['c'],0,right,['3'],4,0.4444974000007278,35,,19,19,Vrouw,Rechts,1,
,dotcolour,xotask,dotcolour,11,3,191,191,main,negativefb,-99,hard,,1.3348856999991767,['c'],1,left,['2'],5,0.42231809999975667,41,,19,19,Vrouw,Rechts,1,
,dotcolour,xotask,dotcolour,12,3,192,192,main,negativefb,-99,average,,0.8853847999998834,['c'],1,left,['2'],5,0.40227500000037253,55,,19,19,Vrouw,Rechts,1,
,dotcolour,xotask,dotcolour,13,3,193,193,main,negativefb,-99,average,,0.8846317999996245,['n'],1,right,['2'],5,0.8075356999997894,25,,19,19,Vrouw,Rechts,1,
,dotcolour,xotask,dotcolour,14,3,194,194,main,negativefb,-99,hard,,2.067459800000506,['n'],1,right,['8'],3,0.709805100000267,38,,19,19,Vrouw,Rechts,1,
,dotcolour,xotask,dotcolour,15,3,195,195,main,negativefb,-99,hard,,2.251112799999646,['c'],0,right,['8'],3,1.560414500000661,39,,19,19,Vrouw,Rechts,1,
,dotcolour,xotask,dotcolour,16,3,196,196,main,negativefb,-99,average,,1.1346039999998538,['n'],1,right,['3'],4,1.254242300000442,28,,19,19,Vrouw,Rechts,1,
,dotcolour,xotask,dotcolour,17,3,197,197,main,negativefb,-99,easy,,1.034261100000549,['n'],1,right,['2'],5,0.30794740000055754,17,,19,19,Vrouw,Rechts,1,
,dotcolour,xotask,dotcolour,18,3,198,198,main,negativefb,-99,easy,,1.050578399999722,['c'],1,left,['2'],5,0.43791739999960555,62,,19,19,Vrouw,Rechts,1,
,dotcolour,xotask,dotcolour,19,3,199,199,main,negativefb,-99,average,,1.4672842999998466,['n'],1,right,['3'],4,0.6346206999996866,27,,19,19,Vrouw,Rechts,1,
,dotcolour,xotask,dotcolour,20,3,200,200,main,negativefb,-99,easy,,0.8007870000001276,['c'],1,left,['2'],5,0.6428248000001986,65,,19,19,Vrouw,Rechts,1,
,dotcolour,xotask,dotcolour,21,3,201,201,main,negativefb,-99,average,,1.0008959999995568,['n'],1,right,['3'],4,0.5613863999997193,27,,19,19,Vrouw,Rechts,1,
,dotcolour,xotask,dotcolour,22,3,202,202,main,negativefb,-99,easy,,1.1174952999999732,['c'],1,left,['2'],5,0.4877638999996634,61,,19,19,Vrouw,Rechts,1,
,dotcolour,xotask,dotcolour,23,3,203,203,main,negativefb,-99,easy,,0.8519352000002982,['c'],1,left,['2'],5,0.5470519999998942,61,,19,19,Vrouw,Rechts,1,
,dotcolour,xotask,dotcolour,24,3,204,204,main,negativefb,-99,average,,0.8350131000006513,['c'],1,left,['2'],5,0.4204171999999744,53,,19,19,Vrouw,Rechts,1,
,dotcolour,xotask,dotcolour,25,3,205,205,main,negativefb,-99,hard,,1.1012714999997115,['c'],1,left,['2'],5,0.26463439999952243,42,,19,19,Vrouw,Rechts,1,
,dotcolour,xotask,dotcolour,26,3,206,206,main,negativefb,-99,easy,,0.7838071999995009,['n'],1,right,['2'],5,1.2475984000002427,15,,19,19,Vrouw,Rechts,1,
,dotcolour,xotask,dotcolour,27,3,207,207,main,negativefb,-99,hard,,1.9682161000000633,['n'],1,right,['3'],4,2.6161159000002954,37,,19,19,Vrouw,Rechts,1,
,dotcolour,xotask,dotcolour,28,3,208,208,main,negativefb,-99,easy,,1.017248500000278,['c'],1,left,['1'],6,0.695733200000177,62,,19,19,Vrouw,Rechts,1,
,dotcolour,xotask,dotcolour,29,3,209,209,main,negativefb,-99,hard,,1.767780600000151,['c'],1,left,['3'],4,0.581853300000148,42,,19,19,Vrouw,Rechts,1,
,dotcolour,xotask,dotcolour,30,3,210,210,main,negativefb,-99,hard,,3.385099999999511,['c'],0,right,['8'],3,2.176755000000412,39,,19,19,Vrouw,Rechts,1,
,dotcolour,xotask,dotcolour,31,3,211,211,main,negativefb,-99,hard,,1.8515387999996165,['c'],0,right,['3'],4,0.8239777999997386,37,,19,19,Vrouw,Rechts,1,
,dotcolour,xotask,dotcolour,32,3,212,212,main,negativefb,-99,easy,,1.4676180000005843,['c'],1,left,['1'],6,0.7334832000005918,65,,19,19,Vrouw,Rechts,1,
,dotcolour,xotask,dotcolour,33,3,213,213,main,negativefb,-99,hard,,2.668047000000115,['n'],0,left,['3'],4,0.7748341000005894,42,,19,19,Vrouw,Rechts,1,
,dotcolour,xotask,dotcolour,34,3,214,214,main,negativefb,-99,average,,0.9510674000002837,['c'],1,left,['2'],5,0.8260978000007526,55,,19,19,Vrouw,Rechts,1,
,dotcolour,xotask,dotcolour,35,3,215,215,main,negativefb,-99,easy,,1.084878600000593,['n'],1,right,['2'],5,0.8070207999999184,18,,19,19,Vrouw,Rechts,1,
,dotcolour,xotask,dotcolour,36,3,216,216,main,negativefb,-99,hard,,4.017115800000283,['n'],0,left,['3'],4,1.0955058999998073,43,,19,19,Vrouw,Rechts,1,
,dotcolour,xotask,dotcolour,37,3,217,217,main,negativefb,-99,easy,,1.051414300000033,['n'],1,right,['3'],4,0.8418652999998812,19,,19,19,Vrouw,Rechts,1,
,dotcolour,xotask,dotcolour,38,3,218,218,main,negativefb,-99,hard,,2.4015173999996478,['c'],0,right,['8'],3,0.3537525000001551,38,,19,19,Vrouw,Rechts,1,
,dotcolour,xotask,dotcolour,39,3,219,219,main,negativefb,-99,average,,1.1344324000001507,['c'],1,left,['3'],4,1.0149509000002581,54,,19,19,Vrouw,Rechts,1,
,dotcolour,xotask,dotcolour,40,3,220,220,main,negativefb,-99,average,,1.5840416999999434,['n'],1,right,['3'],4,0.8237841000000117,28,,19,19,Vrouw,Rechts,1,
,dotcolour,xotask,dotcolour,41,3,221,221,main,negativefb,-99,easy,,1.116971100000228,['c'],1,left,['3'],4,0.7551354999995965,61,,19,19,Vrouw,Rechts,1,
,dotcolour,xotask,dotcolour,42,3,222,222,main,negativefb,-99,easy,,0.9675377000003209,['n'],1,right,['2'],5,0.7751103000000512,16,,19,19,Vrouw,Rechts,1,
,dotcolour,xotask,dotcolour,43,3,223,223,main,negativefb,-99,average,,1.5175398000001223,['n'],1,right,['3'],4,0.47629630000028556,27,,19,19,Vrouw,Rechts,1,
,dotcolour,xotask,dotcolour,44,3,224,224,main,negativefb,-99,hard,,1.800842499999817,['c'],1,left,['3'],4,0.6823741999996855,42,,19,19,Vrouw,Rechts,1,
,dotcolour,xotask,dotcolour,45,3,225,225,main,negativefb,-99,easy,,1.7511275000006208,['n'],1,right,['1'],6,1.0652888999993593,18,,19,19,Vrouw,Rechts,1,
,dotcolour,xotask,dotcolour,46,3,226,226,main,negativefb,-99,hard,,3.118802799999685,['n'],0,left,['3'],4,0.635620399999425,44,,19,19,Vrouw,Rechts,1,
,dotcolour,xotask,dotcolour,47,3,227,227,main,negativefb,-99,hard,,1.2349585000001753,['n'],1,right,['2'],5,1.2969388999999865,38,,19,19,Vrouw,Rechts,1,
,dotcolour,xotask,dotcolour,48,3,228,228,main,negativefb,-99,average,,1.28431079999973,['c'],1,left,['2'],5,1.3630444000000352,55,,19,19,Vrouw,Rechts,1,
,dotcolour,xotask,dotcolour,49,3,229,229,main,negativefb,-99,average,,1.1678663000002416,['c'],1,left,['2'],5,2.2304597000002104,53,,19,19,Vrouw,Rechts,1,
,dotcolour,xotask,dotcolour,50,3,230,230,main,negativefb,-99,easy,,1.017101299999922,['n'],1,right,['3'],4,1.5095152000003509,15,,19,19,Vrouw,Rechts,1,
,dotcolour,xotask,dotcolour,51,3,231,231,main,negativefb,-99,easy,,1.851560199999767,['c'],1,left,['1'],6,2.241114099999322,62,,19,19,Vrouw,Rechts,1,
,dotcolour,xotask,dotcolour,52,3,232,232,main,negativefb,-99,average,,1.8516293000002406,['c'],1,left,['3'],4,1.029253499999868,54,,19,19,Vrouw,Rechts,1,
,dotcolour,xotask,dotcolour,53,3,233,233,main,negativefb,-99,hard,,1.01755570000023,['c'],1,left,['2'],5,0.7333324000001085,42,,19,19,Vrouw,Rechts,1,
,dotcolour,xotask,dotcolour,54,3,234,234,main,negativefb,-99,average,,0.9509156000003713,['c'],1,left,['3'],4,1.0102034999999887,54,,19,19,Vrouw,Rechts,1,
,dotcolour,xotask,dotcolour,55,3,235,235,main,negativefb,-99,hard,,1.0834058000000368,['c'],0,right,['3'],4,0.4798832999995284,39,,19,19,Vrouw,Rechts,1,
,dotcolour,xotask,dotcolour,56,3,236,236,main,negativefb,-99,easy,,0.8009394999999131,['c'],1,left,['1'],6,0.5024313999992955,62,,19,19,Vrouw,Rechts,1,
,dotcolour,xotask,dotcolour,57,3,237,237,main,negativefb,-99,easy,,1.2353618999995888,['n'],1,right,['2'],5,1.1455547000005026,17,,19,19,Vrouw,Rechts,1,
,dotcolour,xotask,dotcolour,58,3,238,238,main,negativefb,-99,hard,,1.6509647000002587,['n'],1,right,['3'],4,1.1787851999997656,38,,19,19,Vrouw,Rechts,1,
,dotcolour,xotask,dotcolour,59,3,239,239,main,negativefb,-99,average,,1.4672818999997617,['c'],1,left,['3'],4,1.0254515000005995,53,,19,19,Vrouw,Rechts,1,
,dotcolour,xotask,dotcolour,0,4,240,240,main,negativefb,-99,hard,,2.3174950000002354,['n'],1,right,['8'],3,1.4143247000001793,35,,19,19,Vrouw,Rechts,1,
,dotcolour,xotask,dotcolour,1,4,241,241,main,negativefb,-99,hard,,1.217228299999988,['n'],1,right,['3'],4,0.8450789999997141,37,,19,19,Vrouw,Rechts,1,
,dotcolour,xotask,dotcolour,2,4,242,242,main,negativefb,-99,average,,0.9845932000007451,['c'],1,left,['3'],4,0.5255056000005425,54,,19,19,Vrouw,Rechts,1,
,dotcolour,xotask,dotcolour,3,4,243,243,main,negativefb,-99,average,,0.750838200000544,['c'],1,left,['3'],4,0.3960121000000072,51,,19,19,Vrouw,Rechts,1,
,dotcolour,xotask,dotcolour,4,4,244,244,main,negativefb,-99,easy,,0.6520127000003413,['n'],1,right,['3'],4,1.5151792000006026,19,,19,19,Vrouw,Rechts,1,
,dotcolour,xotask,dotcolour,5,4,245,245,main,negativefb,-99,hard,,1.2503639999995357,['n'],1,right,['3'],4,0.19642739999926562,37,,19,19,Vrouw,Rechts,1,
,dotcolour,xotask,dotcolour,6,4,246,246,main,negativefb,-99,hard,,0.9830394999999044,['c'],1,left,['8'],3,1.0867438999994192,41,,19,19,Vrouw,Rechts,1,
,dotcolour,xotask,dotcolour,7,4,247,247,main,negativefb,-99,average,,0.6006760000000213,['c'],0,right,['8'],3,1.1327887999996165,29,,19,19,Vrouw,Rechts,1,
,dotcolour,xotask,dotcolour,8,4,248,248,main,negativefb,-99,easy,,0.7676934999999503,['n'],1,right,['3'],4,0.5289505999999164,18,,19,19,Vrouw,Rechts,1,
,dotcolour,xotask,dotcolour,9,4,249,249,main,negativefb,-99,easy,,0.8183669000000009,['c'],1,left,['2'],5,0.7155130000001009,63,,19,19,Vrouw,Rechts,1,
,dotcolour,xotask,dotcolour,10,4,250,250,main,negativefb,-99,easy,,0.8838150999999925,['c'],1,left,['2'],5,0.38062560000071244,62,,19,19,Vrouw,Rechts,1,
,dotcolour,xotask,dotcolour,11,4,251,251,main,negativefb,-99,hard,,2.734506199999487,['c'],1,left,['9'],2,1.3935686000004353,45,,19,19,Vrouw,Rechts,1,
,dotcolour,xotask,dotcolour,12,4,252,252,main,negativefb,-99,hard,,2.6839182000003348,['c'],0,right,['8'],3,0.8636173999993844,36,,19,19,Vrouw,Rechts,1,
,dotcolour,xotask,dotcolour,13,4,253,253,main,negativefb,-99,average,,1.1172104999996009,['c'],0,right,['0'],1,2.249186699999882,27,,19,19,Vrouw,Rechts,1,
,dotcolour,xotask,dotcolour,14,4,254,254,main,negativefb,-99,hard,,3.267035599999872,['c'],1,left,['8'],3,1.4458259000002727,45,,19,19,Vrouw,Rechts,1,
,dotcolour,xotask,dotcolour,15,4,255,255,main,negativefb,-99,hard,,1.4342458000000988,['n'],0,left,['3'],4,0.8271584000003713,42,,19,19,Vrouw,Rechts,1,
,dotcolour,xotask,dotcolour,16,4,256,256,main,negativefb,-99,hard,,1.5171655000003739,['c'],1,left,['3'],4,0.9030221000002712,45,,19,19,Vrouw,Rechts,1,
,dotcolour,xotask,dotcolour,17,4,257,257,main,negativefb,-99,hard,,1.084927300000345,['c'],1,left,['3'],4,0.6642854000001535,42,,19,19,Vrouw,Rechts,1,
,dotcolour,xotask,dotcolour,18,4,258,258,main,negativefb,-99,average,,1.1176415999998426,['c'],0,right,['2'],5,0.474466300000131,25,,19,19,Vrouw,Rechts,1,
,dotcolour,xotask,dotcolour,19,4,259,259,main,negativefb,-99,easy,,0.6670094000000972,['c'],0,right,['1'],6,0.6611533999994208,17,,19,19,Vrouw,Rechts,1,
,dotcolour,xotask,dotcolour,20,4,260,260,main,negativefb,-99,hard,,3.301096299999699,['c'],1,left,['3'],4,2.656159399999524,43,,19,19,Vrouw,Rechts,1,
,dotcolour,xotask,dotcolour,21,4,261,261,main,negativefb,-99,easy,,1.7340291999998954,['c'],1,left,['2'],5,1.0892156999998406,61,,19,19,Vrouw,Rechts,1,
,dotcolour,xotask,dotcolour,22,4,262,262,main,negativefb,-99,easy,,0.9173130999997738,['n'],1,right,['2'],5,2.378114000000096,19,,19,19,Vrouw,Rechts,1,
,dotcolour,xotask,dotcolour,23,4,263,263,main,negativefb,-99,hard,,1.4179209999992963,['c'],0,right,['8'],3,1.8273220000000947,35,,19,19,Vrouw,Rechts,1,
,dotcolour,xotask,dotcolour,24,4,264,264,main,negativefb,-99,easy,,1.0344488999999157,['c'],1,left,['2'],5,0.9943705000005139,63,,19,19,Vrouw,Rechts,1,
,dotcolour,xotask,dotcolour,25,4,265,265,main,negativefb,-99,hard,,2.234354799999892,['n'],1,right,['2'],5,0.8824221999993824,38,,19,19,Vrouw,Rechts,1,
,dotcolour,xotask,dotcolour,26,4,266,266,main,negativefb,-99,average,,1.1672067999998035,['c'],0,right,['8'],3,1.752496400000382,26,,19,19,Vrouw,Rechts,1,
,dotcolour,xotask,dotcolour,27,4,267,267,main,negativefb,-99,hard,,1.200530400000389,['c'],0,right,['3'],4,0.7393123000001651,38,,19,19,Vrouw,Rechts,1,
,dotcolour,xotask,dotcolour,28,4,268,268,main,negativefb,-99,average,,1.3332768000000215,['c'],1,left,['3'],4,0.5047592999999324,52,,19,19,Vrouw,Rechts,1,
,dotcolour,xotask,dotcolour,29,4,269,269,main,negativefb,-99,average,,0.7843421999996281,['c'],1,left,['2'],5,0.4699639999998908,54,,19,19,Vrouw,Rechts,1,
,dotcolour,xotask,dotcolour,30,4,270,270,main,negativefb,-99,hard,,1.6168902999997954,['c'],0,right,['8'],3,0.7480841000005967,37,,19,19,Vrouw,Rechts,1,
,dotcolour,xotask,dotcolour,31,4,271,271,main,negativefb,-99,average,,0.968725199999426,['c'],0,right,['8'],3,1.2075955999998769,28,,19,19,Vrouw,Rechts,1,
,dotcolour,xotask,dotcolour,32,4,272,272,main,negativefb,-99,average,,1.134353800000099,['n'],1,right,['3'],4,0.979941499999768,27,,19,19,Vrouw,Rechts,1,
,dotcolour,xotask,dotcolour,33,4,273,273,main,negativefb,-99,hard,,2.117594199999985,['c'],1,left,['3'],4,0.6802236000003177,41,,19,19,Vrouw,Rechts,1,
,dotcolour,xotask,dotcolour,34,4,274,274,main,negativefb,-99,average,,0.7511897000003955,['c'],1,left,['3'],4,0.3844960999995237,51,,19,19,Vrouw,Rechts,1,
,dotcolour,xotask,dotcolour,35,4,275,275,main,negativefb,-99,hard,,1.2674581999999646,['n'],0,left,['3'],4,0.9995115000001533,41,,19,19,Vrouw,Rechts,1,
,dotcolour,xotask,dotcolour,36,4,276,276,main,negativefb,-99,average,,2.1164062000007107,['c'],1,left,['3'],4,0.7715596999996706,53,,19,19,Vrouw,Rechts,1,
,dotcolour,xotask,dotcolour,37,4,277,277,main,negativefb,-99,easy,,1.0681730999995125,['n'],1,right,['3'],4,0.7863853999997445,17,,19,19,Vrouw,Rechts,1,
,dotcolour,xotask,dotcolour,38,4,278,278,main,negativefb,-99,easy,,1.3510900999999649,['c'],1,left,['2'],5,1.0933537999999317,63,,19,19,Vrouw,Rechts,1,
,dotcolour,xotask,dotcolour,39,4,279,279,main,negativefb,-99,average,,1.0013362999998208,['n'],1,right,['3'],4,0.6833269000007931,25,,19,19,Vrouw,Rechts,1,
,dotcolour,xotask,dotcolour,40,4,280,280,main,negativefb,-99,easy,,0.9849069000001691,['c'],1,left,['2'],5,0.7128950999995141,62,,19,19,Vrouw,Rechts,1,
,dotcolour,xotask,dotcolour,41,4,281,281,main,negativefb,-99,easy,,0.8512842000000092,['n'],1,right,['3'],4,1.3238851000005525,17,,19,19,Vrouw,Rechts,1,
,dotcolour,xotask,dotcolour,42,4,282,282,main,negativefb,-99,average,,1.916656399999738,['n'],1,right,['3'],4,0.9394673999995575,29,,19,19,Vrouw,Rechts,1,
,dotcolour,xotask,dotcolour,43,4,283,283,main,negativefb,-99,average,,1.0008767999997872,['c'],1,left,['3'],4,0.6388756999995167,53,,19,19,Vrouw,Rechts,1,
,dotcolour,xotask,dotcolour,44,4,284,284,main,negativefb,-99,average,,0.5840784000001804,['c'],1,left,['3'],4,0.3421294999998281,55,,19,19,Vrouw,Rechts,1,
,dotcolour,xotask,dotcolour,45,4,285,285,main,negativefb,-99,hard,,0.9848978999998508,['n'],1,right,['3'],4,0.5302760000004128,38,,19,19,Vrouw,Rechts,1,
,dotcolour,xotask,dotcolour,46,4,286,286,main,negativefb,-99,average,,1.2013717999998335,['c'],1,left,['3'],4,0.5906775000003108,52,,19,19,Vrouw,Rechts,1,
,dotcolour,xotask,dotcolour,47,4,287,287,main,negativefb,-99,hard,,1.1003911000007065,['n'],1,right,['3'],4,0.47598329999982525,38,,19,19,Vrouw,Rechts,1,
,dotcolour,xotask,dotcolour,48,4,288,288,main,negativefb,-99,easy,,0.9007837999997719,['c'],1,left,['2'],5,0.3898716000003333,61,,19,19,Vrouw,Rechts,1,
,dotcolour,xotask,dotcolour,49,4,289,289,main,negativefb,-99,average,,1.3336420000005091,['c'],0,right,['8'],3,1.22593710000001,25,,19,19,Vrouw,Rechts,1,
,dotcolour,xotask,dotcolour,50,4,290,290,main,negativefb,-99,easy,,0.9513427000001684,['c'],1,left,['2'],5,0.5963965999999346,64,,19,19,Vrouw,Rechts,1,
,dotcolour,xotask,dotcolour,51,4,291,291,main,negativefb,-99,average,,1.1340700999999171,['n'],1,right,['3'],4,0.5757432999998855,28,,19,19,Vrouw,Rechts,1,
,dotcolour,xotask,dotcolour,52,4,292,292,main,negativefb,-99,easy,,1.3003865999999107,['n'],1,right,['2'],5,0.5816541000003781,19,,19,19,Vrouw,Rechts,1,
,dotcolour,xotask,dotcolour,53,4,293,293,main,negativefb,-99,easy,,0.7161082000002352,['n'],1,right,['1'],6,0.5632669999995414,15,,19,19,Vrouw,Rechts,1,
,dotcolour,xotask,dotcolour,54,4,294,294,main,negativefb,-99,average,,1.0841805999998542,['c'],1,left,['3'],4,0.9222790999992867,54,,19,19,Vrouw,Rechts,1,
,dotcolour,xotask,dotcolour,55,4,295,295,main,negativefb,-99,hard,,1.3499944000004689,['c'],1,left,['8'],3,0.6726837999995041,43,,19,19,Vrouw,Rechts,1,
,dotcolour,xotask,dotcolour,56,4,296,296,main,negativefb,-99,easy,,0.9513736999997491,['c'],1,left,['1'],6,0.5439493999992919,63,,19,19,Vrouw,Rechts,1,
,dotcolour,xotask,dotcolour,57,4,297,297,main,negativefb,-99,easy,,0.7335556000007273,['n'],1,right,['1'],6,1.1182977999997092,15,,19,19,Vrouw,Rechts,1,
,dotcolour,xotask,dotcolour,58,4,298,298,main,negativefb,-99,easy,,0.7162830999996004,['n'],1,right,['1'],6,0.38963459999922634,15,,19,19,Vrouw,Rechts,1,
,dotcolour,xotask,dotcolour,59,4,299,299,main,negativefb,-99,easy,,2.3008797000002232,['c'],1,left,['2'],5,0.7872692000000825,62,,19,19,Vrouw,Rechts,1,
,xotask,xotask,dotcolour,0,0,0,300,training,negativefb,45,hard,27,7.285003799999686,['c'],0,right,['9'],2,0.6965371000005689,,,19,19,Vrouw,Rechts,1,
,xotask,xotask,dotcolour,1,0,1,301,training,negativefb,91,hard,28,1.3176205999998274,['n'],1,right,['2'],5,2.3765032000001156,,,19,19,Vrouw,Rechts,1,
,xotask,xotask,dotcolour,2,0,2,302,training,negativefb,77,average,17,0.8343173999992359,['n'],1,right,['2'],5,0.43188909999935277,,,19,19,Vrouw,Rechts,1,
,xotask,xotask,dotcolour,3,0,3,303,training,negativefb,78,average,19,0.6171179999992091,['n'],1,right,['2'],5,0.23833510000076785,,,19,19,Vrouw,Rechts,1,
,xotask,xotask,dotcolour,4,0,4,304,training,negativefb,92,easy,9,0.5001960999998118,['n'],1,right,['2'],5,0.24816549999923154,,,19,19,Vrouw,Rechts,1,
,xotask,xotask,dotcolour,5,0,5,305,training,negativefb,87,easy,5,0.5171908000002077,['n'],1,right,['2'],5,0.25026419999994687,,,19,19,Vrouw,Rechts,1,
,xotask,xotask,dotcolour,6,0,6,306,training,negativefb,25,average,63,0.7666506000005029,['c'],1,left,['2'],5,0.3534896999999546,,,19,19,Vrouw,Rechts,1,
,xotask,xotask,dotcolour,7,0,7,307,training,negativefb,72,average,18,0.7837283999997453,['n'],1,right,['3'],4,0.5480785999998261,,,19,19,Vrouw,Rechts,1,
,xotask,xotask,dotcolour,8,0,8,308,training,negativefb,97,easy,74,1.11760939999931,['c'],1,left,['8'],3,0.9373109999996814,,,19,19,Vrouw,Rechts,1,
,xotask,xotask,dotcolour,9,0,9,309,training,negativefb,7,average,60,0.783841499999653,['n'],0,left,['0'],1,1.6281260000005204,,,19,19,Vrouw,Rechts,1,
,xotask,xotask,dotcolour,10,0,10,310,training,negativefb,46,easy,73,1.1664184999999634,['c'],1,left,['2'],5,1.2367000999993252,,,19,19,Vrouw,Rechts,1,
,xotask,xotask,dotcolour,11,0,11,311,training,negativefb,59,hard,29,0.7501240999999936,['n'],1,right,['2'],5,1.5495885000000271,,,19,19,Vrouw,Rechts,1,
,xotask,xotask,dotcolour,12,0,12,312,training,negativefb,87,easy,5,0.8325887000000876,['n'],1,right,['1'],6,0.36516149999988556,,,19,19,Vrouw,Rechts,1,
,xotask,xotask,dotcolour,13,0,13,313,training,negativefb,57,easy,6,0.8166366000004928,['n'],1,right,['1'],6,0.2620657999996183,,,19,19,Vrouw,Rechts,1,
,xotask,xotask,dotcolour,14,0,14,314,training,negativefb,82,hard,26,0.7323218000001361,['n'],1,right,['2'],5,0.6303005999998277,,,19,19,Vrouw,Rechts,1,
,xotask,xotask,dotcolour,15,0,15,315,training,negativefb,36,easy,70,1.0002518000001146,['n'],0,left,['2'],5,0.6463352999999188,,,19,19,Vrouw,Rechts,1,
,xotask,xotask,dotcolour,16,0,16,316,training,negativefb,82,easy,71,1.3833873000003223,['c'],1,left,['3'],4,0.6613766000000396,,,19,19,Vrouw,Rechts,1,
,xotask,xotask,dotcolour,17,0,17,317,training,negativefb,47,average,18,0.9507716999996774,['n'],1,right,['2'],5,0.5330819999999221,,,19,19,Vrouw,Rechts,1,
,xotask,xotask,dotcolour,18,0,18,318,training,negativefb,48,average,18,1.000836299999719,['n'],1,right,['3'],4,0.7201948000001721,,,19,19,Vrouw,Rechts,1,
,xotask,xotask,dotcolour,19,0,19,319,training,negativefb,36,average,64,0.9513012999996135,['n'],0,left,['3'],4,1.4697022000000288,,,19,19,Vrouw,Rechts,1,
,xotask,xotask,dotcolour,20,0,20,320,training,negativefb,30,hard,50,0.9001121000001149,['c'],1,left,['3'],4,0.7100515000001906,,,19,19,Vrouw,Rechts,1,
,xotask,xotask,dotcolour,21,0,21,321,training,negativefb,31,hard,51,0.8842731999993703,['n'],0,left,['2'],5,0.35032909999972617,,,19,19,Vrouw,Rechts,1,
,xotask,xotask,dotcolour,22,0,22,322,training,negativefb,49,easy,72,0.8833195999995951,['n'],0,left,['3'],4,0.6369709999999031,,,19,19,Vrouw,Rechts,1,
,xotask,xotask,dotcolour,23,0,23,323,training,negativefb,3,hard,52,0.7157431999994515,['n'],0,left,['2'],5,0.5918204999998125,,,19,19,Vrouw,Rechts,1,
,xotask,xotask,dotcolour,24,0,24,324,training,negativefb,25,hard,52,0.851023800000803,['n'],0,left,['8'],3,0.5419858000004751,,,19,19,Vrouw,Rechts,1,
,xotask,xotask,dotcolour,25,0,25,325,training,negativefb,66,hard,28,0.7168411000002379,['n'],1,right,['2'],5,0.39599529999941296,,,19,19,Vrouw,Rechts,1,
,xotask,xotask,dotcolour,26,0,26,326,training,negativefb,10,hard,54,0.7670735000001514,['n'],0,left,['3'],4,0.7337439000002632,,,19,19,Vrouw,Rechts,1,
,xotask,xotask,dotcolour,27,0,27,327,training,negativefb,49,average,63,0.6341951999993398,['n'],0,left,['2'],5,0.32767670000066573,,,19,19,Vrouw,Rechts,1,
,xotask,xotask,dotcolour,28,0,28,328,training,negativefb,98,hard,50,1.0842852000005223,['c'],1,left,['3'],4,0.6391230999997788,,,19,19,Vrouw,Rechts,1,
,xotask,xotask,dotcolour,29,0,29,329,training,negativefb,90,hard,50,0.766628700000183,['c'],1,left,['2'],5,0.615074100000129,,,19,19,Vrouw,Rechts,1,
,xotask,xotask,dotcolour,30,0,30,330,training,negativefb,1,average,62,0.750626199999715,['n'],0,left,['8'],3,0.8972287999995388,,,19,19,Vrouw,Rechts,1,
,xotask,xotask,dotcolour,31,0,31,331,training,negativefb,94,easy,73,1.1333429000005708,['c'],1,left,['3'],4,1.5677920999996786,,,19,19,Vrouw,Rechts,1,
,xotask,xotask,dotcolour,32,0,32,332,training,negativefb,74,hard,29,0.7841658999996071,['n'],1,right,['3'],4,0.9375153999999384,,,19,19,Vrouw,Rechts,1,
,xotask,xotask,dotcolour,33,0,33,333,training,negativefb,49,hard,28,2.3835572000007232,['n'],1,right,['3'],4,0.6207123000003776,,,19,19,Vrouw,Rechts,1,
,xotask,xotask,dotcolour,34,0,34,334,training,negativefb,81,average,61,0.9671853999998348,['c'],1,left,['3'],4,0.429607500000202,,,19,19,Vrouw,Rechts,1,
,xotask,xotask,dotcolour,35,0,35,335,training,negativefb,100,easy,7,1.0669883000000482,['n'],1,right,['3'],4,0.7861117000002196,,,19,19,Vrouw,Rechts,1,
,xotask,xotask,dotcolour,36,0,36,336,training,negativefb,64,easy,71,2.699983099999372,['c'],1,left,['3'],4,0.47886669999934384,,,19,19,Vrouw,Rechts,1,
,xotask,xotask,dotcolour,37,0,37,337,training,negativefb,44,average,16,0.7504028999992443,['n'],1,right,['2'],5,0.5746123999997508,,,19,19,Vrouw,Rechts,1,
,xotask,xotask,dotcolour,38,0,38,338,training,negativefb,20,hard,52,1.6332186999998157,['n'],0,left,['3'],4,0.846624900000279,,,19,19,Vrouw,Rechts,1,
,xotask,xotask,dotcolour,39,0,39,339,training,negativefb,50,average,64,1.0339684000000489,['n'],0,left,['2'],5,0.6359615999999733,,,19,19,Vrouw,Rechts,1,
,xotask,xotask,dotcolour,40,0,40,340,training,negativefb,45,hard,26,1.8329432999998971,['n'],1,right,['2'],5,0.7606845000000249,,,19,19,Vrouw,Rechts,1,
,xotask,xotask,dotcolour,41,0,41,341,training,negativefb,55,hard,28,1.0833035999994536,['n'],1,right,['0'],1,1.2002687000003789,,,19,19,Vrouw,Rechts,1,
,xotask,xotask,dotcolour,42,0,42,342,training,negativefb,51,easy,73,1.4495926999998119,['c'],1,left,['1'],6,0.3415186000001995,,,19,19,Vrouw,Rechts,1,
,xotask,xotask,dotcolour,43,0,43,343,training,negativefb,69,average,63,1.133764200000769,['c'],1,left,['2'],5,0.4430179999999382,,,19,19,Vrouw,Rechts,1,
,xotask,xotask,dotcolour,44,0,44,344,training,negativefb,35,easy,72,0.9825746999995317,['n'],0,left,['3'],4,0.7225740000003498,,,19,19,Vrouw,Rechts,1,
,xotask,xotask,dotcolour,45,0,45,345,training,negativefb,12,average,19,1.583479900000384,['n'],1,right,['1'],6,0.9263685000005353,,,19,19,Vrouw,Rechts,1,
,xotask,xotask,dotcolour,46,0,46,346,training,negativefb,85,average,19,0.9662828000000445,['n'],1,right,['2'],5,0.5066337000007479,,,19,19,Vrouw,Rechts,1,
,xotask,xotask,dotcolour,47,0,47,347,training,negativefb,97,easy,6,0.7680101999994804,['n'],1,right,['2'],5,0.7689677999997002,,,19,19,Vrouw,Rechts,1,
,xotask,xotask,dotcolour,48,0,48,348,training,negativefb,60,easy,7,0.7836132999991605,['n'],1,right,['2'],5,0.4184298000000126,,,19,19,Vrouw,Rechts,1,
,xotask,xotask,dotcolour,49,0,49,349,training,negativefb,86,average,63,0.8839508999999452,['c'],1,left,['3'],4,0.7827814000002036,,,19,19,Vrouw,Rechts,1,
,xotask,xotask,dotcolour,50,0,50,350,training,negativefb,88,easy,7,0.7501197999999931,['n'],1,right,['2'],5,0.9540242999992188,,,19,19,Vrouw,Rechts,1,
,xotask,xotask,dotcolour,51,0,51,351,training,negativefb,91,easy,8,1.0664005999997244,['n'],1,right,['1'],6,0.9286431999998968,,,19,19,Vrouw,Rechts,1,
,xotask,xotask,dotcolour,52,0,52,352,training,negativefb,57,hard,25,0.9178258000001733,['n'],1,right,['2'],5,0.4791168000001562,,,19,19,Vrouw,Rechts,1,
,xotask,xotask,dotcolour,53,0,53,353,training,negativefb,30,average,63,0.783024899999873,['n'],0,left,['2'],5,0.6051021000002947,,,19,19,Vrouw,Rechts,1,
,xotask,xotask,dotcolour,54,0,54,354,training,negativefb,60,average,19,0.8999467000003278,['n'],1,right,['2'],5,0.5693703999995705,,,19,19,Vrouw,Rechts,1,
,xotask,xotask,dotcolour,55,0,55,355,training,negativefb,73,easy,72,1.050586199999998,['n'],0,left,['2'],5,0.36062779999974737,,,19,19,Vrouw,Rechts,1,
,xotask,xotask,dotcolour,56,0,56,356,training,negativefb,36,hard,51,0.9673231999995551,['c'],1,left,['2'],5,0.6034478999999919,,,19,19,Vrouw,Rechts,1,
,xotask,xotask,dotcolour,57,0,57,357,training,negativefb,41,hard,53,0.9669504000003144,['n'],0,left,['2'],5,0.6530734999996639,,,19,19,Vrouw,Rechts,1,
,xotask,xotask,dotcolour,58,0,58,358,training,negativefb,73,average,17,1.0008406999995714,['n'],1,right,['2'],5,0.7547920999995767,,,19,19,Vrouw,Rechts,1,
,xotask,xotask,dotcolour,59,0,59,359,training,negativefb,93,easy,9,0.7835818000003201,['n'],1,right,['2'],5,1.1817874999997002,,,19,19,Vrouw,Rechts,1,
,xotask,xotask,dotcolour,0,1,60,360,training,negativefb,52,average,60,1.5345788999993601,['c'],1,left,['3'],4,1.150786700000026,,,19,19,Vrouw,Rechts,1,
,xotask,xotask,dotcolour,1,1,61,361,training,negativefb,71,average,61,2.2174255999998422,['c'],1,left,['2'],5,0.4559829999998328,,,19,19,Vrouw,Rechts,1,
,xotask,xotask,dotcolour,2,1,62,362,training,negativefb,94,easy,5,0.6831380000003264,['n'],1,right,['3'],4,0.995099200000368,,,19,19,Vrouw,Rechts,1,
,xotask,xotask,dotcolour,3,1,63,363,training,negativefb,82,average,17,0.7680958000000828,['n'],1,right,['3'],4,0.35631310000007943,,,19,19,Vrouw,Rechts,1,
,xotask,xotask,dotcolour,4,1,64,364,training,negativefb,57,average,19,0.6001758000002155,['n'],1,right,['3'],4,0.2623333999999886,,,19,19,Vrouw,Rechts,1,
,xotask,xotask,dotcolour,5,1,65,365,training,negativefb,76,hard,53,0.5338224000006448,['n'],0,left,['3'],4,0.2149634999996124,,,19,19,Vrouw,Rechts,1,
,xotask,xotask,dotcolour,6,1,66,366,training,negativefb,43,hard,54,0.43383260000064183,['n'],0,left,['8'],3,0.8207282000003033,,,19,19,Vrouw,Rechts,1,
,xotask,xotask,dotcolour,7,1,67,367,training,negativefb,71,hard,54,0.7511244999996052,['n'],0,left,['8'],3,0.2947241000001668,,,19,19,Vrouw,Rechts,1,
,xotask,xotask,dotcolour,8,1,68,368,training,negativefb,46,hard,26,0.5833401999998387,['n'],1,right,['3'],4,0.22052869999970426,,,19,19,Vrouw,Rechts,1,
,xotask,xotask,dotcolour,9,1,69,369,training,negativefb,53,easy,6,0.5155008000001544,['n'],1,right,['3'],4,0.13482030000068335,,,19,19,Vrouw,Rechts,1,
,xotask,xotask,dotcolour,10,1,70,370,training,negativefb,71,average,15,0.484037599999283,['n'],1,right,['2'],5,0.35832120000031864,,,19,19,Vrouw,Rechts,1,
,xotask,xotask,dotcolour,11,1,71,371,training,negativefb,63,easy,71,0.7330044000000271,['c'],1,left,['3'],4,0.23415810000005877,,,19,19,Vrouw,Rechts,1,
,xotask,xotask,dotcolour,12,1,72,372,training,negativefb,68,easy,5,0.5499242999994749,['n'],1,right,['2'],5,0.3077848000002632,,,19,19,Vrouw,Rechts,1,
,xotask,xotask,dotcolour,13,1,73,373,training,negativefb,82,average,62,0.85058140000001,['c'],1,left,['3'],4,0.4293573999993896,,,19,19,Vrouw,Rechts,1,
,xotask,xotask,dotcolour,14,1,74,374,training,negativefb,74,easy,72,0.6490949999997611,['c'],1,left,['2'],5,0.2907447999996293,,,19,19,Vrouw,Rechts,1,
,xotask,xotask,dotcolour,15,1,75,375,training,negativefb,37,average,64,0.7998402000002898,['c'],1,left,['3'],4,0.22319590000006428,,,19,19,Vrouw,Rechts,1,
,xotask,xotask,dotcolour,16,1,76,376,training,negativefb,57,easy,5,0.6337507999996888,['n'],1,right,['1'],6,0.3251829999999245,,,19,19,Vrouw,Rechts,1,
,xotask,xotask,dotcolour,17,1,77,377,training,negativefb,66,easy,73,1.6171501999997417,['c'],1,left,['1'],6,0.2799980999998297,,,19,19,Vrouw,Rechts,1,
,xotask,xotask,dotcolour,18,1,78,378,training,negativefb,89,easy,71,1.301160500000151,['c'],1,left,['3'],4,0.2890045000003738,,,19,19,Vrouw,Rechts,1,
,xotask,xotask,dotcolour,19,1,79,379,training,negativefb,10,average,18,0.6669499999998152,['n'],1,right,['1'],6,0.28329130000020086,,,19,19,Vrouw,Rechts,1,
,xotask,xotask,dotcolour,20,1,80,380,training,negativefb,11,hard,28,1.6502536999996664,['c'],0,right,['8'],3,0.7344175999996878,,,19,19,Vrouw,Rechts,1,
,xotask,xotask,dotcolour,21,1,81,381,training,negativefb,65,hard,28,0.8834676999995281,['n'],1,right,['3'],4,0.6377832999996826,,,19,19,Vrouw,Rechts,1,
,xotask,xotask,dotcolour,22,1,82,382,training,negativefb,59,hard,26,0.7995319000001473,['n'],1,right,['2'],5,0.19610999999986234,,,19,19,Vrouw,Rechts,1,
,xotask,xotask,dotcolour,23,1,83,383,training,negativefb,51,hard,29,0.9004408999999214,['n'],1,right,['2'],5,0.30459090000022115,,,19,19,Vrouw,Rechts,1,
,xotask,xotask,dotcolour,24,1,84,384,training,negativefb,67,easy,73,0.9509858000001259,['c'],1,left,['3'],4,0.2546313000002556,,,19,19,Vrouw,Rechts,1,
,xotask,xotask,dotcolour,25,1,85,385,training,negativefb,30,easy,72,0.6836938999995255,['n'],0,left,['3'],4,0.44167640000068786,,,19,19,Vrouw,Rechts,1,
,xotask,xotask,dotcolour,26,1,86,386,training,negativefb,87,average,15,1.099888199999441,['n'],1,right,['2'],5,0.6043860999998287,,,19,19,Vrouw,Rechts,1,
,xotask,xotask,dotcolour,27,1,87,387,training,negativefb,19,hard,29,0.8162811000001966,['n'],1,right,['2'],5,0.31618710000020656,,,19,19,Vrouw,Rechts,1,
,xotask,xotask,dotcolour,28,1,88,388,training,negativefb,41,average,62,1.6667389000003823,['n'],0,left,['3'],4,0.7569822000004933,,,19,19,Vrouw,Rechts,1,
,xotask,xotask,dotcolour,29,1,89,389,training,negativefb,26,hard,52,1.0342681000001903,['n'],0,left,['3'],4,0.14923699999962992,,,19,19,Vrouw,Rechts,1,
,xotask,xotask,dotcolour,30,1,90,390,training,negativefb,83,average,61,1.3502465000001393,['c'],1,left,['3'],4,0.5287037000007331,,,19,19,Vrouw,Rechts,1,
,xotask,xotask,dotcolour,31,1,91,391,training,negativefb,26,easy,5,0.7665649999999005,['n'],1,right,['2'],5,0.47738099999969563,,,19,19,Vrouw,Rechts,1,
,xotask,xotask,dotcolour,32,1,92,392,training,negativefb,92,average,60,2.3326625999998214,['c'],1,left,['8'],3,0.8538501000002725,,,19,19,Vrouw,Rechts,1,
,xotask,xotask,dotcolour,33,1,93,393,training,negativefb,12,easy,70,1.9339485000000423,['c'],1,left,['2'],5,0.8707284000001891,,,19,19,Vrouw,Rechts,1,
,xotask,xotask,dotcolour,34,1,94,394,training,negativefb,90,easy,73,1.150246100000004,['c'],1,left,['3'],4,0.8861724000007598,,,19,19,Vrouw,Rechts,1,
,xotask,xotask,dotcolour,35,1,95,395,training,negativefb,84,average,16,0.7338495999993029,['n'],1,right,['3'],4,0.8610625000001164,,,19,19,Vrouw,Rechts,1,
,xotask,xotask,dotcolour,36,1,96,396,training,negativefb,94,easy,5,0.7491374000001088,['n'],1,right,['1'],6,0.5730027999998129,,,19,19,Vrouw,Rechts,1,
,xotask,xotask,dotcolour,37,1,97,397,training,negativefb,82,easy,5,0.6835635999996157,['n'],1,right,['1'],6,0.299371400000382,,,19,19,Vrouw,Rechts,1,
,xotask,xotask,dotcolour,38,1,98,398,training,negativefb,63,hard,53,1.0514275999994425,['n'],0,left,['3'],4,0.6130889999985811,,,19,19,Vrouw,Rechts,1,
,xotask,xotask,dotcolour,39,1,99,399,training,negativefb,63,average,63,0.9671488999993016,['c'],1,left,['3'],4,0.7667997999997169,,,19,19,Vrouw,Rechts,1,
,xotask,xotask,dotcolour,40,1,100,400,training,negativefb,81,average,63,0.9157419000002847,['c'],1,left,['2'],5,0.30671740000070713,,,19,19,Vrouw,Rechts,1,
,xotask,xotask,dotcolour,41,1,101,401,training,negativefb,94,hard,54,0.6832589999994525,['c'],1,left,['2'],5,0.35608549999960815,,,19,19,Vrouw,Rechts,1,
,xotask,xotask,dotcolour,42,1,102,402,training,negativefb,39,average,63,1.3992448000008153,['n'],0,left,['3'],4,0.6133356999998796,,,19,19,Vrouw,Rechts,1,
,xotask,xotask,dotcolour,43,1,103,403,training,negativefb,44,easy,5,0.8664817999997467,['n'],1,right,['3'],4,0.4754981999994925,,,19,19,Vrouw,Rechts,1,
,xotask,xotask,dotcolour,44,1,104,404,training,negativefb,91,easy,5,0.834353000000192,['n'],1,right,['1'],6,0.39910450000024866,,,19,19,Vrouw,Rechts,1,
,xotask,xotask,dotcolour,45,1,105,405,training,negativefb,84,average,19,1.4339290999996592,['n'],1,right,['2'],5,0.333938699999635,,,19,19,Vrouw,Rechts,1,
,xotask,xotask,dotcolour,46,1,106,406,training,negativefb,62,hard,26,0.7002162999997381,['n'],1,right,['2'],5,0.10866020000139542,,,19,19,Vrouw,Rechts,1,
,xotask,xotask,dotcolour,47,1,107,407,training,negativefb,35,hard,25,0.7498213999988366,['n'],1,right,['2'],5,0.21050190000096336,,,19,19,Vrouw,Rechts,1,
,xotask,xotask,dotcolour,48,1,108,408,training,negativefb,46,average,17,0.7658000999999786,['n'],1,right,['2'],5,0.21968999999990046,,,19,19,Vrouw,Rechts,1,
,xotask,xotask,dotcolour,49,1,109,409,training,negativefb,63,hard,54,0.7495615000007092,['n'],0,left,['2'],5,0.1969574000013381,,,19,19,Vrouw,Rechts,1,
,xotask,xotask,dotcolour,50,1,110,410,training,negativefb,62,easy,72,3.7334891999998945,['n'],0,left,['2'],5,0.22401460000037332,,,19,19,Vrouw,Rechts,1,
,xotask,xotask,dotcolour,51,1,111,411,training,negativefb,80,hard,50,1.2999022000003606,['c'],1,left,['3'],4,0.6196901000002981,,,19,19,Vrouw,Rechts,1,
,xotask,xotask,dotcolour,52,1,112,412,training,negativefb,77,hard,28,1.3328177000003052,['n'],1,right,['2'],5,0.4610358999998425,,,19,19,Vrouw,Rechts,1,
,xotask,xotask,dotcolour,53,1,113,413,training,negativefb,49,average,15,1.0332416000001103,['n'],1,right,['2'],5,0.19445789999917906,,,19,19,Vrouw,Rechts,1,
,xotask,xotask,dotcolour,54,1,114,414,training,negativefb,83,easy,73,1.2838585000008607,['c'],1,left,['2'],5,0.3514418000013393,,,19,19,Vrouw,Rechts,1,
,xotask,xotask,dotcolour,55,1,115,415,training,negativefb,58,hard,54,1.1665725999991992,['c'],1,left,['2'],5,0.2508194999991247,,,19,19,Vrouw,Rechts,1,
,xotask,xotask,dotcolour,56,1,116,416,training,negativefb,63,hard,28,0.9167027000003145,['n'],1,right,['2'],5,0.21235870000055002,,,19,19,Vrouw,Rechts,1,
,xotask,xotask,dotcolour,57,1,117,417,training,negativefb,76,hard,54,1.0508853000010276,['c'],1,left,['2'],5,0.25043639999967127,,,19,19,Vrouw,Rechts,1,
,xotask,xotask,dotcolour,58,1,118,418,training,negativefb,83,easy,6,0.8165092999988701,['n'],1,right,['1'],6,0.6234972999991442,,,19,19,Vrouw,Rechts,1,
,xotask,xotask,dotcolour,59,1,119,419,training,negativefb,73,average,17,0.632424200000969,['n'],1,right,['1'],6,0.15732190000017,,,19,19,Vrouw,Rechts,1,
,xotask,xotask,dotcolour,0,2,120,420,main,negativefb,-99,average,18,2.2683428000000276,['n'],1,right,['2'],5,1.7159197999990283,,,19,19,Vrouw,Rechts,1,
,xotask,xotask,dotcolour,1,2,121,421,main,negativefb,-99,average,19,1.1517555999998876,['n'],1,right,['3'],4,0.545696000001044,,,19,19,Vrouw,Rechts,1,
,xotask,xotask,dotcolour,2,2,122,422,main,negativefb,-99,easy,8,2.0845637999991595,['n'],1,right,['1'],6,0.5942071000008582,,,19,19,Vrouw,Rechts,1,
,xotask,xotask,dotcolour,3,2,123,423,main,negativefb,-99,average,61,2.084544999999707,['c'],1,left,['8'],3,0.5042016000006697,,,19,19,Vrouw,Rechts,1,
,xotask,xotask,dotcolour,4,2,124,424,main,negativefb,-99,average,16,0.7350228000013885,['n'],1,right,['2'],5,0.3036056999990251,,,19,19,Vrouw,Rechts,1,
,xotask,xotask,dotcolour,5,2,125,425,main,negativefb,-99,easy,71,0.7669080999985454,['c'],1,left,['3'],4,0.7091526000003796,,,19,19,Vrouw,Rechts,1,
,xotask,xotask,dotcolour,6,2,126,426,main,negativefb,-99,easy,71,1.0166360000002896,['c'],1,left,['2'],5,0.649421699999948,,,19,19,Vrouw,Rechts,1,
,xotask,xotask,dotcolour,7,2,127,427,main,negativefb,-99,easy,72,0.6006856999993033,['c'],1,left,['2'],5,0.45669139999881736,,,19,19,Vrouw,Rechts,1,
,xotask,xotask,dotcolour,8,2,128,428,main,negativefb,-99,easy,5,0.6510858999990887,['n'],1,right,['2'],5,0.36496769999939715,,,19,19,Vrouw,Rechts,1,
,xotask,xotask,dotcolour,9,2,129,429,main,negativefb,-99,hard,50,1.0679505999996763,['n'],0,left,['3'],4,0.21246609999980137,,,19,19,Vrouw,Rechts,1,
,xotask,xotask,dotcolour,10,2,130,430,main,negativefb,-99,hard,29,0.7501725000001898,['n'],1,right,['3'],4,0.7189652000015485,,,19,19,Vrouw,Rechts,1,
,xotask,xotask,dotcolour,11,2,131,431,main,negativefb,-99,average,17,0.6514979000003223,['n'],1,right,['3'],4,0.15292939999926602,,,19,19,Vrouw,Rechts,1,
,xotask,xotask,dotcolour,12,2,132,432,main,negativefb,-99,easy,6,0.933243900000889,['n'],1,right,['3'],4,0.23047460000088904,,,19,19,Vrouw,Rechts,1,
,xotask,xotask,dotcolour,13,2,133,433,main,negativefb,-99,average,61,0.9676533999991079,['c'],1,left,['3'],4,0.19973010000103386,,,19,19,Vrouw,Rechts,1,
,xotask,xotask,dotcolour,14,2,134,434,main,negativefb,-99,easy,73,0.8013525999995181,['c'],1,left,['3'],4,0.17590310000014142,,,19,19,Vrouw,Rechts,1,
,xotask,xotask,dotcolour,15,2,135,435,main,negativefb,-99,average,62,0.7846202999990055,['c'],1,left,['3'],4,0.19501669999954174,,,19,19,Vrouw,Rechts,1,
,xotask,xotask,dotcolour,16,2,136,436,main,negativefb,-99,average,15,0.8520494999993389,['n'],1,right,['3'],4,0.1707525000001624,,,19,19,Vrouw,Rechts,1,
,xotask,xotask,dotcolour,17,2,137,437,main,negativefb,-99,average,62,0.8682532000002539,['c'],1,left,['3'],4,0.23370140000042738,,,19,19,Vrouw,Rechts,1,
,xotask,xotask,dotcolour,18,2,138,438,main,negativefb,-99,hard,53,0.8016203000006499,['c'],1,left,['3'],4,0.18475040000157605,,,19,19,Vrouw,Rechts,1,
,xotask,xotask,dotcolour,19,2,139,439,main,negativefb,-99,hard,51,0.9840798999994149,['c'],1,left,['3'],4,0.18712529999902472,,,19,19,Vrouw,Rechts,1,
,xotask,xotask,dotcolour,20,2,140,440,main,negativefb,-99,average,62,2.600596199999927,['c'],1,left,['9'],2,0.2443306000004668,,,19,19,Vrouw,Rechts,1,
,xotask,xotask,dotcolour,21,2,141,441,main,negativefb,-99,easy,71,0.7996526999995694,['c'],1,left,['3'],4,0.2919730999983585,,,19,19,Vrouw,Rechts,1,
,xotask,xotask,dotcolour,22,2,142,442,main,negativefb,-99,easy,71,0.6677631000002293,['c'],1,left,['3'],4,0.15839520000008633,,,19,19,Vrouw,Rechts,1,
,xotask,xotask,dotcolour,23,2,143,443,main,negativefb,-99,hard,28,1.1007129000008717,['n'],1,right,['2'],5,0.1646006999999372,,,19,19,Vrouw,Rechts,1,
,xotask,xotask,dotcolour,24,2,144,444,main,negativefb,-99,hard,52,2.083634099999472,['c'],1,left,['8'],3,0.23565039999994042,,,19,19,Vrouw,Rechts,1,
,xotask,xotask,dotcolour,25,2,145,445,main,negativefb,-99,average,19,0.9344959000009112,['n'],1,right,['2'],5,0.2222490000003745,,,19,19,Vrouw,Rechts,1,
,xotask,xotask,dotcolour,26,2,146,446,main,negativefb,-99,average,16,0.8677869999992254,['n'],1,right,['1'],6,0.202901099999508,,,19,19,Vrouw,Rechts,1,
,xotask,xotask,dotcolour,27,2,147,447,main,negativefb,-99,hard,28,0.6183774000000994,['n'],1,right,['1'],6,0.14757869999994,,,19,19,Vrouw,Rechts,1,
,xotask,xotask,dotcolour,28,2,148,448,main,negativefb,-99,hard,54,0.8677006999987498,['n'],0,left,['2'],5,0.14720610000040324,,,19,19,Vrouw,Rechts,1,
,xotask,xotask,dotcolour,29,2,149,449,main,negativefb,-99,average,19,0.7677310999988549,['n'],1,right,['2'],5,0.3197763999996823,,,19,19,Vrouw,Rechts,1,
,xotask,xotask,dotcolour,30,2,150,450,main,negativefb,-99,hard,27,0.567074099999445,['n'],1,right,['2'],5,0.19737810000151512,,,19,19,Vrouw,Rechts,1,
,xotask,xotask,dotcolour,31,2,151,451,main,negativefb,-99,hard,26,0.7013815999998769,['n'],1,right,['2'],5,0.18651690000115195,,,19,19,Vrouw,Rechts,1,
,xotask,xotask,dotcolour,32,2,152,452,main,negativefb,-99,hard,50,0.6839070999994874,['n'],0,left,['2'],5,0.2166983999995864,,,19,19,Vrouw,Rechts,1,
,xotask,xotask,dotcolour,33,2,153,453,main,negativefb,-99,average,64,0.7516835999995237,['c'],1,left,['3'],4,0.21892400000069756,,,19,19,Vrouw,Rechts,1,
,xotask,xotask,dotcolour,34,2,154,454,main,negativefb,-99,easy,9,0.7174615999992966,['n'],1,right,['2'],5,0.19755719999920984,,,19,19,Vrouw,Rechts,1,
,xotask,xotask,dotcolour,35,2,155,455,main,negativefb,-99,hard,52,0.9674863999989611,['c'],1,left,['3'],4,0.7518641000006028,,,19,19,Vrouw,Rechts,1,
,xotask,xotask,dotcolour,36,2,156,456,main,negativefb,-99,easy,73,1.3178693999998359,['c'],1,left,['3'],4,0.42247949999909906,,,19,19,Vrouw,Rechts,1,
,xotask,xotask,dotcolour,37,2,157,457,main,negativefb,-99,average,61,0.9847675999990315,['c'],1,left,['3'],4,0.18321869999999763,,,19,19,Vrouw,Rechts,1,
,xotask,xotask,dotcolour,38,2,158,458,main,negativefb,-99,easy,7,0.6846518000002106,['n'],1,right,['2'],5,0.21273029999974824,,,19,19,Vrouw,Rechts,1,
,xotask,xotask,dotcolour,39,2,159,459,main,negativefb,-99,hard,26,0.5677399000014702,['n'],1,right,['2'],5,0.13409750000027998,,,19,19,Vrouw,Rechts,1,
,xotask,xotask,dotcolour,40,2,160,460,main,negativefb,-99,easy,9,0.916987100001279,['n'],1,right,['3'],4,0.1569993000011891,,,19,19,Vrouw,Rechts,1,
,xotask,xotask,dotcolour,41,2,161,461,main,negativefb,-99,hard,29,0.7171939999989263,['n'],1,right,['2'],5,0.1952201000003697,,,19,19,Vrouw,Rechts,1,
,xotask,xotask,dotcolour,42,2,162,462,main,negativefb,-99,hard,28,0.9848361999993358,['n'],1,right,['3'],4,0.24527519999901415,,,19,19,Vrouw,Rechts,1,
,xotask,xotask,dotcolour,43,2,163,463,main,negativefb,-99,easy,7,0.8005821000006108,['n'],1,right,['2'],5,0.1886123000003863,,,19,19,Vrouw,Rechts,1,
,xotask,xotask,dotcolour,44,2,164,464,main,negativefb,-99,hard,54,3.71886590000031,['c'],1,left,['9'],2,0.6415295999995578,,,19,19,Vrouw,Rechts,1,
,xotask,xotask,dotcolour,45,2,165,465,main,negativefb,-99,hard,51,1.4839073000002827,['c'],1,left,['9'],2,0.2853849999992235,,,19,19,Vrouw,Rechts,1,
,xotask,xotask,dotcolour,46,2,166,466,main,negativefb,-99,easy,5,0.9170570999995107,['n'],1,right,['2'],5,0.19781920000059472,,,19,19,Vrouw,Rechts,1,
,xotask,xotask,dotcolour,47,2,167,467,main,negativefb,-99,average,19,0.6008813000007649,['n'],1,right,['2'],5,0.14219629999934114,,,19,19,Vrouw,Rechts,1,
,xotask,xotask,dotcolour,48,2,168,468,main,negativefb,-99,easy,6,0.485692400001426,['n'],1,right,['2'],5,0.11811800000032235,,,19,19,Vrouw,Rechts,1,
,xotask,xotask,dotcolour,49,2,169,469,main,negativefb,-99,average,17,0.533572300000742,['n'],1,right,['2'],5,0.11755749999974796,,,19,19,Vrouw,Rechts,1,
,xotask,xotask,dotcolour,50,2,170,470,main,negativefb,-99,hard,50,1.0829973999989306,['c'],1,left,['8'],3,0.7180172000007587,,,19,19,Vrouw,Rechts,1,
,xotask,xotask,dotcolour,51,2,171,471,main,negativefb,-99,average,63,0.9677850999996735,['c'],1,left,['8'],3,0.25148930000068503,,,19,19,Vrouw,Rechts,1,
,xotask,xotask,dotcolour,52,2,172,472,main,negativefb,-99,hard,27,0.7339598999988084,['n'],1,right,['2'],5,0.19615449999946577,,,19,19,Vrouw,Rechts,1,
,xotask,xotask,dotcolour,53,2,173,473,main,negativefb,-99,easy,73,1.30167210000036,['c'],1,left,['3'],4,0.30652399999962654,,,19,19,Vrouw,Rechts,1,
,xotask,xotask,dotcolour,54,2,174,474,main,negativefb,-99,easy,73,0.5678850000003877,['c'],1,left,['3'],4,0.22391979999883915,,,19,19,Vrouw,Rechts,1,
,xotask,xotask,dotcolour,55,2,175,475,main,negativefb,-99,average,64,0.9682017999984964,['n'],0,left,['3'],4,0.15332409999973606,,,19,19,Vrouw,Rechts,1,
,xotask,xotask,dotcolour,56,2,176,476,main,negativefb,-99,easy,6,0.901172799998676,['n'],1,right,['2'],5,0.2558609999996406,,,19,19,Vrouw,Rechts,1,
,xotask,xotask,dotcolour,57,2,177,477,main,negativefb,-99,hard,27,0.90130279999903,['n'],1,right,['3'],4,0.18652190000102564,,,19,19,Vrouw,Rechts,1,
,xotask,xotask,dotcolour,58,2,178,478,main,negativefb,-99,easy,72,0.917965999999069,['c'],1,left,['3'],4,0.7193174999993062,,,19,19,Vrouw,Rechts,1,
,xotask,xotask,dotcolour,59,2,179,479,main,negativefb,-99,average,60,1.068123500001093,['c'],1,left,['3'],4,0.1522002000001521,,,19,19,Vrouw,Rechts,1,
,xotask,xotask,dotcolour,0,3,180,480,main,negativefb,-99,hard,28,1.1506664999997156,['n'],1,right,['2'],5,0.8642061000009562,,,19,19,Vrouw,Rechts,1,
,xotask,xotask,dotcolour,1,3,181,481,main,negativefb,-99,hard,52,1.6338818000003812,['n'],0,left,['8'],3,0.6127348999998503,,,19,19,Vrouw,Rechts,1,
,xotask,xotask,dotcolour,2,3,182,482,main,negativefb,-99,hard,52,1.0671285999997053,['c'],1,left,['3'],4,0.4833392000000458,,,19,19,Vrouw,Rechts,1,
,xotask,xotask,dotcolour,3,3,183,483,main,negativefb,-99,average,63,0.9678010000006907,['c'],1,left,['3'],4,0.4099720000012894,,,19,19,Vrouw,Rechts,1,
,xotask,xotask,dotcolour,4,3,184,484,main,negativefb,-99,hard,29,1.7849062999994203,['n'],1,right,['2'],5,0.6594021000000794,,,19,19,Vrouw,Rechts,1,
,xotask,xotask,dotcolour,5,3,185,485,main,negativefb,-99,hard,52,1.7839516000003641,['c'],1,left,['3'],4,0.402458900000056,,,19,19,Vrouw,Rechts,1,
,xotask,xotask,dotcolour,6,3,186,486,main,negativefb,-99,easy,6,0.8170411999999487,['n'],1,right,['3'],4,0.39501949999976205,,,19,19,Vrouw,Rechts,1,
,xotask,xotask,dotcolour,7,3,187,487,main,negativefb,-99,hard,52,0.7506708000000799,['n'],0,left,['3'],4,0.19006489999992482,,,19,19,Vrouw,Rechts,1,
,xotask,xotask,dotcolour,8,3,188,488,main,negativefb,-99,average,15,0.7833914999991975,['n'],1,right,['3'],4,0.14434670000082406,,,19,19,Vrouw,Rechts,1,
,xotask,xotask,dotcolour,9,3,189,489,main,negativefb,-99,easy,71,1.0512440000002243,['c'],1,left,['3'],4,0.3293158000014955,,,19,19,Vrouw,Rechts,1,
,xotask,xotask,dotcolour,10,3,190,490,main,negativefb,-99,average,15,0.9165753999986919,['n'],1,right,['3'],4,0.24093530000027386,,,19,19,Vrouw,Rechts,1,
,xotask,xotask,dotcolour,11,3,191,491,main,negativefb,-99,average,17,0.7675550000003568,['n'],1,right,['3'],4,0.17816529999981867,,,19,19,Vrouw,Rechts,1,
,xotask,xotask,dotcolour,12,3,192,492,main,negativefb,-99,average,61,1.5171601000001829,['n'],0,left,['3'],4,0.166720000001078,,,19,19,Vrouw,Rechts,1,
,xotask,xotask,dotcolour,13,3,193,493,main,negativefb,-99,hard,28,0.7677669000004244,['n'],1,right,['2'],5,0.6820599000002403,,,19,19,Vrouw,Rechts,1,
,xotask,xotask,dotcolour,14,3,194,494,main,negativefb,-99,hard,28,0.5842733000008593,['n'],1,right,['2'],5,0.2250069000001531,,,19,19,Vrouw,Rechts,1,
,xotask,xotask,dotcolour,15,3,195,495,main,negativefb,-99,easy,74,0.6832986999997956,['c'],1,left,['3'],4,0.4856597999987571,,,19,19,Vrouw,Rechts,1,
,xotask,xotask,dotcolour,16,3,196,496,main,negativefb,-99,average,64,0.8839567999984865,['c'],1,left,['3'],4,0.20710279999912018,,,19,19,Vrouw,Rechts,1,
,xotask,xotask,dotcolour,17,3,197,497,main,negativefb,-99,easy,72,1.017784899999242,['c'],1,left,['3'],4,0.382872000000134,,,19,19,Vrouw,Rechts,1,
,xotask,xotask,dotcolour,18,3,198,498,main,negativefb,-99,average,17,0.7341152999997576,['n'],1,right,['3'],4,0.41101349999917147,,,19,19,Vrouw,Rechts,1,
,xotask,xotask,dotcolour,19,3,199,499,main,negativefb,-99,average,63,0.7674587999990763,['c'],1,left,['3'],4,0.2288644000000204,,,19,19,Vrouw,Rechts,1,
,xotask,xotask,dotcolour,20,3,200,500,main,negativefb,-99,easy,5,1.2347401999995782,['n'],1,right,['2'],5,0.21956549999958952,,,19,19,Vrouw,Rechts,1,
,xotask,xotask,dotcolour,21,3,201,501,main,negativefb,-99,easy,7,0.7845324999998411,['n'],1,right,['1'],6,0.16385149999950954,,,19,19,Vrouw,Rechts,1,
,xotask,xotask,dotcolour,22,3,202,502,main,negativefb,-99,average,61,1.16809160000048,['c'],1,left,['3'],4,0.20772450000004028,,,19,19,Vrouw,Rechts,1,
,xotask,xotask,dotcolour,23,3,203,503,main,negativefb,-99,average,61,0.8004156999995757,['c'],1,left,['3'],4,0.22403300000041781,,,19,19,Vrouw,Rechts,1,
,xotask,xotask,dotcolour,24,3,204,504,main,negativefb,-99,hard,28,1.0166214000000764,['n'],1,right,['2'],5,0.7277935000001889,,,19,19,Vrouw,Rechts,1,
,xotask,xotask,dotcolour,25,3,205,505,main,negativefb,-99,hard,54,0.8175898000008601,['c'],1,left,['2'],5,0.7385702999999921,,,19,19,Vrouw,Rechts,1,
,xotask,xotask,dotcolour,26,3,206,506,main,negativefb,-99,hard,51,1.0341109999990294,['c'],1,left,['3'],4,0.5328279999994265,,,19,19,Vrouw,Rechts,1,
,xotask,xotask,dotcolour,27,3,207,507,main,negativefb,-99,hard,51,2.1844259000008606,['c'],1,left,['2'],5,0.45703879999928176,,,19,19,Vrouw,Rechts,1,
,xotask,xotask,dotcolour,28,3,208,508,main,negativefb,-99,average,63,1.4003503999992972,['n'],0,left,['2'],5,0.2317334999988816,,,19,19,Vrouw,Rechts,1,
,xotask,xotask,dotcolour,29,3,209,509,main,negativefb,-99,easy,8,1.5505171000004339,['n'],1,right,['1'],6,1.4406804999998712,,,19,19,Vrouw,Rechts,1,
,xotask,xotask,dotcolour,30,3,210,510,main,negativefb,-99,hard,26,1.8346619000003557,['n'],1,right,['3'],4,1.663108300001113,,,19,19,Vrouw,Rechts,1,
,xotask,xotask,dotcolour,31,3,211,511,main,negativefb,-99,average,16,0.6846666999990703,['n'],1,right,['2'],5,0.2668377000009059,,,19,19,Vrouw,Rechts,1,
,xotask,xotask,dotcolour,32,3,212,512,main,negativefb,-99,easy,7,0.7000408999992942,['n'],1,right,['2'],5,0.15654739999990852,,,19,19,Vrouw,Rechts,1,
,xotask,xotask,dotcolour,33,3,213,513,main,negativefb,-99,easy,74,1.284072999998898,['c'],1,left,['2'],5,0.7637043000013364,,,19,19,Vrouw,Rechts,1,
,xotask,xotask,dotcolour,34,3,214,514,main,negativefb,-99,average,60,0.8827959999998711,['c'],1,left,['3'],4,0.2671086999998806,,,19,19,Vrouw,Rechts,1,
,xotask,xotask,dotcolour,35,3,215,515,main,negativefb,-99,hard,29,0.918209299999944,['n'],1,right,['3'],4,0.9806000000007771,,,19,19,Vrouw,Rechts,1,
,xotask,xotask,dotcolour,36,3,216,516,main,negativefb,-99,average,61,1.1176980000000185,['n'],0,left,['3'],4,0.4903405000004568,,,19,19,Vrouw,Rechts,1,
,xotask,xotask,dotcolour,37,3,217,517,main,negativefb,-99,easy,73,0.9009075000012672,['c'],1,left,['2'],5,0.9068295999986731,,,19,19,Vrouw,Rechts,1,
,xotask,xotask,dotcolour,38,3,218,518,main,negativefb,-99,average,16,0.8014282999993156,['n'],1,right,['2'],5,0.2964329999995243,,,19,19,Vrouw,Rechts,1,
,xotask,xotask,dotcolour,39,3,219,519,main,negativefb,-99,easy,70,0.7839002000000619,['c'],1,left,['3'],4,0.27004329999908805,,,19,19,Vrouw,Rechts,1,
,xotask,xotask,dotcolour,40,3,220,520,main,negativefb,-99,average,15,3.2013600999998744,['n'],1,right,['2'],5,0.811627099999896,,,19,19,Vrouw,Rechts,1,
,xotask,xotask,dotcolour,41,3,221,521,main,negativefb,-99,easy,71,0.9338454000007914,['c'],1,left,['3'],4,0.671698699999979,,,19,19,Vrouw,Rechts,1,
,xotask,xotask,dotcolour,42,3,222,522,main,negativefb,-99,easy,7,0.9338069999994332,['n'],1,right,['2'],5,0.4952398000004905,,,19,19,Vrouw,Rechts,1,
,xotask,xotask,dotcolour,43,3,223,523,main,negativefb,-99,easy,8,0.7685345000008965,['n'],1,right,['2'],5,0.41462309999951685,,,19,19,Vrouw,Rechts,1,
,xotask,xotask,dotcolour,44,3,224,524,main,negativefb,-99,hard,28,1.0508972000006906,['c'],0,right,['2'],5,0.6130212000007305,,,19,19,Vrouw,Rechts,1,
,xotask,xotask,dotcolour,45,3,225,525,main,negativefb,-99,easy,9,0.8844802000003256,['n'],1,right,['2'],5,0.8338993999986997,,,19,19,Vrouw,Rechts,1,
,xotask,xotask,dotcolour,46,3,226,526,main,negativefb,-99,easy,70,0.8185727000000043,['c'],1,left,['2'],5,0.4081872000006115,,,19,19,Vrouw,Rechts,1,
,xotask,xotask,dotcolour,47,3,227,527,main,negativefb,-99,average,18,0.8179502000002685,['n'],1,right,['2'],5,1.368989300000976,,,19,19,Vrouw,Rechts,1,
,xotask,xotask,dotcolour,48,3,228,528,main,negativefb,-99,average,17,1.3845479999999952,['n'],1,right,['3'],4,0.33110950000082084,,,19,19,Vrouw,Rechts,1,
,xotask,xotask,dotcolour,49,3,229,529,main,negativefb,-99,easy,70,1.251190699998915,['c'],1,left,['2'],5,0.3486050999999861,,,19,19,Vrouw,Rechts,1,
,xotask,xotask,dotcolour,50,3,230,530,main,negativefb,-99,hard,28,1.384577900000295,['n'],1,right,['2'],5,0.3839038999994955,,,19,19,Vrouw,Rechts,1,
,xotask,xotask,dotcolour,51,3,231,531,main,negativefb,-99,average,61,1.3169789999992645,['c'],1,left,['3'],4,1.8203207999995357,,,19,19,Vrouw,Rechts,1,
,xotask,xotask,dotcolour,52,3,232,532,main,negativefb,-99,hard,26,1.0014174999996612,['n'],1,right,['3'],4,0.405038599999898,,,19,19,Vrouw,Rechts,1,
,xotask,xotask,dotcolour,53,3,233,533,main,negativefb,-99,easy,70,2.450228400000924,['c'],1,left,['8'],3,0.18728989999908663,,,19,19,Vrouw,Rechts,1,
,xotask,xotask,dotcolour,54,3,234,534,main,negativefb,-99,hard,53,1.7515507000007347,['n'],0,left,['8'],3,0.1988234000000375,,,19,19,Vrouw,Rechts,1,
,xotask,xotask,dotcolour,55,3,235,535,main,negativefb,-99,easy,5,1.167299800001274,['n'],1,right,['3'],4,0.5929010999989259,,,19,19,Vrouw,Rechts,1,
,xotask,xotask,dotcolour,56,3,236,536,main,negativefb,-99,hard,52,0.8669520999992528,['c'],1,left,['3'],4,1.5754452999990463,,,19,19,Vrouw,Rechts,1,
,xotask,xotask,dotcolour,57,3,237,537,main,negativefb,-99,easy,7,0.9173743999999715,['n'],1,right,['3'],4,0.9409142000004067,,,19,19,Vrouw,Rechts,1,
,xotask,xotask,dotcolour,58,3,238,538,main,negativefb,-99,hard,51,1.81785200000013,['c'],1,left,['9'],2,0.8075568000003841,,,19,19,Vrouw,Rechts,1,
,xotask,xotask,dotcolour,59,3,239,539,main,negativefb,-99,average,18,0.8511937999992369,['n'],1,right,['2'],5,0.7101243999986764,,,19,19,Vrouw,Rechts,1,
,xotask,xotask,dotcolour,0,4,240,540,main,negativefb,-99,easy,5,1.13518219999969,['n'],1,right,['1'],6,0.2423283000007359,,,19,19,Vrouw,Rechts,1,
,xotask,xotask,dotcolour,1,4,241,541,main,negativefb,-99,easy,6,1.117841999999655,['n'],1,right,['1'],6,0.27673419999882753,,,19,19,Vrouw,Rechts,1,
,xotask,xotask,dotcolour,2,4,242,542,main,negativefb,-99,easy,5,1.3347834999985935,['n'],1,right,['1'],6,0.18206850000024133,,,19,19,Vrouw,Rechts,1,
,xotask,xotask,dotcolour,3,4,243,543,main,negativefb,-99,average,16,0.6177908999998181,['n'],1,right,['1'],6,0.20581700000002456,,,19,19,Vrouw,Rechts,1,
,xotask,xotask,dotcolour,4,4,244,544,main,negativefb,-99,average,16,0.4850583000006736,['n'],1,right,['2'],5,0.11552599999959057,,,19,19,Vrouw,Rechts,1,
,xotask,xotask,dotcolour,5,4,245,545,main,negativefb,-99,average,15,0.9355298999998922,['n'],1,right,['2'],5,0.10624159999861149,,,19,19,Vrouw,Rechts,1,
,xotask,xotask,dotcolour,6,4,246,546,main,negativefb,-99,hard,29,0.9508068000013736,['n'],1,right,['3'],4,0.1529015000014624,,,19,19,Vrouw,Rechts,1,
,xotask,xotask,dotcolour,7,4,247,547,main,negativefb,-99,easy,5,0.6844252000009874,['n'],1,right,['3'],4,0.15997760000027483,,,19,19,Vrouw,Rechts,1,
,xotask,xotask,dotcolour,8,4,248,548,main,negativefb,-99,average,15,0.6506202000000485,['n'],1,right,['3'],4,0.09650320000037027,,,19,19,Vrouw,Rechts,1,
,xotask,xotask,dotcolour,9,4,249,549,main,negativefb,-99,average,18,0.5172000000002299,['n'],1,right,['3'],4,0.2334197000000131,,,19,19,Vrouw,Rechts,1,
,xotask,xotask,dotcolour,10,4,250,550,main,negativefb,-99,hard,51,0.8845222999989346,['c'],1,left,['3'],4,1.0858323000011296,,,19,19,Vrouw,Rechts,1,
,xotask,xotask,dotcolour,11,4,251,551,main,negativefb,-99,average,17,0.734297000000879,['n'],1,right,['3'],4,0.11741459999939252,,,19,19,Vrouw,Rechts,1,
,xotask,xotask,dotcolour,12,4,252,552,main,negativefb,-99,easy,7,0.7509776999995665,['n'],1,right,['2'],5,0.27625669999906677,,,19,19,Vrouw,Rechts,1,
,xotask,xotask,dotcolour,13,4,253,553,main,negativefb,-99,hard,27,0.5840497000008327,['n'],1,right,['3'],4,0.07394279999971332,,,19,19,Vrouw,Rechts,1,
,xotask,xotask,dotcolour,14,4,254,554,main,negativefb,-99,easy,72,1.6345643999993626,['n'],0,left,['8'],3,0.35902859999987413,,,19,19,Vrouw,Rechts,1,
,xotask,xotask,dotcolour,15,4,255,555,main,negativefb,-99,easy,73,1.000354800000423,['c'],1,left,['2'],5,0.5855204999988928,,,19,19,Vrouw,Rechts,1,
,xotask,xotask,dotcolour,16,4,256,556,main,negativefb,-99,average,63,0.48323920000075304,['c'],1,left,['2'],5,0.19134590000066964,,,19,19,Vrouw,Rechts,1,
,xotask,xotask,dotcolour,17,4,257,557,main,negativefb,-99,average,63,0.48370410000097763,['c'],1,left,['2'],5,0.24607920000016748,,,19,19,Vrouw,Rechts,1,
,xotask,xotask,dotcolour,18,4,258,558,main,negativefb,-99,hard,53,0.7006225000004633,['c'],1,left,['2'],5,0.22535059999972873,,,19,19,Vrouw,Rechts,1,
,xotask,xotask,dotcolour,19,4,259,559,main,negativefb,-99,hard,50,0.717303900000843,['c'],1,left,['2'],5,0.24439890000030573,,,19,19,Vrouw,Rechts,1,
,xotask,xotask,dotcolour,20,4,260,560,main,negativefb,-99,average,15,1.2513329999983398,['n'],1,right,['8'],3,0.4575548999982857,,,19,19,Vrouw,Rechts,1,
,xotask,xotask,dotcolour,21,4,261,561,main,negativefb,-99,average,61,0.8842617999998765,['n'],0,left,['3'],4,0.15717659999972966,,,19,19,Vrouw,Rechts,1,
,xotask,xotask,dotcolour,22,4,262,562,main,negativefb,-99,hard,54,0.9678312000014557,['n'],0,left,['8'],3,0.2490259000005608,,,19,19,Vrouw,Rechts,1,
,xotask,xotask,dotcolour,23,4,263,563,main,negativefb,-99,average,61,1.085421399999177,['c'],1,left,['2'],5,0.1963633999985177,,,19,19,Vrouw,Rechts,1,
,xotask,xotask,dotcolour,24,4,264,564,main,negativefb,-99,hard,53,0.9004275000006601,['c'],1,left,['2'],5,0.18525589999990189,,,19,19,Vrouw,Rechts,1,
,xotask,xotask,dotcolour,25,4,265,565,main,negativefb,-99,hard,28,1.0511567000012292,['c'],0,right,['2'],5,1.4967199000002438,,,19,19,Vrouw,Rechts,1,
,xotask,xotask,dotcolour,26,4,266,566,main,negativefb,-99,hard,29,1.6347981999988406,['n'],1,right,['3'],4,0.43696799999997893,,,19,19,Vrouw,Rechts,1,
,xotask,xotask,dotcolour,27,4,267,567,main,negativefb,-99,hard,26,0.5172735999985889,['n'],1,right,['3'],4,0.3201754000001529,,,19,19,Vrouw,Rechts,1,
,xotask,xotask,dotcolour,28,4,268,568,main,negativefb,-99,hard,53,1.4514502000001812,['n'],0,left,['8'],3,0.2021182000007684,,,19,19,Vrouw,Rechts,1,
,xotask,xotask,dotcolour,29,4,269,569,main,negativefb,-99,easy,71,0.850991500001328,['c'],1,left,['3'],4,0.45651700000053097,,,19,19,Vrouw,Rechts,1,
,xotask,xotask,dotcolour,30,4,270,570,main,negativefb,-99,easy,6,0.9165480000010575,['n'],1,right,['3'],4,1.2830917999999656,,,19,19,Vrouw,Rechts,1,
,xotask,xotask,dotcolour,31,4,271,571,main,negativefb,-99,easy,7,0.6178882000003796,['n'],1,right,['2'],5,0.3427792000002228,,,19,19,Vrouw,Rechts,1,
,xotask,xotask,dotcolour,32,4,272,572,main,negativefb,-99,easy,74,0.9177197999997588,['c'],1,left,['2'],5,0.3177543000001606,,,19,19,Vrouw,Rechts,1,
,xotask,xotask,dotcolour,33,4,273,573,main,negativefb,-99,hard,51,1.5514169999987644,['c'],1,left,['3'],4,0.811401000000842,,,19,19,Vrouw,Rechts,1,
,xotask,xotask,dotcolour,34,4,274,574,main,negativefb,-99,average,18,0.7681001000000833,['n'],1,right,['2'],5,0.32628829999885056,,,19,19,Vrouw,Rechts,1,
,xotask,xotask,dotcolour,35,4,275,575,main,negativefb,-99,easy,71,0.7174525999998878,['n'],0,left,['9'],2,3.861183200000596,,,19,19,Vrouw,Rechts,1,
,xotask,xotask,dotcolour,36,4,276,576,main,negativefb,-99,easy,6,0.784080499999618,['n'],1,right,['2'],5,0.7965265000002546,,,19,19,Vrouw,Rechts,1,
,xotask,xotask,dotcolour,37,4,277,577,main,negativefb,-99,hard,50,0.8509222000011505,['c'],1,left,['3'],4,1.051801699999487,,,19,19,Vrouw,Rechts,1,
,xotask,xotask,dotcolour,38,4,278,578,main,negativefb,-99,easy,72,0.9507481000000553,['c'],1,left,['2'],5,0.6124729999992269,,,19,19,Vrouw,Rechts,1,
,xotask,xotask,dotcolour,39,4,279,579,main,negativefb,-99,hard,25,1.8010715000000346,['c'],0,right,['3'],4,1.0617693999993207,,,19,19,Vrouw,Rechts,1,
,xotask,xotask,dotcolour,40,4,280,580,main,negativefb,-99,average,60,1.3671544999997423,['c'],1,left,['3'],4,0.6612040999989404,,,19,19,Vrouw,Rechts,1,
,xotask,xotask,dotcolour,41,4,281,581,main,negativefb,-99,hard,52,1.8680048000005627,['c'],1,left,['3'],4,0.38525030000164406,,,19,19,Vrouw,Rechts,1,
,xotask,xotask,dotcolour,42,4,282,582,main,negativefb,-99,hard,27,0.8168225999997958,['n'],1,right,['3'],4,0.9219950000006065,,,19,19,Vrouw,Rechts,1,
,xotask,xotask,dotcolour,43,4,283,583,main,negativefb,-99,easy,70,0.7675219000011566,['c'],1,left,['3'],4,0.4232461000010517,,,19,19,Vrouw,Rechts,1,
,xotask,xotask,dotcolour,44,4,284,584,main,negativefb,-99,easy,70,0.7342064000004029,['c'],1,left,['3'],4,0.7060729000004358,,,19,19,Vrouw,Rechts,1,
,xotask,xotask,dotcolour,45,4,285,585,main,negativefb,-99,average,64,0.6844886999988375,['c'],1,left,['3'],4,0.6592521000002307,,,19,19,Vrouw,Rechts,1,
,xotask,xotask,dotcolour,46,4,286,586,main,negativefb,-99,hard,27,1.6165498999998817,['c'],0,right,['8'],3,0.5456400000002759,,,19,19,Vrouw,Rechts,1,
,xotask,xotask,dotcolour,47,4,287,587,main,negativefb,-99,average,16,0.8510518000002776,['n'],1,right,['3'],4,0.410685700000613,,,19,19,Vrouw,Rechts,1,
,xotask,xotask,dotcolour,48,4,288,588,main,negativefb,-99,average,64,1.3175033000006806,['c'],1,left,['3'],4,0.37481519999892043,,,19,19,Vrouw,Rechts,1,
,xotask,xotask,dotcolour,49,4,289,589,main,negativefb,-99,easy,9,0.7499939999997878,['n'],1,right,['2'],5,0.3549023000014131,,,19,19,Vrouw,Rechts,1,
,xotask,xotask,dotcolour,50,4,290,590,main,negativefb,-99,hard,25,0.6666299000007712,['n'],1,right,['2'],5,0.21080260000053386,,,19,19,Vrouw,Rechts,1,
,xotask,xotask,dotcolour,51,4,291,591,main,negativefb,-99,hard,27,0.6019054999997024,['n'],1,right,['2'],5,0.19559289999961038,,,19,19,Vrouw,Rechts,1,
,xotask,xotask,dotcolour,52,4,292,592,main,negativefb,-99,easy,6,0.9677904000000126,['n'],1,right,['2'],5,0.14155489999939164,,,19,19,Vrouw,Rechts,1,
,xotask,xotask,dotcolour,53,4,293,593,main,negativefb,-99,average,19,0.5832724000010785,['n'],1,right,['3'],4,0.2897192000000359,,,19,19,Vrouw,Rechts,1,
,xotask,xotask,dotcolour,54,4,294,594,main,negativefb,-99,average,60,0.766912199998842,['n'],0,left,['2'],5,0.20896209999955317,,,19,19,Vrouw,Rechts,1,
,xotask,xotask,dotcolour,55,4,295,595,main,negativefb,-99,easy,72,0.933659100001023,['c'],1,left,['3'],4,0.44412460000057763,,,19,19,Vrouw,Rechts,1,
,xotask,xotask,dotcolour,56,4,296,596,main,negativefb,-99,hard,54,1.4505980000012642,['c'],1,left,['3'],4,0.1855890000006184,,,19,19,Vrouw,Rechts,1,
,xotask,xotask,dotcolour,57,4,297,597,main,negativefb,-99,average,64,1.617624700000306,['c'],1,left,['8'],3,0.7860994000002393,,,19,19,Vrouw,Rechts,1,
,xotask,xotask,dotcolour,58,4,298,598,main,negativefb,-99,average,62,1.2508245999997598,['n'],0,left,['3'],4,0.6571282999993855,,,19,19,Vrouw,Rechts,1,
,xotask,xotask,dotcolour,59,4,299,599,main,negativefb,-99,easy,73,0.7007012999983999,['c'],1,left,['2'],5,0.7323744000004808,,,19,19,Vrouw,Rechts,1,
,xotask,xotask,dotcolour,0,0,0,600,training,negativefb,82,easy,6,1.0342572999998083,['n'],1,right,['2'],5,0.217255200001091,,,19,19,Vrouw,Rechts,1,
,xotask,xotask,dotcolour,1,0,1,601,training,negativefb,71,easy,7,0.7002449999999953,['n'],1,right,['2'],5,0.16447119999975257,,,19,19,Vrouw,Rechts,1,
,xotask,xotask,dotcolour,2,0,2,602,training,negativefb,62,easy,71,0.7820510999990802,['c'],1,left,['2'],5,0.3338794000010239,,,19,19,Vrouw,Rechts,1,
,xotask,xotask,dotcolour,3,0,3,603,training,negativefb,72,easy,71,0.9342121000008774,['c'],1,left,['2'],5,0.22782920000099693,,,19,19,Vrouw,Rechts,1,
,xotask,xotask,dotcolour,4,0,4,604,training,negativefb,51,hard,29,0.49911400000019057,['n'],1,right,['2'],5,0.14308830000118178,,,19,19,Vrouw,Rechts,1,
,xotask,xotask,dotcolour,5,0,5,605,training,negativefb,76,hard,52,0.5176189000012528,['c'],1,left,['2'],5,0.17360700000062934,,,19,19,Vrouw,Rechts,1,
,xotask,xotask,dotcolour,6,0,6,606,training,negativefb,56,hard,51,0.4159168000005593,['n'],0,left,['2'],5,0.11751880000156234,,,19,19,Vrouw,Rechts,1,
,xotask,xotask,dotcolour,7,0,7,607,training,negativefb,60,average,64,0.9508967999991,['c'],1,left,['2'],5,0.2110752999997203,,,19,19,Vrouw,Rechts,1,
,xotask,xotask,dotcolour,8,0,8,608,training,negativefb,56,average,61,2.5992769000004046,['n'],0,left,['9'],2,0.5480126999991626,,,19,19,Vrouw,Rechts,1,
,xotask,xotask,dotcolour,9,0,9,609,training,negativefb,55,easy,5,0.78296760000012,['n'],1,right,['1'],6,0.5583735000000161,,,19,19,Vrouw,Rechts,1,
,xotask,xotask,dotcolour,10,0,10,610,training,negativefb,51,hard,27,0.967544099999941,['n'],1,right,['1'],6,0.24132559999998193,,,19,19,Vrouw,Rechts,1,
,xotask,xotask,dotcolour,11,0,11,611,training,negativefb,61,hard,29,0.7666707000007591,['n'],1,right,['1'],6,0.20175639999979467,,,19,19,Vrouw,Rechts,1,
,xotask,xotask,dotcolour,12,0,12,612,training,negativefb,90,easy,72,0.949840100000074,['c'],1,left,['3'],4,0.43585759999950824,,,19,19,Vrouw,Rechts,1,
,xotask,xotask,dotcolour,13,0,13,613,training,negativefb,74,hard,53,0.6167410999987624,['c'],1,left,['3'],4,0.20954520000123011,,,19,19,Vrouw,Rechts,1,
,xotask,xotask,dotcolour,14,0,14,614,training,negativefb,59,average,18,0.8834779000007984,['n'],1,right,['2'],5,0.23002889999952458,,,19,19,Vrouw,Rechts,1,
,xotask,xotask,dotcolour,15,0,15,615,training,negativefb,55,easy,9,0.5161054000000149,['n'],1,right,['2'],5,0.15337360000012268,,,19,19,Vrouw,Rechts,1,
,xotask,xotask,dotcolour,16,0,16,616,training,negativefb,72,easy,73,0.6840195999993739,['c'],1,left,['3'],4,0.19175650000033784,,,19,19,Vrouw,Rechts,1,
,xotask,xotask,dotcolour,17,0,17,617,training,negativefb,36,easy,70,0.9661507000000711,['c'],1,left,['3'],4,0.2894200999999157,,,19,19,Vrouw,Rechts,1,
,xotask,xotask,dotcolour,18,0,18,618,training,negativefb,63,hard,28,0.8660359999994398,['n'],1,right,['2'],5,0.16411200000038662,,,19,19,Vrouw,Rechts,1,
,xotask,xotask,dotcolour,19,0,19,619,training,negativefb,58,hard,50,0.9826114000006783,['n'],0,left,['2'],5,0.1587080999997852,,,19,19,Vrouw,Rechts,1,
,xotask,xotask,dotcolour,20,0,20,620,training,negativefb,73,easy,8,0.7334644999991724,['n'],1,right,['2'],5,0.13915059999999357,,,19,19,Vrouw,Rechts,1,
,xotask,xotask,dotcolour,21,0,21,621,training,negativefb,54,average,19,0.7511179000011907,['n'],1,right,['2'],5,0.18330750000131957,,,19,19,Vrouw,Rechts,1,
,xotask,xotask,dotcolour,22,0,22,622,training,negativefb,65,average,64,1.0502751999993052,['c'],1,left,['3'],4,0.23133960000086518,,,19,19,Vrouw,Rechts,1,
,xotask,xotask,dotcolour,23,0,23,623,training,negativefb,78,easy,72,0.8160387999996601,['c'],1,left,['3'],4,0.26053440000032424,,,19,19,Vrouw,Rechts,1,
,xotask,xotask,dotcolour,24,0,24,624,training,negativefb,41,hard,54,0.8168571999995038,['n'],0,left,['3'],4,0.22608349999973143,,,19,19,Vrouw,Rechts,1,
,xotask,xotask,dotcolour,25,0,25,625,training,negativefb,21,hard,52,1.2169411000013497,['n'],0,left,['2'],5,0.46520439999949303,,,19,19,Vrouw,Rechts,1,
,xotask,xotask,dotcolour,26,0,26,626,training,negativefb,39,average,64,0.9667788999995537,['n'],0,left,['9'],2,1.3354569999992236,,,19,19,Vrouw,Rechts,1,
,xotask,xotask,dotcolour,27,0,27,627,training,negativefb,20,average,15,1.1998429999985092,['n'],1,right,['3'],4,0.657863800000996,,,19,19,Vrouw,Rechts,1,
,xotask,xotask,dotcolour,28,0,28,628,training,negativefb,17,hard,53,1.5492152000006172,['n'],0,left,['3'],4,0.7543315999992046,,,19,19,Vrouw,Rechts,1,
,xotask,xotask,dotcolour,29,0,29,629,training,negativefb,78,easy,7,1.5502458000009938,['n'],1,right,['3'],4,0.7098987999997917,,,19,19,Vrouw,Rechts,1,
,xotask,xotask,dotcolour,30,0,30,630,training,negativefb,87,average,17,0.6672199999993609,['n'],1,right,['3'],4,0.11911660000077973,,,19,19,Vrouw,Rechts,1,
,xotask,xotask,dotcolour,31,0,31,631,training,negativefb,53,hard,51,0.8491998000008607,['n'],0,left,['3'],4,0.20073540000157664,,,19,19,Vrouw,Rechts,1,
,xotask,xotask,dotcolour,32,0,32,632,training,negativefb,80,average,16,1.2497301999992487,['n'],1,right,['2'],5,0.43069570000079693,,,19,19,Vrouw,Rechts,1,
,xotask,xotask,dotcolour,33,0,33,633,training,negativefb,50,hard,26,0.7833335999985138,['n'],1,right,['2'],5,0.13449410000066564,,,19,19,Vrouw,Rechts,1,
,xotask,xotask,dotcolour,34,0,34,634,training,negativefb,24,average,61,0.9499443999993673,['c'],1,left,['2'],5,0.19526049999876705,,,19,19,Vrouw,Rechts,1,
,xotask,xotask,dotcolour,35,0,35,635,training,negativefb,33,average,17,0.6182115999999951,['n'],1,right,['3'],4,0.21100160000059986,,,19,19,Vrouw,Rechts,1,
,xotask,xotask,dotcolour,36,0,36,636,training,negativefb,71,easy,70,0.8674527999992279,['c'],1,left,['3'],4,0.19277369999872462,,,19,19,Vrouw,Rechts,1,
,xotask,xotask,dotcolour,37,0,37,637,training,negativefb,65,easy,6,0.7343645999990258,['n'],1,right,['3'],4,0.18810559999838006,,,19,19,Vrouw,Rechts,1,
,xotask,xotask,dotcolour,38,0,38,638,training,negativefb,32,hard,29,0.8836195000003499,['n'],1,right,['2'],5,0.40931520000049204,,,19,19,Vrouw,Rechts,1,
,xotask,xotask,dotcolour,39,0,39,639,training,negativefb,57,easy,74,1.0004078000001755,['c'],1,left,['3'],4,0.20917299999928218,,,19,19,Vrouw,Rechts,1,
,xotask,xotask,dotcolour,40,0,40,640,training,negativefb,90,average,61,0.9003568999996787,['c'],1,left,['3'],4,0.2699723999994603,,,19,19,Vrouw,Rechts,1,
,xotask,xotask,dotcolour,41,0,41,641,training,negativefb,59,hard,50,2.950509199999942,['n'],0,left,['0'],1,0.5572366000014881,,,19,19,Vrouw,Rechts,1,
,xotask,xotask,dotcolour,42,0,42,642,training,negativefb,57,easy,8,2.4182922999989387,['n'],1,right,['0'],1,0.2381788000002416,,,19,19,Vrouw,Rechts,1,
,xotask,xotask,dotcolour,43,0,43,643,training,negativefb,34,hard,25,0.7177615999989939,['n'],1,right,['1'],6,0.4009072000008018,,,19,19,Vrouw,Rechts,1,
,xotask,xotask,dotcolour,44,0,44,644,training,negativefb,30,average,64,0.6504610000010871,['n'],0,left,['0'],1,1.150503300001219,,,19,19,Vrouw,Rechts,1,
,xotask,xotask,dotcolour,45,0,45,645,training,negativefb,79,average,64,1.05072360000122,['c'],1,left,['3'],4,0.8465172000014718,,,19,19,Vrouw,Rechts,1,
,xotask,xotask,dotcolour,46,0,46,646,training,negativefb,70,easy,71,0.8500718000013876,['c'],1,left,['2'],5,0.3312618999989354,,,19,19,Vrouw,Rechts,1,
,xotask,xotask,dotcolour,47,0,47,647,training,negativefb,38,easy,8,0.7839661999987584,['n'],1,right,['2'],5,0.350564200000008,,,19,19,Vrouw,Rechts,1,
,xotask,xotask,dotcolour,48,0,48,648,training,negativefb,75,easy,5,0.716072000001077,['n'],1,right,['2'],5,0.21934459999829414,,,19,19,Vrouw,Rechts,1,
,xotask,xotask,dotcolour,49,0,49,649,training,negativefb,68,average,19,0.6506234999997105,['n'],1,right,['1'],6,0.256762200000594,,,19,19,Vrouw,Rechts,1,
,xotask,xotask,dotcolour,50,0,50,650,training,negativefb,96,average,15,1.1002709999993385,['n'],1,right,['8'],3,0.91471570000067,,,19,19,Vrouw,Rechts,1,
,xotask,xotask,dotcolour,51,0,51,651,training,negativefb,46,easy,70,0.84997359999943,['c'],1,left,['3'],4,0.244717400000809,,,19,19,Vrouw,Rechts,1,
,xotask,xotask,dotcolour,52,0,52,652,training,negativefb,80,hard,26,0.8996131000003516,['n'],1,right,['3'],4,0.28721699999914563,,,19,19,Vrouw,Rechts,1,
,xotask,xotask,dotcolour,53,0,53,653,training,negativefb,55,hard,27,1.0002946000004158,['n'],1,right,['3'],4,0.5159856999998738,,,19,19,Vrouw,Rechts,1,
,xotask,xotask,dotcolour,54,0,54,654,training,negativefb,71,hard,50,0.850934000000052,['n'],0,left,['2'],5,0.20490680000148132,,,19,19,Vrouw,Rechts,1,
,xotask,xotask,dotcolour,55,0,55,655,training,negativefb,42,average,16,0.8843502999989141,['n'],1,right,['2'],5,0.19382729999961157,,,19,19,Vrouw,Rechts,1,
,xotask,xotask,dotcolour,56,0,56,656,training,negativefb,45,average,63,0.9166641000010713,['c'],1,left,['3'],4,0.2934944999997242,,,19,19,Vrouw,Rechts,1,
