starttime,task,fbtask,firsttask,withinblocktrial,block,withintasktrial,trial,running,feedback,fbscore,difflevel,n_xes,rt,resp,cor,cresp,conf_press,cj,RTconf,reddots,stoptime,sub,age,gender,handedness,session,
1714978783,xotask,xotask,xotask,0,0,0,0,training,negativefb,88,average,60,1.2159512000000632,['c'],1,left,['9'],5,2.892723599999954,,,10,18,Vrouw,Rechts,1,
,xotask,xotask,xotask,1,0,1,1,training,negativefb,86,average,19,1.9170087999998486,['n'],1,right,['0'],6,2.2840653000000657,,,10,18,Vrouw,Rechts,1,
,xotask,xotask,xotask,2,0,2,2,training,negativefb,23,average,18,2.499931199999992,['c'],0,right,['3'],3,1.6671197000000575,,,10,18,Vrouw,Rechts,1,
,xotask,xotask,xotask,3,0,3,3,training,negativefb,79,easy,8,2.2654317999999876,['n'],1,right,['9'],5,1.4539219000000685,,,10,18,Vrouw,Rechts,1,
,xotask,xotask,xotask,4,0,4,4,training,negativefb,48,average,63,1.9337471000001187,['c'],1,left,['9'],5,0.9821311000000605,,,10,18,Vrouw,Rechts,1,
,xotask,xotask,xotask,5,0,5,5,training,negativefb,86,average,62,2.0341739999998936,['c'],1,left,['9'],5,1.6615219000000252,,,10,18,Vrouw,Rechts,1,
,xotask,xotask,xotask,6,0,6,6,training,negativefb,93,easy,73,0.9021646999999575,['c'],1,left,['9'],5,0.6542147000000114,,,10,18,Vrouw,Rechts,1,
,xotask,xotask,xotask,7,0,7,7,training,negativefb,81,easy,73,2.0509040000001733,['c'],1,left,['9'],5,0.8662424999999985,,,10,18,Vrouw,Rechts,1,
,xotask,xotask,xotask,8,0,8,8,training,negativefb,86,easy,72,1.750638600000002,['c'],1,left,['8'],4,1.7697235999999066,,,10,18,Vrouw,Rechts,1,
,xotask,xotask,xotask,9,0,9,9,training,negativefb,80,hard,26,1.7678227999999763,['n'],1,right,['9'],5,1.2604847000000063,,,10,18,Vrouw,Rechts,1,
,xotask,xotask,xotask,10,0,10,10,training,negativefb,54,easy,5,1.499010799999951,['n'],1,right,['9'],5,0.5662651999998616,,,10,18,Vrouw,Rechts,1,
,xotask,xotask,xotask,11,0,11,11,training,negativefb,92,average,15,1.9503447999998116,['n'],1,right,['3'],3,0.8571557000000212,,,10,18,Vrouw,Rechts,1,
,xotask,xotask,xotask,12,0,12,12,training,negativefb,32,hard,28,1.867466499999864,['c'],0,right,['3'],3,0.7566553000001477,,,10,18,Vrouw,Rechts,1,
,xotask,xotask,xotask,13,0,13,13,training,negativefb,24,hard,51,1.2501318000001902,['n'],0,left,['8'],4,0.5648903999999675,,,10,18,Vrouw,Rechts,1,
,xotask,xotask,xotask,14,0,14,14,training,negativefb,91,easy,74,2.73364289999995,['c'],1,left,['9'],5,0.5770277999999962,,,10,18,Vrouw,Rechts,1,
,xotask,xotask,xotask,15,0,15,15,training,negativefb,50,hard,27,1.1833493999999973,['n'],1,right,['9'],5,0.41906070000004547,,,10,18,Vrouw,Rechts,1,
,xotask,xotask,xotask,16,0,16,16,training,negativefb,77,average,16,2.0343052999999145,['n'],1,right,['8'],4,1.8011104999998224,,,10,18,Vrouw,Rechts,1,
,xotask,xotask,xotask,17,0,17,17,training,negativefb,98,average,19,0.8487104999999247,['n'],1,right,['9'],5,1.2304999000000407,,,10,18,Vrouw,Rechts,1,
,xotask,xotask,xotask,18,0,18,18,training,negativefb,36,hard,28,2.3501576999999543,['c'],0,right,['3'],3,0.3439266000000316,,,10,18,Vrouw,Rechts,1,
,xotask,xotask,xotask,19,0,19,19,training,negativefb,95,hard,51,1.7664553999998134,['c'],1,left,['9'],5,1.1797877999999855,,,10,18,Vrouw,Rechts,1,
,xotask,xotask,xotask,20,0,20,20,training,negativefb,71,easy,5,1.9173141999999643,['n'],1,right,['9'],5,1.1284352000000126,,,10,18,Vrouw,Rechts,1,
,xotask,xotask,xotask,21,0,21,21,training,negativefb,40,hard,25,2.801131400000031,['c'],0,right,['9'],5,0.5238526999999067,,,10,18,Vrouw,Rechts,1,
,xotask,xotask,xotask,22,0,22,22,training,negativefb,89,average,60,1.801798299999973,['c'],1,left,['3'],3,1.110700199999883,,,10,18,Vrouw,Rechts,1,
,xotask,xotask,xotask,23,0,23,23,training,negativefb,60,hard,50,3.166527999999971,['c'],1,left,['2'],2,0.6756972000000587,,,10,18,Vrouw,Rechts,1,
,xotask,xotask,xotask,24,0,24,24,training,negativefb,67,hard,52,2.3344428999998854,['c'],1,left,['9'],5,0.8362339999998767,,,10,18,Vrouw,Rechts,1,
,xotask,xotask,xotask,25,0,25,25,training,negativefb,82,easy,74,1.284007999999858,['c'],1,left,['9'],5,0.44777750000002925,,,10,18,Vrouw,Rechts,1,
,xotask,xotask,xotask,26,0,26,26,training,negativefb,82,average,17,1.7662390000000414,['n'],1,right,['9'],5,1.9843607000000247,,,10,18,Vrouw,Rechts,1,
,xotask,xotask,xotask,27,0,27,27,training,negativefb,65,hard,53,1.5157317000000603,['c'],1,left,['3'],3,1.107590000000073,,,10,18,Vrouw,Rechts,1,
,xotask,xotask,xotask,28,0,28,28,training,negativefb,89,easy,8,0.7507588999999371,['n'],1,right,['0'],6,0.6814948999999615,,,10,18,Vrouw,Rechts,1,
,xotask,xotask,xotask,29,0,29,29,training,negativefb,89,average,17,1.0994078999999601,['n'],1,right,['0'],6,0.5858272000000397,,,10,18,Vrouw,Rechts,1,
,xotask,xotask,xotask,30,0,30,30,training,negativefb,16,hard,25,1.4511492999999973,['c'],0,right,['3'],3,0.8334827999999561,,,10,18,Vrouw,Rechts,1,
,xotask,xotask,xotask,31,0,31,31,training,negativefb,52,hard,28,1.5337213000000247,['n'],1,right,['8'],4,0.4903698999999051,,,10,18,Vrouw,Rechts,1,
,xotask,xotask,xotask,32,0,32,32,training,negativefb,96,hard,53,1.0165306000001237,['c'],1,left,['8'],4,0.9990141000000676,,,10,18,Vrouw,Rechts,1,
,xotask,xotask,xotask,33,0,33,33,training,negativefb,39,hard,29,1.4840595999999096,['n'],1,right,['8'],4,0.8038688000001457,,,10,18,Vrouw,Rechts,1,
,xotask,xotask,xotask,34,0,34,34,training,negativefb,54,hard,51,2.1674016999998003,['c'],1,left,['8'],4,0.5159864000002017,,,10,18,Vrouw,Rechts,1,
,xotask,xotask,xotask,35,0,35,35,training,negativefb,88,easy,9,0.7839856999999029,['n'],1,right,['0'],6,0.7690542000000278,,,10,18,Vrouw,Rechts,1,
,xotask,xotask,xotask,36,0,36,36,training,negativefb,85,average,61,1.0166479999998046,['c'],1,left,['2'],2,0.7612222999998721,,,10,18,Vrouw,Rechts,1,
,xotask,xotask,xotask,37,0,37,37,training,negativefb,96,average,18,1.13393659999997,['n'],1,right,['9'],5,0.5743600000000697,,,10,18,Vrouw,Rechts,1,
,xotask,xotask,xotask,38,0,38,38,training,negativefb,72,easy,9,1.2841707000000042,['n'],1,right,['9'],5,0.484413399999994,,,10,18,Vrouw,Rechts,1,
,xotask,xotask,xotask,39,0,39,39,training,negativefb,79,easy,9,1.3673974000000726,['n'],1,right,['9'],5,0.47342219999995905,,,10,18,Vrouw,Rechts,1,
,xotask,xotask,xotask,40,0,40,40,training,negativefb,90,easy,9,0.7006087999998272,['n'],1,right,['0'],6,0.4678694000001542,,,10,18,Vrouw,Rechts,1,
,xotask,xotask,xotask,41,0,41,41,training,negativefb,82,easy,9,0.8828062999998565,['n'],1,right,['0'],6,0.38159759999985,,,10,18,Vrouw,Rechts,1,
,xotask,xotask,xotask,42,0,42,42,training,negativefb,86,easy,71,1.7167327000001933,['c'],1,left,['8'],4,1.0095460999998522,,,10,18,Vrouw,Rechts,1,
,xotask,xotask,xotask,43,0,43,43,training,negativefb,25,easy,71,1.1172942999999123,['c'],1,left,['9'],5,0.6373492999998689,,,10,18,Vrouw,Rechts,1,
,xotask,xotask,xotask,44,0,44,44,training,negativefb,80,easy,72,0.9820221999998466,['c'],1,left,['9'],5,0.5726481000001513,,,10,18,Vrouw,Rechts,1,
,xotask,xotask,xotask,45,0,45,45,training,negativefb,13,hard,27,1.21721760000014,['c'],0,right,['2'],2,0.4453816000000188,,,10,18,Vrouw,Rechts,1,
,xotask,xotask,xotask,46,0,46,46,training,negativefb,89,average,16,1.3346693999999388,['n'],1,right,['9'],5,0.8618443999998817,,,10,18,Vrouw,Rechts,1,
,xotask,xotask,xotask,47,0,47,47,training,negativefb,71,average,19,1.167436799999905,['n'],1,right,['0'],6,0.4693503999999393,,,10,18,Vrouw,Rechts,1,
,xotask,xotask,xotask,48,0,48,48,training,negativefb,53,hard,53,1.4002572000001692,['n'],0,left,['9'],5,0.44245359999990796,,,10,18,Vrouw,Rechts,1,
,xotask,xotask,xotask,49,0,49,49,training,negativefb,6,average,62,0.866157499999872,['n'],0,left,['9'],5,0.3667779000002156,,,10,18,Vrouw,Rechts,1,
,xotask,xotask,xotask,50,0,50,50,training,negativefb,34,hard,52,1.2493971999999758,['n'],0,left,['3'],3,0.5666779000000588,,,10,18,Vrouw,Rechts,1,
,xotask,xotask,xotask,51,0,51,51,training,negativefb,35,average,64,0.8353056000000834,['n'],0,left,['9'],5,0.3108546999999362,,,10,18,Vrouw,Rechts,1,
,xotask,xotask,xotask,52,0,52,52,training,negativefb,74,hard,28,1.6012565999999424,['n'],1,right,['3'],3,1.1944440999998278,,,10,18,Vrouw,Rechts,1,
,xotask,xotask,xotask,53,0,53,53,training,negativefb,47,hard,51,1.0179507000000285,['n'],0,left,['9'],5,1.3069593000000168,,,10,18,Vrouw,Rechts,1,
,xotask,xotask,xotask,54,0,54,54,training,negativefb,68,average,63,0.8162855000000491,['n'],0,left,['0'],6,0.2769427999999152,,,10,18,Vrouw,Rechts,1,
,xotask,xotask,xotask,55,0,55,55,training,negativefb,62,average,61,0.7676486000000295,['n'],0,left,['9'],5,0.35532530000000406,,,10,18,Vrouw,Rechts,1,
,xotask,xotask,xotask,56,0,56,56,training,negativefb,71,easy,71,2.3510513000001083,['c'],1,left,['9'],5,1.7518701999999848,,,10,18,Vrouw,Rechts,1,
,xotask,xotask,xotask,57,0,57,57,training,negativefb,58,easy,71,1.034248899999966,['c'],1,left,['9'],5,0.2793386000000737,,,10,18,Vrouw,Rechts,1,
,xotask,xotask,xotask,58,0,58,58,training,negativefb,39,average,63,0.8005026999999245,['c'],1,left,['9'],5,0.725427899999886,,,10,18,Vrouw,Rechts,1,
,xotask,xotask,xotask,59,0,59,59,training,negativefb,58,easy,7,1.0167341000001215,['n'],1,right,['9'],5,0.31960720000006404,,,10,18,Vrouw,Rechts,1,
,xotask,xotask,xotask,0,1,60,60,training,negativefb,47,hard,51,1.6506317999999283,['c'],1,left,['2'],2,0.61940780000009,,,10,18,Vrouw,Rechts,1,
,xotask,xotask,xotask,1,1,61,61,training,negativefb,88,hard,29,0.9336186000000453,['n'],1,right,['3'],3,0.8945229000000836,,,10,18,Vrouw,Rechts,1,
,xotask,xotask,xotask,2,1,62,62,training,negativefb,97,average,17,1.6166599000000588,['n'],1,right,['8'],4,0.9785144999998465,,,10,18,Vrouw,Rechts,1,
,xotask,xotask,xotask,3,1,63,63,training,negativefb,93,easy,7,2.567688999999973,['n'],1,right,['8'],4,1.5488251000001583,,,10,18,Vrouw,Rechts,1,
,xotask,xotask,xotask,4,1,64,64,training,negativefb,39,easy,9,0.7329749000000447,['n'],1,right,['8'],4,0.5606889000000592,,,10,18,Vrouw,Rechts,1,
,xotask,xotask,xotask,5,1,65,65,training,negativefb,88,average,63,1.566413300000022,['c'],1,left,['8'],4,0.5960145999999895,,,10,18,Vrouw,Rechts,1,
,xotask,xotask,xotask,6,1,66,66,training,negativefb,75,easy,71,0.9170355000001109,['c'],1,left,['3'],3,0.640652799999998,,,10,18,Vrouw,Rechts,1,
,xotask,xotask,xotask,7,1,67,67,training,negativefb,79,hard,51,1.7833677999999509,['c'],1,left,['8'],4,1.3998540000000048,,,10,18,Vrouw,Rechts,1,
,xotask,xotask,xotask,8,1,68,68,training,negativefb,69,hard,50,0.9673099999999977,['c'],1,left,['8'],4,0.3691475000000537,,,10,18,Vrouw,Rechts,1,
,xotask,xotask,xotask,9,1,69,69,training,negativefb,76,hard,53,1.4499868999998853,['c'],1,left,['8'],4,0.5356274000000667,,,10,18,Vrouw,Rechts,1,
,xotask,xotask,xotask,10,1,70,70,training,negativefb,53,easy,6,1.0326066000000083,['n'],1,right,['9'],5,0.49790219999999863,,,10,18,Vrouw,Rechts,1,
,xotask,xotask,xotask,11,1,71,71,training,negativefb,90,average,60,1.3671868999999788,['c'],1,left,['3'],3,0.4720252999998138,,,10,18,Vrouw,Rechts,1,
,xotask,xotask,xotask,12,1,72,72,training,negativefb,43,hard,28,1.1004809000000932,['c'],0,right,['3'],3,0.4328696999998556,,,10,18,Vrouw,Rechts,1,
,xotask,xotask,xotask,13,1,73,73,training,negativefb,91,hard,27,1.0006448000001456,['n'],1,right,['9'],5,0.48832420000007914,,,10,18,Vrouw,Rechts,1,
,xotask,xotask,xotask,14,1,74,74,training,negativefb,53,hard,25,1.2664128999999775,['n'],1,right,['9'],5,0.7620119999999133,,,10,18,Vrouw,Rechts,1,
,xotask,xotask,xotask,15,1,75,75,training,negativefb,39,average,16,0.8995328999999401,['n'],1,right,['9'],5,0.6002512999998544,,,10,18,Vrouw,Rechts,1,
,xotask,xotask,xotask,16,1,76,76,training,negativefb,80,easy,71,1.7673697999998694,['c'],1,left,['9'],5,1.001511599999958,,,10,18,Vrouw,Rechts,1,
,xotask,xotask,xotask,17,1,77,77,training,negativefb,65,average,17,1.1327883999999813,['n'],1,right,['9'],5,1.2110110000000986,,,10,18,Vrouw,Rechts,1,
,xotask,xotask,xotask,18,1,78,78,training,negativefb,36,hard,25,2.483940099999927,['c'],0,right,['3'],3,0.47282909999989897,,,10,18,Vrouw,Rechts,1,
,xotask,xotask,xotask,19,1,79,79,training,negativefb,33,hard,50,1.5173640999998952,['n'],0,left,['3'],3,0.5378490000000511,,,10,18,Vrouw,Rechts,1,
,xotask,xotask,xotask,20,1,80,80,training,negativefb,20,average,62,1.0152787000001808,['n'],0,left,['8'],4,1.227887199999941,,,10,18,Vrouw,Rechts,1,
,xotask,xotask,xotask,21,1,81,81,training,negativefb,64,easy,71,1.582880900000191,['n'],0,left,['8'],4,0.37154499999996915,,,10,18,Vrouw,Rechts,1,
,xotask,xotask,xotask,22,1,82,82,training,negativefb,90,easy,8,2.2825619999998707,['n'],1,right,['9'],5,1.0174203999999918,,,10,18,Vrouw,Rechts,1,
,xotask,xotask,xotask,23,1,83,83,training,negativefb,75,hard,26,1.3165981999998166,['n'],1,right,['9'],5,0.6681661000000076,,,10,18,Vrouw,Rechts,1,
,xotask,xotask,xotask,24,1,84,84,training,negativefb,92,easy,8,0.7004375999999866,['n'],1,right,['9'],5,0.60574459999998,,,10,18,Vrouw,Rechts,1,
,xotask,xotask,xotask,25,1,85,85,training,negativefb,29,hard,27,1.3498634999998558,['c'],0,right,['2'],2,0.42310029999998733,,,10,18,Vrouw,Rechts,1,
,xotask,xotask,xotask,26,1,86,86,training,negativefb,74,easy,73,1.9320830999999998,['c'],1,left,['9'],5,0.6021582999999282,,,10,18,Vrouw,Rechts,1,
,xotask,xotask,xotask,27,1,87,87,training,negativefb,42,hard,28,1.134402399999999,['n'],1,right,['9'],5,0.4600061999999525,,,10,18,Vrouw,Rechts,1,
,xotask,xotask,xotask,28,1,88,88,training,negativefb,79,easy,5,1.033151000000089,['n'],1,right,['9'],5,0.49592310000002726,,,10,18,Vrouw,Rechts,1,
,xotask,xotask,xotask,29,1,89,89,training,negativefb,88,easy,72,1.5321206999999504,['c'],1,left,['9'],5,0.5522988000000169,,,10,18,Vrouw,Rechts,1,
,xotask,xotask,xotask,30,1,90,90,training,negativefb,71,easy,71,1.5834729999999126,['c'],1,left,['9'],5,0.6032159999999749,,,10,18,Vrouw,Rechts,1,
,xotask,xotask,xotask,31,1,91,91,training,negativefb,88,average,61,2.017955000000029,['c'],1,left,['9'],5,0.6255668999999671,,,10,18,Vrouw,Rechts,1,
,xotask,xotask,xotask,32,1,92,92,training,negativefb,75,easy,74,0.8339657000001353,['c'],1,left,['9'],5,0.2395200000000841,,,10,18,Vrouw,Rechts,1,
,xotask,xotask,xotask,33,1,93,93,training,negativefb,53,hard,51,0.9676706000000195,['c'],1,left,['9'],5,0.3925693000001047,,,10,18,Vrouw,Rechts,1,
,xotask,xotask,xotask,34,1,94,94,training,negativefb,44,hard,25,0.8319420000000264,['n'],1,right,['9'],5,0.48788039999999455,,,10,18,Vrouw,Rechts,1,
,xotask,xotask,xotask,35,1,95,95,training,negativefb,95,average,17,0.9671336999999767,['n'],1,right,['9'],5,0.42185639999979685,,,10,18,Vrouw,Rechts,1,
,xotask,xotask,xotask,36,1,96,96,training,negativefb,80,average,17,0.766535900000008,['n'],1,right,['9'],5,0.4460798000000068,,,10,18,Vrouw,Rechts,1,
,xotask,xotask,xotask,37,1,97,97,training,negativefb,78,average,60,1.116958600000089,['c'],1,left,['9'],5,0.49567660000002434,,,10,18,Vrouw,Rechts,1,
,xotask,xotask,xotask,38,1,98,98,training,negativefb,26,average,15,1.1834716000000753,['n'],1,right,['9'],5,1.2300162000001365,,,10,18,Vrouw,Rechts,1,
,xotask,xotask,xotask,39,1,99,99,training,negativefb,57,average,19,0.7328637999999046,['n'],1,right,['9'],5,0.3360955999999078,,,10,18,Vrouw,Rechts,1,
,xotask,xotask,xotask,40,1,100,100,training,negativefb,40,easy,70,0.6998768000000837,['c'],1,left,['9'],5,0.25439140000003135,,,10,18,Vrouw,Rechts,1,
,xotask,xotask,xotask,41,1,101,101,training,negativefb,50,hard,53,0.8331637999999657,['c'],1,left,['9'],5,0.4036218999999619,,,10,18,Vrouw,Rechts,1,
,xotask,xotask,xotask,42,1,102,102,training,negativefb,66,easy,8,1.000160600000072,['n'],1,right,['9'],5,0.31546419999995123,,,10,18,Vrouw,Rechts,1,
,xotask,xotask,xotask,43,1,103,103,training,negativefb,27,hard,27,1.2011814999998478,['c'],0,right,['2'],2,0.38997649999987516,,,10,18,Vrouw,Rechts,1,
,xotask,xotask,xotask,44,1,104,104,training,negativefb,95,average,19,0.733437800000047,['n'],1,right,['9'],5,0.22551240000007056,,,10,18,Vrouw,Rechts,1,
,xotask,xotask,xotask,45,1,105,105,training,negativefb,69,average,17,0.7004898000000139,['n'],1,right,['9'],5,0.24555239999995138,,,10,18,Vrouw,Rechts,1,
,xotask,xotask,xotask,46,1,106,106,training,negativefb,50,average,63,2.4158793999999943,['c'],1,left,['2'],2,0.2590075999999044,,,10,18,Vrouw,Rechts,1,
,xotask,xotask,xotask,47,1,107,107,training,negativefb,56,hard,52,1.4010694999999487,['c'],1,left,['2'],2,0.3047620000002098,,,10,18,Vrouw,Rechts,1,
,xotask,xotask,xotask,48,1,108,108,training,negativefb,80,easy,6,1.0506792999999561,['n'],1,right,['9'],5,0.29125569999996515,,,10,18,Vrouw,Rechts,1,
,xotask,xotask,xotask,49,1,109,109,training,negativefb,57,average,64,1.0168363000000227,['c'],1,left,['9'],5,0.28674899999987247,,,10,18,Vrouw,Rechts,1,
,xotask,xotask,xotask,50,1,110,110,training,negativefb,88,average,64,1.833528299999898,['c'],1,left,['2'],2,0.2667229999999563,,,10,18,Vrouw,Rechts,1,
,xotask,xotask,xotask,51,1,111,111,training,negativefb,72,hard,53,1.8669787999999699,['c'],1,left,['9'],5,0.42134680000003755,,,10,18,Vrouw,Rechts,1,
,xotask,xotask,xotask,52,1,112,112,training,negativefb,58,hard,51,1.0658803000001171,['c'],1,left,['2'],2,0.23416190000011738,,,10,18,Vrouw,Rechts,1,
,xotask,xotask,xotask,53,1,113,113,training,negativefb,89,easy,9,1.3346761999998762,['n'],1,right,['9'],5,0.38759909999998854,,,10,18,Vrouw,Rechts,1,
,xotask,xotask,xotask,54,1,114,114,training,negativefb,78,easy,72,1.483532299999979,['c'],1,left,['9'],5,0.4251325000000179,,,10,18,Vrouw,Rechts,1,
,xotask,xotask,xotask,55,1,115,115,training,negativefb,92,easy,9,0.8345873000000665,['n'],1,right,['9'],5,0.3828413000001092,,,10,18,Vrouw,Rechts,1,
,xotask,xotask,xotask,56,1,116,116,training,negativefb,61,average,18,1.0996511000000737,['n'],1,right,['0'],6,0.5476963000000978,,,10,18,Vrouw,Rechts,1,
,xotask,xotask,xotask,57,1,117,117,training,negativefb,98,average,62,1.5681439999998474,['c'],1,left,['8'],4,2.919555699999819,,,10,18,Vrouw,Rechts,1,
,xotask,xotask,xotask,58,1,118,118,training,negativefb,58,average,63,2.6670696000001044,['c'],1,left,['3'],3,0.8077863999999408,,,10,18,Vrouw,Rechts,1,
,xotask,xotask,xotask,59,1,119,119,training,negativefb,76,easy,73,1.5678757000000587,['c'],1,left,['8'],4,1.0253774000000249,,,10,18,Vrouw,Rechts,1,
,xotask,xotask,xotask,0,2,120,120,main,negativefb,-99,hard,27,1.2834058000000823,['n'],1,right,['9'],5,0.6206649999999172,,,10,18,Vrouw,Rechts,1,
,xotask,xotask,xotask,1,2,121,121,main,negativefb,-99,average,61,0.8338059000000158,['c'],1,left,['9'],5,1.0037230000000363,,,10,18,Vrouw,Rechts,1,
,xotask,xotask,xotask,2,2,122,122,main,negativefb,-99,easy,74,3.967504699999836,['c'],1,left,['8'],4,0.28544699999997647,,,10,18,Vrouw,Rechts,1,
,xotask,xotask,xotask,3,2,123,123,main,negativefb,-99,hard,52,2.8842802000001484,['c'],1,left,['3'],3,0.39182229999983065,,,10,18,Vrouw,Rechts,1,
,xotask,xotask,xotask,4,2,124,124,main,negativefb,-99,hard,54,1.9016315999999733,['c'],1,left,['3'],3,0.30891429999996944,,,10,18,Vrouw,Rechts,1,
,xotask,xotask,xotask,5,2,125,125,main,negativefb,-99,easy,70,1.2008131999998568,['c'],1,left,['8'],4,0.35287769999990815,,,10,18,Vrouw,Rechts,1,
,xotask,xotask,xotask,6,2,126,126,main,negativefb,-99,easy,5,1.5510258000001613,['n'],1,right,['0'],6,0.4944140999998581,,,10,18,Vrouw,Rechts,1,
,xotask,xotask,xotask,7,2,127,127,main,negativefb,-99,average,62,2.0343547999998464,['c'],1,left,['3'],3,0.34527830000001813,,,10,18,Vrouw,Rechts,1,
,xotask,xotask,xotask,8,2,128,128,main,negativefb,-99,average,19,1.7178329999999278,['n'],1,right,['3'],3,0.4243466999998873,,,10,18,Vrouw,Rechts,1,
,xotask,xotask,xotask,9,2,129,129,main,negativefb,-99,hard,26,2.151084299999866,['n'],1,right,['8'],4,1.0100866999998743,,,10,18,Vrouw,Rechts,1,
,xotask,xotask,xotask,10,2,130,130,main,negativefb,-99,average,18,1.1178824999999506,['n'],1,right,['8'],4,0.38215219999983674,,,10,18,Vrouw,Rechts,1,
,xotask,xotask,xotask,11,2,131,131,main,negativefb,-99,hard,50,2.0511090999998487,['c'],1,left,['3'],3,0.4692800999998781,,,10,18,Vrouw,Rechts,1,
,xotask,xotask,xotask,12,2,132,132,main,negativefb,-99,easy,5,0.8017105000001266,['n'],1,right,['8'],4,0.4840297000000646,,,10,18,Vrouw,Rechts,1,
,xotask,xotask,xotask,13,2,133,133,main,negativefb,-99,hard,54,1.2009057000000212,['n'],0,left,['8'],4,1.273013500000161,,,10,18,Vrouw,Rechts,1,
,xotask,xotask,xotask,14,2,134,134,main,negativefb,-99,easy,6,1.1679497999998603,['n'],1,right,['8'],4,0.688360800000055,,,10,18,Vrouw,Rechts,1,
,xotask,xotask,xotask,15,2,135,135,main,negativefb,-99,hard,25,1.1173784999998588,['n'],1,right,['8'],4,0.585167599999977,,,10,18,Vrouw,Rechts,1,
,xotask,xotask,xotask,16,2,136,136,main,negativefb,-99,hard,29,1.1840122999999494,['n'],1,right,['8'],4,0.41906250000010914,,,10,18,Vrouw,Rechts,1,
,xotask,xotask,xotask,17,2,137,137,main,negativefb,-99,average,61,1.2177265000000261,['n'],0,left,['8'],4,0.8348465999999917,,,10,18,Vrouw,Rechts,1,
,xotask,xotask,xotask,18,2,138,138,main,negativefb,-99,average,61,1.467900299999883,['c'],1,left,['8'],4,0.551458700000012,,,10,18,Vrouw,Rechts,1,
,xotask,xotask,xotask,19,2,139,139,main,negativefb,-99,average,15,1.0842290000000503,['n'],1,right,['8'],4,0.7989153999999417,,,10,18,Vrouw,Rechts,1,
,xotask,xotask,xotask,20,2,140,140,main,negativefb,-99,average,17,1.8009131999999681,['n'],1,right,['3'],3,1.1115030999999362,,,10,18,Vrouw,Rechts,1,
,xotask,xotask,xotask,21,2,141,141,main,negativefb,-99,easy,9,1.7508618000001661,['n'],1,right,['8'],4,0.9022264000000177,,,10,18,Vrouw,Rechts,1,
,xotask,xotask,xotask,22,2,142,142,main,negativefb,-99,hard,26,1.933769600000005,['n'],1,right,['8'],4,0.9896199999998316,,,10,18,Vrouw,Rechts,1,
,xotask,xotask,xotask,23,2,143,143,main,negativefb,-99,average,63,1.434008900000208,['c'],1,left,['8'],4,0.5333152000000609,,,10,18,Vrouw,Rechts,1,
,xotask,xotask,xotask,24,2,144,144,main,negativefb,-99,hard,27,2.217456699999957,['n'],1,right,['8'],4,0.5998921999998856,,,10,18,Vrouw,Rechts,1,
,xotask,xotask,xotask,25,2,145,145,main,negativefb,-99,easy,7,0.8668430999998691,['n'],1,right,['8'],4,0.8783280999998624,,,10,18,Vrouw,Rechts,1,
,xotask,xotask,xotask,26,2,146,146,main,negativefb,-99,hard,29,1.884321,['n'],1,right,['3'],3,0.3925605000001724,,,10,18,Vrouw,Rechts,1,
,xotask,xotask,xotask,27,2,147,147,main,negativefb,-99,hard,26,1.0513822000000346,['n'],1,right,['8'],4,0.4161384999999882,,,10,18,Vrouw,Rechts,1,
,xotask,xotask,xotask,28,2,148,148,main,negativefb,-99,easy,72,1.6008108000000902,['c'],1,left,['8'],4,0.5123814999999468,,,10,18,Vrouw,Rechts,1,
,xotask,xotask,xotask,29,2,149,149,main,negativefb,-99,easy,71,1.1683611999999357,['c'],1,left,['8'],4,0.30207229999996343,,,10,18,Vrouw,Rechts,1,
,xotask,xotask,xotask,30,2,150,150,main,negativefb,-99,easy,7,1.0678190999999515,['n'],1,right,['9'],5,0.8717016999999032,,,10,18,Vrouw,Rechts,1,
,xotask,xotask,xotask,31,2,151,151,main,negativefb,-99,easy,7,0.951006199999938,['n'],1,right,['9'],5,0.8721137999998518,,,10,18,Vrouw,Rechts,1,
,xotask,xotask,xotask,32,2,152,152,main,negativefb,-99,easy,73,1.000354100000095,['c'],1,left,['9'],5,0.4621182000000772,,,10,18,Vrouw,Rechts,1,
,xotask,xotask,xotask,33,2,153,153,main,negativefb,-99,average,64,0.8513414999999895,['c'],1,left,['9'],5,0.45073309999997946,,,10,18,Vrouw,Rechts,1,
,xotask,xotask,xotask,34,2,154,154,main,negativefb,-99,easy,71,0.717871900000091,['c'],1,left,['9'],5,0.41302089999999225,,,10,18,Vrouw,Rechts,1,
,xotask,xotask,xotask,35,2,155,155,main,negativefb,-99,easy,8,1.1840993000000708,['n'],1,right,['9'],5,0.5105191000000104,,,10,18,Vrouw,Rechts,1,
,xotask,xotask,xotask,36,2,156,156,main,negativefb,-99,hard,51,1.4013672999999471,['n'],0,left,['9'],5,0.5388000000000375,,,10,18,Vrouw,Rechts,1,
,xotask,xotask,xotask,37,2,157,157,main,negativefb,-99,average,18,1.0008302999999614,['n'],1,right,['9'],5,0.6302026999999271,,,10,18,Vrouw,Rechts,1,
,xotask,xotask,xotask,38,2,158,158,main,negativefb,-99,average,62,1.2004781999999068,['c'],1,left,['0'],6,1.1105225999999675,,,10,18,Vrouw,Rechts,1,
,xotask,xotask,xotask,39,2,159,159,main,negativefb,-99,average,17,1.7501303000001371,['n'],1,right,['8'],4,0.7573004000000765,,,10,18,Vrouw,Rechts,1,
,xotask,xotask,xotask,40,2,160,160,main,negativefb,-99,average,17,1.1176738999999998,['n'],1,right,['8'],4,0.4028109000000768,,,10,18,Vrouw,Rechts,1,
,xotask,xotask,xotask,41,2,161,161,main,negativefb,-99,easy,9,0.7847775999998703,['n'],1,right,['8'],4,0.38027679999981956,,,10,18,Vrouw,Rechts,1,
,xotask,xotask,xotask,42,2,162,162,main,negativefb,-99,hard,52,5.435518000000002,['c'],1,left,['3'],3,0.9971262999999908,,,10,18,Vrouw,Rechts,1,
,xotask,xotask,xotask,43,2,163,163,main,negativefb,-99,hard,53,1.0841402999999445,['c'],1,left,['2'],2,0.947680900000023,,,10,18,Vrouw,Rechts,1,
,xotask,xotask,xotask,44,2,164,164,main,negativefb,-99,hard,52,2.4840417000000343,['c'],1,left,['3'],3,0.7217870999998013,,,10,18,Vrouw,Rechts,1,
,xotask,xotask,xotask,45,2,165,165,main,negativefb,-99,average,62,1.2681059999999889,['c'],1,left,['8'],4,0.5715054999998301,,,10,18,Vrouw,Rechts,1,
,xotask,xotask,xotask,46,2,166,166,main,negativefb,-99,easy,8,1.3011230000001888,['n'],1,right,['9'],5,0.4659497999998621,,,10,18,Vrouw,Rechts,1,
,xotask,xotask,xotask,47,2,167,167,main,negativefb,-99,average,17,0.7844916000001376,['n'],1,right,['9'],5,0.568224999999984,,,10,18,Vrouw,Rechts,1,
,xotask,xotask,xotask,48,2,168,168,main,negativefb,-99,hard,27,0.7002250999998978,['n'],1,right,['9'],5,0.39849489999983234,,,10,18,Vrouw,Rechts,1,
,xotask,xotask,xotask,49,2,169,169,main,negativefb,-99,average,61,1.51639339999997,['n'],0,left,['8'],4,0.30643370000007053,,,10,18,Vrouw,Rechts,1,
,xotask,xotask,xotask,50,2,170,170,main,negativefb,-99,easy,71,2.7005168000000594,['c'],1,left,['8'],4,0.5157865000001038,,,10,18,Vrouw,Rechts,1,
,xotask,xotask,xotask,51,2,171,171,main,negativefb,-99,hard,54,1.8331980000000385,['c'],1,left,['8'],4,0.48631399999999303,,,10,18,Vrouw,Rechts,1,
,xotask,xotask,xotask,52,2,172,172,main,negativefb,-99,easy,72,0.8679812000000311,['c'],1,left,['9'],5,0.48110730000007607,,,10,18,Vrouw,Rechts,1,
,xotask,xotask,xotask,53,2,173,173,main,negativefb,-99,average,19,1.1170887999999195,['c'],0,right,['9'],5,0.34663419999992584,,,10,18,Vrouw,Rechts,1,
,xotask,xotask,xotask,54,2,174,174,main,negativefb,-99,hard,54,1.3170723000000635,['c'],1,left,['9'],5,0.4810964000000695,,,10,18,Vrouw,Rechts,1,
,xotask,xotask,xotask,55,2,175,175,main,negativefb,-99,average,62,0.8162047000000712,['c'],1,left,['9'],5,0.39838860000008935,,,10,18,Vrouw,Rechts,1,
,xotask,xotask,xotask,56,2,176,176,main,negativefb,-99,hard,28,1.0330750999999054,['n'],1,right,['3'],3,1.4141603000000487,,,10,18,Vrouw,Rechts,1,
,xotask,xotask,xotask,57,2,177,177,main,negativefb,-99,average,17,2.5170839999998407,['n'],1,right,['3'],3,0.2022030000000541,,,10,18,Vrouw,Rechts,1,
,xotask,xotask,xotask,58,2,178,178,main,negativefb,-99,easy,72,2.2662149999998746,['c'],1,left,['9'],5,1.0321447000001172,,,10,18,Vrouw,Rechts,1,
,xotask,xotask,xotask,59,2,179,179,main,negativefb,-99,easy,74,0.8169881999999689,['c'],1,left,['0'],6,0.3825612999999066,,,10,18,Vrouw,Rechts,1,
,xotask,xotask,xotask,0,3,180,180,main,negativefb,-99,average,15,6.500657499999988,['c'],0,right,['2'],2,2.065908600000057,,,10,18,Vrouw,Rechts,1,
,xotask,xotask,xotask,1,3,181,181,main,negativefb,-99,hard,52,3.36675809999997,['c'],1,left,['8'],4,0.8566809999999805,,,10,18,Vrouw,Rechts,1,
,xotask,xotask,xotask,2,3,182,182,main,negativefb,-99,hard,50,1.2011207999998987,['c'],1,left,['8'],4,1.5992736000000605,,,10,18,Vrouw,Rechts,1,
,xotask,xotask,xotask,3,3,183,183,main,negativefb,-99,average,60,2.366903999999977,['c'],1,left,['8'],4,0.7608483999999862,,,10,18,Vrouw,Rechts,1,
,xotask,xotask,xotask,4,3,184,184,main,negativefb,-99,easy,71,1.534655599999951,['c'],1,left,['8'],4,0.7742015999999694,,,10,18,Vrouw,Rechts,1,
,xotask,xotask,xotask,5,3,185,185,main,negativefb,-99,average,64,0.9843065000000024,['c'],1,left,['8'],4,0.6091569000000163,,,10,18,Vrouw,Rechts,1,
,xotask,xotask,xotask,6,3,186,186,main,negativefb,-99,average,16,1.3346013000000312,['c'],0,right,['8'],4,0.5484711999999945,,,10,18,Vrouw,Rechts,1,
,xotask,xotask,xotask,7,3,187,187,main,negativefb,-99,easy,9,1.1175283000000036,['n'],1,right,['0'],6,0.9462945000000218,,,10,18,Vrouw,Rechts,1,
,xotask,xotask,xotask,8,3,188,188,main,negativefb,-99,easy,70,1.483511500000077,['c'],1,left,['8'],4,1.1627650999998878,,,10,18,Vrouw,Rechts,1,
,xotask,xotask,xotask,9,3,189,189,main,negativefb,-99,average,19,1.3347387999999683,['n'],1,right,['9'],5,0.9991998000000422,,,10,18,Vrouw,Rechts,1,
,xotask,xotask,xotask,10,3,190,190,main,negativefb,-99,average,64,3.4514019000000644,['c'],1,left,['8'],4,1.1267700999999306,,,10,18,Vrouw,Rechts,1,
,xotask,xotask,xotask,11,3,191,191,main,negativefb,-99,easy,7,0.7504576999999699,['n'],1,right,['0'],6,0.8202951000000667,,,10,18,Vrouw,Rechts,1,
,xotask,xotask,xotask,12,3,192,192,main,negativefb,-99,easy,5,2.367733000000044,['n'],1,right,['0'],6,1.2134627000000364,,,10,18,Vrouw,Rechts,1,
,xotask,xotask,xotask,13,3,193,193,main,negativefb,-99,hard,29,1.5347750999999334,['c'],0,right,['3'],3,0.593130599999995,,,10,18,Vrouw,Rechts,1,
,xotask,xotask,xotask,14,3,194,194,main,negativefb,-99,hard,29,2.351145200000019,['n'],1,right,['8'],4,1.1646217999998498,,,10,18,Vrouw,Rechts,1,
,xotask,xotask,xotask,15,3,195,195,main,negativefb,-99,easy,71,1.3514256000000842,['c'],1,left,['3'],3,0.5201087000000371,,,10,18,Vrouw,Rechts,1,
,xotask,xotask,xotask,16,3,196,196,main,negativefb,-99,average,60,0.9842449000000215,['c'],1,left,['3'],3,0.38134320000017397,,,10,18,Vrouw,Rechts,1,
,xotask,xotask,xotask,17,3,197,197,main,negativefb,-99,average,15,1.1683029999999235,['n'],1,right,['9'],5,0.5354691999998522,,,10,18,Vrouw,Rechts,1,
,xotask,xotask,xotask,18,3,198,198,main,negativefb,-99,easy,71,1.0166755999998713,['c'],1,left,['9'],5,0.43442019999997683,,,10,18,Vrouw,Rechts,1,
,xotask,xotask,xotask,19,3,199,199,main,negativefb,-99,hard,50,1.466859999999997,['c'],1,left,['2'],2,0.7671132999998918,,,10,18,Vrouw,Rechts,1,
,xotask,xotask,xotask,20,3,200,200,main,negativefb,-99,hard,29,1.118236700000125,['n'],1,right,['9'],5,0.6203365999999733,,,10,18,Vrouw,Rechts,1,
,xotask,xotask,xotask,21,3,201,201,main,negativefb,-99,average,15,0.9667475999999624,['n'],1,right,['0'],6,1.365579800000205,,,10,18,Vrouw,Rechts,1,
,xotask,xotask,xotask,22,3,202,202,main,negativefb,-99,average,61,1.0506264000000556,['c'],1,left,['3'],3,0.5336019999999735,,,10,18,Vrouw,Rechts,1,
,xotask,xotask,xotask,23,3,203,203,main,negativefb,-99,easy,70,1.9842727000000195,['c'],1,left,['9'],5,0.6660208999999213,,,10,18,Vrouw,Rechts,1,
,xotask,xotask,xotask,24,3,204,204,main,negativefb,-99,average,60,2.7670434999999998,['n'],0,left,['3'],3,0.40933429999995496,,,10,18,Vrouw,Rechts,1,
,xotask,xotask,xotask,25,3,205,205,main,negativefb,-99,easy,72,1.6508589999998549,['c'],1,left,['9'],5,1.5603241000001162,,,10,18,Vrouw,Rechts,1,
,xotask,xotask,xotask,26,3,206,206,main,negativefb,-99,easy,70,1.0510964000000058,['c'],1,left,['9'],5,0.4567429000001084,,,10,18,Vrouw,Rechts,1,
,xotask,xotask,xotask,27,3,207,207,main,negativefb,-99,easy,7,0.8005372000000079,['n'],1,right,['0'],6,0.5752364999998463,,,10,18,Vrouw,Rechts,1,
,xotask,xotask,xotask,28,3,208,208,main,negativefb,-99,average,63,1.4830825000001369,['n'],0,left,['8'],4,1.4142085000000861,,,10,18,Vrouw,Rechts,1,
,xotask,xotask,xotask,29,3,209,209,main,negativefb,-99,average,16,1.1019745000000967,['c'],0,right,['8'],4,0.5227440000001025,,,10,18,Vrouw,Rechts,1,
,xotask,xotask,xotask,30,3,210,210,main,negativefb,-99,average,17,1.3516952999998466,['n'],1,right,['3'],3,0.560834899999918,,,10,18,Vrouw,Rechts,1,
,xotask,xotask,xotask,31,3,211,211,main,negativefb,-99,easy,73,1.1668046999998296,['c'],1,left,['8'],4,1.9566604999999981,,,10,18,Vrouw,Rechts,1,
,xotask,xotask,xotask,32,3,212,212,main,negativefb,-99,easy,73,0.7343667000000096,['c'],1,left,['8'],4,0.5138328000000456,,,10,18,Vrouw,Rechts,1,
,xotask,xotask,xotask,33,3,213,213,main,negativefb,-99,hard,53,2.2000045000002046,['c'],1,left,['3'],3,0.5420203999999558,,,10,18,Vrouw,Rechts,1,
,xotask,xotask,xotask,34,3,214,214,main,negativefb,-99,hard,25,1.1514643000000433,['c'],0,right,['8'],4,0.7952277000001686,,,10,18,Vrouw,Rechts,1,
,xotask,xotask,xotask,35,3,215,215,main,negativefb,-99,average,16,1.1008858000000146,['n'],1,right,['9'],5,0.6329750999998396,,,10,18,Vrouw,Rechts,1,
,xotask,xotask,xotask,36,3,216,216,main,negativefb,-99,easy,9,1.0334919000001719,['n'],1,right,['0'],6,0.3344944000000396,,,10,18,Vrouw,Rechts,1,
,xotask,xotask,xotask,37,3,217,217,main,negativefb,-99,hard,29,0.9173021999999946,['n'],1,right,['8'],4,0.7333708999999544,,,10,18,Vrouw,Rechts,1,
,xotask,xotask,xotask,38,3,218,218,main,negativefb,-99,hard,53,1.6340904999999566,['n'],0,left,['3'],3,0.4150159999999232,,,10,18,Vrouw,Rechts,1,
,xotask,xotask,xotask,39,3,219,219,main,negativefb,-99,easy,7,0.8672414000000117,['n'],1,right,['0'],6,0.36428799999998773,,,10,18,Vrouw,Rechts,1,
,xotask,xotask,xotask,40,3,220,220,main,negativefb,-99,easy,5,1.10044240000002,['n'],1,right,['0'],6,0.47477969999999914,,,10,18,Vrouw,Rechts,1,
,xotask,xotask,xotask,41,3,221,221,main,negativefb,-99,hard,27,1.167056300000013,['n'],1,right,['8'],4,0.3945716999999149,,,10,18,Vrouw,Rechts,1,
,xotask,xotask,xotask,42,3,222,222,main,negativefb,-99,hard,53,0.7504645999999866,['c'],1,left,['8'],4,0.413985700000012,,,10,18,Vrouw,Rechts,1,
,xotask,xotask,xotask,43,3,223,223,main,negativefb,-99,hard,50,0.7837844000000587,['c'],1,left,['8'],4,0.41482079999991583,,,10,18,Vrouw,Rechts,1,
,xotask,xotask,xotask,44,3,224,224,main,negativefb,-99,average,15,0.800137500000119,['n'],1,right,['9'],5,0.45507329999986723,,,10,18,Vrouw,Rechts,1,
,xotask,xotask,xotask,45,3,225,225,main,negativefb,-99,hard,27,0.7177672999998777,['n'],1,right,['9'],5,0.2962961999999152,,,10,18,Vrouw,Rechts,1,
,xotask,xotask,xotask,46,3,226,226,main,negativefb,-99,hard,27,0.6510160000000269,['n'],1,right,['0'],6,0.3402995999999803,,,10,18,Vrouw,Rechts,1,
,xotask,xotask,xotask,47,3,227,227,main,negativefb,-99,easy,6,0.6676626000000851,['n'],1,right,['0'],6,0.3408742000001439,,,10,18,Vrouw,Rechts,1,
,xotask,xotask,xotask,48,3,228,228,main,negativefb,-99,average,63,0.8005043000000569,['c'],1,left,['8'],4,0.3680122000000665,,,10,18,Vrouw,Rechts,1,
,xotask,xotask,xotask,49,3,229,229,main,negativefb,-99,hard,27,1.0681955000000016,['n'],1,right,['8'],4,0.40747540000006666,,,10,18,Vrouw,Rechts,1,
,xotask,xotask,xotask,50,3,230,230,main,negativefb,-99,hard,53,0.767669099999921,['n'],0,left,['8'],4,0.43325179999987995,,,10,18,Vrouw,Rechts,1,
,xotask,xotask,xotask,51,3,231,231,main,negativefb,-99,hard,50,0.9017985000000408,['n'],0,left,['8'],4,0.373514699999987,,,10,18,Vrouw,Rechts,1,
,xotask,xotask,xotask,52,3,232,232,main,negativefb,-99,easy,73,0.9850517999998374,['c'],1,left,['8'],4,0.34360400000014124,,,10,18,Vrouw,Rechts,1,
,xotask,xotask,xotask,53,3,233,233,main,negativefb,-99,hard,54,2.2840734999999768,['n'],0,left,['8'],4,0.7281843999999182,,,10,18,Vrouw,Rechts,1,
,xotask,xotask,xotask,54,3,234,234,main,negativefb,-99,easy,8,0.7183409999997821,['n'],1,right,['9'],5,0.40725780000002487,,,10,18,Vrouw,Rechts,1,
,xotask,xotask,xotask,55,3,235,235,main,negativefb,-99,average,15,0.9010475000000042,['n'],1,right,['9'],5,0.3160339000000931,,,10,18,Vrouw,Rechts,1,
,xotask,xotask,xotask,56,3,236,236,main,negativefb,-99,hard,26,1.1840801000003012,['c'],0,right,['3'],3,0.8404904999997598,,,10,18,Vrouw,Rechts,1,
,xotask,xotask,xotask,57,3,237,237,main,negativefb,-99,average,63,1.2507763999997223,['n'],0,left,['8'],4,0.5580638999999792,,,10,18,Vrouw,Rechts,1,
,xotask,xotask,xotask,58,3,238,238,main,negativefb,-99,average,64,0.8169726000000992,['c'],1,left,['8'],4,0.3913385999999264,,,10,18,Vrouw,Rechts,1,
,xotask,xotask,xotask,59,3,239,239,main,negativefb,-99,easy,8,1.1845891000002666,['n'],1,right,['9'],5,0.5213856999998825,,,10,18,Vrouw,Rechts,1,
,xotask,xotask,xotask,0,4,240,240,main,negativefb,-99,easy,70,1.851995800000168,['c'],1,left,['8'],4,1.0049636999997347,,,10,18,Vrouw,Rechts,1,
,xotask,xotask,xotask,1,4,241,241,main,negativefb,-99,average,18,0.8505927999999585,['n'],1,right,['9'],5,0.46775780000007217,,,10,18,Vrouw,Rechts,1,
,xotask,xotask,xotask,2,4,242,242,main,negativefb,-99,easy,9,1.135406200000034,['n'],1,right,['9'],5,0.4923561000000518,,,10,18,Vrouw,Rechts,1,
,xotask,xotask,xotask,3,4,243,243,main,negativefb,-99,easy,8,0.7015659000003325,['n'],1,right,['0'],6,0.40597780000007333,,,10,18,Vrouw,Rechts,1,
,xotask,xotask,xotask,4,4,244,244,main,negativefb,-99,average,61,0.9184731999998803,['c'],1,left,['8'],4,1.0416954000002079,,,10,18,Vrouw,Rechts,1,
,xotask,xotask,xotask,5,4,245,245,main,negativefb,-99,average,62,1.7681538000001638,['c'],1,left,['8'],4,0.4581877999999051,,,10,18,Vrouw,Rechts,1,
,xotask,xotask,xotask,6,4,246,246,main,negativefb,-99,hard,26,1.7349401000001308,['n'],1,right,['8'],4,0.49996250000003783,,,10,18,Vrouw,Rechts,1,
,xotask,xotask,xotask,7,4,247,247,main,negativefb,-99,hard,26,0.9338075999999091,['c'],0,right,['3'],3,0.5954719000001205,,,10,18,Vrouw,Rechts,1,
,xotask,xotask,xotask,8,4,248,248,main,negativefb,-99,hard,25,2.5188742999998794,['c'],0,right,['2'],2,0.5680923999998413,,,10,18,Vrouw,Rechts,1,
,xotask,xotask,xotask,9,4,249,249,main,negativefb,-99,easy,70,0.8503743000001123,['c'],1,left,['2'],2,0.48076240000000325,,,10,18,Vrouw,Rechts,1,
,xotask,xotask,xotask,10,4,250,250,main,negativefb,-99,easy,5,0.7346674999998868,['n'],1,right,['9'],5,0.44048960000009174,,,10,18,Vrouw,Rechts,1,
,xotask,xotask,xotask,11,4,251,251,main,negativefb,-99,hard,50,0.9510020999996414,['c'],1,left,['2'],2,0.7460261000001083,,,10,18,Vrouw,Rechts,1,
,xotask,xotask,xotask,12,4,252,252,main,negativefb,-99,easy,9,0.6839184999998906,['n'],1,right,['9'],5,0.6582416000001103,,,10,18,Vrouw,Rechts,1,
,xotask,xotask,xotask,13,4,253,253,main,negativefb,-99,easy,73,1.3841271999999663,['c'],1,left,['9'],5,0.35292570000001433,,,10,18,Vrouw,Rechts,1,
,xotask,xotask,xotask,14,4,254,254,main,negativefb,-99,average,17,0.8343641000001298,['n'],1,right,['8'],4,0.42638090000036755,,,10,18,Vrouw,Rechts,1,
,xotask,xotask,xotask,15,4,255,255,main,negativefb,-99,average,64,1.034569399999782,['c'],1,left,['8'],4,0.3377040999998826,,,10,18,Vrouw,Rechts,1,
,xotask,xotask,xotask,16,4,256,256,main,negativefb,-99,hard,50,1.5513562999999522,['n'],0,left,['8'],4,0.39130870000008144,,,10,18,Vrouw,Rechts,1,
,xotask,xotask,xotask,17,4,257,257,main,negativefb,-99,hard,54,0.9004849999996623,['c'],1,left,['8'],4,0.3401745999999548,,,10,18,Vrouw,Rechts,1,
,xotask,xotask,xotask,18,4,258,258,main,negativefb,-99,hard,27,1.6500909999999749,['n'],1,right,['8'],4,0.341927499999656,,,10,18,Vrouw,Rechts,1,
,xotask,xotask,xotask,19,4,259,259,main,negativefb,-99,hard,51,1.916827000000012,['c'],1,left,['9'],5,1.084268599999632,,,10,18,Vrouw,Rechts,1,
,xotask,xotask,xotask,20,4,260,260,main,negativefb,-99,easy,5,0.8835189999999784,['n'],1,right,['9'],5,0.3900888999996823,,,10,18,Vrouw,Rechts,1,
,xotask,xotask,xotask,21,4,261,261,main,negativefb,-99,hard,27,1.5332479000003332,['c'],0,right,['2'],2,0.7380588000000898,,,10,18,Vrouw,Rechts,1,
,xotask,xotask,xotask,22,4,262,262,main,negativefb,-99,easy,5,0.8668728000002375,['n'],1,right,['0'],6,0.32241449999992255,,,10,18,Vrouw,Rechts,1,
,xotask,xotask,xotask,23,4,263,263,main,negativefb,-99,easy,73,1.1669283000001087,['n'],0,left,['1'],1,2.9120058000003155,,,10,18,Vrouw,Rechts,1,
,xotask,xotask,xotask,24,4,264,264,main,negativefb,-99,average,17,2.3837868000000526,['n'],1,right,['0'],6,1.3742748000004212,,,10,18,Vrouw,Rechts,1,
,xotask,xotask,xotask,25,4,265,265,main,negativefb,-99,hard,52,1.550594099999671,['n'],0,left,['2'],2,0.5214439000001221,,,10,18,Vrouw,Rechts,1,
,xotask,xotask,xotask,26,4,266,266,main,negativefb,-99,average,18,1.1170953999999256,['n'],1,right,['9'],5,0.40841520000003584,,,10,18,Vrouw,Rechts,1,
,xotask,xotask,xotask,27,4,267,267,main,negativefb,-99,easy,9,0.8837607000000389,['n'],1,right,['9'],5,0.4704203999999663,,,10,18,Vrouw,Rechts,1,
,xotask,xotask,xotask,28,4,268,268,main,negativefb,-99,hard,26,0.9347312999998394,['n'],1,right,['8'],4,0.42258700000002136,,,10,18,Vrouw,Rechts,1,
,xotask,xotask,xotask,29,4,269,269,main,negativefb,-99,hard,54,1.2510784999999487,['c'],1,left,['8'],4,0.268927700000404,,,10,18,Vrouw,Rechts,1,
,xotask,xotask,xotask,30,4,270,270,main,negativefb,-99,average,60,1.3672419999998056,['c'],1,left,['8'],4,0.38822540000001027,,,10,18,Vrouw,Rechts,1,
,xotask,xotask,xotask,31,4,271,271,main,negativefb,-99,easy,70,1.0177177000000484,['c'],1,left,['8'],4,0.6532249999995656,,,10,18,Vrouw,Rechts,1,
,xotask,xotask,xotask,32,4,272,272,main,negativefb,-99,hard,52,1.3346636999999646,['c'],1,left,['8'],4,0.30174699999997756,,,10,18,Vrouw,Rechts,1,
,xotask,xotask,xotask,33,4,273,273,main,negativefb,-99,average,17,0.9174167999999554,['c'],0,right,['8'],4,0.2625231000001804,,,10,18,Vrouw,Rechts,1,
,xotask,xotask,xotask,34,4,274,274,main,negativefb,-99,average,60,0.7015249999999469,['c'],1,left,['8'],4,0.2889393000000382,,,10,18,Vrouw,Rechts,1,
,xotask,xotask,xotask,35,4,275,275,main,negativefb,-99,hard,28,4.501110300000164,['c'],0,right,['3'],3,0.8264149000001453,,,10,18,Vrouw,Rechts,1,
,xotask,xotask,xotask,36,4,276,276,main,negativefb,-99,average,60,1.6004754999999022,['c'],1,left,['3'],3,0.45848449999994045,,,10,18,Vrouw,Rechts,1,
,xotask,xotask,xotask,37,4,277,277,main,negativefb,-99,easy,9,0.7511194000003343,['n'],1,right,['8'],4,0.627164300000004,,,10,18,Vrouw,Rechts,1,
,xotask,xotask,xotask,38,4,278,278,main,negativefb,-99,easy,73,1.2848011000000952,['c'],1,left,['8'],4,0.3118811999997888,,,10,18,Vrouw,Rechts,1,
,xotask,xotask,xotask,39,4,279,279,main,negativefb,-99,easy,6,1.0341661000002205,['n'],1,right,['8'],4,0.7072495000002164,,,10,18,Vrouw,Rechts,1,
,xotask,xotask,xotask,40,4,280,280,main,negativefb,-99,average,61,1.4500146000000314,['c'],1,left,['3'],3,0.5977296999999453,,,10,18,Vrouw,Rechts,1,
,xotask,xotask,xotask,41,4,281,281,main,negativefb,-99,hard,26,0.6853142999998454,['n'],1,right,['8'],4,0.33931970000003275,,,10,18,Vrouw,Rechts,1,
,xotask,xotask,xotask,42,4,282,282,main,negativefb,-99,average,19,0.9843553000000611,['n'],1,right,['8'],4,0.367674199999783,,,10,18,Vrouw,Rechts,1,
,xotask,xotask,xotask,43,4,283,283,main,negativefb,-99,hard,51,2.300447499999791,['c'],1,left,['8'],4,0.5333545999997114,,,10,18,Vrouw,Rechts,1,
,xotask,xotask,xotask,44,4,284,284,main,negativefb,-99,easy,5,0.6673145999998269,['n'],1,right,['8'],4,0.37388129999999364,,,10,18,Vrouw,Rechts,1,
,xotask,xotask,xotask,45,4,285,285,main,negativefb,-99,easy,73,0.683904800000164,['c'],1,left,['2'],2,0.7084703999998965,,,10,18,Vrouw,Rechts,1,
,xotask,xotask,xotask,46,4,286,286,main,negativefb,-99,average,16,0.7342893999998523,['n'],1,right,['8'],4,0.37162160000025324,,,10,18,Vrouw,Rechts,1,
,xotask,xotask,xotask,47,4,287,287,main,negativefb,-99,average,63,0.7840196000001924,['c'],1,left,['8'],4,0.3187620999997307,,,10,18,Vrouw,Rechts,1,
,xotask,xotask,xotask,48,4,288,288,main,negativefb,-99,average,17,0.9009042999996382,['c'],0,right,['9'],5,0.550688700000137,,,10,18,Vrouw,Rechts,1,
,xotask,xotask,xotask,49,4,289,289,main,negativefb,-99,hard,26,1.0019288000003144,['n'],1,right,['2'],2,0.48928350000005594,,,10,18,Vrouw,Rechts,1,
,xotask,xotask,xotask,50,4,290,290,main,negativefb,-99,average,64,2.100762499999746,['c'],1,left,['8'],4,0.6909513000000516,,,10,18,Vrouw,Rechts,1,
,xotask,xotask,xotask,51,4,291,291,main,negativefb,-99,hard,52,1.067425899999762,['c'],1,left,['8'],4,0.2695357999996304,,,10,18,Vrouw,Rechts,1,
,xotask,xotask,xotask,52,4,292,292,main,negativefb,-99,hard,27,2.9348211000001356,['n'],1,right,['8'],4,1.1182254000000285,,,10,18,Vrouw,Rechts,1,
,xotask,xotask,xotask,53,4,293,293,main,negativefb,-99,easy,72,0.8677058000002944,['c'],1,left,['8'],4,0.2710520999999062,,,10,18,Vrouw,Rechts,1,
,xotask,xotask,xotask,54,4,294,294,main,negativefb,-99,average,17,0.9844379000001027,['n'],1,right,['9'],5,0.40558899999996356,,,10,18,Vrouw,Rechts,1,
,xotask,xotask,xotask,55,4,295,295,main,negativefb,-99,easy,74,1.4333472999996957,['c'],1,left,['9'],5,0.3736129999997502,,,10,18,Vrouw,Rechts,1,
,xotask,xotask,xotask,56,4,296,296,main,negativefb,-99,easy,70,1.0338424999999916,['c'],1,left,['9'],5,0.29483810000010635,,,10,18,Vrouw,Rechts,1,
,xotask,xotask,xotask,57,4,297,297,main,negativefb,-99,average,19,1.8509782000000996,['n'],1,right,['0'],6,0.41769120000026305,,,10,18,Vrouw,Rechts,1,
,xotask,xotask,xotask,58,4,298,298,main,negativefb,-99,hard,51,1.1509427999999389,['c'],1,left,['8'],4,0.39544919999980266,,,10,18,Vrouw,Rechts,1,
,xotask,xotask,xotask,59,4,299,299,main,negativefb,-99,average,60,1.5670312000002014,['c'],1,left,['8'],4,0.40627409999979136,,,10,18,Vrouw,Rechts,1,
,xotask,xotask,xotask,0,0,0,300,training,negativefb,72,easy,9,1.3338388000001942,['n'],1,right,['8'],4,0.8370328000000882,,,10,18,Vrouw,Rechts,1,
,xotask,xotask,xotask,1,0,1,301,training,negativefb,61,easy,71,2.516928199999711,['c'],1,left,['9'],5,0.5438996000002589,,,10,18,Vrouw,Rechts,1,
,xotask,xotask,xotask,2,0,2,302,training,negativefb,71,average,60,1.3665226999996776,['c'],1,left,['8'],4,0.563988899999913,,,10,18,Vrouw,Rechts,1,
,xotask,xotask,xotask,3,0,3,303,training,negativefb,34,average,16,0.966018300000087,['c'],0,right,['8'],4,0.35920549999991636,,,10,18,Vrouw,Rechts,1,
,xotask,xotask,xotask,4,0,4,304,training,negativefb,76,average,18,0.7173107999997228,['n'],1,right,['9'],5,0.275900300000103,,,10,18,Vrouw,Rechts,1,
,xotask,xotask,xotask,5,0,5,305,training,negativefb,51,hard,28,1.0006217000000106,['c'],0,right,['9'],5,0.30556739999974525,,,10,18,Vrouw,Rechts,1,
,xotask,xotask,xotask,6,0,6,306,training,negativefb,63,easy,71,0.9828723000000537,['c'],1,left,['9'],5,0.3578261000002385,,,10,18,Vrouw,Rechts,1,
,xotask,xotask,xotask,7,0,7,307,training,negativefb,83,easy,6,0.7502987000002577,['n'],1,right,['0'],6,0.32984120000037365,,,10,18,Vrouw,Rechts,1,
,xotask,xotask,xotask,8,0,8,308,training,negativefb,56,hard,51,0.9510018999999375,['n'],0,left,['8'],4,0.6715767999999116,,,10,18,Vrouw,Rechts,1,
,xotask,xotask,xotask,9,0,9,309,training,negativefb,81,hard,27,0.9335601000002498,['n'],1,right,['9'],5,0.5116299999999683,,,10,18,Vrouw,Rechts,1,
,xotask,xotask,xotask,10,0,10,310,training,negativefb,63,average,16,1.7664067999999133,['n'],1,right,['8'],4,0.6293109000002914,,,10,18,Vrouw,Rechts,1,
,xotask,xotask,xotask,11,0,11,311,training,negativefb,51,average,63,0.8000253999998677,['c'],1,left,['9'],5,0.32451709999986633,,,10,18,Vrouw,Rechts,1,
,xotask,xotask,xotask,12,0,12,312,training,negativefb,92,hard,26,1.1162733999999546,['n'],1,right,['2'],2,0.34684280000010403,,,10,18,Vrouw,Rechts,1,
,xotask,xotask,xotask,13,0,13,313,training,negativefb,81,easy,73,1.2835617999999158,['c'],1,left,['9'],5,0.426325899999938,,,10,18,Vrouw,Rechts,1,
,xotask,xotask,xotask,14,0,14,314,training,negativefb,83,easy,8,3.167117799999687,['n'],1,right,['9'],5,0.7466652000002796,,,10,18,Vrouw,Rechts,1,
,xotask,xotask,xotask,15,0,15,315,training,negativefb,57,hard,54,0.8664881999998215,['c'],1,left,['9'],5,0.30669540000008055,,,10,18,Vrouw,Rechts,1,
,xotask,xotask,xotask,16,0,16,316,training,negativefb,75,easy,6,0.8499695000000429,['n'],1,right,['9'],5,0.3975343000001885,,,10,18,Vrouw,Rechts,1,
,xotask,xotask,xotask,17,0,17,317,training,negativefb,70,hard,52,1.0334842000002027,['c'],1,left,['9'],5,0.24437600000010207,,,10,18,Vrouw,Rechts,1,
,xotask,xotask,xotask,18,0,18,318,training,negativefb,83,easy,8,0.6836779999998726,['n'],1,right,['9'],5,0.2958032000001367,,,10,18,Vrouw,Rechts,1,
,xotask,xotask,xotask,19,0,19,319,training,negativefb,60,average,61,0.9670160000000578,['c'],1,left,['9'],5,0.27818370000022696,,,10,18,Vrouw,Rechts,1,
,xotask,xotask,xotask,20,0,20,320,training,negativefb,34,easy,71,0.7335571000003256,['n'],0,left,['0'],6,0.72543880000012,,,10,18,Vrouw,Rechts,1,
,xotask,xotask,xotask,21,0,21,321,training,negativefb,50,average,64,1.4167580000003,['c'],1,left,['8'],4,0.3127171000000999,,,10,18,Vrouw,Rechts,1,
,xotask,xotask,xotask,22,0,22,322,training,negativefb,82,average,19,1.2840025999998943,['n'],1,right,['9'],5,0.24078489999965313,,,10,18,Vrouw,Rechts,1,
,xotask,xotask,xotask,23,0,23,323,training,negativefb,36,easy,7,2.1849833000001126,['n'],1,right,['8'],4,0.3132968999998411,,,10,18,Vrouw,Rechts,1,
,xotask,xotask,xotask,24,0,24,324,training,negativefb,68,hard,50,1.400021999999808,['c'],1,left,['8'],4,0.38890019999962533,,,10,18,Vrouw,Rechts,1,
,xotask,xotask,xotask,25,0,25,325,training,negativefb,96,average,18,0.6839967999999317,['n'],1,right,['9'],5,0.5381944999999178,,,10,18,Vrouw,Rechts,1,
,xotask,xotask,xotask,26,0,26,326,training,negativefb,71,easy,7,0.7673095999998623,['n'],1,right,['9'],5,0.23019109999995635,,,10,18,Vrouw,Rechts,1,
,xotask,xotask,xotask,27,0,27,327,training,negativefb,65,hard,50,0.9507447999999386,['c'],1,left,['9'],5,0.20704620000014984,,,10,18,Vrouw,Rechts,1,
,xotask,xotask,xotask,28,0,28,328,training,negativefb,74,hard,25,1.584132999999838,['c'],0,right,['3'],3,0.7759950999998182,,,10,18,Vrouw,Rechts,1,
,xotask,xotask,xotask,29,0,29,329,training,negativefb,51,easy,9,0.6840955000002396,['n'],1,right,['8'],4,0.4377458000003571,,,10,18,Vrouw,Rechts,1,
,xotask,xotask,xotask,30,0,30,330,training,negativefb,81,hard,25,0.6837663999999677,['n'],1,right,['8'],4,0.2571397000001525,,,10,18,Vrouw,Rechts,1,
,xotask,xotask,xotask,31,0,31,331,training,negativefb,78,average,62,0.8001908999999614,['c'],1,left,['8'],4,0.19959510000035152,,,10,18,Vrouw,Rechts,1,
,xotask,xotask,xotask,32,0,32,332,training,negativefb,49,average,19,0.8663287000003947,['c'],0,right,['8'],4,0.2451877999997123,,,10,18,Vrouw,Rechts,1,
,xotask,xotask,xotask,33,0,33,333,training,negativefb,78,easy,74,0.5824316000002909,['c'],1,left,['8'],4,0.2120770999999877,,,10,18,Vrouw,Rechts,1,
,xotask,xotask,xotask,34,0,34,334,training,negativefb,62,hard,26,1.0993508999999904,['n'],1,right,['9'],5,0.3362038999998731,,,10,18,Vrouw,Rechts,1,
,xotask,xotask,xotask,35,0,35,335,training,negativefb,47,easy,74,1.3007991999998012,['c'],1,left,['9'],5,0.2625308000001496,,,10,18,Vrouw,Rechts,1,
,xotask,xotask,xotask,36,0,36,336,training,negativefb,80,average,61,0.7657874000001357,['c'],1,left,['9'],5,0.23057449999987512,,,10,18,Vrouw,Rechts,1,
,xotask,xotask,xotask,37,0,37,337,training,negativefb,77,average,61,1.132534900000337,['c'],1,left,['9'],5,0.23243679999995948,,,10,18,Vrouw,Rechts,1,
,xotask,xotask,xotask,38,0,38,338,training,negativefb,83,average,15,1.0661393999998836,['n'],1,right,['9'],5,0.5160254000002169,,,10,18,Vrouw,Rechts,1,
,xotask,xotask,xotask,39,0,39,339,training,negativefb,83,average,16,1.066736900000251,['n'],1,right,['9'],5,0.2522673000003124,,,10,18,Vrouw,Rechts,1,
,xotask,xotask,xotask,40,0,40,340,training,negativefb,46,hard,25,1.250272799999948,['n'],1,right,['9'],5,0.3046801999998934,,,10,18,Vrouw,Rechts,1,
,xotask,xotask,xotask,41,0,41,341,training,negativefb,14,hard,29,1.3506422000000384,['c'],0,right,['8'],4,0.43072080000001733,,,10,18,Vrouw,Rechts,1,
,xotask,xotask,xotask,42,0,42,342,training,negativefb,69,hard,54,0.8995606000003136,['c'],1,left,['2'],2,0.3293564000000515,,,10,18,Vrouw,Rechts,1,
,xotask,xotask,xotask,43,0,43,343,training,negativefb,84,easy,72,3.8167019000002256,['c'],1,left,['8'],4,0.7968362000001434,,,10,18,Vrouw,Rechts,1,
,xotask,xotask,xotask,44,0,44,344,training,negativefb,61,easy,73,0.7826930999999604,['c'],1,left,['8'],4,0.45321910000029675,,,10,18,Vrouw,Rechts,1,
,xotask,xotask,xotask,45,0,45,345,training,negativefb,55,average,60,0.7835503000001154,['c'],1,left,['9'],5,0.38118789999998626,,,10,18,Vrouw,Rechts,1,
,xotask,xotask,xotask,46,0,46,346,training,negativefb,72,hard,53,0.8000207999998565,['c'],1,left,['8'],4,0.35774069999979474,,,10,18,Vrouw,Rechts,1,
,xotask,xotask,xotask,47,0,47,347,training,negativefb,90,easy,7,0.7347538000003624,['n'],1,right,['9'],5,0.2503609000000324,,,10,18,Vrouw,Rechts,1,
,xotask,xotask,xotask,48,0,48,348,training,negativefb,47,hard,28,0.8172426999999516,['n'],1,right,['9'],5,0.20029780000004394,,,10,18,Vrouw,Rechts,1,
,xotask,xotask,xotask,49,0,49,349,training,negativefb,71,hard,53,0.9671499000000949,['c'],1,left,['9'],5,0.20104859999992186,,,10,18,Vrouw,Rechts,1,
,xotask,xotask,xotask,50,0,50,350,training,negativefb,58,easy,73,3.3498515999999654,['c'],1,left,['9'],5,0.7392571000000316,,,10,18,Vrouw,Rechts,1,
,xotask,xotask,xotask,51,0,51,351,training,negativefb,26,average,63,1.9170793999996931,['c'],1,left,['9'],5,0.745233300000109,,,10,18,Vrouw,Rechts,1,
,xotask,xotask,xotask,52,0,52,352,training,negativefb,50,hard,50,0.6670060000001286,['c'],1,left,['8'],4,0.40129250000018146,,,10,18,Vrouw,Rechts,1,
,xotask,xotask,xotask,53,0,53,353,training,negativefb,68,average,64,0.8164172000001599,['c'],1,left,['8'],4,0.5285940000003393,,,10,18,Vrouw,Rechts,1,
,xotask,xotask,xotask,54,0,54,354,training,negativefb,87,average,17,0.866885700000239,['n'],1,right,['8'],4,0.36108999999987645,,,10,18,Vrouw,Rechts,1,
,xotask,xotask,xotask,55,0,55,355,training,negativefb,61,average,17,0.8487744000003659,['n'],1,right,['9'],5,0.42480569999997897,,,10,18,Vrouw,Rechts,1,
,xotask,xotask,xotask,56,0,56,356,training,negativefb,92,easy,72,1.0003464999999778,['c'],1,left,['8'],4,0.505102000000079,,,10,18,Vrouw,Rechts,1,
,xotask,xotask,xotask,57,0,57,357,training,negativefb,52,hard,51,0.6503309999998237,['c'],1,left,['8'],4,0.3304696000000149,,,10,18,Vrouw,Rechts,1,
,xotask,xotask,xotask,58,0,58,358,training,negativefb,57,easy,5,0.850197599999774,['n'],1,right,['9'],5,0.3155510999999933,,,10,18,Vrouw,Rechts,1,
,xotask,xotask,xotask,59,0,59,359,training,negativefb,56,hard,28,0.7008633000000373,['n'],1,right,['9'],5,0.2829377999996723,,,10,18,Vrouw,Rechts,1,
,xotask,xotask,xotask,0,1,60,360,training,negativefb,68,hard,26,3.1681824000002052,['n'],1,right,['9'],5,0.35120510000024296,,,10,18,Vrouw,Rechts,1,
,xotask,xotask,xotask,1,1,61,361,training,negativefb,74,average,60,1.3668797000000268,['c'],1,left,['3'],3,0.9632255000001351,,,10,18,Vrouw,Rechts,1,
,xotask,xotask,xotask,2,1,62,362,training,negativefb,50,average,15,0.7509050000003299,['n'],1,right,['9'],5,0.43058449999989534,,,10,18,Vrouw,Rechts,1,
,xotask,xotask,xotask,3,1,63,363,training,negativefb,40,hard,29,1.5331774000001133,['c'],0,right,['8'],4,0.4885396999998193,,,10,18,Vrouw,Rechts,1,
,xotask,xotask,xotask,4,1,64,364,training,negativefb,49,hard,52,0.766646700000365,['c'],1,left,['8'],4,0.3748338000000331,,,10,18,Vrouw,Rechts,1,
,xotask,xotask,xotask,5,1,65,365,training,negativefb,87,easy,6,0.6506000999997923,['n'],1,right,['8'],4,0.39001180000013846,,,10,18,Vrouw,Rechts,1,
,xotask,xotask,xotask,6,1,66,366,training,negativefb,60,hard,50,0.7170802000000549,['n'],0,left,['8'],4,0.35465160000012474,,,10,18,Vrouw,Rechts,1,
,xotask,xotask,xotask,7,1,67,367,training,negativefb,81,easy,6,0.9674171000001479,['n'],1,right,['9'],5,0.3416952000002311,,,10,18,Vrouw,Rechts,1,
,xotask,xotask,xotask,8,1,68,368,training,negativefb,86,easy,73,0.8489012000000002,['c'],1,left,['8'],4,0.4068397000000914,,,10,18,Vrouw,Rechts,1,
,xotask,xotask,xotask,9,1,69,369,training,negativefb,91,average,62,1.0670036000001346,['c'],1,left,['9'],5,0.579407799999899,,,10,18,Vrouw,Rechts,1,
,xotask,xotask,xotask,10,1,70,370,training,negativefb,42,easy,72,0.7172504999998637,['c'],1,left,['8'],4,0.2883184000002075,,,10,18,Vrouw,Rechts,1,
,xotask,xotask,xotask,11,1,71,371,training,negativefb,95,average,60,1.7994432999998935,['c'],1,left,['8'],4,0.43657089999987875,,,10,18,Vrouw,Rechts,1,
,xotask,xotask,xotask,12,1,72,372,training,negativefb,69,average,15,2.300156999999672,['n'],1,right,['8'],4,0.7591997999998057,,,10,18,Vrouw,Rechts,1,
,xotask,xotask,xotask,13,1,73,373,training,negativefb,97,easy,71,0.816914099999849,['c'],1,left,['9'],5,0.3455487000001085,,,10,18,Vrouw,Rechts,1,
,xotask,xotask,xotask,14,1,74,374,training,negativefb,64,average,61,2.751051099999586,['c'],1,left,['8'],4,1.0531613000002835,,,10,18,Vrouw,Rechts,1,
,xotask,xotask,xotask,15,1,75,375,training,negativefb,68,easy,71,0.6838410000000295,['c'],1,left,['8'],4,0.2885949999999866,,,10,18,Vrouw,Rechts,1,
,xotask,xotask,xotask,16,1,76,376,training,negativefb,80,easy,72,0.5159247999999934,['c'],1,left,['8'],4,0.2885814000001119,,,10,18,Vrouw,Rechts,1,
,xotask,xotask,xotask,17,1,77,377,training,negativefb,86,average,17,0.8845507000000907,['n'],1,right,['8'],4,0.49725390000003244,,,10,18,Vrouw,Rechts,1,
,xotask,xotask,xotask,18,1,78,378,training,negativefb,60,easy,72,0.5677757000003112,['c'],1,left,['8'],4,0.3111515000000509,,,10,18,Vrouw,Rechts,1,
,xotask,xotask,xotask,19,1,79,379,training,negativefb,46,average,61,0.9334089999997559,['c'],1,left,['3'],3,0.909849000000122,,,10,18,Vrouw,Rechts,1,
,xotask,xotask,xotask,20,1,80,380,training,negativefb,85,average,64,0.7162600999999995,['c'],1,left,['8'],4,0.2927989999998317,,,10,18,Vrouw,Rechts,1,
,xotask,xotask,xotask,21,1,81,381,training,negativefb,37,hard,50,0.9843694000001051,['c'],1,left,['8'],4,0.25846150000006674,,,10,18,Vrouw,Rechts,1,
,xotask,xotask,xotask,22,1,82,382,training,negativefb,93,hard,51,0.6336913000000095,['c'],1,left,['9'],5,0.431012500000179,,,10,18,Vrouw,Rechts,1,
,xotask,xotask,xotask,23,1,83,383,training,negativefb,47,easy,73,1.4325831999999536,['c'],1,left,['8'],4,0.38032410000005257,,,10,18,Vrouw,Rechts,1,
,xotask,xotask,xotask,24,1,84,384,training,negativefb,85,easy,72,0.6833950000000186,['c'],1,left,['9'],5,0.29842809999991005,,,10,18,Vrouw,Rechts,1,
,xotask,xotask,xotask,25,1,85,385,training,negativefb,21,average,15,0.7835115000002588,['n'],1,right,['9'],5,0.3268345000001318,,,10,18,Vrouw,Rechts,1,
,xotask,xotask,xotask,26,1,86,386,training,negativefb,70,hard,53,0.8496503000001212,['c'],1,left,['3'],3,0.7121923999998216,,,10,18,Vrouw,Rechts,1,
,xotask,xotask,xotask,27,1,87,387,training,negativefb,30,hard,52,0.650905800000146,['c'],1,left,['8'],4,0.31354449999980716,,,10,18,Vrouw,Rechts,1,
,xotask,xotask,xotask,28,1,88,388,training,negativefb,35,average,61,0.6997275999997328,['c'],1,left,['8'],4,0.32229759999972885,,,10,18,Vrouw,Rechts,1,
,xotask,xotask,xotask,29,1,89,389,training,negativefb,54,average,60,0.9163911000000553,['c'],1,left,['8'],4,0.4321371999999428,,,10,18,Vrouw,Rechts,1,
,xotask,xotask,xotask,30,1,90,390,training,negativefb,53,hard,28,1.183738500000345,['c'],0,right,['3'],3,0.27999469999986104,,,10,18,Vrouw,Rechts,1,
,xotask,xotask,xotask,31,1,91,391,training,negativefb,67,average,17,0.8503026000003047,['n'],1,right,['3'],3,0.45115979999991396,,,10,18,Vrouw,Rechts,1,
,xotask,xotask,xotask,32,1,92,392,training,negativefb,59,easy,7,1.0166823000004115,['n'],1,right,['8'],4,0.4242005999999492,,,10,18,Vrouw,Rechts,1,
,xotask,xotask,xotask,33,1,93,393,training,negativefb,89,easy,6,0.6185075999997025,['n'],1,right,['0'],6,0.42361190000019633,,,10,18,Vrouw,Rechts,1,
,xotask,xotask,xotask,34,1,94,394,training,negativefb,72,hard,25,0.9672766999997293,['n'],1,right,['8'],4,0.34369010000000344,,,10,18,Vrouw,Rechts,1,
,xotask,xotask,xotask,35,1,95,395,training,negativefb,70,hard,25,0.6988706000001912,['n'],1,right,['8'],4,0.6230430000000524,,,10,18,Vrouw,Rechts,1,
,xotask,xotask,xotask,36,1,96,396,training,negativefb,69,easy,73,0.8169353000002957,['c'],1,left,['9'],5,0.31708400000024994,,,10,18,Vrouw,Rechts,1,
,xotask,xotask,xotask,37,1,97,397,training,negativefb,93,easy,9,0.7007312999999158,['n'],1,right,['9'],5,0.3094998999999916,,,10,18,Vrouw,Rechts,1,
,xotask,xotask,xotask,38,1,98,398,training,negativefb,60,easy,6,0.8167849000001297,['n'],1,right,['9'],5,0.3845393999999942,,,10,18,Vrouw,Rechts,1,
,xotask,xotask,xotask,39,1,99,399,training,negativefb,77,average,19,0.700619899999765,['n'],1,right,['8'],4,0.49246099999982107,,,10,18,Vrouw,Rechts,1,
,xotask,xotask,xotask,40,1,100,400,training,negativefb,81,average,18,1.1008550999999898,['n'],1,right,['9'],5,0.43762610000021596,,,10,18,Vrouw,Rechts,1,
,xotask,xotask,xotask,41,1,101,401,training,negativefb,55,easy,9,0.6167010999997729,['n'],1,right,['9'],5,0.3232229999998708,,,10,18,Vrouw,Rechts,1,
,xotask,xotask,xotask,42,1,102,402,training,negativefb,52,average,63,1.4003606000001128,['c'],1,left,['8'],4,0.4792944999999236,,,10,18,Vrouw,Rechts,1,
,xotask,xotask,xotask,43,1,103,403,training,negativefb,82,hard,27,0.6171883000001799,['n'],1,right,['9'],5,0.29168110000000524,,,10,18,Vrouw,Rechts,1,
,xotask,xotask,xotask,44,1,104,404,training,negativefb,77,average,15,0.5841390000000501,['n'],1,right,['9'],5,0.304537099999834,,,10,18,Vrouw,Rechts,1,
,xotask,xotask,xotask,45,1,105,405,training,negativefb,80,average,16,0.5831087999999909,['n'],1,right,['9'],5,0.25370189999966897,,,10,18,Vrouw,Rechts,1,
,xotask,xotask,xotask,46,1,106,406,training,negativefb,29,hard,26,0.650872299999719,['n'],1,right,['9'],5,0.27375419999998485,,,10,18,Vrouw,Rechts,1,
,xotask,xotask,xotask,47,1,107,407,training,negativefb,80,hard,54,0.7008111000000099,['c'],1,left,['8'],4,0.2915698000001612,,,10,18,Vrouw,Rechts,1,
,xotask,xotask,xotask,48,1,108,408,training,negativefb,94,easy,5,0.8008461999997962,['n'],1,right,['8'],4,0.4077747000001182,,,10,18,Vrouw,Rechts,1,
,xotask,xotask,xotask,49,1,109,409,training,negativefb,82,hard,54,0.8665421000000606,['c'],1,left,['8'],4,0.597246300000279,,,10,18,Vrouw,Rechts,1,
,xotask,xotask,xotask,50,1,110,410,training,negativefb,70,hard,28,0.8163326000003508,['n'],1,right,['8'],4,0.29266089999964606,,,10,18,Vrouw,Rechts,1,
,xotask,xotask,xotask,51,1,111,411,training,negativefb,79,average,18,2.8819412000002558,['n'],1,right,['8'],4,0.3668109000000186,,,10,18,Vrouw,Rechts,1,
,xotask,xotask,xotask,52,1,112,412,training,negativefb,66,hard,25,0.6500366999998732,['n'],1,right,['8'],4,0.3416196999996828,,,10,18,Vrouw,Rechts,1,
,xotask,xotask,xotask,53,1,113,413,training,negativefb,51,hard,27,1.133922900000016,['c'],0,right,['8'],4,0.2907094000001962,,,10,18,Vrouw,Rechts,1,
,xotask,xotask,xotask,54,1,114,414,training,negativefb,82,hard,51,0.9669813000000431,['c'],1,left,['3'],3,0.2727506999999605,,,10,18,Vrouw,Rechts,1,
,xotask,xotask,xotask,55,1,115,415,training,negativefb,78,easy,7,0.5841705000002548,['n'],1,right,['8'],4,0.23908320000009553,,,10,18,Vrouw,Rechts,1,
,xotask,xotask,xotask,56,1,116,416,training,negativefb,81,hard,53,0.8502065000002403,['c'],1,left,['2'],2,1.0680856999997559,,,10,18,Vrouw,Rechts,1,
,xotask,xotask,xotask,57,1,117,417,training,negativefb,12,average,61,1.3339728999999352,['n'],0,left,['2'],2,0.3640144999999393,,,10,18,Vrouw,Rechts,1,
,xotask,xotask,xotask,58,1,118,418,training,negativefb,42,easy,71,1.316193299999668,['c'],1,left,['8'],4,0.3132163000000219,,,10,18,Vrouw,Rechts,1,
,xotask,xotask,xotask,59,1,119,419,training,negativefb,69,easy,8,0.6837350000000697,['n'],1,right,['9'],5,0.2584121999998388,,,10,18,Vrouw,Rechts,1,
,dotcolour,xotask,xotask,0,2,120,420,main,negativefb,-99,easy,,2.533739499999683,['n'],1,right,['9'],5,0.6473941999997805,17,,10,18,Vrouw,Rechts,1,
,dotcolour,xotask,xotask,1,2,121,421,main,negativefb,-99,hard,,1.8508300000003146,['n'],1,right,['2'],2,0.7323064000001978,35,,10,18,Vrouw,Rechts,1,
,dotcolour,xotask,xotask,2,2,122,422,main,negativefb,-99,easy,,0.7836311999999452,['n'],1,right,['0'],6,0.6483817000003,15,,10,18,Vrouw,Rechts,1,
,dotcolour,xotask,xotask,3,2,123,423,main,negativefb,-99,hard,,1.1170435000003636,['c'],1,left,['8'],4,0.9390589999998156,45,,10,18,Vrouw,Rechts,1,
,dotcolour,xotask,xotask,4,2,124,424,main,negativefb,-99,easy,,1.134987700000238,['n'],1,right,['9'],5,0.5133347999999387,17,,10,18,Vrouw,Rechts,1,
,dotcolour,xotask,xotask,5,2,125,425,main,negativefb,-99,easy,,1.467922599999838,['c'],1,left,['8'],4,1.5550807999998142,61,,10,18,Vrouw,Rechts,1,
,dotcolour,xotask,xotask,6,2,126,426,main,negativefb,-99,average,,1.3512740000001031,['n'],0,left,['8'],4,0.6876996999999392,54,,10,18,Vrouw,Rechts,1,
,dotcolour,xotask,xotask,7,2,127,427,main,negativefb,-99,hard,,1.3515374000003249,['c'],0,right,['3'],3,0.4709442999997009,37,,10,18,Vrouw,Rechts,1,
,dotcolour,xotask,xotask,8,2,128,428,main,negativefb,-99,average,,1.2003143000001728,['c'],1,left,['8'],4,1.0615877000000182,52,,10,18,Vrouw,Rechts,1,
,dotcolour,xotask,xotask,9,2,129,429,main,negativefb,-99,average,,0.9834794000003058,['n'],1,right,['8'],4,0.6441850000001068,28,,10,18,Vrouw,Rechts,1,
,dotcolour,xotask,xotask,10,2,130,430,main,negativefb,-99,easy,,1.167293200000131,['n'],1,right,['8'],4,0.8845588999997744,17,,10,18,Vrouw,Rechts,1,
,dotcolour,xotask,xotask,11,2,131,431,main,negativefb,-99,average,,0.9172883000001093,['n'],1,right,['9'],5,0.3580205999996906,25,,10,18,Vrouw,Rechts,1,
,dotcolour,xotask,xotask,12,2,132,432,main,negativefb,-99,easy,,1.534412500000144,['c'],1,left,['8'],4,0.8025794999998652,62,,10,18,Vrouw,Rechts,1,
,dotcolour,xotask,xotask,13,2,133,433,main,negativefb,-99,hard,,0.7341944999998304,['n'],1,right,['8'],4,0.4946555999999873,39,,10,18,Vrouw,Rechts,1,
,dotcolour,xotask,xotask,14,2,134,434,main,negativefb,-99,hard,,1.1507535999999163,['n'],0,left,['9'],5,0.5736578000000918,41,,10,18,Vrouw,Rechts,1,
,dotcolour,xotask,xotask,15,2,135,435,main,negativefb,-99,hard,,1.5519884000000275,['n'],0,left,['2'],2,0.36977630000001227,43,,10,18,Vrouw,Rechts,1,
,dotcolour,xotask,xotask,16,2,136,436,main,negativefb,-99,easy,,1.6503250999999182,['c'],1,left,['9'],5,0.49818279999999504,64,,10,18,Vrouw,Rechts,1,
,dotcolour,xotask,xotask,17,2,137,437,main,negativefb,-99,easy,,0.71713039999986,['n'],1,right,['9'],5,0.48312940000005256,19,,10,18,Vrouw,Rechts,1,
,dotcolour,xotask,xotask,18,2,138,438,main,negativefb,-99,average,,1.1003833999998278,['c'],1,left,['8'],4,0.7637687000001279,52,,10,18,Vrouw,Rechts,1,
,dotcolour,xotask,xotask,19,2,139,439,main,negativefb,-99,easy,,1.1997544000000744,['c'],1,left,['8'],4,0.3507319999998799,61,,10,18,Vrouw,Rechts,1,
,dotcolour,xotask,xotask,20,2,140,440,main,negativefb,-99,hard,,0.8178400000001602,['n'],1,right,['9'],5,0.3362935000000107,35,,10,18,Vrouw,Rechts,1,
,dotcolour,xotask,xotask,21,2,141,441,main,negativefb,-99,average,,1.5676260000000184,['n'],0,left,['2'],2,0.38138729999991483,53,,10,18,Vrouw,Rechts,1,
,dotcolour,xotask,xotask,22,2,142,442,main,negativefb,-99,easy,,0.7680348000003505,['n'],1,right,['0'],6,0.271940000000086,15,,10,18,Vrouw,Rechts,1,
,dotcolour,xotask,xotask,23,2,143,443,main,negativefb,-99,hard,,1.5837885000000824,['c'],0,right,['3'],3,0.3664912999997796,35,,10,18,Vrouw,Rechts,1,
,dotcolour,xotask,xotask,24,2,144,444,main,negativefb,-99,easy,,1.2503819999997177,['n'],0,left,['8'],4,0.4861050999998042,64,,10,18,Vrouw,Rechts,1,
,dotcolour,xotask,xotask,25,2,145,445,main,negativefb,-99,hard,,1.7679292000002533,['n'],0,left,['2'],2,0.38124659999994037,44,,10,18,Vrouw,Rechts,1,
,dotcolour,xotask,xotask,26,2,146,446,main,negativefb,-99,hard,,0.9850777999999991,['n'],0,left,['3'],3,0.3831473999998707,42,,10,18,Vrouw,Rechts,1,
,dotcolour,xotask,xotask,27,2,147,447,main,negativefb,-99,hard,,0.7837463000000753,['n'],1,right,['3'],3,0.4251097999999729,39,,10,18,Vrouw,Rechts,1,
,dotcolour,xotask,xotask,28,2,148,448,main,negativefb,-99,easy,,1.134203300000081,['c'],1,left,['9'],5,0.46769350000022314,63,,10,18,Vrouw,Rechts,1,
,dotcolour,xotask,xotask,29,2,149,449,main,negativefb,-99,hard,,2.2668149000000994,['n'],0,left,['2'],2,0.399666199999956,43,,10,18,Vrouw,Rechts,1,
,dotcolour,xotask,xotask,30,2,150,450,main,negativefb,-99,average,,1.6171558999999434,['n'],0,left,['2'],2,0.47141270000020086,51,,10,18,Vrouw,Rechts,1,
,dotcolour,xotask,xotask,31,2,151,451,main,negativefb,-99,average,,0.8171933999997236,['n'],1,right,['9'],5,0.30117509999990943,25,,10,18,Vrouw,Rechts,1,
,dotcolour,xotask,xotask,32,2,152,452,main,negativefb,-99,average,,0.9842174999998861,['c'],1,left,['9'],5,0.602269299999989,53,,10,18,Vrouw,Rechts,1,
,dotcolour,xotask,xotask,33,2,153,453,main,negativefb,-99,average,,0.8678564000001643,['n'],1,right,['9'],5,0.3045200000001387,27,,10,18,Vrouw,Rechts,1,
,dotcolour,xotask,xotask,34,2,154,454,main,negativefb,-99,easy,,0.8015854999998737,['c'],1,left,['0'],6,0.31666609999956563,61,,10,18,Vrouw,Rechts,1,
,dotcolour,xotask,xotask,35,2,155,455,main,negativefb,-99,easy,,1.3178477000001294,['c'],1,left,['0'],6,0.4282341000002816,63,,10,18,Vrouw,Rechts,1,
,dotcolour,xotask,xotask,36,2,156,456,main,negativefb,-99,easy,,1.2503891999999723,['n'],1,right,['9'],5,0.3787932999998702,18,,10,18,Vrouw,Rechts,1,
,dotcolour,xotask,xotask,37,2,157,457,main,negativefb,-99,easy,,0.6837204000003112,['n'],1,right,['9'],5,0.4007741000000351,17,,10,18,Vrouw,Rechts,1,
,dotcolour,xotask,xotask,38,2,158,458,main,negativefb,-99,hard,,1.1347925999998552,['n'],0,left,['9'],5,0.45260419999976875,44,,10,18,Vrouw,Rechts,1,
,dotcolour,xotask,xotask,39,2,159,459,main,negativefb,-99,hard,,0.9508809999997538,['n'],1,right,['2'],2,0.5568286000002445,37,,10,18,Vrouw,Rechts,1,
,dotcolour,xotask,xotask,40,2,160,460,main,negativefb,-99,average,,0.8014373999999407,['n'],1,right,['9'],5,0.3431394999997792,28,,10,18,Vrouw,Rechts,1,
,dotcolour,xotask,xotask,41,2,161,461,main,negativefb,-99,average,,0.7335314000001745,['n'],1,right,['9'],5,0.3253210000002582,28,,10,18,Vrouw,Rechts,1,
,dotcolour,xotask,xotask,42,2,162,462,main,negativefb,-99,average,,2.267301700000189,['c'],1,left,['2'],2,0.39120249999996304,53,,10,18,Vrouw,Rechts,1,
,dotcolour,xotask,xotask,43,2,163,463,main,negativefb,-99,average,,1.6001790000000256,['n'],0,left,['2'],2,0.46400979999998526,55,,10,18,Vrouw,Rechts,1,
,dotcolour,xotask,xotask,44,2,164,464,main,negativefb,-99,average,,1.2178869999997914,['c'],1,left,['2'],2,0.3502208999998402,54,,10,18,Vrouw,Rechts,1,
,dotcolour,xotask,xotask,45,2,165,465,main,negativefb,-99,hard,,1.483763899999758,['n'],0,left,['2'],2,0.3732538999997814,44,,10,18,Vrouw,Rechts,1,
,dotcolour,xotask,xotask,46,2,166,466,main,negativefb,-99,hard,,0.9839440999999169,['n'],1,right,['2'],2,0.23166170000013153,38,,10,18,Vrouw,Rechts,1,
,dotcolour,xotask,xotask,47,2,167,467,main,negativefb,-99,easy,,1.4340386999997463,['c'],1,left,['9'],5,0.23799730000018826,65,,10,18,Vrouw,Rechts,1,
,dotcolour,xotask,xotask,48,2,168,468,main,negativefb,-99,easy,,0.8008918000000449,['n'],1,right,['9'],5,0.4137014999996609,18,,10,18,Vrouw,Rechts,1,
,dotcolour,xotask,xotask,49,2,169,469,main,negativefb,-99,average,,0.8673445999997966,['c'],1,left,['0'],6,0.3163018000000193,54,,10,18,Vrouw,Rechts,1,
,dotcolour,xotask,xotask,50,2,170,470,main,negativefb,-99,average,,1.1841703000000052,['n'],1,right,['0'],6,0.33672470000010435,26,,10,18,Vrouw,Rechts,1,
,dotcolour,xotask,xotask,51,2,171,471,main,negativefb,-99,hard,,1.1342740999998568,['c'],1,left,['0'],6,0.2862609000003431,44,,10,18,Vrouw,Rechts,1,
,dotcolour,xotask,xotask,52,2,172,472,main,negativefb,-99,average,,0.8838333999997303,['n'],1,right,['0'],6,0.3684779999998682,29,,10,18,Vrouw,Rechts,1,
,dotcolour,xotask,xotask,53,2,173,473,main,negativefb,-99,hard,,1.650479500000074,['n'],1,right,['9'],5,0.43259719999969093,35,,10,18,Vrouw,Rechts,1,
,dotcolour,xotask,xotask,54,2,174,474,main,negativefb,-99,hard,,0.8853060999999798,['n'],1,right,['8'],4,0.3084422000001723,38,,10,18,Vrouw,Rechts,1,
,dotcolour,xotask,xotask,55,2,175,475,main,negativefb,-99,average,,0.9836872000000767,['n'],1,right,['8'],4,0.3783405000003768,26,,10,18,Vrouw,Rechts,1,
,dotcolour,xotask,xotask,56,2,176,476,main,negativefb,-99,easy,,0.9017592999998669,['n'],1,right,['9'],5,0.5511271999998826,18,,10,18,Vrouw,Rechts,1,
,dotcolour,xotask,xotask,57,2,177,477,main,negativefb,-99,easy,,0.6015621999999894,['c'],1,left,['9'],5,0.43473119999998744,64,,10,18,Vrouw,Rechts,1,
,dotcolour,xotask,xotask,58,2,178,478,main,negativefb,-99,hard,,0.91807370000015,['n'],0,left,['9'],5,0.4044631000001573,41,,10,18,Vrouw,Rechts,1,
,dotcolour,xotask,xotask,59,2,179,479,main,negativefb,-99,average,,0.7845664000001307,['n'],1,right,['8'],4,0.5655980000001364,27,,10,18,Vrouw,Rechts,1,
,dotcolour,xotask,xotask,0,3,180,480,main,negativefb,-99,average,,5.7674096000000645,['c'],1,left,['3'],3,0.8979288000000452,55,,10,18,Vrouw,Rechts,1,
,dotcolour,xotask,xotask,1,3,181,481,main,negativefb,-99,easy,,0.8178908999998384,['n'],1,right,['9'],5,0.8698281000001771,16,,10,18,Vrouw,Rechts,1,
,dotcolour,xotask,xotask,2,3,182,482,main,negativefb,-99,hard,,1.234816199999841,['n'],1,right,['9'],5,0.778127300000051,37,,10,18,Vrouw,Rechts,1,
,dotcolour,xotask,xotask,3,3,183,483,main,negativefb,-99,average,,0.9506757999997717,['n'],1,right,['9'],5,0.382716199999777,29,,10,18,Vrouw,Rechts,1,
,dotcolour,xotask,xotask,4,3,184,484,main,negativefb,-99,easy,,1.099567400000069,['c'],1,left,['9'],5,0.5962046999998165,65,,10,18,Vrouw,Rechts,1,
,dotcolour,xotask,xotask,5,3,185,485,main,negativefb,-99,hard,,0.8339915999999903,['n'],0,left,['9'],5,0.44393170000012105,43,,10,18,Vrouw,Rechts,1,
,dotcolour,xotask,xotask,6,3,186,486,main,negativefb,-99,average,,1.3015266000002157,['c'],1,left,['2'],2,0.42276159999983065,51,,10,18,Vrouw,Rechts,1,
,dotcolour,xotask,xotask,7,3,187,487,main,negativefb,-99,hard,,1.2677061999997932,['n'],1,right,['9'],5,0.7561712000001535,36,,10,18,Vrouw,Rechts,1,
,dotcolour,xotask,xotask,8,3,188,488,main,negativefb,-99,average,,1.2168953000000329,['c'],1,left,['9'],5,0.45415200000024925,54,,10,18,Vrouw,Rechts,1,
,dotcolour,xotask,xotask,9,3,189,489,main,negativefb,-99,average,,0.8177942999996048,['n'],1,right,['9'],5,0.47613799999999173,27,,10,18,Vrouw,Rechts,1,
,dotcolour,xotask,xotask,10,3,190,490,main,negativefb,-99,easy,,0.9508045000002312,['c'],1,left,['9'],5,0.4527060000000347,62,,10,18,Vrouw,Rechts,1,
,dotcolour,xotask,xotask,11,3,191,491,main,negativefb,-99,easy,,0.7510976999997183,['n'],1,right,['9'],5,0.4049118000002636,15,,10,18,Vrouw,Rechts,1,
,dotcolour,xotask,xotask,12,3,192,492,main,negativefb,-99,average,,1.2007361999999375,['c'],1,left,['2'],2,0.397517599999901,53,,10,18,Vrouw,Rechts,1,
,dotcolour,xotask,xotask,13,3,193,493,main,negativefb,-99,easy,,1.4849131000000853,['c'],1,left,['8'],4,1.4512344999998277,64,,10,18,Vrouw,Rechts,1,
,dotcolour,xotask,xotask,14,3,194,494,main,negativefb,-99,easy,,0.9509272000000237,['n'],0,left,['9'],5,0.4841449000000466,63,,10,18,Vrouw,Rechts,1,
,dotcolour,xotask,xotask,15,3,195,495,main,negativefb,-99,hard,,1.6185569999997824,['n'],0,left,['8'],4,0.3527387000003728,42,,10,18,Vrouw,Rechts,1,
,dotcolour,xotask,xotask,16,3,196,496,main,negativefb,-99,easy,,0.8012910000002194,['n'],1,right,['8'],4,0.33921319999990374,18,,10,18,Vrouw,Rechts,1,
,dotcolour,xotask,xotask,17,3,197,497,main,negativefb,-99,hard,,1.1340778999997383,['n'],1,right,['3'],3,0.5855384999999842,36,,10,18,Vrouw,Rechts,1,
,dotcolour,xotask,xotask,18,3,198,498,main,negativefb,-99,easy,,0.9513409000001047,['n'],1,right,['9'],5,0.4849856999999247,17,,10,18,Vrouw,Rechts,1,
,dotcolour,xotask,xotask,19,3,199,499,main,negativefb,-99,average,,1.9349442000002455,['c'],1,left,['8'],4,0.31671659999983603,51,,10,18,Vrouw,Rechts,1,
,dotcolour,xotask,xotask,20,3,200,500,main,negativefb,-99,easy,,0.7674795000002632,['n'],1,right,['9'],5,0.626223800000389,18,,10,18,Vrouw,Rechts,1,
,dotcolour,xotask,xotask,21,3,201,501,main,negativefb,-99,average,,0.6673151999998481,['n'],1,right,['9'],5,0.28749500000003536,25,,10,18,Vrouw,Rechts,1,
,dotcolour,xotask,xotask,22,3,202,502,main,negativefb,-99,easy,,0.8666858999999931,['c'],1,left,['9'],5,0.37775490000012724,64,,10,18,Vrouw,Rechts,1,
,dotcolour,xotask,xotask,23,3,203,503,main,negativefb,-99,hard,,1.1011859000000186,['n'],1,right,['9'],5,0.29658900000003996,39,,10,18,Vrouw,Rechts,1,
,dotcolour,xotask,xotask,24,3,204,504,main,negativefb,-99,easy,,0.8671597000002293,['c'],1,left,['9'],5,0.3068527999998878,61,,10,18,Vrouw,Rechts,1,
,dotcolour,xotask,xotask,25,3,205,505,main,negativefb,-99,easy,,0.8003859999998895,['n'],1,right,['9'],5,0.43931960000008985,19,,10,18,Vrouw,Rechts,1,
,dotcolour,xotask,xotask,26,3,206,506,main,negativefb,-99,easy,,0.6833687999996982,['n'],1,right,['9'],5,0.3240362000001369,19,,10,18,Vrouw,Rechts,1,
,dotcolour,xotask,xotask,27,3,207,507,main,negativefb,-99,easy,,0.7674515999997311,['c'],1,left,['9'],5,0.2967537999998058,64,,10,18,Vrouw,Rechts,1,
,dotcolour,xotask,xotask,28,3,208,508,main,negativefb,-99,easy,,0.784107099999801,['c'],1,left,['0'],6,0.2555581000001439,62,,10,18,Vrouw,Rechts,1,
,dotcolour,xotask,xotask,29,3,209,509,main,negativefb,-99,average,,0.9350414000000455,['n'],1,right,['0'],6,0.24056980000023032,27,,10,18,Vrouw,Rechts,1,
,dotcolour,xotask,xotask,30,3,210,510,main,negativefb,-99,average,,0.7511948999999731,['n'],1,right,['0'],6,0.2580269000000044,26,,10,18,Vrouw,Rechts,1,
,dotcolour,xotask,xotask,31,3,211,511,main,negativefb,-99,average,,0.7183794000002308,['c'],1,left,['9'],5,0.5791644999999335,51,,10,18,Vrouw,Rechts,1,
,dotcolour,xotask,xotask,32,3,212,512,main,negativefb,-99,hard,,1.8007109000000128,['n'],0,left,['8'],4,0.24583320000010644,43,,10,18,Vrouw,Rechts,1,
,dotcolour,xotask,xotask,33,3,213,513,main,negativefb,-99,hard,,1.3844443999996656,['n'],0,left,['8'],4,0.2775111000000834,45,,10,18,Vrouw,Rechts,1,
,dotcolour,xotask,xotask,34,3,214,514,main,negativefb,-99,hard,,1.0683509999998932,['n'],1,right,['9'],5,0.20923549999997704,36,,10,18,Vrouw,Rechts,1,
,dotcolour,xotask,xotask,35,3,215,515,main,negativefb,-99,hard,,1.0509202999996887,['c'],0,right,['3'],3,0.3040205000002061,36,,10,18,Vrouw,Rechts,1,
,dotcolour,xotask,xotask,36,3,216,516,main,negativefb,-99,easy,,0.7673482000000149,['n'],1,right,['8'],4,0.31721879999986413,18,,10,18,Vrouw,Rechts,1,
,dotcolour,xotask,xotask,37,3,217,517,main,negativefb,-99,hard,,0.9841167999998106,['n'],0,left,['9'],5,0.20271390000016254,41,,10,18,Vrouw,Rechts,1,
,dotcolour,xotask,xotask,38,3,218,518,main,negativefb,-99,average,,1.1843191000002662,['n'],1,right,['9'],5,0.20336150000002817,25,,10,18,Vrouw,Rechts,1,
,dotcolour,xotask,xotask,39,3,219,519,main,negativefb,-99,easy,,0.7018348999999944,['c'],1,left,['0'],6,0.35224109999990105,61,,10,18,Vrouw,Rechts,1,
,dotcolour,xotask,xotask,40,3,220,520,main,negativefb,-99,hard,,1.133943100000124,['n'],1,right,['8'],4,0.5582764999999199,37,,10,18,Vrouw,Rechts,1,
,dotcolour,xotask,xotask,41,3,221,521,main,negativefb,-99,average,,0.7012943999998242,['n'],1,right,['8'],4,0.2840636999999333,28,,10,18,Vrouw,Rechts,1,
,dotcolour,xotask,xotask,42,3,222,522,main,negativefb,-99,hard,,0.7339874999997846,['n'],0,left,['8'],4,0.22074649999967733,41,,10,18,Vrouw,Rechts,1,
,dotcolour,xotask,xotask,43,3,223,523,main,negativefb,-99,average,,1.4676359000000048,['c'],1,left,['3'],3,0.29012120000015784,51,,10,18,Vrouw,Rechts,1,
,dotcolour,xotask,xotask,44,3,224,524,main,negativefb,-99,hard,,1.1676859000003788,['n'],0,left,['8'],4,0.2880593999998382,41,,10,18,Vrouw,Rechts,1,
,dotcolour,xotask,xotask,45,3,225,525,main,negativefb,-99,hard,,0.7009462999999414,['n'],1,right,['8'],4,0.46657539999978326,35,,10,18,Vrouw,Rechts,1,
,dotcolour,xotask,xotask,46,3,226,526,main,negativefb,-99,hard,,0.9003196999997272,['n'],1,right,['8'],4,0.2994767000000138,38,,10,18,Vrouw,Rechts,1,
,dotcolour,xotask,xotask,47,3,227,527,main,negativefb,-99,hard,,0.852152500000102,['n'],0,left,['8'],4,0.37469499999997424,45,,10,18,Vrouw,Rechts,1,
,dotcolour,xotask,xotask,48,3,228,528,main,negativefb,-99,hard,,1.134339600000203,['c'],1,left,['3'],3,0.2827898999998979,44,,10,18,Vrouw,Rechts,1,
,dotcolour,xotask,xotask,49,3,229,529,main,negativefb,-99,easy,,0.9679707000000235,['n'],0,left,['1'],1,1.4019831999999042,62,,10,18,Vrouw,Rechts,1,
,dotcolour,xotask,xotask,50,3,230,530,main,negativefb,-99,average,,2.0672122999999374,['n'],1,right,['8'],4,2.6478870999999344,28,,10,18,Vrouw,Rechts,1,
,dotcolour,xotask,xotask,51,3,231,531,main,negativefb,-99,easy,,0.8341947999997501,['n'],1,right,['8'],4,0.30887520000032964,19,,10,18,Vrouw,Rechts,1,
,dotcolour,xotask,xotask,52,3,232,532,main,negativefb,-99,average,,1.4843273999999838,['c'],1,left,['3'],3,0.29482940000025337,53,,10,18,Vrouw,Rechts,1,
,dotcolour,xotask,xotask,53,3,233,533,main,negativefb,-99,average,,0.8839794000000438,['c'],1,left,['8'],4,0.3363742000001366,54,,10,18,Vrouw,Rechts,1,
,dotcolour,xotask,xotask,54,3,234,534,main,negativefb,-99,average,,0.8670408999996653,['n'],1,right,['9'],5,0.3376488999997491,28,,10,18,Vrouw,Rechts,1,
,dotcolour,xotask,xotask,55,3,235,535,main,negativefb,-99,average,,0.7841769000001477,['n'],1,right,['9'],5,0.30134170000019367,25,,10,18,Vrouw,Rechts,1,
,dotcolour,xotask,xotask,56,3,236,536,main,negativefb,-99,average,,0.8841056999999637,['n'],0,left,['9'],5,0.23055599999997867,53,,10,18,Vrouw,Rechts,1,
,dotcolour,xotask,xotask,57,3,237,537,main,negativefb,-99,hard,,0.9171390000001338,['n'],0,left,['8'],4,0.2740549000000101,43,,10,18,Vrouw,Rechts,1,
,dotcolour,xotask,xotask,58,3,238,538,main,negativefb,-99,easy,,0.9681500000001506,['n'],1,right,['9'],5,0.43295179999995526,16,,10,18,Vrouw,Rechts,1,
,dotcolour,xotask,xotask,59,3,239,539,main,negativefb,-99,hard,,0.6004974000002221,['n'],1,right,['9'],5,0.264757500000087,36,,10,18,Vrouw,Rechts,1,
,dotcolour,xotask,xotask,0,4,240,540,main,negativefb,-99,hard,,3.968896500000028,['n'],1,right,['9'],5,0.6626978000003874,38,,10,18,Vrouw,Rechts,1,
,dotcolour,xotask,xotask,1,4,241,541,main,negativefb,-99,easy,,0.7843584000002011,['n'],1,right,['9'],5,0.3183927999998559,17,,10,18,Vrouw,Rechts,1,
,dotcolour,xotask,xotask,2,4,242,542,main,negativefb,-99,hard,,0.717847299999903,['n'],1,right,['9'],5,0.37347730000010415,39,,10,18,Vrouw,Rechts,1,
,dotcolour,xotask,xotask,3,4,243,543,main,negativefb,-99,easy,,0.6999966000003042,['n'],1,right,['0'],6,0.27547459999959756,19,,10,18,Vrouw,Rechts,1,
,dotcolour,xotask,xotask,4,4,244,544,main,negativefb,-99,average,,0.6672175999997307,['n'],1,right,['0'],6,0.22259440000016184,27,,10,18,Vrouw,Rechts,1,
,dotcolour,xotask,xotask,5,4,245,545,main,negativefb,-99,hard,,0.5336096999999427,['n'],1,right,['8'],4,0.3053282000000763,39,,10,18,Vrouw,Rechts,1,
,dotcolour,xotask,xotask,6,4,246,546,main,negativefb,-99,easy,,0.8673684000000321,['c'],1,left,['8'],4,0.7552679999998873,64,,10,18,Vrouw,Rechts,1,
,dotcolour,xotask,xotask,7,4,247,547,main,negativefb,-99,hard,,0.8843143999997665,['n'],1,right,['8'],4,0.5230559000001449,37,,10,18,Vrouw,Rechts,1,
,dotcolour,xotask,xotask,8,4,248,548,main,negativefb,-99,easy,,1.000622999999905,['n'],1,right,['8'],4,0.3912694000000556,15,,10,18,Vrouw,Rechts,1,
,dotcolour,xotask,xotask,9,4,249,549,main,negativefb,-99,average,,1.9851335000003019,['c'],1,left,['3'],3,0.48903629999995246,51,,10,18,Vrouw,Rechts,1,
,dotcolour,xotask,xotask,10,4,250,550,main,negativefb,-99,hard,,1.4174166999996487,['n'],0,left,['8'],4,0.8372666999998728,41,,10,18,Vrouw,Rechts,1,
,dotcolour,xotask,xotask,11,4,251,551,main,negativefb,-99,hard,,1.4014241999998376,['n'],1,right,['8'],4,0.34841180000012173,38,,10,18,Vrouw,Rechts,1,
,dotcolour,xotask,xotask,12,4,252,552,main,negativefb,-99,easy,,0.9505168000000594,['n'],1,right,['8'],4,0.30568289999973786,19,,10,18,Vrouw,Rechts,1,
,dotcolour,xotask,xotask,13,4,253,553,main,negativefb,-99,hard,,0.6506340999999338,['n'],1,right,['8'],4,0.32441479999988587,39,,10,18,Vrouw,Rechts,1,
,dotcolour,xotask,xotask,14,4,254,554,main,negativefb,-99,average,,1.4344052000001284,['c'],1,left,['3'],3,0.44655669999974634,52,,10,18,Vrouw,Rechts,1,
,dotcolour,xotask,xotask,15,4,255,555,main,negativefb,-99,average,,0.8346099000000322,['n'],1,right,['8'],4,0.3971298999999817,29,,10,18,Vrouw,Rechts,1,
,dotcolour,xotask,xotask,16,4,256,556,main,negativefb,-99,hard,,0.934422700000141,['n'],1,right,['8'],4,0.28920679999964705,39,,10,18,Vrouw,Rechts,1,
,dotcolour,xotask,xotask,17,4,257,557,main,negativefb,-99,easy,,0.6340211000001545,['c'],1,left,['3'],3,1.0208182000001216,64,,10,18,Vrouw,Rechts,1,
,dotcolour,xotask,xotask,18,4,258,558,main,negativefb,-99,hard,,0.9174479000002975,['n'],1,right,['8'],4,0.23976290000018707,35,,10,18,Vrouw,Rechts,1,
,dotcolour,xotask,xotask,19,4,259,559,main,negativefb,-99,easy,,0.7682786000000306,['n'],1,right,['9'],5,0.2965073000000302,15,,10,18,Vrouw,Rechts,1,
,dotcolour,xotask,xotask,20,4,260,560,main,negativefb,-99,easy,,0.8013291999996,['c'],1,left,['9'],5,0.22238570000035907,62,,10,18,Vrouw,Rechts,1,
,dotcolour,xotask,xotask,21,4,261,561,main,negativefb,-99,easy,,0.6679833000002873,['c'],1,left,['9'],5,0.3237322999998469,61,,10,18,Vrouw,Rechts,1,
,dotcolour,xotask,xotask,22,4,262,562,main,negativefb,-99,easy,,0.867634199999884,['c'],1,left,['9'],5,0.3325363999997535,61,,10,18,Vrouw,Rechts,1,
,dotcolour,xotask,xotask,23,4,263,563,main,negativefb,-99,easy,,0.8354305000002569,['n'],1,right,['9'],5,0.2870090999999775,16,,10,18,Vrouw,Rechts,1,
,dotcolour,xotask,xotask,24,4,264,564,main,negativefb,-99,average,,0.9842294000000038,['n'],1,right,['9'],5,0.25288540000019566,29,,10,18,Vrouw,Rechts,1,
,dotcolour,xotask,xotask,25,4,265,565,main,negativefb,-99,average,,0.7507961999999679,['c'],1,left,['9'],5,0.517792599999666,54,,10,18,Vrouw,Rechts,1,
,dotcolour,xotask,xotask,26,4,266,566,main,negativefb,-99,average,,0.9500527999998667,['c'],1,left,['9'],5,0.29962380000006306,55,,10,18,Vrouw,Rechts,1,
,dotcolour,xotask,xotask,27,4,267,567,main,negativefb,-99,easy,,0.8178490000000238,['c'],1,left,['0'],6,0.20773729999973511,61,,10,18,Vrouw,Rechts,1,
,dotcolour,xotask,xotask,28,4,268,568,main,negativefb,-99,easy,,0.8509400999996615,['c'],1,left,['0'],6,0.2382860000002438,64,,10,18,Vrouw,Rechts,1,
,dotcolour,xotask,xotask,29,4,269,569,main,negativefb,-99,hard,,1.6341332000001785,['n'],0,left,['9'],5,0.5078435999998874,41,,10,18,Vrouw,Rechts,1,
,dotcolour,xotask,xotask,30,4,270,570,main,negativefb,-99,hard,,1.268056500000057,['c'],1,left,['8'],4,0.28630359999988286,45,,10,18,Vrouw,Rechts,1,
,dotcolour,xotask,xotask,31,4,271,571,main,negativefb,-99,average,,0.9678275999999641,['n'],1,right,['9'],5,0.30085330000019894,28,,10,18,Vrouw,Rechts,1,
,dotcolour,xotask,xotask,32,4,272,572,main,negativefb,-99,easy,,0.8681112999997822,['n'],1,right,['9'],5,0.2785650999999234,15,,10,18,Vrouw,Rechts,1,
,dotcolour,xotask,xotask,33,4,273,573,main,negativefb,-99,hard,,0.701262499999757,['c'],1,left,['3'],3,0.8338066999999683,44,,10,18,Vrouw,Rechts,1,
,dotcolour,xotask,xotask,34,4,274,574,main,negativefb,-99,average,,0.7008710999998584,['n'],1,right,['8'],4,0.2526252000002387,28,,10,18,Vrouw,Rechts,1,
,dotcolour,xotask,xotask,35,4,275,575,main,negativefb,-99,easy,,0.9679356000001462,['c'],1,left,['9'],5,0.3883423999996012,61,,10,18,Vrouw,Rechts,1,
,dotcolour,xotask,xotask,36,4,276,576,main,negativefb,-99,hard,,0.7500018000000637,['n'],1,right,['9'],5,0.28028039999981047,38,,10,18,Vrouw,Rechts,1,
,dotcolour,xotask,xotask,37,4,277,577,main,negativefb,-99,hard,,1.182799100000011,['n'],0,left,['9'],5,0.23140960000000632,42,,10,18,Vrouw,Rechts,1,
,dotcolour,xotask,xotask,38,4,278,578,main,negativefb,-99,average,,0.7678141999999752,['n'],1,right,['9'],5,0.24698720000014873,26,,10,18,Vrouw,Rechts,1,
,dotcolour,xotask,xotask,39,4,279,579,main,negativefb,-99,average,,1.1002452999996422,['n'],0,left,['9'],5,0.2912169000001086,52,,10,18,Vrouw,Rechts,1,
,dotcolour,xotask,xotask,40,4,280,580,main,negativefb,-99,easy,,0.7004408999996485,['n'],1,right,['9'],5,0.26033319999987725,16,,10,18,Vrouw,Rechts,1,
,dotcolour,xotask,xotask,41,4,281,581,main,negativefb,-99,hard,,1.3170894999998382,['n'],0,left,['0'],6,0.43046989999993457,44,,10,18,Vrouw,Rechts,1,
,dotcolour,xotask,xotask,42,4,282,582,main,negativefb,-99,average,,1.5171642999998767,['c'],1,left,['3'],3,0.3697113999996873,53,,10,18,Vrouw,Rechts,1,
,dotcolour,xotask,xotask,43,4,283,583,main,negativefb,-99,hard,,0.8501889000003757,['n'],0,left,['9'],5,0.313486400000329,42,,10,18,Vrouw,Rechts,1,
,dotcolour,xotask,xotask,44,4,284,584,main,negativefb,-99,easy,,0.7007134000000406,['n'],1,right,['9'],5,0.25845879999997123,17,,10,18,Vrouw,Rechts,1,
,dotcolour,xotask,xotask,45,4,285,585,main,negativefb,-99,hard,,1.4338874999998552,['n'],0,left,['8'],4,0.21568939999997383,45,,10,18,Vrouw,Rechts,1,
,dotcolour,xotask,xotask,46,4,286,586,main,negativefb,-99,average,,0.83370720000039,['n'],0,left,['9'],5,0.2785886000001483,51,,10,18,Vrouw,Rechts,1,
,dotcolour,xotask,xotask,47,4,287,587,main,negativefb,-99,hard,,0.5674044000002141,['n'],1,right,['9'],5,0.22893950000025143,39,,10,18,Vrouw,Rechts,1,
,dotcolour,xotask,xotask,48,4,288,588,main,negativefb,-99,average,,0.9167732000000797,['c'],1,left,['8'],4,0.24940719999995054,52,,10,18,Vrouw,Rechts,1,
,dotcolour,xotask,xotask,49,4,289,589,main,negativefb,-99,easy,,0.7173397999999906,['n'],1,right,['0'],6,0.554249499999969,16,,10,18,Vrouw,Rechts,1,
,dotcolour,xotask,xotask,50,4,290,590,main,negativefb,-99,average,,0.8671027000000322,['n'],1,right,['8'],4,0.37916549999999916,28,,10,18,Vrouw,Rechts,1,
,dotcolour,xotask,xotask,51,4,291,591,main,negativefb,-99,average,,0.7333745000000818,['c'],1,left,['8'],4,0.24806400000034046,53,,10,18,Vrouw,Rechts,1,
,dotcolour,xotask,xotask,52,4,292,592,main,negativefb,-99,hard,,1.1506137000001218,['c'],1,left,['2'],2,1.177541900000051,45,,10,18,Vrouw,Rechts,1,
,dotcolour,xotask,xotask,53,4,293,593,main,negativefb,-99,average,,0.6844396000001325,['n'],1,right,['9'],5,0.31104270000014367,26,,10,18,Vrouw,Rechts,1,
,dotcolour,xotask,xotask,54,4,294,594,main,negativefb,-99,easy,,0.750956099999712,['n'],0,left,['2'],2,1.2389607999998589,65,,10,18,Vrouw,Rechts,1,
,dotcolour,xotask,xotask,55,4,295,595,main,negativefb,-99,easy,,0.9847024999999121,['c'],1,left,['9'],5,0.6138419999997495,61,,10,18,Vrouw,Rechts,1,
,dotcolour,xotask,xotask,56,4,296,596,main,negativefb,-99,average,,1.2341968999999153,['n'],1,right,['9'],5,0.3019752000000153,29,,10,18,Vrouw,Rechts,1,
,dotcolour,xotask,xotask,57,4,297,597,main,negativefb,-99,average,,1.0505431999999928,['c'],1,left,['9'],5,0.34477130000004763,54,,10,18,Vrouw,Rechts,1,
,dotcolour,xotask,xotask,58,4,298,598,main,negativefb,-99,average,,0.6997793999998976,['n'],1,right,['9'],5,0.36798339999995733,28,,10,18,Vrouw,Rechts,1,
,dotcolour,xotask,xotask,59,4,299,599,main,negativefb,-99,hard,,1.2004360000000815,['n'],0,left,['9'],5,0.3540849999999409,41,,10,18,Vrouw,Rechts,1,
,xotask,xotask,xotask,0,0,0,600,training,negativefb,91,average,63,0.932998299999781,['c'],1,left,['9'],5,0.8488965999999891,,,10,18,Vrouw,Rechts,1,
,xotask,xotask,xotask,1,0,1,601,training,negativefb,81,hard,54,0.8499227000002065,['c'],1,left,['9'],5,0.2842505999997229,,,10,18,Vrouw,Rechts,1,
,xotask,xotask,xotask,2,0,2,602,training,negativefb,72,hard,29,0.6336607999996886,['n'],1,right,['9'],5,0.33542869999973846,,,10,18,Vrouw,Rechts,1,
,xotask,xotask,xotask,3,0,3,603,training,negativefb,91,easy,71,1.1335029000001668,['c'],1,left,['8'],4,0.3648494999997638,,,10,18,Vrouw,Rechts,1,
,xotask,xotask,xotask,4,0,4,604,training,negativefb,54,average,61,0.9668835000002218,['c'],1,left,['8'],4,0.32040250000000015,,,10,18,Vrouw,Rechts,1,
,xotask,xotask,xotask,5,0,5,605,training,negativefb,83,easy,71,0.716843699999572,['c'],1,left,['9'],5,0.2621772000002238,,,10,18,Vrouw,Rechts,1,
,xotask,xotask,xotask,6,0,6,606,training,negativefb,52,average,16,0.5010007000000769,['n'],1,right,['9'],5,0.24787870000000112,,,10,18,Vrouw,Rechts,1,
,xotask,xotask,xotask,7,0,7,607,training,negativefb,77,hard,29,0.5679575999997724,['n'],1,right,['9'],5,0.2157667000001311,,,10,18,Vrouw,Rechts,1,
,xotask,xotask,xotask,8,0,8,608,training,negativefb,23,easy,5,0.43323099999997794,['n'],1,right,['9'],5,0.2621697999998105,,,10,18,Vrouw,Rechts,1,
,xotask,xotask,xotask,9,0,9,609,training,negativefb,96,hard,52,0.9835989000002883,['c'],1,left,['2'],2,0.34064459999990504,,,10,18,Vrouw,Rechts,1,
,xotask,xotask,xotask,10,0,10,610,training,negativefb,38,average,18,2.300416900000073,['c'],0,right,['3'],3,0.32329429999981585,,,10,18,Vrouw,Rechts,1,
,xotask,xotask,xotask,11,0,11,611,training,negativefb,91,easy,6,0.5663125999999465,['n'],1,right,['9'],5,0.2961703999999372,,,10,18,Vrouw,Rechts,1,
,xotask,xotask,xotask,12,0,12,612,training,negativefb,76,easy,9,0.7993993000000046,['n'],1,right,['9'],5,0.25229680000029475,,,10,18,Vrouw,Rechts,1,
,xotask,xotask,xotask,13,0,13,613,training,negativefb,49,average,17,1.017085599999973,['c'],0,right,['9'],5,0.23343179999983477,,,10,18,Vrouw,Rechts,1,
,xotask,xotask,xotask,14,0,14,614,training,negativefb,79,average,62,0.6837055000000873,['c'],1,left,['8'],4,0.25349180000011984,,,10,18,Vrouw,Rechts,1,
,xotask,xotask,xotask,15,0,15,615,training,negativefb,32,average,16,0.7826423999999861,['n'],1,right,['8'],4,0.4198661999998876,,,10,18,Vrouw,Rechts,1,
,xotask,xotask,xotask,16,0,16,616,training,negativefb,74,easy,6,0.5668330000003152,['n'],1,right,['8'],4,0.24444809999977224,,,10,18,Vrouw,Rechts,1,
,xotask,xotask,xotask,17,0,17,617,training,negativefb,79,hard,25,0.5670387000000119,['n'],1,right,['8'],4,0.22038870000005772,,,10,18,Vrouw,Rechts,1,
,xotask,xotask,xotask,18,0,18,618,training,negativefb,47,average,60,0.6669805000001361,['c'],1,left,['8'],4,0.24983920000022408,,,10,18,Vrouw,Rechts,1,
,xotask,xotask,xotask,19,0,19,619,training,negativefb,36,hard,54,0.7007810000000063,['n'],0,left,['8'],4,0.21983610000006593,,,10,18,Vrouw,Rechts,1,
,xotask,xotask,xotask,20,0,20,620,training,negativefb,77,average,61,0.6667516000002252,['c'],1,left,['8'],4,0.2559827000000041,,,10,18,Vrouw,Rechts,1,
,xotask,xotask,xotask,21,0,21,621,training,negativefb,79,hard,27,0.6160039999999753,['n'],1,right,['8'],4,0.1975060999998277,,,10,18,Vrouw,Rechts,1,
,xotask,xotask,xotask,22,0,22,622,training,negativefb,48,hard,27,0.6336676000000807,['c'],0,right,['8'],4,0.196766199999729,,,10,18,Vrouw,Rechts,1,
,xotask,xotask,xotask,23,0,23,623,training,negativefb,66,hard,51,0.5318379999998797,['c'],1,left,['8'],4,0.216571599999952,,,10,18,Vrouw,Rechts,1,
,xotask,xotask,xotask,24,0,24,624,training,negativefb,75,average,19,0.5011961999998675,['n'],1,right,['8'],4,0.20297449999998207,,,10,18,Vrouw,Rechts,1,
,xotask,xotask,xotask,25,0,25,625,training,negativefb,65,easy,7,0.549138899999889,['n'],1,right,['9'],5,0.2215328000002046,,,10,18,Vrouw,Rechts,1,
,xotask,xotask,xotask,26,0,26,626,training,negativefb,16,hard,27,0.5664143999997577,['n'],1,right,['9'],5,0.26217129999986355,,,10,18,Vrouw,Rechts,1,
,xotask,xotask,xotask,27,0,27,627,training,negativefb,56,average,63,0.7507885999998507,['c'],1,left,['8'],4,0.2303751999997985,,,10,18,Vrouw,Rechts,1,
,xotask,xotask,xotask,28,0,28,628,training,negativefb,83,average,63,0.4661661999998614,['c'],1,left,['8'],4,0.19462049999992814,,,10,18,Vrouw,Rechts,1,
,xotask,xotask,xotask,29,0,29,629,training,negativefb,59,average,64,0.6169588000002477,['c'],1,left,['8'],4,0.15525789999992412,,,10,18,Vrouw,Rechts,1,
,xotask,xotask,xotask,30,0,30,630,training,negativefb,37,hard,27,0.5489978000000519,['n'],1,right,['9'],5,0.1907971999999063,,,10,18,Vrouw,Rechts,1,
,xotask,xotask,xotask,31,0,31,631,training,negativefb,58,average,15,0.6494317000001502,['c'],0,right,['2'],2,0.91759570000022,,,10,18,Vrouw,Rechts,1,
,xotask,xotask,xotask,32,0,32,632,training,negativefb,52,easy,70,2.066112299999986,['c'],1,left,['9'],5,0.5583142000000407,,,10,18,Vrouw,Rechts,1,
,xotask,xotask,xotask,33,0,33,633,training,negativefb,75,hard,52,1.067354400000113,['c'],1,left,['8'],4,0.821538000000146,,,10,18,Vrouw,Rechts,1,
,xotask,xotask,xotask,34,0,34,634,training,negativefb,50,average,61,0.7672963999998501,['c'],1,left,['8'],4,0.2225775000001704,,,10,18,Vrouw,Rechts,1,
,xotask,xotask,xotask,35,0,35,635,training,negativefb,36,hard,26,0.5831736000000092,['n'],1,right,['8'],4,0.2700151000003643,,,10,18,Vrouw,Rechts,1,
,xotask,xotask,xotask,36,0,36,636,training,negativefb,79,easy,5,0.6335261999997783,['n'],1,right,['8'],4,0.22641299999986586,,,10,18,Vrouw,Rechts,1,
,xotask,xotask,xotask,37,0,37,637,training,negativefb,50,easy,6,0.5835815000000366,['n'],1,right,['8'],4,0.2184612000000925,,,10,18,Vrouw,Rechts,1,
,xotask,xotask,xotask,38,0,38,638,training,negativefb,30,easy,9,0.6176762000000053,['n'],1,right,['8'],4,0.2166722000001755,,,10,18,Vrouw,Rechts,1,
,xotask,xotask,xotask,39,0,39,639,training,negativefb,82,easy,72,0.767197600000145,['c'],1,left,['8'],4,0.23395580000033078,,,10,18,Vrouw,Rechts,1,
,xotask,xotask,xotask,40,0,40,640,training,negativefb,36,average,16,0.9847293999996509,['c'],0,right,['8'],4,0.19291290000001027,,,10,18,Vrouw,Rechts,1,
,xotask,xotask,xotask,41,0,41,641,training,negativefb,64,easy,6,0.6498871999997391,['n'],1,right,['9'],5,0.3038949000001594,,,10,18,Vrouw,Rechts,1,
,xotask,xotask,xotask,42,0,42,642,training,negativefb,31,hard,50,0.7333606000001964,['c'],1,left,['8'],4,0.47019940000018323,,,10,18,Vrouw,Rechts,1,
,xotask,xotask,xotask,43,0,43,643,training,negativefb,78,average,60,0.7997324000002664,['c'],1,left,['8'],4,0.2440809999998237,,,10,18,Vrouw,Rechts,1,
,xotask,xotask,xotask,44,0,44,644,training,negativefb,80,average,18,0.9172320000002401,['n'],1,right,['9'],5,0.3821560999999747,,,10,18,Vrouw,Rechts,1,
,xotask,xotask,xotask,45,0,45,645,training,negativefb,73,easy,74,0.8332318000002488,['c'],1,left,['8'],4,0.19725160000007236,,,10,18,Vrouw,Rechts,1,
,xotask,xotask,xotask,46,0,46,646,training,negativefb,70,average,17,0.6661574999998265,['n'],1,right,['8'],4,0.19545599999992191,,,10,18,Vrouw,Rechts,1,
,xotask,xotask,xotask,47,0,47,647,training,negativefb,51,easy,71,0.7846043999998074,['n'],0,left,['2'],2,1.356704400000126,,,10,18,Vrouw,Rechts,1,
,xotask,xotask,xotask,48,0,48,648,training,negativefb,39,hard,50,0.8339004999997996,['c'],1,left,['8'],4,0.24473260000013397,,,10,18,Vrouw,Rechts,1,
,xotask,xotask,xotask,49,0,49,649,training,negativefb,66,hard,54,0.6336531000001742,['c'],1,left,['8'],4,0.19438430000036533,,,10,18,Vrouw,Rechts,1,
,xotask,xotask,xotask,50,0,50,650,training,negativefb,86,hard,50,0.5833308000001125,['c'],1,left,['8'],4,0.2123279000002185,,,10,18,Vrouw,Rechts,1,
,xotask,xotask,xotask,51,0,51,651,training,negativefb,55,easy,73,0.5338818999998693,['c'],1,left,['8'],4,0.20643599999993967,,,10,18,Vrouw,Rechts,1,
,xotask,xotask,xotask,52,0,52,652,training,negativefb,65,easy,73,0.5166411000000153,['c'],1,left,['8'],4,0.20203639999999723,,,10,18,Vrouw,Rechts,1,
,xotask,xotask,xotask,53,0,53,653,training,negativefb,74,hard,53,0.649710000000141,['c'],1,left,['8'],4,0.20012539999970613,,,10,18,Vrouw,Rechts,1,
,xotask,xotask,xotask,54,0,54,654,training,negativefb,34,hard,25,1.167015099999844,['n'],1,right,['8'],4,0.20951479999985168,,,10,18,Vrouw,Rechts,1,
,xotask,xotask,xotask,55,0,55,655,training,negativefb,91,easy,72,0.7170305000004191,['c'],1,left,['8'],4,0.2441222000002199,,,10,18,Vrouw,Rechts,1,
,xotask,xotask,xotask,56,0,56,656,training,negativefb,74,easy,74,0.999020699999619,['c'],1,left,['8'],4,0.23539389999996274,,,10,18,Vrouw,Rechts,1,
,xotask,xotask,xotask,57,0,57,657,training,negativefb,61,hard,28,0.7006811999999627,['n'],1,right,['8'],4,0.19751839999980803,,,10,18,Vrouw,Rechts,1,
,xotask,xotask,xotask,58,0,58,658,training,negativefb,80,easy,5,0.6835320000000138,['n'],1,right,['8'],4,0.3620263999996496,,,10,18,Vrouw,Rechts,1,
,xotask,xotask,xotask,59,0,59,659,training,negativefb,49,average,15,0.5824176999999509,['n'],1,right,['8'],4,0.21295920000011392,,,10,18,Vrouw,Rechts,1,
,xotask,xotask,xotask,0,1,60,660,training,negativefb,54,hard,53,1.751422299999831,['c'],1,left,['8'],4,1.2036840999999185,,,10,18,Vrouw,Rechts,1,
,xotask,xotask,xotask,1,1,61,661,training,negativefb,83,average,61,0.7998289000001932,['c'],1,left,['8'],4,0.23674680000021908,,,10,18,Vrouw,Rechts,1,
,xotask,xotask,xotask,2,1,62,662,training,negativefb,55,hard,27,0.5827592999999069,['n'],1,right,['8'],4,0.1953974000002745,,,10,18,Vrouw,Rechts,1,
,xotask,xotask,xotask,3,1,63,663,training,negativefb,69,hard,27,0.5668170999997528,['n'],1,right,['8'],4,0.21387880000020232,,,10,18,Vrouw,Rechts,1,
,xotask,xotask,xotask,4,1,64,664,training,negativefb,62,easy,71,0.6835172000000966,['c'],1,left,['8'],4,0.24196580000034373,,,10,18,Vrouw,Rechts,1,
,xotask,xotask,xotask,5,1,65,665,training,negativefb,59,average,15,0.5837197000000742,['n'],1,right,['8'],4,0.2016617000003862,,,10,18,Vrouw,Rechts,1,
,xotask,xotask,xotask,6,1,66,666,training,negativefb,59,average,62,0.6168629999997393,['c'],1,left,['9'],5,0.8248180000000502,,,10,18,Vrouw,Rechts,1,
,xotask,xotask,xotask,7,1,67,667,training,negativefb,51,average,62,0.8009007000000565,['n'],0,left,['9'],5,0.3203171000000111,,,10,18,Vrouw,Rechts,1,
,xotask,xotask,xotask,8,1,68,668,training,negativefb,47,easy,5,0.6836569000001873,['n'],1,right,['9'],5,0.3125190000000657,,,10,18,Vrouw,Rechts,1,
,xotask,xotask,xotask,9,1,69,669,training,negativefb,87,easy,71,0.9828005999997913,['c'],1,left,['8'],4,0.3650254999997742,,,10,18,Vrouw,Rechts,1,
