starttime,task,fbtask,firsttask,withinblocktrial,block,withintasktrial,trial,running,feedback,fbscore,difflevel,reddots,rt,resp,cor,cresp,conf_press,cj,RTconf,n_xes,post1,post2,post3,post4,post5,stoptime,sub,age,gender,handedness,session,
1715588948,dotcolour,dotcolour,xotask,0,0,0,0,training,negativefb,71,easy,15,1.2515753999996377,['n'],1,right,['1'],6,1.2826600000007602,,,,,,,,20,19,Vrouw,Rechts,2,
,dotcolour,dotcolour,xotask,1,0,1,1,training,negativefb,72,easy,16,1.1175234000002092,['n'],1,right,['1'],6,0.25125219999972614,,,,,,,,20,19,Vrouw,Rechts,2,
,dotcolour,dotcolour,xotask,2,0,2,2,training,negativefb,41,average,54,0.7997774000004938,['c'],1,left,['1'],6,0.2812826999997924,,,,,,,,20,19,Vrouw,Rechts,2,
,dotcolour,dotcolour,xotask,3,0,3,3,training,negativefb,64,easy,15,0.6997458999994706,['n'],1,right,['1'],6,0.19482419999985723,,,,,,,,20,19,Vrouw,Rechts,2,
,dotcolour,dotcolour,xotask,4,0,4,4,training,negativefb,66,easy,17,1.1006004999999277,['n'],1,right,['1'],6,0.13517830000000686,,,,,,,,20,19,Vrouw,Rechts,2,
,dotcolour,dotcolour,xotask,5,0,5,5,training,negativefb,57,average,51,0.7504918999993606,['c'],1,left,['1'],6,0.3401641999998901,,,,,,,,20,19,Vrouw,Rechts,2,
,dotcolour,dotcolour,xotask,6,0,6,6,training,negativefb,87,average,51,1.0341715000004115,['c'],1,left,['1'],6,0.2375331000002916,,,,,,,,20,19,Vrouw,Rechts,2,
,dotcolour,dotcolour,xotask,7,0,7,7,training,negativefb,76,easy,65,0.7167012999998406,['c'],1,left,['1'],6,0.20705540000017209,,,,,,,,20,19,Vrouw,Rechts,2,
,dotcolour,dotcolour,xotask,8,0,8,8,training,negativefb,82,hard,38,1.0824066000004677,['n'],1,right,['1'],6,0.1559944999999061,,,,,,,,20,19,Vrouw,Rechts,2,
,dotcolour,dotcolour,xotask,9,0,9,9,training,negativefb,48,easy,64,0.6497263999999632,['c'],1,left,['1'],6,0.2915466999993441,,,,,,,,20,19,Vrouw,Rechts,2,
,dotcolour,dotcolour,xotask,10,0,10,10,training,negativefb,62,hard,35,0.7831589000006716,['n'],1,right,['1'],6,0.15306089999921824,,,,,,,,20,19,Vrouw,Rechts,2,
,dotcolour,dotcolour,xotask,11,0,11,11,training,negativefb,60,hard,44,1.2001807999995435,['c'],1,left,['1'],6,0.3307525000000169,,,,,,,,20,19,Vrouw,Rechts,2,
,dotcolour,dotcolour,xotask,12,0,12,12,training,negativefb,55,average,52,0.9671944000001531,['c'],1,left,['1'],6,0.2561114999998608,,,,,,,,20,19,Vrouw,Rechts,2,
,dotcolour,dotcolour,xotask,13,0,13,13,training,negativefb,50,hard,44,0.7667665999997553,['c'],1,left,['1'],6,0.31908520000069984,,,,,,,,20,19,Vrouw,Rechts,2,
,dotcolour,dotcolour,xotask,14,0,14,14,training,negativefb,60,easy,62,0.6332070999997086,['c'],1,left,['1'],6,0.4651877999995122,,,,,,,,20,19,Vrouw,Rechts,2,
,dotcolour,dotcolour,xotask,15,0,15,15,training,negativefb,51,easy,64,0.6326220000000831,['c'],1,left,['1'],6,0.2614378999996916,,,,,,,,20,19,Vrouw,Rechts,2,
,dotcolour,dotcolour,xotask,16,0,16,16,training,negativefb,64,average,26,0.7842501000004631,['n'],1,right,['1'],6,0.2681751999998596,,,,,,,,20,19,Vrouw,Rechts,2,
,dotcolour,dotcolour,xotask,17,0,17,17,training,negativefb,84,easy,61,1.083394400000543,['c'],1,left,['1'],6,0.606891700000233,,,,,,,,20,19,Vrouw,Rechts,2,
,dotcolour,dotcolour,xotask,18,0,18,18,training,negativefb,72,easy,15,0.9001318000000538,['n'],1,right,['1'],6,0.13076970000020083,,,,,,,,20,19,Vrouw,Rechts,2,
,dotcolour,dotcolour,xotask,19,0,19,19,training,negativefb,69,average,27,1.5505127000005814,['n'],1,right,['1'],6,0.17532519999986107,,,,,,,,20,19,Vrouw,Rechts,2,
,dotcolour,dotcolour,xotask,20,0,20,20,training,negativefb,88,average,52,0.6332488999996713,['c'],1,left,['1'],6,0.2639079999999012,,,,,,,,20,19,Vrouw,Rechts,2,
,dotcolour,dotcolour,xotask,21,0,21,21,training,negativefb,33,hard,45,1.4152533999995285,['c'],1,left,['2'],5,0.5092832999998791,,,,,,,,20,19,Vrouw,Rechts,2,
,dotcolour,dotcolour,xotask,22,0,22,22,training,negativefb,80,average,29,0.700658900000235,['n'],1,right,['1'],6,0.33303069999965373,,,,,,,,20,19,Vrouw,Rechts,2,
,dotcolour,dotcolour,xotask,23,0,23,23,training,negativefb,84,hard,45,0.7652662000000419,['c'],1,left,['1'],6,0.30524100000002363,,,,,,,,20,19,Vrouw,Rechts,2,
,dotcolour,dotcolour,xotask,24,0,24,24,training,negativefb,38,easy,62,0.700351800000135,['c'],1,left,['1'],6,0.2572197999998025,,,,,,,,20,19,Vrouw,Rechts,2,
,dotcolour,dotcolour,xotask,25,0,25,25,training,negativefb,82,hard,44,0.6832701000002999,['c'],1,left,['1'],6,0.21989409999969212,,,,,,,,20,19,Vrouw,Rechts,2,
,dotcolour,dotcolour,xotask,26,0,26,26,training,negativefb,61,average,51,0.5169192000003022,['c'],1,left,['1'],6,0.22280080000018643,,,,,,,,20,19,Vrouw,Rechts,2,
,dotcolour,dotcolour,xotask,27,0,27,27,training,negativefb,69,average,27,0.7165592000001197,['n'],1,right,['1'],6,0.1859028999997463,,,,,,,,20,19,Vrouw,Rechts,2,
,dotcolour,dotcolour,xotask,28,0,28,28,training,negativefb,66,hard,44,0.8671562999998059,['c'],1,left,['3'],4,0.3599659999999858,,,,,,,,20,19,Vrouw,Rechts,2,
,dotcolour,dotcolour,xotask,29,0,29,29,training,negativefb,64,hard,39,1.4843192999996973,['c'],0,right,['3'],4,0.7748787999998967,,,,,,,,20,19,Vrouw,Rechts,2,
,dotcolour,dotcolour,xotask,30,0,30,30,training,negativefb,58,average,53,2.3988257999999405,['n'],0,left,['8'],3,0.7122388999996474,,,,,,,,20,19,Vrouw,Rechts,2,
,dotcolour,dotcolour,xotask,31,0,31,31,training,negativefb,31,hard,41,0.8499192999997831,['c'],1,left,['1'],6,0.2983418999992864,,,,,,,,20,19,Vrouw,Rechts,2,
,dotcolour,dotcolour,xotask,32,0,32,32,training,negativefb,52,hard,38,0.8986078999996607,['n'],1,right,['1'],6,0.24294539999937115,,,,,,,,20,19,Vrouw,Rechts,2,
,dotcolour,dotcolour,xotask,33,0,33,33,training,negativefb,68,hard,36,0.9498908999994455,['n'],1,right,['1'],6,0.5074629000000641,,,,,,,,20,19,Vrouw,Rechts,2,
,dotcolour,dotcolour,xotask,34,0,34,34,training,negativefb,79,hard,45,1.4675678000003245,['c'],1,left,['2'],5,0.32556709999971645,,,,,,,,20,19,Vrouw,Rechts,2,
,dotcolour,dotcolour,xotask,35,0,35,35,training,negativefb,48,easy,64,0.9829001999996763,['c'],1,left,['1'],6,0.18496719999984634,,,,,,,,20,19,Vrouw,Rechts,2,
,dotcolour,dotcolour,xotask,36,0,36,36,training,negativefb,90,hard,39,0.6992499999996653,['n'],1,right,['3'],4,1.4458401000001686,,,,,,,,20,19,Vrouw,Rechts,2,
,dotcolour,dotcolour,xotask,37,0,37,37,training,negativefb,48,average,26,1.5497053000008236,['n'],1,right,['1'],6,0.3180388999999195,,,,,,,,20,19,Vrouw,Rechts,2,
,dotcolour,dotcolour,xotask,38,0,38,38,training,negativefb,77,average,26,0.7338606999992408,['n'],1,right,['1'],6,0.34868749999986903,,,,,,,,20,19,Vrouw,Rechts,2,
,dotcolour,dotcolour,xotask,39,0,39,39,training,negativefb,55,easy,18,0.6335756999997102,['n'],1,right,['1'],6,0.16519749999952182,,,,,,,,20,19,Vrouw,Rechts,2,
,dotcolour,dotcolour,xotask,40,0,40,40,training,negativefb,59,easy,16,0.4833190999997896,['n'],1,right,['1'],6,0.18042239999977028,,,,,,,,20,19,Vrouw,Rechts,2,
,dotcolour,dotcolour,xotask,41,0,41,41,training,negativefb,66,average,29,0.799561800000447,['n'],1,right,['1'],6,0.22103789999982837,,,,,,,,20,19,Vrouw,Rechts,2,
,dotcolour,dotcolour,xotask,42,0,42,42,training,negativefb,73,easy,63,0.7330529000000752,['c'],1,left,['1'],6,0.15149790000032226,,,,,,,,20,19,Vrouw,Rechts,2,
,dotcolour,dotcolour,xotask,43,0,43,43,training,negativefb,66,hard,35,1.149708400000236,['n'],1,right,['1'],6,0.380017599999519,,,,,,,,20,19,Vrouw,Rechts,2,
,dotcolour,dotcolour,xotask,44,0,44,44,training,negativefb,88,hard,44,0.6169374999999491,['c'],1,left,['1'],6,0.16373569999996107,,,,,,,,20,19,Vrouw,Rechts,2,
,dotcolour,dotcolour,xotask,45,0,45,45,training,negativefb,63,easy,65,0.5828446000004988,['c'],1,left,['1'],6,0.17442789999950037,,,,,,,,20,19,Vrouw,Rechts,2,
,dotcolour,dotcolour,xotask,46,0,46,46,training,negativefb,86,average,51,0.799000299999534,['c'],1,left,['1'],6,0.1837970000005953,,,,,,,,20,19,Vrouw,Rechts,2,
,dotcolour,dotcolour,xotask,47,0,47,47,training,negativefb,86,average,52,0.5998727999995026,['c'],1,left,['1'],6,0.21656220000022586,,,,,,,,20,19,Vrouw,Rechts,2,
,dotcolour,dotcolour,xotask,48,0,48,48,training,negativefb,61,average,29,1.0499079000001075,['n'],1,right,['1'],6,0.30242010000074515,,,,,,,,20,19,Vrouw,Rechts,2,
,dotcolour,dotcolour,xotask,49,0,49,49,training,negativefb,47,average,55,0.6848965999997745,['n'],0,left,['0'],1,1.1915713999997024,,,,,,,,20,19,Vrouw,Rechts,2,
,dotcolour,dotcolour,xotask,50,0,50,50,training,negativefb,69,hard,38,1.2664768000004187,['n'],1,right,['1'],6,0.1174314999998387,,,,,,,,20,19,Vrouw,Rechts,2,
,dotcolour,dotcolour,xotask,51,0,51,51,training,negativefb,94,easy,15,0.5993769999995493,['n'],1,right,['1'],6,0.3443377000003238,,,,,,,,20,19,Vrouw,Rechts,2,
,dotcolour,dotcolour,xotask,52,0,52,52,training,negativefb,54,hard,35,1.1680320999994365,['c'],0,right,['1'],6,0.25286340000002383,,,,,,,,20,19,Vrouw,Rechts,2,
,dotcolour,dotcolour,xotask,53,0,53,53,training,negativefb,53,hard,36,1.098380499999621,['n'],1,right,['2'],5,0.3994991999998092,,,,,,,,20,19,Vrouw,Rechts,2,
,dotcolour,dotcolour,xotask,54,0,54,54,training,negativefb,79,average,26,0.7826816999995572,['n'],1,right,['1'],6,0.3434047999999166,,,,,,,,20,19,Vrouw,Rechts,2,
,dotcolour,dotcolour,xotask,55,0,55,55,training,negativefb,86,hard,43,1.2828300000001036,['c'],1,left,['3'],4,0.6388295999995535,,,,,,,,20,19,Vrouw,Rechts,2,
,dotcolour,dotcolour,xotask,56,0,56,56,training,negativefb,39,average,25,0.948963000000731,['n'],1,right,['2'],5,0.6159365000003163,,,,,,,,20,19,Vrouw,Rechts,2,
,dotcolour,dotcolour,xotask,57,0,57,57,training,negativefb,56,easy,19,0.6326075000006313,['n'],1,right,['1'],6,0.3106381000006877,,,,,,,,20,19,Vrouw,Rechts,2,
,dotcolour,dotcolour,xotask,58,0,58,58,training,negativefb,87,easy,61,0.6335571999998137,['c'],1,left,['1'],6,0.2812758000000031,,,,,,,,20,19,Vrouw,Rechts,2,
,dotcolour,dotcolour,xotask,59,0,59,59,training,negativefb,92,easy,17,0.667020799999591,['n'],1,right,['1'],6,0.36272660000031465,,,,,,,,20,19,Vrouw,Rechts,2,
,dotcolour,dotcolour,xotask,0,1,60,60,training,negativefb,36,hard,35,1.2672979999997551,['n'],1,right,['3'],4,0.4213289999997869,,,,,,,,20,19,Vrouw,Rechts,2,
,dotcolour,dotcolour,xotask,1,1,61,61,training,negativefb,70,easy,15,0.7487843999997494,['n'],1,right,['1'],6,0.214808599999742,,,,,,,,20,19,Vrouw,Rechts,2,
,dotcolour,dotcolour,xotask,2,1,62,62,training,negativefb,42,easy,64,0.7837522999998328,['c'],1,left,['1'],6,0.2240381999999954,,,,,,,,20,19,Vrouw,Rechts,2,
,dotcolour,dotcolour,xotask,3,1,63,63,training,negativefb,89,hard,43,1.600308699999914,['c'],1,left,['3'],4,0.7272993999995379,,,,,,,,20,19,Vrouw,Rechts,2,
,dotcolour,dotcolour,xotask,4,1,64,64,training,negativefb,50,average,54,0.765937500000291,['c'],1,left,['1'],6,0.15587450000020908,,,,,,,,20,19,Vrouw,Rechts,2,
,dotcolour,dotcolour,xotask,5,1,65,65,training,negativefb,76,hard,44,0.6166850999998132,['n'],0,left,['2'],5,0.7100185999997848,,,,,,,,20,19,Vrouw,Rechts,2,
,dotcolour,dotcolour,xotask,6,1,66,66,training,negativefb,49,hard,44,1.0324557000003551,['c'],1,left,['1'],6,0.16058820000034757,,,,,,,,20,19,Vrouw,Rechts,2,
,dotcolour,dotcolour,xotask,7,1,67,67,training,negativefb,48,hard,35,0.6836174000000028,['n'],1,right,['2'],5,0.4550390000003972,,,,,,,,20,19,Vrouw,Rechts,2,
,dotcolour,dotcolour,xotask,8,1,68,68,training,negativefb,31,hard,42,1.015866200000346,['n'],0,left,['2'],5,0.3887961999998879,,,,,,,,20,19,Vrouw,Rechts,2,
,dotcolour,dotcolour,xotask,9,1,69,69,training,negativefb,54,average,26,0.6326055999998061,['n'],1,right,['1'],6,0.37163559999953577,,,,,,,,20,19,Vrouw,Rechts,2,
,dotcolour,dotcolour,xotask,10,1,70,70,training,negativefb,31,hard,45,2.016493199999786,['n'],0,left,['2'],5,0.5721741999996084,,,,,,,,20,19,Vrouw,Rechts,2,
,dotcolour,dotcolour,xotask,11,1,71,71,training,negativefb,79,easy,17,0.7495957999999519,['n'],1,right,['1'],6,0.30405810000047495,,,,,,,,20,19,Vrouw,Rechts,2,
,dotcolour,dotcolour,xotask,12,1,72,72,training,negativefb,55,hard,35,1.0998834000001807,['n'],1,right,['3'],4,0.5918027000006987,,,,,,,,20,19,Vrouw,Rechts,2,
,dotcolour,dotcolour,xotask,13,1,73,73,training,negativefb,96,easy,63,0.7169174999999086,['c'],1,left,['1'],6,0.30812349999996513,,,,,,,,20,19,Vrouw,Rechts,2,
,dotcolour,dotcolour,xotask,14,1,74,74,training,negativefb,92,average,52,0.8669670999997834,['c'],1,left,['1'],6,0.24519510000027367,,,,,,,,20,19,Vrouw,Rechts,2,
,dotcolour,dotcolour,xotask,15,1,75,75,training,negativefb,94,average,26,0.9493052999996507,['n'],1,right,['1'],6,0.2859342000001561,,,,,,,,20,19,Vrouw,Rechts,2,
,dotcolour,dotcolour,xotask,16,1,76,76,training,negativefb,79,easy,64,0.7657533999999941,['c'],1,left,['1'],6,0.24381799999991927,,,,,,,,20,19,Vrouw,Rechts,2,
,dotcolour,dotcolour,xotask,17,1,77,77,training,negativefb,68,easy,15,0.5331484999996974,['n'],1,right,['1'],6,0.27705430000060005,,,,,,,,20,19,Vrouw,Rechts,2,
,dotcolour,dotcolour,xotask,18,1,78,78,training,negativefb,44,hard,44,0.7494099000005008,['c'],1,left,['1'],6,0.24488560000008874,,,,,,,,20,19,Vrouw,Rechts,2,
,dotcolour,dotcolour,xotask,19,1,79,79,training,negativefb,38,hard,41,1.382141000000047,['c'],1,left,['1'],6,0.22028279999994993,,,,,,,,20,19,Vrouw,Rechts,2,
,dotcolour,dotcolour,xotask,20,1,80,80,training,negativefb,78,hard,36,0.6823894999997719,['n'],1,right,['1'],6,0.17601300000023912,,,,,,,,20,19,Vrouw,Rechts,2,
,dotcolour,dotcolour,xotask,21,1,81,81,training,negativefb,91,hard,39,1.2331601000005321,['c'],0,right,['1'],6,0.2966675999996369,,,,,,,,20,19,Vrouw,Rechts,2,
,dotcolour,dotcolour,xotask,22,1,82,82,training,negativefb,35,easy,65,0.5497557999997298,['c'],1,left,['1'],6,0.11198650000005728,,,,,,,,20,19,Vrouw,Rechts,2,
,dotcolour,dotcolour,xotask,23,1,83,83,training,negativefb,60,easy,16,0.5337187999994057,['n'],1,right,['1'],6,0.10995850000017526,,,,,,,,20,19,Vrouw,Rechts,2,
,dotcolour,dotcolour,xotask,24,1,84,84,training,negativefb,86,easy,15,0.6664027999995596,['n'],1,right,['1'],6,0.23118369999974675,,,,,,,,20,19,Vrouw,Rechts,2,
,dotcolour,dotcolour,xotask,25,1,85,85,training,negativefb,36,easy,15,0.6000819999999294,['n'],1,right,['1'],6,0.12684119999994437,,,,,,,,20,19,Vrouw,Rechts,2,
,dotcolour,dotcolour,xotask,26,1,86,86,training,negativefb,64,hard,38,0.984607600000345,['n'],1,right,['3'],4,0.5230345999998463,,,,,,,,20,19,Vrouw,Rechts,2,
,dotcolour,dotcolour,xotask,27,1,87,87,training,negativefb,68,average,28,1.0007329000000027,['n'],1,right,['2'],5,0.38156290000006265,,,,,,,,20,19,Vrouw,Rechts,2,
,dotcolour,dotcolour,xotask,28,1,88,88,training,negativefb,52,average,25,0.4837502999998833,['n'],1,right,['1'],6,0.2348679999995511,,,,,,,,20,19,Vrouw,Rechts,2,
,dotcolour,dotcolour,xotask,29,1,89,89,training,negativefb,67,hard,35,0.7664502000006905,['n'],1,right,['1'],6,0.48430719999942085,,,,,,,,20,19,Vrouw,Rechts,2,
,dotcolour,dotcolour,xotask,30,1,90,90,training,negativefb,44,average,51,1.1505816999997478,['n'],0,left,['2'],5,0.3709067999998297,,,,,,,,20,19,Vrouw,Rechts,2,
,dotcolour,dotcolour,xotask,31,1,91,91,training,negativefb,78,average,28,0.9988985999998476,['n'],1,right,['3'],4,0.8355178000001615,,,,,,,,20,19,Vrouw,Rechts,2,
,dotcolour,dotcolour,xotask,32,1,92,92,training,negativefb,88,easy,65,0.8008178000000044,['c'],1,left,['1'],6,0.21788130000004458,,,,,,,,20,19,Vrouw,Rechts,2,
,dotcolour,dotcolour,xotask,33,1,93,93,training,negativefb,87,average,25,0.6661140999995041,['n'],1,right,['1'],6,0.2554344999998648,,,,,,,,20,19,Vrouw,Rechts,2,
,dotcolour,dotcolour,xotask,34,1,94,94,training,negativefb,70,easy,62,0.7164552999993248,['c'],1,left,['1'],6,0.2645609000001059,,,,,,,,20,19,Vrouw,Rechts,2,
,dotcolour,dotcolour,xotask,35,1,95,95,training,negativefb,77,easy,65,0.633654000000206,['c'],1,left,['1'],6,0.2291678999999931,,,,,,,,20,19,Vrouw,Rechts,2,
,dotcolour,dotcolour,xotask,36,1,96,96,training,negativefb,88,easy,18,0.6668634000006932,['n'],1,right,['1'],6,0.329609999999775,,,,,,,,20,19,Vrouw,Rechts,2,
,dotcolour,dotcolour,xotask,37,1,97,97,training,negativefb,63,easy,18,0.7156939000005877,['n'],1,right,['1'],6,0.20838649999950576,,,,,,,,20,19,Vrouw,Rechts,2,
,dotcolour,dotcolour,xotask,38,1,98,98,training,negativefb,57,average,54,0.6494528000002902,['c'],1,left,['1'],6,0.16649859999961336,,,,,,,,20,19,Vrouw,Rechts,2,
,dotcolour,dotcolour,xotask,39,1,99,99,training,negativefb,66,average,54,0.7007718000004388,['c'],1,left,['1'],6,0.14000920000034967,,,,,,,,20,19,Vrouw,Rechts,2,
,dotcolour,dotcolour,xotask,40,1,100,100,training,negativefb,55,average,53,0.7507265000003827,['c'],1,left,['1'],6,0.13694370000030176,,,,,,,,20,19,Vrouw,Rechts,2,
,dotcolour,dotcolour,xotask,41,1,101,101,training,negativefb,65,average,25,0.7341476999999941,['n'],1,right,['1'],6,0.2702916999996887,,,,,,,,20,19,Vrouw,Rechts,2,
,dotcolour,dotcolour,xotask,42,1,102,102,training,negativefb,90,easy,64,0.666036499999791,['c'],1,left,['1'],6,0.15349309999965044,,,,,,,,20,19,Vrouw,Rechts,2,
,dotcolour,dotcolour,xotask,43,1,103,103,training,negativefb,62,average,29,0.617515299999468,['n'],1,right,['1'],6,0.23497450000013487,,,,,,,,20,19,Vrouw,Rechts,2,
,dotcolour,dotcolour,xotask,44,1,104,104,training,negativefb,61,hard,45,0.5171319000000949,['c'],1,left,['1'],6,0.157225599999947,,,,,,,,20,19,Vrouw,Rechts,2,
,dotcolour,dotcolour,xotask,45,1,105,105,training,negativefb,56,easy,65,0.4829600000002756,['c'],1,left,['1'],6,0.09954220000054192,,,,,,,,20,19,Vrouw,Rechts,2,
,dotcolour,dotcolour,xotask,46,1,106,106,training,negativefb,72,average,53,0.6670110999993994,['c'],1,left,['1'],6,0.10107869999956165,,,,,,,,20,19,Vrouw,Rechts,2,
,dotcolour,dotcolour,xotask,47,1,107,107,training,negativefb,82,easy,16,0.5334049000002778,['n'],1,right,['1'],6,0.20388749999983702,,,,,,,,20,19,Vrouw,Rechts,2,
,dotcolour,dotcolour,xotask,48,1,108,108,training,negativefb,69,average,28,0.6312761000008322,['n'],1,right,['1'],6,0.24257609999949636,,,,,,,,20,19,Vrouw,Rechts,2,
,dotcolour,dotcolour,xotask,49,1,109,109,training,negativefb,44,average,52,0.6839626999999382,['c'],1,left,['1'],6,0.11809870000070077,,,,,,,,20,19,Vrouw,Rechts,2,
,dotcolour,dotcolour,xotask,50,1,110,110,training,negativefb,40,hard,35,1.0825978000002578,['n'],1,right,['2'],5,0.34897989999990386,,,,,,,,20,19,Vrouw,Rechts,2,
,dotcolour,dotcolour,xotask,51,1,111,111,training,negativefb,45,average,26,0.6669661000005362,['n'],1,right,['1'],6,0.4852098000001206,,,,,,,,20,19,Vrouw,Rechts,2,
,dotcolour,dotcolour,xotask,52,1,112,112,training,negativefb,49,hard,37,1.2334811999999147,['n'],1,right,['3'],4,0.5206409000002168,,,,,,,,20,19,Vrouw,Rechts,2,
,dotcolour,dotcolour,xotask,53,1,113,113,training,negativefb,43,average,53,1.0659013000004052,['c'],1,left,['1'],6,0.6168135999996593,,,,,,,,20,19,Vrouw,Rechts,2,
,dotcolour,dotcolour,xotask,54,1,114,114,training,negativefb,67,hard,45,1.2336660000000848,['c'],1,left,['3'],4,0.2946500999996715,,,,,,,,20,19,Vrouw,Rechts,2,
,dotcolour,dotcolour,xotask,55,1,115,115,training,negativefb,67,average,51,0.8151045999993585,['c'],1,left,['1'],6,0.563583699999981,,,,,,,,20,19,Vrouw,Rechts,2,
,dotcolour,dotcolour,xotask,56,1,116,116,training,negativefb,59,easy,62,0.9159853999999541,['c'],1,left,['1'],6,0.2008923000003051,,,,,,,,20,19,Vrouw,Rechts,2,
,dotcolour,dotcolour,xotask,57,1,117,117,training,negativefb,49,hard,44,1.2496651999999813,['c'],1,left,['3'],4,0.32602549999955954,,,,,,,,20,19,Vrouw,Rechts,2,
,dotcolour,dotcolour,xotask,58,1,118,118,training,negativefb,61,hard,37,1.0495322000006126,['n'],1,right,['1'],6,0.31205099999988306,,,,,,,,20,19,Vrouw,Rechts,2,
,dotcolour,dotcolour,xotask,59,1,119,119,training,negativefb,74,easy,19,0.8498224000004484,['n'],1,right,['1'],6,0.33748910000031174,,,,,,,,20,19,Vrouw,Rechts,2,
,xotask,dotcolour,xotask,0,2,120,120,main,negativefb,-99,easy,,1.4173270999999659,['n'],1,right,['1'],6,0.600717799999984,9,,,,,,,20,19,Vrouw,Rechts,2,
,xotask,dotcolour,xotask,1,2,121,121,main,negativefb,-99,average,,1.0839538999998695,['n'],1,right,['3'],4,0.37454040000011446,16,,,,,,,20,19,Vrouw,Rechts,2,
,xotask,dotcolour,xotask,2,2,122,122,main,negativefb,-99,easy,,0.833504900000662,['c'],1,left,['2'],5,0.35927600000013626,72,,,,,,,20,19,Vrouw,Rechts,2,
,xotask,dotcolour,xotask,3,2,123,123,main,negativefb,-99,easy,,2.0332612000001973,['c'],1,left,['8'],3,0.8888833000000886,73,,,,,,,20,19,Vrouw,Rechts,2,
,xotask,dotcolour,xotask,4,2,124,124,main,negativefb,-99,average,,2.4671926999999414,['n'],1,right,['8'],3,0.36380539999936445,19,,,,,,,20,19,Vrouw,Rechts,2,
,xotask,dotcolour,xotask,5,2,125,125,main,negativefb,-99,hard,,1.0838989000003494,['c'],1,left,['3'],4,0.2506356000003507,50,,,,,,,20,19,Vrouw,Rechts,2,
,xotask,dotcolour,xotask,6,2,126,126,main,negativefb,-99,hard,,1.4011928999998418,['c'],1,left,['2'],5,0.24909050000042043,54,,,,,,,20,19,Vrouw,Rechts,2,
,xotask,dotcolour,xotask,7,2,127,127,main,negativefb,-99,easy,,1.0505917000000409,['c'],1,left,['1'],6,0.9500711000000592,71,,,,,,,20,19,Vrouw,Rechts,2,
,xotask,dotcolour,xotask,8,2,128,128,main,negativefb,-99,average,,1.000392599999941,['c'],1,left,['2'],5,0.13686830000006012,60,,,,,,,20,19,Vrouw,Rechts,2,
,xotask,dotcolour,xotask,9,2,129,129,main,negativefb,-99,easy,,0.8173905000003288,['n'],1,right,['1'],6,0.3719708000007813,8,,,,,,,20,19,Vrouw,Rechts,2,
,xotask,dotcolour,xotask,10,2,130,130,main,negativefb,-99,hard,,0.6836214000004475,['n'],1,right,['1'],6,0.17804749999959313,28,,,,,,,20,19,Vrouw,Rechts,2,
,xotask,dotcolour,xotask,11,2,131,131,main,negativefb,-99,hard,,1.6175135999992563,['c'],1,left,['2'],5,0.6676863000002413,52,,,,,,,20,19,Vrouw,Rechts,2,
,xotask,dotcolour,xotask,12,2,132,132,main,negativefb,-99,hard,,0.9841961000001902,['c'],0,right,['2'],5,0.3939221999999063,28,,,,,,,20,19,Vrouw,Rechts,2,
,xotask,dotcolour,xotask,13,2,133,133,main,negativefb,-99,hard,,0.9350846999996065,['c'],1,left,['1'],6,0.28661190000002534,54,,,,,,,20,19,Vrouw,Rechts,2,
,xotask,dotcolour,xotask,14,2,134,134,main,negativefb,-99,easy,,0.8177279000001363,['n'],1,right,['2'],5,0.9468581000000995,5,,,,,,,20,19,Vrouw,Rechts,2,
,xotask,dotcolour,xotask,15,2,135,135,main,negativefb,-99,hard,,1.1518801000001986,['n'],0,left,['3'],4,0.5526116999999431,50,,,,,,,20,19,Vrouw,Rechts,2,
,xotask,dotcolour,xotask,16,2,136,136,main,negativefb,-99,hard,,1.418317699999534,['c'],1,left,['3'],4,0.5701738999996451,53,,,,,,,20,19,Vrouw,Rechts,2,
,xotask,dotcolour,xotask,17,2,137,137,main,negativefb,-99,average,,1.1169900000004418,['c'],1,left,['3'],4,0.4725845999992089,60,,,,,,,20,19,Vrouw,Rechts,2,
,xotask,dotcolour,xotask,18,2,138,138,main,negativefb,-99,hard,,0.933367200000248,['c'],1,left,['3'],4,0.2486676999997144,50,,,,,,,20,19,Vrouw,Rechts,2,
,xotask,dotcolour,xotask,19,2,139,139,main,negativefb,-99,easy,,1.0344672000001083,['c'],1,left,['2'],5,0.5184251000000586,71,,,,,,,20,19,Vrouw,Rechts,2,
,xotask,dotcolour,xotask,20,2,140,140,main,negativefb,-99,hard,,1.4171550000000934,['n'],1,right,['8'],3,0.9939930999998978,28,,,,,,,20,19,Vrouw,Rechts,2,
,xotask,dotcolour,xotask,21,2,141,141,main,negativefb,-99,average,,1.017593300000044,['c'],0,right,['3'],4,0.7066240000003745,19,,,,,,,20,19,Vrouw,Rechts,2,
,xotask,dotcolour,xotask,22,2,142,142,main,negativefb,-99,average,,0.9014879999995173,['c'],1,left,['3'],4,0.4435363000002326,60,,,,,,,20,19,Vrouw,Rechts,2,
,xotask,dotcolour,xotask,23,2,143,143,main,negativefb,-99,hard,,0.9335734000005687,['c'],1,left,['3'],4,0.34917459999996936,50,,,,,,,20,19,Vrouw,Rechts,2,
,xotask,dotcolour,xotask,24,2,144,144,main,negativefb,-99,average,,1.6495105000003605,['c'],0,right,['3'],4,0.18938269999944168,16,,,,,,,20,19,Vrouw,Rechts,2,
,xotask,dotcolour,xotask,25,2,145,145,main,negativefb,-99,easy,,0.784194099999695,['c'],1,left,['2'],5,0.35213410000051226,74,,,,,,,20,19,Vrouw,Rechts,2,
,xotask,dotcolour,xotask,26,2,146,146,main,negativefb,-99,average,,1.000118800000564,['n'],1,right,['1'],6,0.29836689999956434,19,,,,,,,20,19,Vrouw,Rechts,2,
,xotask,dotcolour,xotask,27,2,147,147,main,negativefb,-99,hard,,0.967666100000315,['c'],1,left,['1'],6,0.22399849999965227,54,,,,,,,20,19,Vrouw,Rechts,2,
,xotask,dotcolour,xotask,28,2,148,148,main,negativefb,-99,average,,0.7678590000004988,['c'],1,left,['1'],6,0.15446520000023156,61,,,,,,,20,19,Vrouw,Rechts,2,
,xotask,dotcolour,xotask,29,2,149,149,main,negativefb,-99,hard,,1.567462599999999,['n'],1,right,['1'],6,0.3663182999998753,27,,,,,,,20,19,Vrouw,Rechts,2,
,xotask,dotcolour,xotask,30,2,150,150,main,negativefb,-99,easy,,1.4684553999995842,['n'],1,right,['1'],6,0.2292712999997093,7,,,,,,,20,19,Vrouw,Rechts,2,
,xotask,dotcolour,xotask,31,2,151,151,main,negativefb,-99,easy,,0.8339993999998114,['n'],1,right,['2'],5,0.5480584000006274,8,,,,,,,20,19,Vrouw,Rechts,2,
,xotask,dotcolour,xotask,32,2,152,152,main,negativefb,-99,hard,,2.999527599999965,['c'],1,left,['8'],3,0.39950409999983094,54,,,,,,,20,19,Vrouw,Rechts,2,
,xotask,dotcolour,xotask,33,2,153,153,main,negativefb,-99,average,,0.8009830000000875,['c'],1,left,['1'],6,0.25605149999955756,61,,,,,,,20,19,Vrouw,Rechts,2,
,xotask,dotcolour,xotask,34,2,154,154,main,negativefb,-99,easy,,0.683623500000067,['n'],1,right,['1'],6,0.18746879999980592,9,,,,,,,20,19,Vrouw,Rechts,2,
,xotask,dotcolour,xotask,35,2,155,155,main,negativefb,-99,average,,0.6847656999998435,['c'],1,left,['1'],6,0.08962979999978415,62,,,,,,,20,19,Vrouw,Rechts,2,
,xotask,dotcolour,xotask,36,2,156,156,main,negativefb,-99,average,,0.667159200000242,['c'],1,left,['1'],6,0.012241800000083458,64,,,,,,,20,19,Vrouw,Rechts,2,
,xotask,dotcolour,xotask,37,2,157,157,main,negativefb,-99,easy,,0.6514403999999558,['n'],1,right,['1'],6,0.3384855999993306,7,,,,,,,20,19,Vrouw,Rechts,2,
,xotask,dotcolour,xotask,38,2,158,158,main,negativefb,-99,hard,,0.73325449999993,['n'],1,right,['1'],6,0.1611618000006274,27,,,,,,,20,19,Vrouw,Rechts,2,
,xotask,dotcolour,xotask,39,2,159,159,main,negativefb,-99,hard,,1.5511247000004005,['n'],1,right,['2'],5,0.4057493999998769,28,,,,,,,20,19,Vrouw,Rechts,2,
,xotask,dotcolour,xotask,40,2,160,160,main,negativefb,-99,average,,0.7509927999999491,['n'],1,right,['1'],6,0.39261350000015227,19,,,,,,,20,19,Vrouw,Rechts,2,
,xotask,dotcolour,xotask,41,2,161,161,main,negativefb,-99,hard,,1.0338950999994267,['n'],1,right,['3'],4,1.2239963000001808,26,,,,,,,20,19,Vrouw,Rechts,2,
,xotask,dotcolour,xotask,42,2,162,162,main,negativefb,-99,average,,1.3497729999999137,['n'],1,right,['1'],6,1.1221505000003162,16,,,,,,,20,19,Vrouw,Rechts,2,
,xotask,dotcolour,xotask,43,2,163,163,main,negativefb,-99,easy,,0.8009643000004871,['c'],1,left,['1'],6,0.24734319999970467,71,,,,,,,20,19,Vrouw,Rechts,2,
,xotask,dotcolour,xotask,44,2,164,164,main,negativefb,-99,hard,,0.6352262999998857,['c'],0,right,['1'],6,0.26849489999949583,28,,,,,,,20,19,Vrouw,Rechts,2,
,xotask,dotcolour,xotask,45,2,165,165,main,negativefb,-99,easy,,1.0005786000001535,['n'],1,right,['3'],4,0.9225040000001172,5,,,,,,,20,19,Vrouw,Rechts,2,
,xotask,dotcolour,xotask,46,2,166,166,main,negativefb,-99,easy,,0.8503637000003437,['c'],1,left,['1'],6,0.24514559999988705,73,,,,,,,20,19,Vrouw,Rechts,2,
,xotask,dotcolour,xotask,47,2,167,167,main,negativefb,-99,average,,1.0507544000001872,['c'],1,left,['3'],4,0.5303956999996444,63,,,,,,,20,19,Vrouw,Rechts,2,
,xotask,dotcolour,xotask,48,2,168,168,main,negativefb,-99,hard,,0.7178845000007641,['n'],1,right,['3'],4,0.5050026999997499,27,,,,,,,20,19,Vrouw,Rechts,2,
,xotask,dotcolour,xotask,49,2,169,169,main,negativefb,-99,average,,0.799952100000155,['c'],1,left,['3'],4,0.43103460000020277,62,,,,,,,20,19,Vrouw,Rechts,2,
,xotask,dotcolour,xotask,50,2,170,170,main,negativefb,-99,easy,,0.6507495000005292,['c'],1,left,['1'],6,0.2607092999996894,71,,,,,,,20,19,Vrouw,Rechts,2,
,xotask,dotcolour,xotask,51,2,171,171,main,negativefb,-99,easy,,0.566561399999955,['c'],1,left,['1'],6,0.28497129999959725,72,,,,,,,20,19,Vrouw,Rechts,2,
,xotask,dotcolour,xotask,52,2,172,172,main,negativefb,-99,average,,0.5996165999995355,['c'],1,left,['1'],6,0.2417617999999493,61,,,,,,,20,19,Vrouw,Rechts,2,
,xotask,dotcolour,xotask,53,2,173,173,main,negativefb,-99,easy,,0.8838167000003523,['n'],1,right,['1'],6,0.22188139999980194,8,,,,,,,20,19,Vrouw,Rechts,2,
,xotask,dotcolour,xotask,54,2,174,174,main,negativefb,-99,average,,0.6342719000003854,['n'],1,right,['1'],6,0.14835260000018025,16,,,,,,,20,19,Vrouw,Rechts,2,
,xotask,dotcolour,xotask,55,2,175,175,main,negativefb,-99,easy,,0.617159299999912,['c'],1,left,['1'],6,0.14238360000035755,70,,,,,,,20,19,Vrouw,Rechts,2,
,xotask,dotcolour,xotask,56,2,176,176,main,negativefb,-99,average,,0.6841138999998293,['n'],1,right,['1'],6,0.21452590000080818,18,,,,,,,20,19,Vrouw,Rechts,2,
,xotask,dotcolour,xotask,57,2,177,177,main,negativefb,-99,average,,0.7335846999994828,['n'],1,right,['1'],6,0.1936931000000186,15,,,,,,,20,19,Vrouw,Rechts,2,
,xotask,dotcolour,xotask,58,2,178,178,main,negativefb,-99,easy,,0.600670099999661,['n'],1,right,['1'],6,0.18805850000080682,5,,,,,,,20,19,Vrouw,Rechts,2,
,xotask,dotcolour,xotask,59,2,179,179,main,negativefb,-99,hard,,0.7840866000005917,['c'],0,right,['1'],6,0.22893560000011348,26,,,,,,,20,19,Vrouw,Rechts,2,
,xotask,dotcolour,xotask,0,3,180,180,main,negativefb,-99,average,,1.5833622000000105,['c'],0,right,['3'],4,0.9577204999995956,15,,,,,,,20,19,Vrouw,Rechts,2,
,xotask,dotcolour,xotask,1,3,181,181,main,negativefb,-99,average,,0.6676841999997123,['c'],0,right,['1'],6,0.5808427000001757,18,,,,,,,20,19,Vrouw,Rechts,2,
,xotask,dotcolour,xotask,2,3,182,182,main,negativefb,-99,easy,,0.6672147999997833,['n'],1,right,['1'],6,0.23576260000027105,7,,,,,,,20,19,Vrouw,Rechts,2,
,xotask,dotcolour,xotask,3,3,183,183,main,negativefb,-99,hard,,1.2499327000004996,['c'],1,left,['1'],6,0.3224938999992446,53,,,,,,,20,19,Vrouw,Rechts,2,
,xotask,dotcolour,xotask,4,3,184,184,main,negativefb,-99,hard,,1.3672592000002624,['c'],0,right,['3'],4,0.5189233999999487,28,,,,,,,20,19,Vrouw,Rechts,2,
,xotask,dotcolour,xotask,5,3,185,185,main,negativefb,-99,easy,,0.6837239000005866,['n'],1,right,['1'],6,0.23966860000018642,8,,,,,,,20,19,Vrouw,Rechts,2,
,xotask,dotcolour,xotask,6,3,186,186,main,negativefb,-99,hard,,1.866959400000269,['c'],0,right,['3'],4,0.49991680000039196,27,,,,,,,20,19,Vrouw,Rechts,2,
,xotask,dotcolour,xotask,7,3,187,187,main,negativefb,-99,easy,,0.8011713000005329,['n'],1,right,['1'],6,0.15272059999915655,9,,,,,,,20,19,Vrouw,Rechts,2,
,xotask,dotcolour,xotask,8,3,188,188,main,negativefb,-99,hard,,1.0838311999996222,['c'],0,right,['0'],1,1.1682123999999021,25,,,,,,,20,19,Vrouw,Rechts,2,
,xotask,dotcolour,xotask,9,3,189,189,main,negativefb,-99,average,,0.8836433000005854,['c'],1,left,['1'],6,0.21481570000014472,62,,,,,,,20,19,Vrouw,Rechts,2,
,xotask,dotcolour,xotask,10,3,190,190,main,negativefb,-99,easy,,0.6672643000001699,['c'],1,left,['1'],6,0.28490210000018124,72,,,,,,,20,19,Vrouw,Rechts,2,
,xotask,dotcolour,xotask,11,3,191,191,main,negativefb,-99,average,,0.7498327000002973,['c'],1,left,['1'],6,0.3642658999997366,61,,,,,,,20,19,Vrouw,Rechts,2,
,xotask,dotcolour,xotask,12,3,192,192,main,negativefb,-99,hard,,0.4015355000001364,['n'],1,right,['1'],6,0.34293410000009317,27,,,,,,,20,19,Vrouw,Rechts,2,
,xotask,dotcolour,xotask,13,3,193,193,main,negativefb,-99,average,,0.6503170000005412,['c'],1,left,['1'],6,0.17662569999993138,62,,,,,,,20,19,Vrouw,Rechts,2,
,xotask,dotcolour,xotask,14,3,194,194,main,negativefb,-99,easy,,1.4502567999998064,['n'],0,left,['3'],4,0.7206926000008025,70,,,,,,,20,19,Vrouw,Rechts,2,
,xotask,dotcolour,xotask,15,3,195,195,main,negativefb,-99,easy,,0.667685899999924,['n'],1,right,['1'],6,0.2653343000001769,9,,,,,,,20,19,Vrouw,Rechts,2,
,xotask,dotcolour,xotask,16,3,196,196,main,negativefb,-99,average,,0.9663265999997748,['n'],1,right,['1'],6,0.28154300000005605,17,,,,,,,20,19,Vrouw,Rechts,2,
,xotask,dotcolour,xotask,17,3,197,197,main,negativefb,-99,average,,0.799923999999919,['c'],1,left,['1'],6,0.18261160000020027,60,,,,,,,20,19,Vrouw,Rechts,2,
,xotask,dotcolour,xotask,18,3,198,198,main,negativefb,-99,hard,,0.6168649000001096,['c'],1,left,['1'],6,0.1760071999997308,53,,,,,,,20,19,Vrouw,Rechts,2,
,xotask,dotcolour,xotask,19,3,199,199,main,negativefb,-99,hard,,0.6004029000005175,['c'],1,left,['1'],6,0.1937218999992183,51,,,,,,,20,19,Vrouw,Rechts,2,
,xotask,dotcolour,xotask,20,3,200,200,main,negativefb,-99,average,,0.6168870999999854,['c'],1,left,['1'],6,0.1947481000006519,61,,,,,,,20,19,Vrouw,Rechts,2,
,xotask,dotcolour,xotask,21,3,201,201,main,negativefb,-99,easy,,0.8840924999994968,['n'],1,right,['1'],6,0.21673139999984414,9,,,,,,,20,19,Vrouw,Rechts,2,
,xotask,dotcolour,xotask,22,3,202,202,main,negativefb,-99,average,,2.7334864999993442,['n'],0,left,['3'],4,0.9149197999995522,60,,,,,,,20,19,Vrouw,Rechts,2,
,xotask,dotcolour,xotask,23,3,203,203,main,negativefb,-99,easy,,1.3673234999996566,['c'],1,left,['2'],5,0.3129478000000745,74,,,,,,,20,19,Vrouw,Rechts,2,
,xotask,dotcolour,xotask,24,3,204,204,main,negativefb,-99,average,,0.6500287999997454,['c'],1,left,['1'],6,0.06019980000019132,62,,,,,,,20,19,Vrouw,Rechts,2,
,xotask,dotcolour,xotask,25,3,205,205,main,negativefb,-99,easy,,0.5501239000004716,['c'],1,left,['1'],6,0.06802710000010848,71,,,,,,,20,19,Vrouw,Rechts,2,
,xotask,dotcolour,xotask,26,3,206,206,main,negativefb,-99,hard,,0.5840779000000111,['c'],1,left,['1'],6,0.13920609999968292,52,,,,,,,20,19,Vrouw,Rechts,2,
,xotask,dotcolour,xotask,27,3,207,207,main,negativefb,-99,average,,1.368208599999889,['n'],1,right,['1'],6,0.2155233000003136,15,,,,,,,20,19,Vrouw,Rechts,2,
,xotask,dotcolour,xotask,28,3,208,208,main,negativefb,-99,easy,,1.3517314000000624,['n'],1,right,['1'],6,0.4969253999997818,6,,,,,,,20,19,Vrouw,Rechts,2,
,xotask,dotcolour,xotask,29,3,209,209,main,negativefb,-99,easy,,0.9172961999993277,['c'],1,left,['1'],6,0.16280150000056892,73,,,,,,,20,19,Vrouw,Rechts,2,
,xotask,dotcolour,xotask,30,3,210,210,main,negativefb,-99,easy,,0.4991180999995777,['c'],1,left,['1'],6,0.15333000000009633,73,,,,,,,20,19,Vrouw,Rechts,2,
,xotask,dotcolour,xotask,31,3,211,211,main,negativefb,-99,average,,0.5002127999996446,['c'],1,left,['1'],6,0.10343689999990602,62,,,,,,,20,19,Vrouw,Rechts,2,
,xotask,dotcolour,xotask,32,3,212,212,main,negativefb,-99,hard,,0.8841307000002416,['n'],1,right,['1'],6,0.18483839999953489,27,,,,,,,20,19,Vrouw,Rechts,2,
,xotask,dotcolour,xotask,33,3,213,213,main,negativefb,-99,hard,,0.7841579999994792,['c'],1,left,['1'],6,0.10687120000056893,54,,,,,,,20,19,Vrouw,Rechts,2,
,xotask,dotcolour,xotask,34,3,214,214,main,negativefb,-99,average,,0.867514200000187,['n'],1,right,['1'],6,0.25305310000021564,15,,,,,,,20,19,Vrouw,Rechts,2,
,xotask,dotcolour,xotask,35,3,215,215,main,negativefb,-99,easy,,0.9004042999995363,['c'],1,left,['1'],6,0.1356171000006725,71,,,,,,,20,19,Vrouw,Rechts,2,
,xotask,dotcolour,xotask,36,3,216,216,main,negativefb,-99,hard,,1.2511606000007305,['n'],0,left,['9'],2,0.9290735000004133,53,,,,,,,20,19,Vrouw,Rechts,2,
,xotask,dotcolour,xotask,37,3,217,217,main,negativefb,-99,hard,,1.5838579999999638,['n'],1,right,['1'],6,0.23734039999999368,29,,,,,,,20,19,Vrouw,Rechts,2,
,xotask,dotcolour,xotask,38,3,218,218,main,negativefb,-99,hard,,1.416553400000339,['n'],1,right,['1'],6,0.33199490000060905,28,,,,,,,20,19,Vrouw,Rechts,2,
,xotask,dotcolour,xotask,39,3,219,219,main,negativefb,-99,hard,,0.8512676000000283,['c'],1,left,['1'],6,0.15024170000015147,52,,,,,,,20,19,Vrouw,Rechts,2,
,xotask,dotcolour,xotask,40,3,220,220,main,negativefb,-99,hard,,2.2504220999999234,['n'],1,right,['8'],3,0.7019341000004715,25,,,,,,,20,19,Vrouw,Rechts,2,
,xotask,dotcolour,xotask,41,3,221,221,main,negativefb,-99,easy,,0.684189200000219,['c'],1,left,['1'],6,0.09584880000056728,72,,,,,,,20,19,Vrouw,Rechts,2,
,xotask,dotcolour,xotask,42,3,222,222,main,negativefb,-99,hard,,2.3670180999997683,['n'],0,left,['8'],3,0.7111010999997234,53,,,,,,,20,19,Vrouw,Rechts,2,
,xotask,dotcolour,xotask,43,3,223,223,main,negativefb,-99,easy,,0.8172449000003326,['n'],1,right,['1'],6,0.09872959999938757,6,,,,,,,20,19,Vrouw,Rechts,2,
,xotask,dotcolour,xotask,44,3,224,224,main,negativefb,-99,average,,1.0506654000000708,['n'],1,right,['1'],6,0.1973074000006818,19,,,,,,,20,19,Vrouw,Rechts,2,
,xotask,dotcolour,xotask,45,3,225,225,main,negativefb,-99,easy,,0.6336618000004819,['n'],1,right,['1'],6,0.4378822999997283,6,,,,,,,20,19,Vrouw,Rechts,2,
,xotask,dotcolour,xotask,46,3,226,226,main,negativefb,-99,average,,0.7677957000005335,['n'],1,right,['3'],4,0.7018969000000652,16,,,,,,,20,19,Vrouw,Rechts,2,
,xotask,dotcolour,xotask,47,3,227,227,main,negativefb,-99,easy,,0.6184591000001092,['n'],1,right,['1'],6,0.21052640000016254,8,,,,,,,20,19,Vrouw,Rechts,2,
,xotask,dotcolour,xotask,48,3,228,228,main,negativefb,-99,average,,0.6511905999996088,['c'],1,left,['1'],6,0.12900730000001204,60,,,,,,,20,19,Vrouw,Rechts,2,
,xotask,dotcolour,xotask,49,3,229,229,main,negativefb,-99,easy,,0.3990185000002384,['c'],0,right,['1'],6,0.14072639999994863,8,,,,,,,20,19,Vrouw,Rechts,2,
,xotask,dotcolour,xotask,50,3,230,230,main,negativefb,-99,easy,,0.5850743000000875,['n'],0,left,['0'],1,0.8974844999993365,70,,,,,,,20,19,Vrouw,Rechts,2,
,xotask,dotcolour,xotask,51,3,231,231,main,negativefb,-99,hard,,0.8171307000002344,['c'],1,left,['1'],6,0.062406900000496535,50,,,,,,,20,19,Vrouw,Rechts,2,
,xotask,dotcolour,xotask,52,3,232,232,main,negativefb,-99,average,,0.8836330000003727,['n'],1,right,['1'],6,0.35240739999971993,17,,,,,,,20,19,Vrouw,Rechts,2,
,xotask,dotcolour,xotask,53,3,233,233,main,negativefb,-99,hard,,0.7170759000000544,['c'],1,left,['1'],6,0.2475293999996211,50,,,,,,,20,19,Vrouw,Rechts,2,
,xotask,dotcolour,xotask,54,3,234,234,main,negativefb,-99,average,,0.8522421999996368,['n'],1,right,['1'],6,0.1638585000000603,15,,,,,,,20,19,Vrouw,Rechts,2,
,xotask,dotcolour,xotask,55,3,235,235,main,negativefb,-99,average,,0.7178403000007165,['c'],1,left,['1'],6,0.13088520000019344,62,,,,,,,20,19,Vrouw,Rechts,2,
,xotask,dotcolour,xotask,56,3,236,236,main,negativefb,-99,hard,,0.5342539000002944,['c'],0,right,['1'],6,0.1534832000006645,26,,,,,,,20,19,Vrouw,Rechts,2,
,xotask,dotcolour,xotask,57,3,237,237,main,negativefb,-99,easy,,0.6670593000008012,['c'],1,left,['1'],6,0.08921830000053887,74,,,,,,,20,19,Vrouw,Rechts,2,
,xotask,dotcolour,xotask,58,3,238,238,main,negativefb,-99,hard,,0.834556199999497,['n'],1,right,['1'],6,0.19008539999958884,26,,,,,,,20,19,Vrouw,Rechts,2,
,xotask,dotcolour,xotask,59,3,239,239,main,negativefb,-99,average,,0.7515177000004769,['n'],1,right,['1'],6,0.19217740000021877,15,,,,,,,20,19,Vrouw,Rechts,2,
,xotask,dotcolour,xotask,0,4,240,240,main,negativefb,-99,average,,0.8335085999997318,['n'],1,right,['1'],6,0.16254230000049574,19,,,,,,,20,19,Vrouw,Rechts,2,
,xotask,dotcolour,xotask,1,4,241,241,main,negativefb,-99,easy,,0.5673296999993909,['n'],1,right,['1'],6,0.11099240000021382,8,,,,,,,20,19,Vrouw,Rechts,2,
,xotask,dotcolour,xotask,2,4,242,242,main,negativefb,-99,hard,,0.8507376999996268,['n'],1,right,['1'],6,0.18538580000040383,27,,,,,,,20,19,Vrouw,Rechts,2,
,xotask,dotcolour,xotask,3,4,243,243,main,negativefb,-99,easy,,0.617463399999906,['c'],1,left,['1'],6,0.17061779999949067,72,,,,,,,20,19,Vrouw,Rechts,2,
,xotask,dotcolour,xotask,4,4,244,244,main,negativefb,-99,easy,,0.6838901000000988,['n'],1,right,['1'],6,0.40860259999953996,6,,,,,,,20,19,Vrouw,Rechts,2,
,xotask,dotcolour,xotask,5,4,245,245,main,negativefb,-99,easy,,0.633919999999307,['n'],1,right,['1'],6,0.22479409999959898,8,,,,,,,20,19,Vrouw,Rechts,2,
,xotask,dotcolour,xotask,6,4,246,246,main,negativefb,-99,average,,0.733896900000218,['c'],1,left,['1'],6,0.15480380000008154,60,,,,,,,20,19,Vrouw,Rechts,2,
,xotask,dotcolour,xotask,7,4,247,247,main,negativefb,-99,average,,0.7678845999998885,['n'],1,right,['1'],6,0.21517799999946874,15,,,,,,,20,19,Vrouw,Rechts,2,
,xotask,dotcolour,xotask,8,4,248,248,main,negativefb,-99,average,,0.7504941999995935,['c'],1,left,['1'],6,0.1292567999998937,62,,,,,,,20,19,Vrouw,Rechts,2,
,xotask,dotcolour,xotask,9,4,249,249,main,negativefb,-99,average,,0.7847455999999511,['n'],1,right,['1'],6,0.2145752000005814,15,,,,,,,20,19,Vrouw,Rechts,2,
,xotask,dotcolour,xotask,10,4,250,250,main,negativefb,-99,easy,,0.9339439999994283,['n'],1,right,['1'],6,0.21789979999994102,5,,,,,,,20,19,Vrouw,Rechts,2,
,xotask,dotcolour,xotask,11,4,251,251,main,negativefb,-99,easy,,0.9843399999999747,['c'],1,left,['1'],6,0.13871759999983624,74,,,,,,,20,19,Vrouw,Rechts,2,
,xotask,dotcolour,xotask,12,4,252,252,main,negativefb,-99,easy,,1.0840498000006846,['n'],1,right,['1'],6,0.16282030000002123,5,,,,,,,20,19,Vrouw,Rechts,2,
,xotask,dotcolour,xotask,13,4,253,253,main,negativefb,-99,easy,,0.7011695000001055,['c'],1,left,['1'],6,0.09738610000022163,74,,,,,,,20,19,Vrouw,Rechts,2,
,xotask,dotcolour,xotask,14,4,254,254,main,negativefb,-99,average,,1.484227999999348,['n'],1,right,['1'],6,0.2674773999997342,16,,,,,,,20,19,Vrouw,Rechts,2,
,xotask,dotcolour,xotask,15,4,255,255,main,negativefb,-99,average,,0.8837341000007655,['c'],1,left,['1'],6,0.18211239999982354,62,,,,,,,20,19,Vrouw,Rechts,2,
,xotask,dotcolour,xotask,16,4,256,256,main,negativefb,-99,hard,,0.9667355000001407,['n'],1,right,['1'],6,0.22536630000013247,25,,,,,,,20,19,Vrouw,Rechts,2,
,xotask,dotcolour,xotask,17,4,257,257,main,negativefb,-99,hard,,0.6845781000001807,['c'],1,left,['1'],6,0.17354720000003,51,,,,,,,20,19,Vrouw,Rechts,2,
,xotask,dotcolour,xotask,18,4,258,258,main,negativefb,-99,easy,,0.6671191999994335,['n'],1,right,['1'],6,0.3577530000002298,8,,,,,,,20,19,Vrouw,Rechts,2,
,xotask,dotcolour,xotask,19,4,259,259,main,negativefb,-99,easy,,1.067826000000423,['c'],1,left,['1'],6,0.16590129999985948,71,,,,,,,20,19,Vrouw,Rechts,2,
,xotask,dotcolour,xotask,20,4,260,260,main,negativefb,-99,hard,,1.7511279999998806,['n'],1,right,['9'],2,1.1533445999994,25,,,,,,,20,19,Vrouw,Rechts,2,
,xotask,dotcolour,xotask,21,4,261,261,main,negativefb,-99,hard,,1.1677888000003804,['n'],1,right,['1'],6,0.0858645999996952,29,,,,,,,20,19,Vrouw,Rechts,2,
,xotask,dotcolour,xotask,22,4,262,262,main,negativefb,-99,hard,,0.5838756000002832,['c'],1,left,['1'],6,0.11488879999978963,52,,,,,,,20,19,Vrouw,Rechts,2,
,xotask,dotcolour,xotask,23,4,263,263,main,negativefb,-99,average,,0.6510493000005226,['n'],1,right,['1'],6,0.12573260000044684,18,,,,,,,20,19,Vrouw,Rechts,2,
,xotask,dotcolour,xotask,24,4,264,264,main,negativefb,-99,hard,,0.6179863999996087,['n'],1,right,['1'],6,0.23259669999970356,28,,,,,,,20,19,Vrouw,Rechts,2,
,xotask,dotcolour,xotask,25,4,265,265,main,negativefb,-99,average,,0.6174075999997513,['c'],0,right,['1'],6,0.12015770000016346,15,,,,,,,20,19,Vrouw,Rechts,2,
,xotask,dotcolour,xotask,26,4,266,266,main,negativefb,-99,hard,,0.7014768999997614,['c'],1,left,['1'],6,0.08015330000034737,54,,,,,,,20,19,Vrouw,Rechts,2,
,xotask,dotcolour,xotask,27,4,267,267,main,negativefb,-99,easy,,0.7165090999997119,['c'],1,left,['1'],6,0.08863139999994019,74,,,,,,,20,19,Vrouw,Rechts,2,
,xotask,dotcolour,xotask,28,4,268,268,main,negativefb,-99,hard,,1.4503867000003083,['n'],1,right,['1'],6,0.10903599999983271,28,,,,,,,20,19,Vrouw,Rechts,2,
,xotask,dotcolour,xotask,29,4,269,269,main,negativefb,-99,average,,0.8830533999998806,['c'],1,left,['1'],6,1.021491500000593,63,,,,,,,20,19,Vrouw,Rechts,2,
,xotask,dotcolour,xotask,30,4,270,270,main,negativefb,-99,hard,,0.6677983999998105,['c'],1,left,['1'],6,0.4111803999994663,52,,,,,,,20,19,Vrouw,Rechts,2,
,xotask,dotcolour,xotask,31,4,271,271,main,negativefb,-99,easy,,0.6008824999998978,['c'],1,left,['1'],6,0.09188799999992625,71,,,,,,,20,19,Vrouw,Rechts,2,
,xotask,dotcolour,xotask,32,4,272,272,main,negativefb,-99,hard,,0.6340523999997458,['c'],1,left,['1'],6,0.16029119999984687,53,,,,,,,20,19,Vrouw,Rechts,2,
,xotask,dotcolour,xotask,33,4,273,273,main,negativefb,-99,easy,,0.7007935000001453,['c'],1,left,['1'],6,0.078730700000051,74,,,,,,,20,19,Vrouw,Rechts,2,
,xotask,dotcolour,xotask,34,4,274,274,main,negativefb,-99,hard,,1.3003845000002912,['n'],1,right,['1'],6,0.10532539999985602,29,,,,,,,20,19,Vrouw,Rechts,2,
,xotask,dotcolour,xotask,35,4,275,275,main,negativefb,-99,average,,0.7837649000002784,['c'],1,left,['3'],4,0.7739253999998255,62,,,,,,,20,19,Vrouw,Rechts,2,
,xotask,dotcolour,xotask,36,4,276,276,main,negativefb,-99,easy,,1.200400400000035,['c'],1,left,['1'],6,0.12803059999987454,74,,,,,,,20,19,Vrouw,Rechts,2,
,xotask,dotcolour,xotask,37,4,277,277,main,negativefb,-99,hard,,0.9508414000001721,['n'],1,right,['1'],6,0.23804409999956988,27,,,,,,,20,19,Vrouw,Rechts,2,
,xotask,dotcolour,xotask,38,4,278,278,main,negativefb,-99,hard,,0.7836512000003495,['c'],1,left,['1'],6,0.2700519999998505,52,,,,,,,20,19,Vrouw,Rechts,2,
,xotask,dotcolour,xotask,39,4,279,279,main,negativefb,-99,easy,,0.8005256000005829,['n'],1,right,['1'],6,0.23578660000021046,6,,,,,,,20,19,Vrouw,Rechts,2,
,xotask,dotcolour,xotask,40,4,280,280,main,negativefb,-99,hard,,1.266895900000236,['n'],1,right,['3'],4,0.6894757999998546,28,,,,,,,20,19,Vrouw,Rechts,2,
,xotask,dotcolour,xotask,41,4,281,281,main,negativefb,-99,easy,,0.7332979000002524,['c'],1,left,['1'],6,0.1611747999995714,71,,,,,,,20,19,Vrouw,Rechts,2,
,xotask,dotcolour,xotask,42,4,282,282,main,negativefb,-99,easy,,0.6009296000001996,['n'],1,right,['1'],6,0.1154551999998148,5,,,,,,,20,19,Vrouw,Rechts,2,
,xotask,dotcolour,xotask,43,4,283,283,main,negativefb,-99,average,,0.6502620000001116,['n'],1,right,['1'],6,0.16644619999988208,16,,,,,,,20,19,Vrouw,Rechts,2,
,xotask,dotcolour,xotask,44,4,284,284,main,negativefb,-99,hard,,0.9844336000005569,['c'],1,left,['1'],6,0.6804166000001715,51,,,,,,,20,19,Vrouw,Rechts,2,
,xotask,dotcolour,xotask,45,4,285,285,main,negativefb,-99,average,,0.7504914000001008,['c'],1,left,['2'],5,0.3772503999998662,62,,,,,,,20,19,Vrouw,Rechts,2,
,xotask,dotcolour,xotask,46,4,286,286,main,negativefb,-99,average,,0.8515588000000207,['c'],1,left,['2'],5,0.20886150000023918,62,,,,,,,20,19,Vrouw,Rechts,2,
,xotask,dotcolour,xotask,47,4,287,287,main,negativefb,-99,easy,,0.6167661999998018,['n'],1,right,['2'],5,0.39268320000064705,8,,,,,,,20,19,Vrouw,Rechts,2,
,xotask,dotcolour,xotask,48,4,288,288,main,negativefb,-99,hard,,1.117174499999237,['n'],0,left,['3'],4,0.4377610999999888,53,,,,,,,20,19,Vrouw,Rechts,2,
,xotask,dotcolour,xotask,49,4,289,289,main,negativefb,-99,easy,,0.7176150000004782,['c'],1,left,['1'],6,0.20778790000076697,73,,,,,,,20,19,Vrouw,Rechts,2,
,xotask,dotcolour,xotask,50,4,290,290,main,negativefb,-99,easy,,0.6674320000001899,['n'],1,right,['1'],6,0.28635269999995216,5,,,,,,,20,19,Vrouw,Rechts,2,
,xotask,dotcolour,xotask,51,4,291,291,main,negativefb,-99,hard,,1.349898000000394,['c'],1,left,['3'],4,0.6463749999993524,50,,,,,,,20,19,Vrouw,Rechts,2,
,xotask,dotcolour,xotask,52,4,292,292,main,negativefb,-99,average,,0.9508459999997285,['n'],1,right,['1'],6,0.2385243000007904,19,,,,,,,20,19,Vrouw,Rechts,2,
,xotask,dotcolour,xotask,53,4,293,293,main,negativefb,-99,average,,0.8334263999995528,['c'],1,left,['1'],6,0.18164849999993748,61,,,,,,,20,19,Vrouw,Rechts,2,
,xotask,dotcolour,xotask,54,4,294,294,main,negativefb,-99,average,,0.6498972999997932,['c'],1,left,['2'],5,0.38051050000012765,61,,,,,,,20,19,Vrouw,Rechts,2,
,xotask,dotcolour,xotask,55,4,295,295,main,negativefb,-99,hard,,0.8507357999997112,['n'],0,left,['8'],3,1.0457214000007298,51,,,,,,,20,19,Vrouw,Rechts,2,
,xotask,dotcolour,xotask,56,4,296,296,main,negativefb,-99,hard,,2.1667340000003605,['c'],0,right,['8'],3,0.47820060000049125,26,,,,,,,20,19,Vrouw,Rechts,2,
,xotask,dotcolour,xotask,57,4,297,297,main,negativefb,-99,average,,0.8996791999998095,['c'],1,left,['2'],5,0.18490360000032524,60,,,,,,,20,19,Vrouw,Rechts,2,
,xotask,dotcolour,xotask,58,4,298,298,main,negativefb,-99,average,,0.9005992000002152,['c'],0,right,['1'],6,0.09273719999964669,18,,,,,,,20,19,Vrouw,Rechts,2,
,xotask,dotcolour,xotask,59,4,299,299,main,negativefb,-99,average,,2.517142800000329,['n'],1,right,['8'],3,0.30928620000031515,17,,,,,,,20,19,Vrouw,Rechts,2,
,dotcolour,dotcolour,xotask,0,0,0,300,training,negativefb,17,hard,37,1.2331925000007686,['c'],0,right,['3'],4,1.394029699999919,,,,,,,,20,19,Vrouw,Rechts,2,
,dotcolour,dotcolour,xotask,1,0,1,301,training,negativefb,81,easy,63,0.7661827000001722,['c'],1,left,['2'],5,0.0768500000003769,,,,,,,,20,19,Vrouw,Rechts,2,
,dotcolour,dotcolour,xotask,2,0,2,302,training,negativefb,89,easy,64,0.4325946999997541,['c'],1,left,['1'],6,0.8559187999999267,,,,,,,,20,19,Vrouw,Rechts,2,
,dotcolour,dotcolour,xotask,3,0,3,303,training,negativefb,69,hard,37,0.9837827000001198,['n'],1,right,['1'],6,0.1032788000002256,,,,,,,,20,19,Vrouw,Rechts,2,
,dotcolour,dotcolour,xotask,4,0,4,304,training,negativefb,62,average,25,0.46666649999951915,['n'],1,right,['1'],6,0.07323120000000927,,,,,,,,20,19,Vrouw,Rechts,2,
,dotcolour,dotcolour,xotask,5,0,5,305,training,negativefb,89,hard,44,0.5159719000002951,['c'],1,left,['9'],2,0.9850675999996383,,,,,,,,20,19,Vrouw,Rechts,2,
,dotcolour,dotcolour,xotask,6,0,6,306,training,negativefb,71,easy,19,0.532426900000246,['n'],1,right,['1'],6,0.10838210000019899,,,,,,,,20,19,Vrouw,Rechts,2,
,dotcolour,dotcolour,xotask,7,0,7,307,training,negativefb,29,average,28,0.5828526000004786,['n'],1,right,['1'],6,0.14534349999939877,,,,,,,,20,19,Vrouw,Rechts,2,
,dotcolour,dotcolour,xotask,8,0,8,308,training,negativefb,61,hard,39,0.8336745999995401,['n'],1,right,['1'],6,0.09940160000041942,,,,,,,,20,19,Vrouw,Rechts,2,
,dotcolour,dotcolour,xotask,9,0,9,309,training,negativefb,72,average,26,0.6331082999995488,['n'],1,right,['1'],6,0.05312260000027891,,,,,,,,20,19,Vrouw,Rechts,2,
,dotcolour,dotcolour,xotask,10,0,10,310,training,negativefb,67,hard,45,1.382861000000048,['c'],1,left,['1'],6,0.16425690000050963,,,,,,,,20,19,Vrouw,Rechts,2,
,dotcolour,dotcolour,xotask,11,0,11,311,training,negativefb,64,easy,19,0.6679579999999987,['n'],1,right,['1'],6,0.08399300000019139,,,,,,,,20,19,Vrouw,Rechts,2,
,dotcolour,dotcolour,xotask,12,0,12,312,training,negativefb,60,easy,64,0.6665087999999741,['c'],1,left,['1'],6,0.14216920000035316,,,,,,,,20,19,Vrouw,Rechts,2,
,dotcolour,dotcolour,xotask,13,0,13,313,training,negativefb,44,average,29,0.6669832999996288,['n'],1,right,['1'],6,0.17379819999950996,,,,,,,,20,19,Vrouw,Rechts,2,
,dotcolour,dotcolour,xotask,14,0,14,314,training,negativefb,61,easy,19,0.567062299999634,['n'],1,right,['1'],6,0.11184159999993426,,,,,,,,20,19,Vrouw,Rechts,2,
,dotcolour,dotcolour,xotask,15,0,15,315,training,negativefb,92,easy,64,0.5165592000003016,['c'],1,left,['1'],6,0.45539129999997385,,,,,,,,20,19,Vrouw,Rechts,2,
,dotcolour,dotcolour,xotask,16,0,16,316,training,negativefb,44,easy,16,0.4999238999998852,['n'],1,right,['1'],6,0.1776375999997981,,,,,,,,20,19,Vrouw,Rechts,2,
,dotcolour,dotcolour,xotask,17,0,17,317,training,negativefb,66,average,52,0.7669458000000304,['c'],1,left,['1'],6,0.1324069000002055,,,,,,,,20,19,Vrouw,Rechts,2,
,dotcolour,dotcolour,xotask,18,0,18,318,training,negativefb,56,easy,62,0.8005113999997775,['c'],1,left,['1'],6,0.048301400000127614,,,,,,,,20,19,Vrouw,Rechts,2,
,dotcolour,dotcolour,xotask,19,0,19,319,training,negativefb,87,easy,62,0.54923510000026,['c'],1,left,['1'],6,0.11164759999974194,,,,,,,,20,19,Vrouw,Rechts,2,
,dotcolour,dotcolour,xotask,20,0,20,320,training,negativefb,60,average,54,0.7829225000004953,['c'],1,left,['1'],6,0.11674810000022262,,,,,,,,20,19,Vrouw,Rechts,2,
,dotcolour,dotcolour,xotask,21,0,21,321,training,negativefb,29,hard,37,0.6498008999997182,['n'],1,right,['1'],6,0.2627019999999902,,,,,,,,20,19,Vrouw,Rechts,2,
,dotcolour,dotcolour,xotask,22,0,22,322,training,negativefb,40,hard,42,0.9337230000001,['c'],1,left,['3'],4,0.3113879000002271,,,,,,,,20,19,Vrouw,Rechts,2,
,dotcolour,dotcolour,xotask,23,0,23,323,training,negativefb,91,easy,62,0.6671490999997332,['c'],1,left,['1'],6,0.14478779999990365,,,,,,,,20,19,Vrouw,Rechts,2,
,dotcolour,dotcolour,xotask,24,0,24,324,training,negativefb,75,average,25,0.6845455000002403,['n'],1,right,['1'],6,0.1523392999997668,,,,,,,,20,19,Vrouw,Rechts,2,
,dotcolour,dotcolour,xotask,25,0,25,325,training,negativefb,41,hard,35,0.7164585999998963,['n'],1,right,['1'],6,0.0764220999999452,,,,,,,,20,19,Vrouw,Rechts,2,
,dotcolour,dotcolour,xotask,26,0,26,326,training,negativefb,49,hard,44,1.2002015000007304,['c'],1,left,['2'],5,0.3069078999997146,,,,,,,,20,19,Vrouw,Rechts,2,
,dotcolour,dotcolour,xotask,27,0,27,327,training,negativefb,38,average,52,0.8164238999997906,['c'],1,left,['2'],5,0.2941038999997545,,,,,,,,20,19,Vrouw,Rechts,2,
,dotcolour,dotcolour,xotask,28,0,28,328,training,negativefb,66,hard,41,0.8162897000001976,['n'],0,left,['1'],6,0.177509099999952,,,,,,,,20,19,Vrouw,Rechts,2,
,dotcolour,dotcolour,xotask,29,0,29,329,training,negativefb,93,average,52,0.8169115999999121,['c'],1,left,['2'],5,0.16264360000059241,,,,,,,,20,19,Vrouw,Rechts,2,
,dotcolour,dotcolour,xotask,30,0,30,330,training,negativefb,64,hard,37,2.4837384000002203,['n'],1,right,['8'],3,0.46523419999994076,,,,,,,,20,19,Vrouw,Rechts,2,
,dotcolour,dotcolour,xotask,31,0,31,331,training,negativefb,70,average,54,0.6175146999994467,['c'],1,left,['2'],5,0.15104630000041652,,,,,,,,20,19,Vrouw,Rechts,2,
,dotcolour,dotcolour,xotask,32,0,32,332,training,negativefb,74,easy,19,0.833814199999324,['n'],1,right,['1'],6,0.13510630000018864,,,,,,,,20,19,Vrouw,Rechts,2,
,dotcolour,dotcolour,xotask,33,0,33,333,training,negativefb,2,average,52,0.7000724999998056,['n'],0,left,['0'],1,2.725660699999935,,,,,,,,20,19,Vrouw,Rechts,2,
,dotcolour,dotcolour,xotask,34,0,34,334,training,negativefb,70,average,29,1.549351900000147,['n'],1,right,['3'],4,0.6101261999992857,,,,,,,,20,19,Vrouw,Rechts,2,
,dotcolour,dotcolour,xotask,35,0,35,335,training,negativefb,80,easy,19,0.7170584999994389,['n'],1,right,['2'],5,0.35756489999948826,,,,,,,,20,19,Vrouw,Rechts,2,
,dotcolour,dotcolour,xotask,36,0,36,336,training,negativefb,39,hard,35,0.6838385999999446,['n'],1,right,['3'],4,0.380984599999465,,,,,,,,20,19,Vrouw,Rechts,2,
,dotcolour,dotcolour,xotask,37,0,37,337,training,negativefb,24,hard,36,1.299582100000407,['n'],1,right,['2'],5,0.5388603999999759,,,,,,,,20,19,Vrouw,Rechts,2,
,dotcolour,dotcolour,xotask,38,0,38,338,training,negativefb,79,easy,18,0.8000013999999283,['n'],1,right,['2'],5,0.34044100000028266,,,,,,,,20,19,Vrouw,Rechts,2,
,dotcolour,dotcolour,xotask,39,0,39,339,training,negativefb,75,hard,43,1.0500070999996751,['c'],1,left,['1'],6,0.15760229999978037,,,,,,,,20,19,Vrouw,Rechts,2,
,dotcolour,dotcolour,xotask,40,0,40,340,training,negativefb,80,easy,65,0.9344668000003367,['c'],1,left,['1'],6,0.3300043999997797,,,,,,,,20,19,Vrouw,Rechts,2,
,dotcolour,dotcolour,xotask,41,0,41,341,training,negativefb,91,average,55,0.7655478000006042,['c'],1,left,['1'],6,0.8874186000002737,,,,,,,,20,19,Vrouw,Rechts,2,
,dotcolour,dotcolour,xotask,42,0,42,342,training,negativefb,80,easy,16,0.5831023000000641,['n'],1,right,['1'],6,0.20503689999986818,,,,,,,,20,19,Vrouw,Rechts,2,
,dotcolour,dotcolour,xotask,43,0,43,343,training,negativefb,66,easy,16,0.5659106000002794,['n'],1,right,['1'],6,0.1256863999997222,,,,,,,,20,19,Vrouw,Rechts,2,
,dotcolour,dotcolour,xotask,44,0,44,344,training,negativefb,70,hard,37,1.500369700000192,['c'],0,right,['1'],6,0.22902280000016617,,,,,,,,20,19,Vrouw,Rechts,2,
,dotcolour,dotcolour,xotask,45,0,45,345,training,negativefb,91,average,29,0.717006500000025,['n'],1,right,['1'],6,0.4154905000004874,,,,,,,,20,19,Vrouw,Rechts,2,
,dotcolour,dotcolour,xotask,46,0,46,346,training,negativefb,54,average,54,1.2006529999998747,['c'],1,left,['1'],6,0.2554876999993212,,,,,,,,20,19,Vrouw,Rechts,2,
,dotcolour,dotcolour,xotask,47,0,47,347,training,negativefb,62,average,28,0.8329268000006778,['n'],1,right,['1'],6,0.27616760000000795,,,,,,,,20,19,Vrouw,Rechts,2,
,dotcolour,dotcolour,xotask,48,0,48,348,training,negativefb,83,easy,15,0.783349499999531,['n'],1,right,['1'],6,0.13867599999957747,,,,,,,,20,19,Vrouw,Rechts,2,
,dotcolour,dotcolour,xotask,49,0,49,349,training,negativefb,22,hard,41,1.649933400000009,['c'],1,left,['1'],6,0.29850470000019413,,,,,,,,20,19,Vrouw,Rechts,2,
,dotcolour,dotcolour,xotask,50,0,50,350,training,negativefb,70,hard,42,1.3999304000008124,['c'],1,left,['2'],5,0.270551699999487,,,,,,,,20,19,Vrouw,Rechts,2,
,dotcolour,dotcolour,xotask,51,0,51,351,training,negativefb,88,hard,42,0.7166459000000032,['c'],1,left,['1'],6,0.12030000000049768,,,,,,,,20,19,Vrouw,Rechts,2,
,dotcolour,dotcolour,xotask,52,0,52,352,training,negativefb,54,average,54,0.9496921999998449,['c'],1,left,['1'],6,0.06152530000053957,,,,,,,,20,19,Vrouw,Rechts,2,
,dotcolour,dotcolour,xotask,53,0,53,353,training,negativefb,84,average,53,0.898875599999883,['c'],1,left,['1'],6,0.07107700000051409,,,,,,,,20,19,Vrouw,Rechts,2,
,dotcolour,dotcolour,xotask,54,0,54,354,training,negativefb,78,easy,63,0.5000891999998203,['c'],1,left,['1'],6,0.10408889999962412,,,,,,,,20,19,Vrouw,Rechts,2,
,dotcolour,dotcolour,xotask,55,0,55,355,training,negativefb,53,hard,42,0.9504504000005909,['c'],1,left,['1'],6,0.33418130000063684,,,,,,,,20,19,Vrouw,Rechts,2,
,dotcolour,dotcolour,xotask,56,0,56,356,training,negativefb,46,average,29,0.6835468999997829,['n'],1,right,['1'],6,0.22220180000022083,,,,,,,,20,19,Vrouw,Rechts,2,
,dotcolour,dotcolour,xotask,57,0,57,357,training,negativefb,82,easy,63,1.0338412000000972,['c'],1,left,['1'],6,0.23622919999979786,,,,,,,,20,19,Vrouw,Rechts,2,
,dotcolour,dotcolour,xotask,58,0,58,358,training,negativefb,66,average,26,0.7498693999996249,['n'],1,right,['1'],6,0.20457569999962288,,,,,,,,20,19,Vrouw,Rechts,2,
,dotcolour,dotcolour,xotask,59,0,59,359,training,negativefb,70,hard,37,0.6163070000002335,['n'],1,right,['1'],6,0.2282405000005383,,,,,,,,20,19,Vrouw,Rechts,2,
,dotcolour,dotcolour,xotask,0,1,60,360,training,negativefb,66,average,28,0.8670313000002352,['n'],1,right,['1'],6,0.17062759999953414,,,,,,,,20,19,Vrouw,Rechts,2,
,dotcolour,dotcolour,xotask,1,1,61,361,training,negativefb,83,easy,18,0.6158494999999675,['n'],1,right,['1'],6,0.1866360000003624,,,,,,,,20,19,Vrouw,Rechts,2,
,dotcolour,dotcolour,xotask,2,1,62,362,training,negativefb,5,hard,38,1.1499326000002839,['n'],1,right,['2'],5,0.4540311999999176,,,,,,,,20,19,Vrouw,Rechts,2,
,dotcolour,dotcolour,xotask,3,1,63,363,training,negativefb,62,hard,39,1.3340618000001996,['n'],1,right,['8'],3,0.9591706000001068,,,,,,,,20,19,Vrouw,Rechts,2,
,dotcolour,dotcolour,xotask,4,1,64,364,training,negativefb,51,hard,37,1.0996869999999035,['n'],1,right,['2'],5,0.2930225000000064,,,,,,,,20,19,Vrouw,Rechts,2,
,dotcolour,dotcolour,xotask,5,1,65,365,training,negativefb,76,easy,64,1.216704700000264,['c'],1,left,['2'],5,0.28134789999967325,,,,,,,,20,19,Vrouw,Rechts,2,
,dotcolour,dotcolour,xotask,6,1,66,366,training,negativefb,56,easy,15,0.5327127999998993,['n'],1,right,['1'],6,0.12916409999979805,,,,,,,,20,19,Vrouw,Rechts,2,
,dotcolour,dotcolour,xotask,7,1,67,367,training,negativefb,79,average,51,0.6159960000004503,['c'],1,left,['1'],6,0.32304950000070676,,,,,,,,20,19,Vrouw,Rechts,2,
,dotcolour,dotcolour,xotask,8,1,68,368,training,negativefb,46,average,29,0.7998565000007147,['n'],1,right,['1'],6,0.1508640000001833,,,,,,,,20,19,Vrouw,Rechts,2,
,dotcolour,dotcolour,xotask,9,1,69,369,training,negativefb,53,hard,41,0.7340247000001909,['n'],0,left,['1'],6,0.2760415999991892,,,,,,,,20,19,Vrouw,Rechts,2,
,dotcolour,dotcolour,xotask,10,1,70,370,training,negativefb,69,hard,37,1.1010433999999805,['n'],1,right,['3'],4,0.4779955999993035,,,,,,,,20,19,Vrouw,Rechts,2,
,dotcolour,dotcolour,xotask,11,1,71,371,training,negativefb,53,hard,42,1.0488878999994995,['c'],1,left,['3'],4,0.42503990000022895,,,,,,,,20,19,Vrouw,Rechts,2,
,dotcolour,dotcolour,xotask,12,1,72,372,training,negativefb,83,hard,43,1.8003952999997637,['c'],1,left,['8'],3,0.6642050999998901,,,,,,,,20,19,Vrouw,Rechts,2,
,dotcolour,dotcolour,xotask,13,1,73,373,training,negativefb,54,hard,44,1.1833168999992267,['c'],1,left,['2'],5,0.2627639000002091,,,,,,,,20,19,Vrouw,Rechts,2,
,dotcolour,dotcolour,xotask,14,1,74,374,training,negativefb,62,easy,61,0.8169378000002325,['c'],1,left,['1'],6,0.2679697000003216,,,,,,,,20,19,Vrouw,Rechts,2,
,dotcolour,dotcolour,xotask,15,1,75,375,training,negativefb,31,easy,63,0.7991044999998849,['c'],1,left,['1'],6,0.1381744999998773,,,,,,,,20,19,Vrouw,Rechts,2,
,dotcolour,dotcolour,xotask,16,1,76,376,training,negativefb,66,average,29,0.8501267999999982,['n'],1,right,['8'],3,1.5619606999998723,,,,,,,,20,19,Vrouw,Rechts,2,
,dotcolour,dotcolour,xotask,17,1,77,377,training,negativefb,67,average,28,0.8001610000001165,['n'],1,right,['1'],6,0.10049909999997908,,,,,,,,20,19,Vrouw,Rechts,2,
,dotcolour,dotcolour,xotask,18,1,78,378,training,negativefb,28,average,52,0.6994146999995792,['c'],1,left,['1'],6,0.9240957999991224,,,,,,,,20,19,Vrouw,Rechts,2,
,dotcolour,dotcolour,xotask,19,1,79,379,training,negativefb,64,hard,39,0.9498208000004524,['c'],0,right,['1'],6,0.09022110000023531,,,,,,,,20,19,Vrouw,Rechts,2,
,dotcolour,dotcolour,xotask,20,1,80,380,training,negativefb,56,hard,45,0.8671971000003396,['c'],1,left,['1'],6,0.05140140000003157,,,,,,,,20,19,Vrouw,Rechts,2,
,dotcolour,dotcolour,xotask,21,1,81,381,training,negativefb,45,hard,42,1.4173405999999886,['n'],0,left,['1'],6,0.14511570000013307,,,,,,,,20,19,Vrouw,Rechts,2,
,dotcolour,dotcolour,xotask,22,1,82,382,training,negativefb,57,average,54,0.8170166999998401,['c'],1,left,['1'],6,0.03567750000001979,,,,,,,,20,19,Vrouw,Rechts,2,
,dotcolour,dotcolour,xotask,23,1,83,383,training,negativefb,76,average,29,1.0324043999999049,['n'],1,right,['1'],6,0.264699099999234,,,,,,,,20,19,Vrouw,Rechts,2,
,dotcolour,dotcolour,xotask,24,1,84,384,training,negativefb,38,hard,35,1.5005960999997114,['n'],1,right,['1'],6,0.20267089999924792,,,,,,,,20,19,Vrouw,Rechts,2,
,dotcolour,dotcolour,xotask,25,1,85,385,training,negativefb,82,easy,19,0.7334552999991502,['n'],1,right,['1'],6,0.1573977999996714,,,,,,,,20,19,Vrouw,Rechts,2,
,dotcolour,dotcolour,xotask,26,1,86,386,training,negativefb,70,easy,61,0.6665496000005078,['c'],1,left,['1'],6,0.10860800000045856,,,,,,,,20,19,Vrouw,Rechts,2,
,dotcolour,dotcolour,xotask,27,1,87,387,training,negativefb,93,hard,36,1.7166385999998965,['n'],1,right,['8'],3,0.8047025000005306,,,,,,,,20,19,Vrouw,Rechts,2,
,dotcolour,dotcolour,xotask,28,1,88,388,training,negativefb,52,hard,43,1.3668672000003426,['n'],0,left,['2'],5,0.5095478000002913,,,,,,,,20,19,Vrouw,Rechts,2,
,dotcolour,dotcolour,xotask,29,1,89,389,training,negativefb,93,average,28,0.8664023999999699,['n'],1,right,['2'],5,0.59933860000001,,,,,,,,20,19,Vrouw,Rechts,2,
,dotcolour,dotcolour,xotask,30,1,90,390,training,negativefb,57,easy,19,0.6511119999995572,['n'],1,right,['1'],6,0.1016710999992938,,,,,,,,20,19,Vrouw,Rechts,2,
,dotcolour,dotcolour,xotask,31,1,91,391,training,negativefb,53,average,51,0.7993457000002309,['c'],1,left,['1'],6,0.032613299999866285,,,,,,,,20,19,Vrouw,Rechts,2,
,dotcolour,dotcolour,xotask,32,1,92,392,training,negativefb,18,easy,15,0.6327207000003909,['c'],0,right,['0'],1,0.9344763999997667,,,,,,,,20,19,Vrouw,Rechts,2,
,dotcolour,dotcolour,xotask,33,1,93,393,training,negativefb,53,average,26,0.8832548999998835,['n'],1,right,['1'],6,0.11881769999945391,,,,,,,,20,19,Vrouw,Rechts,2,
,dotcolour,dotcolour,xotask,34,1,94,394,training,negativefb,67,easy,62,1.049875400000019,['c'],1,left,['1'],6,0.13611590000073193,,,,,,,,20,19,Vrouw,Rechts,2,
,dotcolour,dotcolour,xotask,35,1,95,395,training,negativefb,70,easy,15,0.6839775999997073,['n'],1,right,['1'],6,0.10325439999996888,,,,,,,,20,19,Vrouw,Rechts,2,
,dotcolour,dotcolour,xotask,36,1,96,396,training,negativefb,51,average,29,0.700031499999568,['n'],1,right,['1'],6,0.09577399999943736,,,,,,,,20,19,Vrouw,Rechts,2,
,dotcolour,dotcolour,xotask,37,1,97,397,training,negativefb,60,hard,36,0.6001640000004045,['n'],1,right,['1'],6,0.08412789999965753,,,,,,,,20,19,Vrouw,Rechts,2,
,dotcolour,dotcolour,xotask,38,1,98,398,training,negativefb,54,average,27,0.6491065999998682,['n'],1,right,['1'],6,0.12655110000014247,,,,,,,,20,19,Vrouw,Rechts,2,
,dotcolour,dotcolour,xotask,39,1,99,399,training,negativefb,68,easy,63,0.6995164999998451,['c'],1,left,['1'],6,0.10244619999957649,,,,,,,,20,19,Vrouw,Rechts,2,
,dotcolour,dotcolour,xotask,40,1,100,400,training,negativefb,73,average,54,0.5338278999997783,['c'],1,left,['1'],6,0.06823999999960506,,,,,,,,20,19,Vrouw,Rechts,2,
,dotcolour,dotcolour,xotask,41,1,101,401,training,negativefb,49,hard,42,0.7328992000002472,['c'],1,left,['1'],6,0.028394800000569376,,,,,,,,20,19,Vrouw,Rechts,2,
,dotcolour,dotcolour,xotask,42,1,102,402,training,negativefb,24,easy,61,0.8169106999994256,['n'],0,left,['0'],1,0.7392925000003743,,,,,,,,20,19,Vrouw,Rechts,2,
,dotcolour,dotcolour,xotask,43,1,103,403,training,negativefb,42,average,51,1.9339465000002747,['n'],0,left,['9'],2,0.2170417000006637,,,,,,,,20,19,Vrouw,Rechts,2,
,dotcolour,dotcolour,xotask,44,1,104,404,training,negativefb,61,average,51,0.617648299999928,['c'],1,left,['1'],6,0.007590799999888986,,,,,,,,20,19,Vrouw,Rechts,2,
,dotcolour,dotcolour,xotask,45,1,105,405,training,negativefb,59,easy,17,0.583366500000011,['n'],1,right,['1'],6,0.12741299999925104,,,,,,,,20,19,Vrouw,Rechts,2,
,dotcolour,dotcolour,xotask,46,1,106,406,training,negativefb,66,easy,64,0.6674409999995987,['c'],1,left,['1'],6,0.06546419999995123,,,,,,,,20,19,Vrouw,Rechts,2,
,dotcolour,dotcolour,xotask,47,1,107,407,training,negativefb,68,easy,62,0.6676496000000043,['c'],1,left,['1'],6,0.0361337000003914,,,,,,,,20,19,Vrouw,Rechts,2,
,dotcolour,dotcolour,xotask,48,1,108,408,training,negativefb,81,average,52,0.4506273999995756,['c'],1,left,['1'],6,0.09687749999920925,,,,,,,,20,19,Vrouw,Rechts,2,
,dotcolour,dotcolour,xotask,49,1,109,409,training,negativefb,32,hard,38,0.7332864999998492,['n'],1,right,['1'],6,0.12790839999979653,,,,,,,,20,19,Vrouw,Rechts,2,
,dotcolour,dotcolour,xotask,50,1,110,410,training,negativefb,51,hard,43,0.7499165999997786,['c'],1,left,['1'],6,0.13329929999963497,,,,,,,,20,19,Vrouw,Rechts,2,
,dotcolour,dotcolour,xotask,51,1,111,411,training,negativefb,42,hard,43,0.833272400000169,['n'],0,left,['1'],6,0.16766240000015387,,,,,,,,20,19,Vrouw,Rechts,2,
,dotcolour,dotcolour,xotask,52,1,112,412,training,negativefb,34,easy,19,0.8843221000006452,['n'],1,right,['1'],6,0.20552219999990484,,,,,,,,20,19,Vrouw,Rechts,2,
,dotcolour,dotcolour,xotask,53,1,113,413,training,negativefb,41,easy,15,0.5841884000001301,['n'],1,right,['1'],6,0.13384169999972073,,,,,,,,20,19,Vrouw,Rechts,2,
,dotcolour,dotcolour,xotask,54,1,114,414,training,negativefb,49,average,25,0.4834017000002859,['n'],1,right,['1'],6,0.22959349999928236,,,,,,,,20,19,Vrouw,Rechts,2,
,dotcolour,dotcolour,xotask,55,1,115,415,training,negativefb,76,average,53,0.617073999999775,['c'],1,left,['1'],6,0.03648079999948095,,,,,,,,20,19,Vrouw,Rechts,2,
,dotcolour,dotcolour,xotask,56,1,116,416,training,negativefb,67,easy,63,0.4997947000001659,['c'],1,left,['1'],6,0.030367000000296684,,,,,,,,20,19,Vrouw,Rechts,2,
,dotcolour,dotcolour,xotask,57,1,117,417,training,negativefb,38,hard,35,0.7162238000000798,['n'],1,right,['1'],6,0.26556630000050063,,,,,,,,20,19,Vrouw,Rechts,2,
,dotcolour,dotcolour,xotask,58,1,118,418,training,negativefb,23,average,52,0.7335180999998556,['n'],0,left,['0'],1,0.6016736999999921,,,,,,,,20,19,Vrouw,Rechts,2,
,dotcolour,dotcolour,xotask,59,1,119,419,training,negativefb,76,easy,19,0.9999760999999125,['n'],1,right,['1'],6,0.12964410000040516,,,,,,,,20,19,Vrouw,Rechts,2,
,dotcolour,dotcolour,xotask,0,2,120,420,main,negativefb,-99,hard,36,1.300066799999513,['n'],1,right,['1'],6,0.2630856000005224,,,,,,,,20,19,Vrouw,Rechts,2,
,dotcolour,dotcolour,xotask,1,2,121,421,main,negativefb,-99,easy,64,0.5994604999996227,['c'],1,left,['1'],6,0.14134199999989505,,,,,,,,20,19,Vrouw,Rechts,2,
,dotcolour,dotcolour,xotask,2,2,122,422,main,negativefb,-99,easy,17,0.45124400000077003,['n'],1,right,['1'],6,0.11908809999931691,,,,,,,,20,19,Vrouw,Rechts,2,
,dotcolour,dotcolour,xotask,3,2,123,423,main,negativefb,-99,average,27,0.46740219999992405,['n'],1,right,['1'],6,0.06459350000022823,,,,,,,,20,19,Vrouw,Rechts,2,
,dotcolour,dotcolour,xotask,4,2,124,424,main,negativefb,-99,hard,45,4.217726599999878,['c'],1,left,['3'],4,0.2786482999999862,,,,,,,,20,19,Vrouw,Rechts,2,
,dotcolour,dotcolour,xotask,5,2,125,425,main,negativefb,-99,easy,65,0.6677134999999907,['c'],1,left,['1'],6,0.10529789999964123,,,,,,,,20,19,Vrouw,Rechts,2,
,dotcolour,dotcolour,xotask,6,2,126,426,main,negativefb,-99,hard,39,2.2837356,['n'],1,right,['1'],6,0.17031449999922188,,,,,,,,20,19,Vrouw,Rechts,2,
,dotcolour,dotcolour,xotask,7,2,127,427,main,negativefb,-99,easy,64,0.6171853000005285,['c'],1,left,['1'],6,0.08482869999988907,,,,,,,,20,19,Vrouw,Rechts,2,
,dotcolour,dotcolour,xotask,8,2,128,428,main,negativefb,-99,hard,45,0.76751669999976,['c'],1,left,['1'],6,1.1306942999999592,,,,,,,,20,19,Vrouw,Rechts,2,
,dotcolour,dotcolour,xotask,9,2,129,429,main,negativefb,-99,easy,15,0.6173870000002353,['n'],1,right,['1'],6,0.14256059999934223,,,,,,,,20,19,Vrouw,Rechts,2,
,dotcolour,dotcolour,xotask,10,2,130,430,main,negativefb,-99,hard,36,1.2338992999993934,['n'],1,right,['1'],6,0.2485275000008187,,,,,,,,20,19,Vrouw,Rechts,2,
,dotcolour,dotcolour,xotask,11,2,131,431,main,negativefb,-99,average,51,0.7345061999994869,['c'],1,left,['1'],6,0.1783077999998568,,,,,,,,20,19,Vrouw,Rechts,2,
,dotcolour,dotcolour,xotask,12,2,132,432,main,negativefb,-99,average,25,0.6000840999995489,['n'],1,right,['1'],6,0.21929379999983212,,,,,,,,20,19,Vrouw,Rechts,2,
,dotcolour,dotcolour,xotask,13,2,133,433,main,negativefb,-99,easy,62,0.6335307999997895,['c'],1,left,['1'],6,0.12998829999924055,,,,,,,,20,19,Vrouw,Rechts,2,
,dotcolour,dotcolour,xotask,14,2,134,434,main,negativefb,-99,hard,42,0.7506433000007746,['n'],0,left,['1'],6,0.17634549999911542,,,,,,,,20,19,Vrouw,Rechts,2,
,dotcolour,dotcolour,xotask,15,2,135,435,main,negativefb,-99,hard,37,0.7001324000002569,['n'],1,right,['1'],6,0.1585400000003574,,,,,,,,20,19,Vrouw,Rechts,2,
,dotcolour,dotcolour,xotask,16,2,136,436,main,negativefb,-99,hard,35,0.8507212000004074,['n'],1,right,['1'],6,0.1194021999999677,,,,,,,,20,19,Vrouw,Rechts,2,
,dotcolour,dotcolour,xotask,17,2,137,437,main,negativefb,-99,hard,37,1.0990323000005446,['n'],1,right,['1'],6,0.15063330000066344,,,,,,,,20,19,Vrouw,Rechts,2,
,dotcolour,dotcolour,xotask,18,2,138,438,main,negativefb,-99,easy,18,0.7005955999993603,['n'],1,right,['1'],6,0.14196369999990566,,,,,,,,20,19,Vrouw,Rechts,2,
,dotcolour,dotcolour,xotask,19,2,139,439,main,negativefb,-99,hard,37,0.5511327999993227,['n'],1,right,['1'],6,0.2750998999999865,,,,,,,,20,19,Vrouw,Rechts,2,
,dotcolour,dotcolour,xotask,20,2,140,440,main,negativefb,-99,hard,42,1.2019391000003452,['c'],1,left,['1'],6,0.06537270000080753,,,,,,,,20,19,Vrouw,Rechts,2,
,dotcolour,dotcolour,xotask,21,2,141,441,main,negativefb,-99,easy,65,0.5162976999999955,['c'],1,left,['1'],6,0.11521770000035758,,,,,,,,20,19,Vrouw,Rechts,2,
,dotcolour,dotcolour,xotask,22,2,142,442,main,negativefb,-99,average,27,1.6339821999999913,['n'],1,right,['1'],6,0.13414209999973536,,,,,,,,20,19,Vrouw,Rechts,2,
,dotcolour,dotcolour,xotask,23,2,143,443,main,negativefb,-99,average,27,0.6999506000001929,['n'],1,right,['1'],6,0.22212280000076134,,,,,,,,20,19,Vrouw,Rechts,2,
,dotcolour,dotcolour,xotask,24,2,144,444,main,negativefb,-99,average,55,0.6343584999995073,['c'],1,left,['1'],6,0.09229210000012245,,,,,,,,20,19,Vrouw,Rechts,2,
,dotcolour,dotcolour,xotask,25,2,145,445,main,negativefb,-99,average,27,0.666490700000395,['n'],1,right,['1'],6,0.1351900999998179,,,,,,,,20,19,Vrouw,Rechts,2,
,dotcolour,dotcolour,xotask,26,2,146,446,main,negativefb,-99,average,52,1.1338363000004392,['c'],1,left,['1'],6,0.1252483000007487,,,,,,,,20,19,Vrouw,Rechts,2,
,dotcolour,dotcolour,xotask,27,2,147,447,main,negativefb,-99,hard,44,0.6343489999999292,['c'],1,left,['1'],6,0.11167540000042209,,,,,,,,20,19,Vrouw,Rechts,2,
,dotcolour,dotcolour,xotask,28,2,148,448,main,negativefb,-99,average,54,0.6840351000000737,['c'],1,left,['1'],6,0.04858990000047925,,,,,,,,20,19,Vrouw,Rechts,2,
,dotcolour,dotcolour,xotask,29,2,149,449,main,negativefb,-99,easy,65,0.4662361000000601,['c'],1,left,['1'],6,0.013656199999786622,,,,,,,,20,19,Vrouw,Rechts,2,
,dotcolour,dotcolour,xotask,30,2,150,450,main,negativefb,-99,average,54,0.5837153000002218,['c'],1,left,['1'],6,0.030429099999309983,,,,,,,,20,19,Vrouw,Rechts,2,
,dotcolour,dotcolour,xotask,31,2,151,451,main,negativefb,-99,hard,44,0.9174059999995734,['n'],0,left,['1'],6,0.13086620000012772,,,,,,,,20,19,Vrouw,Rechts,2,
,dotcolour,dotcolour,xotask,32,2,152,452,main,negativefb,-99,hard,42,0.6346364000000904,['n'],0,left,['1'],6,0.07645950000005541,,,,,,,,20,19,Vrouw,Rechts,2,
,dotcolour,dotcolour,xotask,33,2,153,453,main,negativefb,-99,easy,63,0.6500478000007206,['c'],1,left,['1'],6,0.05651930000021821,,,,,,,,20,19,Vrouw,Rechts,2,
,dotcolour,dotcolour,xotask,34,2,154,454,main,negativefb,-99,average,52,0.3844810000000507,['c'],1,left,['1'],6,0.13599260000046343,,,,,,,,20,19,Vrouw,Rechts,2,
,dotcolour,dotcolour,xotask,35,2,155,455,main,negativefb,-99,average,51,0.3665692999993553,['c'],1,left,['1'],6,0.09298829999988811,,,,,,,,20,19,Vrouw,Rechts,2,
,dotcolour,dotcolour,xotask,36,2,156,456,main,negativefb,-99,average,27,1.183162700000139,['n'],1,right,['1'],6,0.13085309999951278,,,,,,,,20,19,Vrouw,Rechts,2,
,dotcolour,dotcolour,xotask,37,2,157,457,main,negativefb,-99,average,53,0.6005936000001384,['c'],1,left,['1'],6,0.10263929999928223,,,,,,,,20,19,Vrouw,Rechts,2,
,dotcolour,dotcolour,xotask,38,2,158,458,main,negativefb,-99,hard,38,0.7346521999998004,['c'],0,right,['1'],6,0.19052349999947182,,,,,,,,20,19,Vrouw,Rechts,2,
,dotcolour,dotcolour,xotask,39,2,159,459,main,negativefb,-99,average,53,0.6003646999997727,['c'],1,left,['1'],6,0.07969700000012381,,,,,,,,20,19,Vrouw,Rechts,2,
,dotcolour,dotcolour,xotask,40,2,160,460,main,negativefb,-99,easy,19,0.6173007999996116,['n'],1,right,['1'],6,0.10930379999990691,,,,,,,,20,19,Vrouw,Rechts,2,
,dotcolour,dotcolour,xotask,41,2,161,461,main,negativefb,-99,easy,64,0.583896599999207,['c'],1,left,['1'],6,0.09785389999979088,,,,,,,,20,19,Vrouw,Rechts,2,
,dotcolour,dotcolour,xotask,42,2,162,462,main,negativefb,-99,easy,19,0.5161593999991965,['n'],1,right,['1'],6,0.08290969999961817,,,,,,,,20,19,Vrouw,Rechts,2,
,dotcolour,dotcolour,xotask,43,2,163,463,main,negativefb,-99,average,26,0.8335502999998425,['n'],1,right,['1'],6,0.7671903999998904,,,,,,,,20,19,Vrouw,Rechts,2,
,dotcolour,dotcolour,xotask,44,2,164,464,main,negativefb,-99,easy,18,0.6844043000000966,['n'],1,right,['1'],6,0.030197200000657176,,,,,,,,20,19,Vrouw,Rechts,2,
,dotcolour,dotcolour,xotask,45,2,165,465,main,negativefb,-99,easy,17,0.7337623000003077,['n'],1,right,['1'],6,0.12821570000050997,,,,,,,,20,19,Vrouw,Rechts,2,
,dotcolour,dotcolour,xotask,46,2,166,466,main,negativefb,-99,easy,64,0.5506930999999895,['c'],1,left,['1'],6,0.07790440000007948,,,,,,,,20,19,Vrouw,Rechts,2,
,dotcolour,dotcolour,xotask,47,2,167,467,main,negativefb,-99,hard,42,1.4002139999993233,['c'],1,left,['1'],6,0.16373329999987618,,,,,,,,20,19,Vrouw,Rechts,2,
,dotcolour,dotcolour,xotask,48,2,168,468,main,negativefb,-99,average,27,0.7177561999997124,['n'],1,right,['1'],6,0.1616660999998203,,,,,,,,20,19,Vrouw,Rechts,2,
,dotcolour,dotcolour,xotask,49,2,169,469,main,negativefb,-99,average,28,0.6666096999997535,['n'],1,right,['1'],6,0.14629909999985102,,,,,,,,20,19,Vrouw,Rechts,2,
,dotcolour,dotcolour,xotask,50,2,170,470,main,negativefb,-99,easy,19,0.5836220000001049,['n'],1,right,['1'],6,0.11878199999955541,,,,,,,,20,19,Vrouw,Rechts,2,
,dotcolour,dotcolour,xotask,51,2,171,471,main,negativefb,-99,easy,16,0.5174931000001379,['n'],1,right,['1'],6,0.10918900000069698,,,,,,,,20,19,Vrouw,Rechts,2,
,dotcolour,dotcolour,xotask,52,2,172,472,main,negativefb,-99,easy,63,0.6174888999994437,['c'],1,left,['1'],6,0.05728429999999207,,,,,,,,20,19,Vrouw,Rechts,2,
,dotcolour,dotcolour,xotask,53,2,173,473,main,negativefb,-99,average,54,0.7486018999998123,['c'],1,left,['1'],6,0.1554612999998426,,,,,,,,20,19,Vrouw,Rechts,2,
,dotcolour,dotcolour,xotask,54,2,174,474,main,negativefb,-99,hard,44,0.5509115000004385,['c'],1,left,['1'],6,0.08799189999990631,,,,,,,,20,19,Vrouw,Rechts,2,
,dotcolour,dotcolour,xotask,55,2,175,475,main,negativefb,-99,easy,16,0.5179769000005763,['n'],1,right,['1'],6,0.17603520000011486,,,,,,,,20,19,Vrouw,Rechts,2,
,dotcolour,dotcolour,xotask,56,2,176,476,main,negativefb,-99,average,25,0.8519865000007485,['n'],1,right,['1'],6,0.1529489000004105,,,,,,,,20,19,Vrouw,Rechts,2,
,dotcolour,dotcolour,xotask,57,2,177,477,main,negativefb,-99,hard,36,0.6512087999999494,['c'],0,right,['1'],6,0.048946299999443,,,,,,,,20,19,Vrouw,Rechts,2,
,dotcolour,dotcolour,xotask,58,2,178,478,main,negativefb,-99,hard,44,3.1830792999999176,['c'],1,left,['8'],3,0.1758040999993682,,,,,,,,20,19,Vrouw,Rechts,2,
,dotcolour,dotcolour,xotask,59,2,179,479,main,negativefb,-99,hard,35,0.983589700000266,['n'],1,right,['1'],6,0.1546118000005663,,,,,,,,20,19,Vrouw,Rechts,2,
,dotcolour,dotcolour,xotask,0,3,180,480,main,negativefb,-99,hard,35,1.5337644999999611,['n'],1,right,['3'],4,0.5882966999997734,,,,,,,,20,19,Vrouw,Rechts,2,
,dotcolour,dotcolour,xotask,1,3,181,481,main,negativefb,-99,hard,38,1.251580400000421,['n'],1,right,['8'],3,0.39593239999976504,,,,,,,,20,19,Vrouw,Rechts,2,
,dotcolour,dotcolour,xotask,2,3,182,482,main,negativefb,-99,easy,17,0.6337342000006174,['n'],1,right,['1'],6,0.38802140000007057,,,,,,,,20,19,Vrouw,Rechts,2,
,dotcolour,dotcolour,xotask,3,3,183,483,main,negativefb,-99,easy,15,0.5678636000002371,['n'],1,right,['1'],6,0.11841069999991305,,,,,,,,20,19,Vrouw,Rechts,2,
,dotcolour,dotcolour,xotask,4,3,184,484,main,negativefb,-99,average,28,0.48388489999979356,['n'],1,right,['1'],6,0.046444399999927555,,,,,,,,20,19,Vrouw,Rechts,2,
,dotcolour,dotcolour,xotask,5,3,185,485,main,negativefb,-99,hard,41,2.0503119000004517,['n'],0,left,['8'],3,0.6847951999998259,,,,,,,,20,19,Vrouw,Rechts,2,
,dotcolour,dotcolour,xotask,6,3,186,486,main,negativefb,-99,average,54,0.634703200000331,['c'],1,left,['1'],6,0.16860410000026604,,,,,,,,20,19,Vrouw,Rechts,2,
,dotcolour,dotcolour,xotask,7,3,187,487,main,negativefb,-99,hard,44,1.8671699999995326,['n'],0,left,['3'],4,0.639438400000472,,,,,,,,20,19,Vrouw,Rechts,2,
,dotcolour,dotcolour,xotask,8,3,188,488,main,negativefb,-99,average,55,1.2170971999994435,['c'],1,left,['1'],6,0.11049690000072587,,,,,,,,20,19,Vrouw,Rechts,2,
,dotcolour,dotcolour,xotask,9,3,189,489,main,negativefb,-99,average,52,0.5669037999996362,['c'],1,left,['1'],6,0.10088470000027883,,,,,,,,20,19,Vrouw,Rechts,2,
,dotcolour,dotcolour,xotask,10,3,190,490,main,negativefb,-99,easy,18,0.7168061000002126,['n'],1,right,['1'],6,0.22924580000017158,,,,,,,,20,19,Vrouw,Rechts,2,
,dotcolour,dotcolour,xotask,11,3,191,491,main,negativefb,-99,average,25,0.5506799999993746,['n'],1,right,['1'],6,0.11116260000017064,,,,,,,,20,19,Vrouw,Rechts,2,
,dotcolour,dotcolour,xotask,12,3,192,492,main,negativefb,-99,hard,44,0.6670366999996986,['n'],0,left,['3'],4,1.712913800000024,,,,,,,,20,19,Vrouw,Rechts,2,
,dotcolour,dotcolour,xotask,13,3,193,493,main,negativefb,-99,hard,38,3.2675462999995943,['n'],1,right,['8'],3,0.7229557999999088,,,,,,,,20,19,Vrouw,Rechts,2,
,dotcolour,dotcolour,xotask,14,3,194,494,main,negativefb,-99,average,28,0.8501967000001969,['n'],1,right,['1'],6,0.18901920000007522,,,,,,,,20,19,Vrouw,Rechts,2,
,dotcolour,dotcolour,xotask,15,3,195,495,main,negativefb,-99,hard,45,1.1505749999996624,['c'],1,left,['1'],6,0.11294730000008713,,,,,,,,20,19,Vrouw,Rechts,2,
,dotcolour,dotcolour,xotask,16,3,196,496,main,negativefb,-99,easy,16,0.6671553999995012,['n'],1,right,['1'],6,0.1464455999994243,,,,,,,,20,19,Vrouw,Rechts,2,
,dotcolour,dotcolour,xotask,17,3,197,497,main,negativefb,-99,easy,61,0.7330174999997325,['c'],1,left,['1'],6,0.18425379999916913,,,,,,,,20,19,Vrouw,Rechts,2,
,dotcolour,dotcolour,xotask,18,3,198,498,main,negativefb,-99,average,29,0.7341984000004231,['n'],1,right,['1'],6,0.18844650000028196,,,,,,,,20,19,Vrouw,Rechts,2,
,dotcolour,dotcolour,xotask,19,3,199,499,main,negativefb,-99,easy,65,0.8835141999998086,['c'],1,left,['1'],6,0.10634980000031646,,,,,,,,20,19,Vrouw,Rechts,2,
,dotcolour,dotcolour,xotask,20,3,200,500,main,negativefb,-99,average,29,0.8173552000007476,['n'],1,right,['1'],6,0.20720280000023195,,,,,,,,20,19,Vrouw,Rechts,2,
,dotcolour,dotcolour,xotask,21,3,201,501,main,negativefb,-99,easy,61,1.0331658999994033,['c'],1,left,['1'],6,0.07009939999989001,,,,,,,,20,19,Vrouw,Rechts,2,
,dotcolour,dotcolour,xotask,22,3,202,502,main,negativefb,-99,average,52,1.1990193999999974,['c'],1,left,['1'],6,0.13980700000047364,,,,,,,,20,19,Vrouw,Rechts,2,
,dotcolour,dotcolour,xotask,23,3,203,503,main,negativefb,-99,easy,61,0.6676173999994717,['c'],1,left,['2'],5,0.33305769999969925,,,,,,,,20,19,Vrouw,Rechts,2,
,dotcolour,dotcolour,xotask,24,3,204,504,main,negativefb,-99,average,54,0.6337648999997327,['c'],1,left,['2'],5,0.23088319999988016,,,,,,,,20,19,Vrouw,Rechts,2,
,dotcolour,dotcolour,xotask,25,3,205,505,main,negativefb,-99,easy,61,1.134147299999313,['c'],1,left,['1'],6,0.18603540000003704,,,,,,,,20,19,Vrouw,Rechts,2,
,dotcolour,dotcolour,xotask,26,3,206,506,main,negativefb,-99,hard,44,1.8670958999991853,['n'],0,left,['3'],4,0.8563782000001083,,,,,,,,20,19,Vrouw,Rechts,2,
,dotcolour,dotcolour,xotask,27,3,207,507,main,negativefb,-99,hard,39,0.9836378999998487,['c'],0,right,['3'],4,0.17619860000013432,,,,,,,,20,19,Vrouw,Rechts,2,
,dotcolour,dotcolour,xotask,28,3,208,508,main,negativefb,-99,hard,36,1.2333214000000225,['n'],1,right,['2'],5,0.3682429999998931,,,,,,,,20,19,Vrouw,Rechts,2,
,dotcolour,dotcolour,xotask,29,3,209,509,main,negativefb,-99,average,27,0.899833800000124,['n'],1,right,['2'],5,0.29492109999955574,,,,,,,,20,19,Vrouw,Rechts,2,
,dotcolour,dotcolour,xotask,30,3,210,510,main,negativefb,-99,average,26,0.7499706999997215,['n'],1,right,['1'],6,0.17407309999998688,,,,,,,,20,19,Vrouw,Rechts,2,
,dotcolour,dotcolour,xotask,31,3,211,511,main,negativefb,-99,easy,61,0.8180025000001478,['n'],0,left,['9'],2,0.7029648999996425,,,,,,,,20,19,Vrouw,Rechts,2,
,dotcolour,dotcolour,xotask,32,3,212,512,main,negativefb,-99,hard,39,1.5169060000007448,['c'],0,right,['3'],4,0.3991511000003811,,,,,,,,20,19,Vrouw,Rechts,2,
,dotcolour,dotcolour,xotask,33,3,213,513,main,negativefb,-99,hard,45,1.1841825999999855,['c'],1,left,['3'],4,0.36007729999982985,,,,,,,,20,19,Vrouw,Rechts,2,
,dotcolour,dotcolour,xotask,34,3,214,514,main,negativefb,-99,hard,43,1.8341951000002155,['n'],0,left,['3'],4,0.27412290000029316,,,,,,,,20,19,Vrouw,Rechts,2,
,dotcolour,dotcolour,xotask,35,3,215,515,main,negativefb,-99,average,27,0.6514624999999796,['n'],1,right,['2'],5,0.15840839999964373,,,,,,,,20,19,Vrouw,Rechts,2,
,dotcolour,dotcolour,xotask,36,3,216,516,main,negativefb,-99,average,55,0.6170970000002853,['c'],1,left,['1'],6,0.18359419999978854,,,,,,,,20,19,Vrouw,Rechts,2,
,dotcolour,dotcolour,xotask,37,3,217,517,main,negativefb,-99,easy,18,0.8007348999999522,['n'],1,right,['1'],6,0.11390039999969304,,,,,,,,20,19,Vrouw,Rechts,2,
,dotcolour,dotcolour,xotask,38,3,218,518,main,negativefb,-99,hard,45,0.5841262999992978,['c'],1,left,['1'],6,0.07907169999998587,,,,,,,,20,19,Vrouw,Rechts,2,
,dotcolour,dotcolour,xotask,39,3,219,519,main,negativefb,-99,hard,39,1.0837921000002098,['n'],1,right,['1'],6,0.12952079999922717,,,,,,,,20,19,Vrouw,Rechts,2,
,dotcolour,dotcolour,xotask,40,3,220,520,main,negativefb,-99,easy,15,0.6681931000002805,['n'],1,right,['1'],6,0.09032070000012027,,,,,,,,20,19,Vrouw,Rechts,2,
,dotcolour,dotcolour,xotask,41,3,221,521,main,negativefb,-99,easy,17,0.4843087999997806,['n'],1,right,['1'],6,0.19684549999965384,,,,,,,,20,19,Vrouw,Rechts,2,
,dotcolour,dotcolour,xotask,42,3,222,522,main,negativefb,-99,easy,61,0.48421460000008665,['c'],1,left,['1'],6,0.1392201999997269,,,,,,,,20,19,Vrouw,Rechts,2,
,dotcolour,dotcolour,xotask,43,3,223,523,main,negativefb,-99,average,54,0.667466400000194,['c'],1,left,['1'],6,0.03550430000086635,,,,,,,,20,19,Vrouw,Rechts,2,
,dotcolour,dotcolour,xotask,44,3,224,524,main,negativefb,-99,easy,15,0.5671974999995655,['n'],1,right,['1'],6,0.11683240000002115,,,,,,,,20,19,Vrouw,Rechts,2,
,dotcolour,dotcolour,xotask,45,3,225,525,main,negativefb,-99,hard,36,1.1666915999994671,['n'],1,right,['1'],6,0.12201679999998305,,,,,,,,20,19,Vrouw,Rechts,2,
,dotcolour,dotcolour,xotask,46,3,226,526,main,negativefb,-99,average,26,0.567895000000135,['n'],1,right,['1'],6,0.1503528000002916,,,,,,,,20,19,Vrouw,Rechts,2,
,dotcolour,dotcolour,xotask,47,3,227,527,main,negativefb,-99,average,55,0.6163659000003463,['c'],1,left,['1'],6,0.11324260000037611,,,,,,,,20,19,Vrouw,Rechts,2,
,dotcolour,dotcolour,xotask,48,3,228,528,main,negativefb,-99,easy,15,0.5682228000005125,['n'],1,right,['1'],6,0.1596583999998984,,,,,,,,20,19,Vrouw,Rechts,2,
,dotcolour,dotcolour,xotask,49,3,229,529,main,negativefb,-99,easy,62,0.7836711999998442,['c'],1,left,['1'],6,0.15368970000054105,,,,,,,,20,19,Vrouw,Rechts,2,
,dotcolour,dotcolour,xotask,50,3,230,530,main,negativefb,-99,hard,43,1.0837346999996953,['c'],1,left,['2'],5,0.27390180000020337,,,,,,,,20,19,Vrouw,Rechts,2,
,dotcolour,dotcolour,xotask,51,3,231,531,main,negativefb,-99,average,53,1.1340212999994037,['c'],1,left,['3'],4,0.5141524000000572,,,,,,,,20,19,Vrouw,Rechts,2,
,dotcolour,dotcolour,xotask,52,3,232,532,main,negativefb,-99,hard,39,1.6332643999994616,['c'],0,right,['2'],5,0.23754050000025018,,,,,,,,20,19,Vrouw,Rechts,2,
,dotcolour,dotcolour,xotask,53,3,233,533,main,negativefb,-99,easy,18,0.5674019999996744,['n'],1,right,['1'],6,0.27824599999985367,,,,,,,,20,19,Vrouw,Rechts,2,
,dotcolour,dotcolour,xotask,54,3,234,534,main,negativefb,-99,hard,45,0.8510404999997263,['c'],1,left,['2'],5,0.0746846000001824,,,,,,,,20,19,Vrouw,Rechts,2,
,dotcolour,dotcolour,xotask,55,3,235,535,main,negativefb,-99,average,51,0.6174624999994194,['c'],1,left,['2'],5,0.12068980000003648,,,,,,,,20,19,Vrouw,Rechts,2,
,dotcolour,dotcolour,xotask,56,3,236,536,main,negativefb,-99,easy,64,0.7007859000004828,['c'],1,left,['1'],6,0.19999550000011368,,,,,,,,20,19,Vrouw,Rechts,2,
,dotcolour,dotcolour,xotask,57,3,237,537,main,negativefb,-99,average,27,0.7002163000006476,['n'],1,right,['1'],6,0.10887409999941156,,,,,,,,20,19,Vrouw,Rechts,2,
,dotcolour,dotcolour,xotask,58,3,238,538,main,negativefb,-99,easy,64,0.9672852999992756,['c'],1,left,['1'],6,0.17874309999933757,,,,,,,,20,19,Vrouw,Rechts,2,
,dotcolour,dotcolour,xotask,59,3,239,539,main,negativefb,-99,hard,38,1.7340863999997964,['n'],1,right,['2'],5,0.6160176000003048,,,,,,,,20,19,Vrouw,Rechts,2,
,dotcolour,dotcolour,xotask,0,4,240,540,main,negativefb,-99,easy,63,0.767827099999522,['c'],1,left,['2'],5,0.1805874000001495,,,,,,,,20,19,Vrouw,Rechts,2,
,dotcolour,dotcolour,xotask,1,4,241,541,main,negativefb,-99,easy,16,0.5168416999995316,['n'],1,right,['1'],6,0.16199219999998604,,,,,,,,20,19,Vrouw,Rechts,2,
,dotcolour,dotcolour,xotask,2,4,242,542,main,negativefb,-99,hard,36,0.8008816000001389,['n'],1,right,['1'],6,0.10873119999996561,,,,,,,,20,19,Vrouw,Rechts,2,
,dotcolour,dotcolour,xotask,3,4,243,543,main,negativefb,-99,easy,17,0.6836801999997988,['c'],0,right,['0'],1,0.8134184999998979,,,,,,,,20,19,Vrouw,Rechts,2,
,dotcolour,dotcolour,xotask,4,4,244,544,main,negativefb,-99,hard,37,1.1341481999997995,['n'],1,right,['1'],6,0.20928920000005746,,,,,,,,20,19,Vrouw,Rechts,2,
,dotcolour,dotcolour,xotask,5,4,245,545,main,negativefb,-99,average,29,0.48470460000044113,['n'],1,right,['1'],6,0.07858829999986483,,,,,,,,20,19,Vrouw,Rechts,2,
,dotcolour,dotcolour,xotask,6,4,246,546,main,negativefb,-99,hard,37,0.7508754000000408,['n'],1,right,['1'],6,0.09480559999974503,,,,,,,,20,19,Vrouw,Rechts,2,
,dotcolour,dotcolour,xotask,7,4,247,547,main,negativefb,-99,easy,64,0.7001749000000927,['c'],1,left,['1'],6,0.11213729999963107,,,,,,,,20,19,Vrouw,Rechts,2,
,dotcolour,dotcolour,xotask,8,4,248,548,main,negativefb,-99,average,52,0.4504660000002332,['c'],1,left,['1'],6,0.09923559999970166,,,,,,,,20,19,Vrouw,Rechts,2,
,dotcolour,dotcolour,xotask,9,4,249,549,main,negativefb,-99,average,55,0.40038800000002084,['c'],1,left,['1'],6,0.16714330000013433,,,,,,,,20,19,Vrouw,Rechts,2,
,dotcolour,dotcolour,xotask,10,4,250,550,main,negativefb,-99,hard,44,0.35123420000036276,['c'],1,left,['1'],6,0.08393570000043837,,,,,,,,20,19,Vrouw,Rechts,2,
,dotcolour,dotcolour,xotask,11,4,251,551,main,negativefb,-99,average,54,0.38341010000021924,['n'],0,left,['0'],1,0.8091896000005363,,,,,,,,20,19,Vrouw,Rechts,2,
,dotcolour,dotcolour,xotask,12,4,252,552,main,negativefb,-99,average,29,1.0333750999998301,['n'],1,right,['2'],5,0.240910100000292,,,,,,,,20,19,Vrouw,Rechts,2,
,dotcolour,dotcolour,xotask,13,4,253,553,main,negativefb,-99,hard,44,1.567416100000628,['c'],1,left,['2'],5,0.1290379000001849,,,,,,,,20,19,Vrouw,Rechts,2,
,dotcolour,dotcolour,xotask,14,4,254,554,main,negativefb,-99,easy,17,0.7018046000002869,['n'],1,right,['1'],6,0.152954299999692,,,,,,,,20,19,Vrouw,Rechts,2,
,dotcolour,dotcolour,xotask,15,4,255,555,main,negativefb,-99,average,27,0.5667693999994299,['n'],1,right,['1'],6,0.1656843000000663,,,,,,,,20,19,Vrouw,Rechts,2,
,dotcolour,dotcolour,xotask,16,4,256,556,main,negativefb,-99,easy,61,0.7005740000004153,['c'],1,left,['1'],6,0.0110049999993862,,,,,,,,20,19,Vrouw,Rechts,2,
,dotcolour,dotcolour,xotask,17,4,257,557,main,negativefb,-99,hard,43,0.7673340999999709,['c'],1,left,['1'],6,0.04600920000029873,,,,,,,,20,19,Vrouw,Rechts,2,
,dotcolour,dotcolour,xotask,18,4,258,558,main,negativefb,-99,average,25,0.6343447999997807,['n'],1,right,['1'],6,0.1792698000008386,,,,,,,,20,19,Vrouw,Rechts,2,
,dotcolour,dotcolour,xotask,19,4,259,559,main,negativefb,-99,hard,36,1.7336193000001003,['n'],1,right,['2'],5,0.34388099999978294,,,,,,,,20,19,Vrouw,Rechts,2,
,dotcolour,dotcolour,xotask,20,4,260,560,main,negativefb,-99,average,28,0.6837038999992728,['n'],1,right,['1'],6,0.5846459000003961,,,,,,,,20,19,Vrouw,Rechts,2,
,dotcolour,dotcolour,xotask,21,4,261,561,main,negativefb,-99,hard,45,0.8168310000000929,['c'],1,left,['2'],5,0.12133280000034574,,,,,,,,20,19,Vrouw,Rechts,2,
,dotcolour,dotcolour,xotask,22,4,262,562,main,negativefb,-99,hard,36,1.1685192000004463,['n'],1,right,['3'],4,0.5987549999999828,,,,,,,,20,19,Vrouw,Rechts,2,
,dotcolour,dotcolour,xotask,23,4,263,563,main,negativefb,-99,easy,19,0.8671846999995978,['n'],1,right,['1'],6,0.2528864000005342,,,,,,,,20,19,Vrouw,Rechts,2,
,dotcolour,dotcolour,xotask,24,4,264,564,main,negativefb,-99,easy,19,0.7342358999994758,['n'],1,right,['1'],6,0.6296589000003223,,,,,,,,20,19,Vrouw,Rechts,2,
,dotcolour,dotcolour,xotask,25,4,265,565,main,negativefb,-99,hard,38,2.1845110000003842,['c'],0,right,['3'],4,0.24613790000057634,,,,,,,,20,19,Vrouw,Rechts,2,
,dotcolour,dotcolour,xotask,26,4,266,566,main,negativefb,-99,easy,64,0.7006916999998793,['c'],1,left,['3'],4,0.28182509999987815,,,,,,,,20,19,Vrouw,Rechts,2,
,dotcolour,dotcolour,xotask,27,4,267,567,main,negativefb,-99,hard,36,1.717637200000354,['c'],0,right,['2'],5,0.08308980000037991,,,,,,,,20,19,Vrouw,Rechts,2,
,dotcolour,dotcolour,xotask,28,4,268,568,main,negativefb,-99,average,54,1.0341447999999218,['c'],1,left,['1'],6,0.19888619999983348,,,,,,,,20,19,Vrouw,Rechts,2,
,dotcolour,dotcolour,xotask,29,4,269,569,main,negativefb,-99,average,54,0.5678093999995326,['c'],1,left,['1'],6,0.048434099999212776,,,,,,,,20,19,Vrouw,Rechts,2,
,dotcolour,dotcolour,xotask,30,4,270,570,main,negativefb,-99,average,51,0.7501555999997436,['c'],1,left,['1'],6,0.049420399999689835,,,,,,,,20,19,Vrouw,Rechts,2,
,dotcolour,dotcolour,xotask,31,4,271,571,main,negativefb,-99,easy,61,1.051118399999723,['c'],1,left,['1'],6,0.149732199999562,,,,,,,,20,19,Vrouw,Rechts,2,
,dotcolour,dotcolour,xotask,32,4,272,572,main,negativefb,-99,easy,61,0.8340767999998207,['c'],1,left,['2'],5,0.3277931000002354,,,,,,,,20,19,Vrouw,Rechts,2,
,dotcolour,dotcolour,xotask,33,4,273,573,main,negativefb,-99,hard,41,2.4674503000005643,['n'],0,left,['1'],6,0.5933413000002474,,,,,,,,20,19,Vrouw,Rechts,2,
,dotcolour,dotcolour,xotask,34,4,274,574,main,negativefb,-99,hard,39,1.217385099999774,['n'],1,right,['1'],6,0.18614880000041012,,,,,,,,20,19,Vrouw,Rechts,2,
,dotcolour,dotcolour,xotask,35,4,275,575,main,negativefb,-99,easy,64,0.6507297000007384,['c'],1,left,['2'],5,0.39306419999957143,,,,,,,,20,19,Vrouw,Rechts,2,
,dotcolour,dotcolour,xotask,36,4,276,576,main,negativefb,-99,easy,16,0.8841459999994186,['n'],1,right,['1'],6,0.08730429999923217,,,,,,,,20,19,Vrouw,Rechts,2,
,dotcolour,dotcolour,xotask,37,4,277,577,main,negativefb,-99,hard,44,2.017525100000057,['n'],0,left,['8'],3,0.6123539999998684,,,,,,,,20,19,Vrouw,Rechts,2,
,dotcolour,dotcolour,xotask,38,4,278,578,main,negativefb,-99,easy,16,0.8667107999999644,['n'],1,right,['1'],6,0.09033650000037596,,,,,,,,20,19,Vrouw,Rechts,2,
,dotcolour,dotcolour,xotask,39,4,279,579,main,negativefb,-99,hard,42,1.6508712999993804,['n'],0,left,['3'],4,0.5818595999999161,,,,,,,,20,19,Vrouw,Rechts,2,
,dotcolour,dotcolour,xotask,40,4,280,580,main,negativefb,-99,easy,16,0.7671918000005462,['n'],1,right,['1'],6,0.0890650999999707,,,,,,,,20,19,Vrouw,Rechts,2,
,dotcolour,dotcolour,xotask,41,4,281,581,main,negativefb,-99,easy,65,0.4673582000004899,['c'],1,left,['1'],6,0.13972499999999854,,,,,,,,20,19,Vrouw,Rechts,2,
,dotcolour,dotcolour,xotask,42,4,282,582,main,negativefb,-99,easy,63,0.46719370000027993,['c'],1,left,['1'],6,0.13996399999996356,,,,,,,,20,19,Vrouw,Rechts,2,
,dotcolour,dotcolour,xotask,43,4,283,583,main,negativefb,-99,hard,35,0.6345011000003069,['n'],1,right,['1'],6,0.11829600000055507,,,,,,,,20,19,Vrouw,Rechts,2,
,dotcolour,dotcolour,xotask,44,4,284,584,main,negativefb,-99,hard,41,0.3845563000004404,['c'],1,left,['9'],2,1.4911929999998392,,,,,,,,20,19,Vrouw,Rechts,2,
,dotcolour,dotcolour,xotask,45,4,285,585,main,negativefb,-99,average,26,0.850777300000118,['n'],1,right,['1'],6,0.2304279999998471,,,,,,,,20,19,Vrouw,Rechts,2,
,dotcolour,dotcolour,xotask,46,4,286,586,main,negativefb,-99,average,26,0.6002002999994147,['n'],1,right,['1'],6,0.13414639999973588,,,,,,,,20,19,Vrouw,Rechts,2,
,dotcolour,dotcolour,xotask,47,4,287,587,main,negativefb,-99,average,55,0.6176833999998053,['c'],1,left,['1'],6,0.10453970000071422,,,,,,,,20,19,Vrouw,Rechts,2,
,dotcolour,dotcolour,xotask,48,4,288,588,main,negativefb,-99,average,55,0.6506156000004921,['c'],1,left,['1'],6,0.1154951999997138,,,,,,,,20,19,Vrouw,Rechts,2,
,dotcolour,dotcolour,xotask,49,4,289,589,main,negativefb,-99,easy,15,0.6005064000000857,['n'],1,right,['1'],6,0.17568630000005214,,,,,,,,20,19,Vrouw,Rechts,2,
,dotcolour,dotcolour,xotask,50,4,290,590,main,negativefb,-99,easy,19,0.5342196000001422,['n'],1,right,['1'],6,0.1723439999996117,,,,,,,,20,19,Vrouw,Rechts,2,
,dotcolour,dotcolour,xotask,51,4,291,591,main,negativefb,-99,hard,35,0.8001125999999203,['n'],1,right,['1'],6,0.3105528999994931,,,,,,,,20,19,Vrouw,Rechts,2,
,dotcolour,dotcolour,xotask,52,4,292,592,main,negativefb,-99,hard,43,0.7680254999995668,['n'],0,left,['1'],6,0.23667809999915335,,,,,,,,20,19,Vrouw,Rechts,2,
,dotcolour,dotcolour,xotask,53,4,293,593,main,negativefb,-99,easy,61,0.6838438000004317,['c'],1,left,['1'],6,0.08857570000054693,,,,,,,,20,19,Vrouw,Rechts,2,
,dotcolour,dotcolour,xotask,54,4,294,594,main,negativefb,-99,hard,41,1.483618000000206,['c'],1,left,['2'],5,0.15469470000061847,,,,,,,,20,19,Vrouw,Rechts,2,
,dotcolour,dotcolour,xotask,55,4,295,595,main,negativefb,-99,average,27,0.76686140000038,['n'],1,right,['1'],6,0.12698529999943275,,,,,,,,20,19,Vrouw,Rechts,2,
,dotcolour,dotcolour,xotask,56,4,296,596,main,negativefb,-99,average,27,0.6511949999994613,['n'],1,right,['1'],6,0.12939389999974082,,,,,,,,20,19,Vrouw,Rechts,2,
,dotcolour,dotcolour,xotask,57,4,297,597,main,negativefb,-99,average,52,0.8841491999992286,['c'],1,left,['1'],6,0.14480729999922914,,,,,,,,20,19,Vrouw,Rechts,2,
,dotcolour,dotcolour,xotask,58,4,298,598,main,negativefb,-99,average,52,1.4841353000001618,['c'],1,left,['1'],6,0.12955909999982396,,,,,,,,20,19,Vrouw,Rechts,2,
,dotcolour,dotcolour,xotask,59,4,299,599,main,negativefb,-99,average,27,0.767219300000761,['n'],1,right,['1'],6,0.42271789999995235,,,,,,,,20,19,Vrouw,Rechts,2,
,dotcolour,dotcolour,xotask,0,0,0,600,training,negativefb,58,average,27,0.7177560999998605,['n'],1,right,['1'],6,0.05971709999994346,,,,,,,,20,19,Vrouw,Rechts,2,
,dotcolour,dotcolour,xotask,1,0,1,601,training,negativefb,57,hard,41,0.45022400000016205,['n'],0,left,['1'],6,0.0883363000002646,,,,,,,,20,19,Vrouw,Rechts,2,
,dotcolour,dotcolour,xotask,2,0,2,602,training,negativefb,52,average,27,0.4996259999998074,['n'],1,right,['1'],6,0.04884860000038316,,,,,,,,20,19,Vrouw,Rechts,2,
,dotcolour,dotcolour,xotask,3,0,3,603,training,negativefb,69,easy,63,0.6497598999994807,['c'],1,left,['1'],6,0.07009010000001581,,,,,,,,20,19,Vrouw,Rechts,2,
,dotcolour,dotcolour,xotask,4,0,4,604,training,negativefb,56,average,25,0.6333504000003813,['n'],1,right,['1'],6,0.08102619999954186,,,,,,,,20,19,Vrouw,Rechts,2,
,dotcolour,dotcolour,xotask,5,0,5,605,training,negativefb,70,average,52,0.6488561000005575,['c'],1,left,['1'],6,0.020643599999857543,,,,,,,,20,19,Vrouw,Rechts,2,
,dotcolour,dotcolour,xotask,6,0,6,606,training,negativefb,98,easy,62,0.5829946999992899,['c'],1,left,['1'],6,1.6687107999996442,,,,,,,,20,19,Vrouw,Rechts,2,
,dotcolour,dotcolour,xotask,7,0,7,607,training,negativefb,57,easy,16,0.6658453999998528,['n'],1,right,['1'],6,0.09547930000007909,,,,,,,,20,19,Vrouw,Rechts,2,
,dotcolour,dotcolour,xotask,8,0,8,608,training,negativefb,52,hard,35,0.9187202000002799,['n'],1,right,['1'],6,0.15196879999984958,,,,,,,,20,19,Vrouw,Rechts,2,
,dotcolour,dotcolour,xotask,9,0,9,609,training,negativefb,48,easy,65,0.6181567999992694,['c'],1,left,['1'],6,0.048999300000104995,,,,,,,,20,19,Vrouw,Rechts,2,
,dotcolour,dotcolour,xotask,10,0,10,610,training,negativefb,79,average,55,0.7347075000006953,['c'],1,left,['1'],6,0.06637279999995371,,,,,,,,20,19,Vrouw,Rechts,2,
,dotcolour,dotcolour,xotask,11,0,11,611,training,negativefb,54,easy,18,0.7325154999998631,['n'],1,right,['1'],6,0.050152499999967404,,,,,,,,20,19,Vrouw,Rechts,2,
,dotcolour,dotcolour,xotask,12,0,12,612,training,negativefb,56,hard,37,0.88379999999961,['n'],1,right,['1'],6,0.14044639999974606,,,,,,,,20,19,Vrouw,Rechts,2,
,dotcolour,dotcolour,xotask,13,0,13,613,training,negativefb,56,easy,19,0.5499680000002627,['n'],1,right,['1'],6,0.14464659999975993,,,,,,,,20,19,Vrouw,Rechts,2,
,dotcolour,dotcolour,xotask,14,0,14,614,training,negativefb,61,easy,63,0.6835477000004175,['c'],1,left,['1'],6,0.08849089999966964,,,,,,,,20,19,Vrouw,Rechts,2,
,dotcolour,dotcolour,xotask,15,0,15,615,training,negativefb,57,average,29,0.5833428999994794,['n'],1,right,['1'],6,0.1025882999992973,,,,,,,,20,19,Vrouw,Rechts,2,
,dotcolour,dotcolour,xotask,16,0,16,616,training,negativefb,70,easy,64,0.5832965999998123,['c'],1,left,['1'],6,0.09106060000067373,,,,,,,,20,19,Vrouw,Rechts,2,
,dotcolour,dotcolour,xotask,17,0,17,617,training,negativefb,59,easy,63,0.6340316000005259,['c'],1,left,['1'],6,0.04631520000020828,,,,,,,,20,19,Vrouw,Rechts,2,
,dotcolour,dotcolour,xotask,18,0,18,618,training,negativefb,83,hard,43,0.9824005999998917,['c'],1,left,['2'],5,0.9731597999998485,,,,,,,,20,19,Vrouw,Rechts,2,
,dotcolour,dotcolour,xotask,19,0,19,619,training,negativefb,56,hard,38,0.8173568000001978,['n'],1,right,['1'],6,0.16641019999951823,,,,,,,,20,19,Vrouw,Rechts,2,
,dotcolour,dotcolour,xotask,20,0,20,620,training,negativefb,61,average,54,0.6987693999999465,['c'],1,left,['1'],6,0.003602100000534847,,,,,,,,20,19,Vrouw,Rechts,2,
,dotcolour,dotcolour,xotask,21,0,21,621,training,negativefb,73,easy,15,0.5002443999992465,['n'],1,right,['1'],6,0.12743030000001454,,,,,,,,20,19,Vrouw,Rechts,2,
,dotcolour,dotcolour,xotask,22,0,22,622,training,negativefb,47,average,28,0.6501753000002282,['n'],1,right,['1'],6,0.2564617999996699,,,,,,,,20,19,Vrouw,Rechts,2,
,dotcolour,dotcolour,xotask,23,0,23,623,training,negativefb,49,average,53,0.5833776999998008,['c'],1,left,['2'],5,0.16794610000033572,,,,,,,,20,19,Vrouw,Rechts,2,
,dotcolour,dotcolour,xotask,24,0,24,624,training,negativefb,49,hard,45,0.5505753999996159,['n'],0,left,['3'],4,0.579055299999709,,,,,,,,20,19,Vrouw,Rechts,2,
,dotcolour,dotcolour,xotask,25,0,25,625,training,negativefb,30,easy,15,0.7341558999996778,['n'],1,right,['2'],5,0.15060230000017327,,,,,,,,20,19,Vrouw,Rechts,2,
,dotcolour,dotcolour,xotask,26,0,26,626,training,negativefb,74,hard,35,0.7167849000006754,['n'],1,right,['1'],6,0.8936892000001535,,,,,,,,20,19,Vrouw,Rechts,2,
,dotcolour,dotcolour,xotask,27,0,27,627,training,negativefb,49,average,54,0.7665640999994139,['c'],1,left,['1'],6,0.09876410000015312,,,,,,,,20,19,Vrouw,Rechts,2,
,dotcolour,dotcolour,xotask,28,0,28,628,training,negativefb,63,average,51,1.0342288000001645,['c'],1,left,['1'],6,0.05283510000026581,,,,,,,,20,19,Vrouw,Rechts,2,
