starttime,task,fbtask,firsttask,withinblocktrial,block,withintasktrial,trial,running,feedback,fbscore,difflevel,n_xes,rt,resp,cor,cresp,conf_press,cj,RTconf,reddots,post1,post2,post3,post4,post5,stoptime,sub,age,gender,handedness,session,
1715675533,xotask,xotask,dotcolour,0,0,0,0,training,positivefb,94,hard,27,1.8347420999998576,['n'],1,right,['2'],5,0.6654078000001391,,,,,,,,35,18,Man,Rechts,2,
,xotask,xotask,dotcolour,1,0,1,1,training,positivefb,90,average,60,0.8498485000000073,['c'],1,left,['2'],5,0.13218140000026324,,,,,,,,35,18,Man,Rechts,2,
,xotask,xotask,dotcolour,2,0,2,2,training,positivefb,99,average,17,0.4998136999993221,['n'],1,right,['2'],5,0.10726989999966463,,,,,,,,35,18,Man,Rechts,2,
,xotask,xotask,dotcolour,3,0,3,3,training,positivefb,94,easy,73,0.5168321999999534,['c'],1,left,['2'],5,0.1549912000000404,,,,,,,,35,18,Man,Rechts,2,
,xotask,xotask,dotcolour,4,0,4,4,training,positivefb,99,easy,8,0.566151600000012,['n'],1,right,['2'],5,0.2138691000000108,,,,,,,,35,18,Man,Rechts,2,
,xotask,xotask,dotcolour,5,0,5,5,training,positivefb,98,average,15,0.46663559999979043,['n'],1,right,['2'],5,0.18765699999948993,,,,,,,,35,18,Man,Rechts,2,
,xotask,xotask,dotcolour,6,0,6,6,training,positivefb,86,average,64,0.5819026999997732,['c'],1,left,['2'],5,0.17239559999961784,,,,,,,,35,18,Man,Rechts,2,
,xotask,xotask,dotcolour,7,0,7,7,training,positivefb,93,easy,74,0.4649273999993966,['n'],0,left,['2'],5,0.18802279999999882,,,,,,,,35,18,Man,Rechts,2,
,xotask,xotask,dotcolour,8,0,8,8,training,positivefb,100,easy,73,0.36597319999964384,['c'],1,left,['2'],5,0.18137579999984155,,,,,,,,35,18,Man,Rechts,2,
,xotask,xotask,dotcolour,9,0,9,9,training,positivefb,91,hard,52,0.633571700000175,['c'],1,left,['2'],5,0.18092850000084582,,,,,,,,35,18,Man,Rechts,2,
,xotask,xotask,dotcolour,10,0,10,10,training,positivefb,95,easy,71,0.5495732999997927,['c'],1,left,['2'],5,0.19268490000013117,,,,,,,,35,18,Man,Rechts,2,
,xotask,xotask,dotcolour,11,0,11,11,training,positivefb,87,easy,72,0.5503548000006049,['c'],1,left,['2'],5,0.19544550000046002,,,,,,,,35,18,Man,Rechts,2,
,xotask,xotask,dotcolour,12,0,12,12,training,positivefb,91,average,16,0.7324158999999781,['n'],1,right,['2'],5,0.15807850000055623,,,,,,,,35,18,Man,Rechts,2,
,xotask,xotask,dotcolour,13,0,13,13,training,positivefb,96,easy,9,0.5835970999996789,['n'],1,right,['2'],5,0.10542490000079852,,,,,,,,35,18,Man,Rechts,2,
,xotask,xotask,dotcolour,14,0,14,14,training,positivefb,99,average,19,0.3836941999998089,['n'],1,right,['2'],5,0.11815830000068672,,,,,,,,35,18,Man,Rechts,2,
,xotask,xotask,dotcolour,15,0,15,15,training,positivefb,64,hard,54,0.41690250000010565,['n'],0,left,['2'],5,0.16066870000031486,,,,,,,,35,18,Man,Rechts,2,
,xotask,xotask,dotcolour,16,0,16,16,training,positivefb,19,easy,7,0.39976130000013654,['c'],0,right,['0'],1,0.8588236000005054,,,,,,,,35,18,Man,Rechts,2,
,xotask,xotask,dotcolour,17,0,17,17,training,positivefb,99,easy,9,0.6499450999999681,['n'],1,right,['2'],5,0.19831299999987095,,,,,,,,35,18,Man,Rechts,2,
,xotask,xotask,dotcolour,18,0,18,18,training,positivefb,82,hard,53,0.5506630999998379,['n'],0,left,['2'],5,0.15272749999985535,,,,,,,,35,18,Man,Rechts,2,
,xotask,xotask,dotcolour,19,0,19,19,training,positivefb,90,hard,52,0.5821301000005406,['n'],0,left,['2'],5,0.21935239999947953,,,,,,,,35,18,Man,Rechts,2,
,xotask,xotask,dotcolour,20,0,20,20,training,positivefb,95,easy,73,0.5663898000002519,['c'],1,left,['2'],5,0.19519949999994424,,,,,,,,35,18,Man,Rechts,2,
,xotask,xotask,dotcolour,21,0,21,21,training,positivefb,90,average,15,0.46723090000068623,['n'],1,right,['2'],5,0.18579659999977594,,,,,,,,35,18,Man,Rechts,2,
,xotask,xotask,dotcolour,22,0,22,22,training,positivefb,83,average,15,0.5831203999996433,['n'],1,right,['2'],5,0.2031277999994927,,,,,,,,35,18,Man,Rechts,2,
,xotask,xotask,dotcolour,23,0,23,23,training,positivefb,97,average,61,0.4841605999999956,['n'],0,left,['2'],5,0.24013620000005176,,,,,,,,35,18,Man,Rechts,2,
,xotask,xotask,dotcolour,24,0,24,24,training,positivefb,95,average,16,0.4833832000003895,['n'],1,right,['2'],5,0.2829215000001568,,,,,,,,35,18,Man,Rechts,2,
,xotask,xotask,dotcolour,25,0,25,25,training,positivefb,94,hard,53,0.7506937000007383,['c'],1,left,['2'],5,0.1456702999994377,,,,,,,,35,18,Man,Rechts,2,
,xotask,xotask,dotcolour,26,0,26,26,training,positivefb,72,average,62,0.6174388999997973,['n'],0,left,['2'],5,0.2117603999995481,,,,,,,,35,18,Man,Rechts,2,
,xotask,xotask,dotcolour,27,0,27,27,training,positivefb,91,easy,9,0.7347004000002926,['n'],1,right,['1'],6,0.19053600000006554,,,,,,,,35,18,Man,Rechts,2,
,xotask,xotask,dotcolour,28,0,28,28,training,positivefb,98,hard,51,1.0330175999997664,['c'],1,left,['3'],4,0.3019314999992275,,,,,,,,35,18,Man,Rechts,2,
,xotask,xotask,dotcolour,29,0,29,29,training,positivefb,91,easy,73,0.7002300000003743,['c'],1,left,['2'],5,0.1893383000005997,,,,,,,,35,18,Man,Rechts,2,
,xotask,xotask,dotcolour,30,0,30,30,training,positivefb,99,hard,28,0.5005105999998705,['n'],1,right,['2'],5,0.14595420000023296,,,,,,,,35,18,Man,Rechts,2,
,xotask,xotask,dotcolour,31,0,31,31,training,positivefb,89,hard,28,0.649672599999576,['n'],1,right,['2'],5,0.14700580000044283,,,,,,,,35,18,Man,Rechts,2,
,xotask,xotask,dotcolour,32,0,32,32,training,positivefb,95,easy,5,0.5832685000004858,['n'],1,right,['2'],5,0.07750369999939721,,,,,,,,35,18,Man,Rechts,2,
,xotask,xotask,dotcolour,33,0,33,33,training,positivefb,75,easy,71,0.7837315000006129,['c'],1,left,['1'],6,0.15616679999948246,,,,,,,,35,18,Man,Rechts,2,
,xotask,xotask,dotcolour,34,0,34,34,training,positivefb,77,easy,9,0.7338627999997698,['n'],1,right,['2'],5,0.13682080000035057,,,,,,,,35,18,Man,Rechts,2,
,xotask,xotask,dotcolour,35,0,35,35,training,positivefb,95,hard,29,0.5343120999996245,['n'],1,right,['2'],5,0.09380289999990055,,,,,,,,35,18,Man,Rechts,2,
,xotask,xotask,dotcolour,36,0,36,36,training,positivefb,95,hard,28,0.3499781000000439,['n'],1,right,['2'],5,0.020963299999493756,,,,,,,,35,18,Man,Rechts,2,
,xotask,xotask,dotcolour,37,0,37,37,training,positivefb,33,hard,53,0.33359029999974155,['c'],1,left,['2'],5,1.1507707999999184,,,,,,,,35,18,Man,Rechts,2,
,xotask,xotask,dotcolour,38,0,38,38,training,positivefb,98,average,61,0.4493302999999287,['n'],0,left,['2'],5,0.03144400000019232,,,,,,,,35,18,Man,Rechts,2,
,xotask,xotask,dotcolour,39,0,39,39,training,positivefb,97,average,62,0.3339914999996836,['c'],1,left,['2'],5,0.03975880000052712,,,,,,,,35,18,Man,Rechts,2,
,xotask,xotask,dotcolour,40,0,40,40,training,positivefb,95,hard,29,0.5166586000004827,['n'],1,right,['2'],5,0.8019139999996696,,,,,,,,35,18,Man,Rechts,2,
,xotask,xotask,dotcolour,41,0,41,41,training,positivefb,95,average,60,0.6845727999998417,['c'],1,left,['2'],5,0.08663720000004105,,,,,,,,35,18,Man,Rechts,2,
,xotask,xotask,dotcolour,42,0,42,42,training,positivefb,96,average,60,0.6503592999997636,['c'],1,left,['2'],5,0.09709949999978562,,,,,,,,35,18,Man,Rechts,2,
,xotask,xotask,dotcolour,43,0,43,43,training,positivefb,96,easy,71,0.7664682000004177,['c'],1,left,['2'],5,0.14358489999995072,,,,,,,,35,18,Man,Rechts,2,
,xotask,xotask,dotcolour,44,0,44,44,training,positivefb,99,easy,5,0.3176601000004666,['c'],0,right,['2'],5,0.07756410000001779,,,,,,,,35,18,Man,Rechts,2,
,xotask,xotask,dotcolour,45,0,45,45,training,positivefb,93,hard,26,0.6826750000000175,['n'],1,right,['2'],5,0.07928429999992659,,,,,,,,35,18,Man,Rechts,2,
,xotask,xotask,dotcolour,46,0,46,46,training,positivefb,99,average,61,0.8171635999997306,['c'],1,left,['2'],5,0.09999729999981355,,,,,,,,35,18,Man,Rechts,2,
,xotask,xotask,dotcolour,47,0,47,47,training,positivefb,96,hard,53,0.617601700000705,['c'],1,left,['2'],5,0.14397009999993315,,,,,,,,35,18,Man,Rechts,2,
,xotask,xotask,dotcolour,48,0,48,48,training,positivefb,92,easy,71,0.48429550000037125,['c'],1,left,['2'],5,0.09513390000029176,,,,,,,,35,18,Man,Rechts,2,
,xotask,xotask,dotcolour,49,0,49,49,training,positivefb,98,hard,29,0.23282019999987824,['c'],0,right,['2'],5,0.03440430000046035,,,,,,,,35,18,Man,Rechts,2,
,xotask,xotask,dotcolour,50,0,50,50,training,positivefb,96,average,62,0.6502332000000024,['c'],1,left,['2'],5,0.15115779999996448,,,,,,,,35,18,Man,Rechts,2,
,xotask,xotask,dotcolour,51,0,51,51,training,positivefb,94,hard,26,0.41672399999970366,['c'],0,right,['2'],5,0.1207551000006788,,,,,,,,35,18,Man,Rechts,2,
,xotask,xotask,dotcolour,52,0,52,52,training,positivefb,99,hard,53,0.3672854999995252,['c'],1,left,['2'],5,0.0931761000001643,,,,,,,,35,18,Man,Rechts,2,
,xotask,xotask,dotcolour,53,0,53,53,training,positivefb,43,average,16,0.3843241000004127,['c'],0,right,['8'],3,1.3617989000003945,,,,,,,,35,18,Man,Rechts,2,
,xotask,xotask,dotcolour,54,0,54,54,training,positivefb,90,easy,5,0.6332673000006253,['n'],1,right,['2'],5,0.11485420000008162,,,,,,,,35,18,Man,Rechts,2,
,xotask,xotask,dotcolour,55,0,55,55,training,positivefb,90,average,16,0.7673960000001898,['n'],1,right,['2'],5,0.1520210999997289,,,,,,,,35,18,Man,Rechts,2,
,xotask,xotask,dotcolour,56,0,56,56,training,positivefb,94,easy,6,0.5666688999999678,['n'],1,right,['2'],5,0.06706240000039543,,,,,,,,35,18,Man,Rechts,2,
,xotask,xotask,dotcolour,57,0,57,57,training,positivefb,99,average,17,0.4667538000003333,['n'],1,right,['2'],5,0.07805379999990691,,,,,,,,35,18,Man,Rechts,2,
,xotask,xotask,dotcolour,58,0,58,58,training,positivefb,92,hard,53,0.9005213999998887,['n'],0,left,['2'],5,0.05536709999978484,,,,,,,,35,18,Man,Rechts,2,
,xotask,xotask,dotcolour,59,0,59,59,training,positivefb,94,hard,25,0.6844559999999547,['c'],0,right,['2'],5,0.07373790000019653,,,,,,,,35,18,Man,Rechts,2,
,xotask,xotask,dotcolour,0,1,60,60,training,positivefb,95,hard,27,0.8503761000001759,['n'],1,right,['2'],5,0.10542070000064996,,,,,,,,35,18,Man,Rechts,2,
,xotask,xotask,dotcolour,1,1,61,61,training,positivefb,97,easy,73,0.6504993000007744,['c'],1,left,['2'],5,0.09913079999932961,,,,,,,,35,18,Man,Rechts,2,
,xotask,xotask,dotcolour,2,1,62,62,training,positivefb,98,easy,6,0.5003886999993483,['n'],1,right,['2'],5,0.07588209999994433,,,,,,,,35,18,Man,Rechts,2,
,xotask,xotask,dotcolour,3,1,63,63,training,positivefb,76,average,63,0.5169940999994651,['c'],1,left,['2'],5,0.05167929999970511,,,,,,,,35,18,Man,Rechts,2,
,xotask,xotask,dotcolour,4,1,64,64,training,positivefb,97,hard,28,0.43262700000013865,['n'],1,right,['2'],5,0.05688969999937399,,,,,,,,35,18,Man,Rechts,2,
,xotask,xotask,dotcolour,5,1,65,65,training,positivefb,97,easy,9,0.4505334999994375,['n'],1,right,['2'],5,0.06844879999971454,,,,,,,,35,18,Man,Rechts,2,
,xotask,xotask,dotcolour,6,1,66,66,training,positivefb,95,easy,70,0.6005526999997528,['c'],1,left,['2'],5,0.12225820000003296,,,,,,,,35,18,Man,Rechts,2,
,xotask,xotask,dotcolour,7,1,67,67,training,positivefb,90,average,64,0.5167345999998361,['n'],0,left,['2'],5,0.056762500000331784,,,,,,,,35,18,Man,Rechts,2,
,xotask,xotask,dotcolour,8,1,68,68,training,positivefb,96,hard,28,0.5503467999997156,['n'],1,right,['2'],5,0.09692489999997633,,,,,,,,35,18,Man,Rechts,2,
,xotask,xotask,dotcolour,9,1,69,69,training,positivefb,95,easy,6,0.567938399999548,['n'],1,right,['2'],5,0.10296769999968092,,,,,,,,35,18,Man,Rechts,2,
,xotask,xotask,dotcolour,10,1,70,70,training,positivefb,98,hard,26,0.4492648999994344,['n'],1,right,['2'],5,0.10534710000047198,,,,,,,,35,18,Man,Rechts,2,
,xotask,xotask,dotcolour,11,1,71,71,training,positivefb,67,average,62,0.8506379000000379,['n'],0,left,['2'],5,0.16250829999989946,,,,,,,,35,18,Man,Rechts,2,
,xotask,xotask,dotcolour,12,1,72,72,training,positivefb,95,easy,71,0.6838682999996308,['c'],1,left,['2'],5,0.009944600000380888,,,,,,,,35,18,Man,Rechts,2,
,xotask,xotask,dotcolour,13,1,73,73,training,positivefb,96,easy,8,0.667950999999448,['n'],1,right,['2'],5,0.12645190000057482,,,,,,,,35,18,Man,Rechts,2,
,xotask,xotask,dotcolour,14,1,74,74,training,positivefb,96,average,61,1.0006913999995959,['c'],1,left,['2'],5,0.11470190000000002,,,,,,,,35,18,Man,Rechts,2,
,xotask,xotask,dotcolour,15,1,75,75,training,positivefb,94,hard,29,0.4837758000003305,['n'],1,right,['2'],5,0.10591579999982059,,,,,,,,35,18,Man,Rechts,2,
,xotask,xotask,dotcolour,16,1,76,76,training,positivefb,97,hard,25,0.43388020000020333,['n'],1,right,['2'],5,0.12494490000062797,,,,,,,,35,18,Man,Rechts,2,
,xotask,xotask,dotcolour,17,1,77,77,training,positivefb,96,hard,50,0.5001176000005216,['c'],1,left,['2'],5,0.12438360000032844,,,,,,,,35,18,Man,Rechts,2,
,xotask,xotask,dotcolour,18,1,78,78,training,positivefb,95,average,62,0.5344414000001052,['c'],1,left,['2'],5,0.13824269999986427,,,,,,,,35,18,Man,Rechts,2,
,xotask,xotask,dotcolour,19,1,79,79,training,positivefb,91,easy,6,0.6506733999995049,['n'],1,right,['2'],5,0.1393456999994669,,,,,,,,35,18,Man,Rechts,2,
,xotask,xotask,dotcolour,20,1,80,80,training,positivefb,97,easy,70,0.650450300000557,['c'],1,left,['1'],6,0.16413709999960702,,,,,,,,35,18,Man,Rechts,2,
,xotask,xotask,dotcolour,21,1,81,81,training,positivefb,92,average,17,0.5834872000004907,['n'],1,right,['1'],6,0.2068141999998261,,,,,,,,35,18,Man,Rechts,2,
,xotask,xotask,dotcolour,22,1,82,82,training,positivefb,89,easy,72,0.6168643000000884,['c'],1,left,['1'],6,0.20568589999948017,,,,,,,,35,18,Man,Rechts,2,
,xotask,xotask,dotcolour,23,1,83,83,training,positivefb,91,average,64,0.5347038999998404,['n'],0,left,['1'],6,0.20887579999998707,,,,,,,,35,18,Man,Rechts,2,
,xotask,xotask,dotcolour,24,1,84,84,training,positivefb,94,average,61,0.6014844000001176,['c'],1,left,['1'],6,0.2256108999999924,,,,,,,,35,18,Man,Rechts,2,
,xotask,xotask,dotcolour,25,1,85,85,training,positivefb,75,average,16,0.7003811000004134,['c'],0,right,['1'],6,0.13196330000027956,,,,,,,,35,18,Man,Rechts,2,
,xotask,xotask,dotcolour,26,1,86,86,training,positivefb,92,hard,27,0.9999908999998297,['n'],1,right,['2'],5,0.21457290000034845,,,,,,,,35,18,Man,Rechts,2,
,xotask,xotask,dotcolour,27,1,87,87,training,positivefb,91,average,17,0.5497552999995605,['c'],0,right,['1'],6,0.07988599999953294,,,,,,,,35,18,Man,Rechts,2,
,xotask,xotask,dotcolour,28,1,88,88,training,positivefb,98,average,15,0.5162448999999469,['n'],1,right,['2'],5,0.08096949999981007,,,,,,,,35,18,Man,Rechts,2,
,xotask,xotask,dotcolour,29,1,89,89,training,positivefb,97,easy,72,0.633819599999697,['c'],1,left,['2'],5,0.1243758999999045,,,,,,,,35,18,Man,Rechts,2,
,xotask,xotask,dotcolour,30,1,90,90,training,positivefb,94,hard,53,0.7173764999997729,['n'],0,left,['2'],5,0.12356650000037916,,,,,,,,35,18,Man,Rechts,2,
,xotask,xotask,dotcolour,31,1,91,91,training,positivefb,97,easy,7,0.61650599999939,['n'],1,right,['2'],5,0.1578724000000875,,,,,,,,35,18,Man,Rechts,2,
,xotask,xotask,dotcolour,32,1,92,92,training,positivefb,93,easy,74,0.9002768999998807,['c'],1,left,['2'],5,0.12419469999986177,,,,,,,,35,18,Man,Rechts,2,
,xotask,xotask,dotcolour,33,1,93,93,training,positivefb,97,average,63,0.9351059999999052,['c'],1,left,['2'],5,0.13787970000066707,,,,,,,,35,18,Man,Rechts,2,
,xotask,xotask,dotcolour,34,1,94,94,training,positivefb,97,average,15,0.4678812000001926,['c'],0,right,['2'],5,0.08220379999966099,,,,,,,,35,18,Man,Rechts,2,
,xotask,xotask,dotcolour,35,1,95,95,training,positivefb,96,average,16,0.5163405000002967,['n'],1,right,['2'],5,0.050056600000061735,,,,,,,,35,18,Man,Rechts,2,
,xotask,xotask,dotcolour,36,1,96,96,training,positivefb,97,hard,51,0.5157391000002463,['c'],1,left,['2'],5,0.06783259999974689,,,,,,,,35,18,Man,Rechts,2,
,xotask,xotask,dotcolour,37,1,97,97,training,positivefb,99,hard,53,0.4835798000003706,['c'],1,left,['2'],5,0.07761789999949542,,,,,,,,35,18,Man,Rechts,2,
,xotask,xotask,dotcolour,38,1,98,98,training,positivefb,94,easy,5,0.5163760999994338,['n'],1,right,['2'],5,0.10217509999984031,,,,,,,,35,18,Man,Rechts,2,
,xotask,xotask,dotcolour,39,1,99,99,training,positivefb,96,average,17,0.5163207999994484,['n'],1,right,['1'],6,0.12612069999977393,,,,,,,,35,18,Man,Rechts,2,
,xotask,xotask,dotcolour,40,1,100,100,training,positivefb,90,hard,26,0.43381440000030125,['n'],1,right,['2'],5,0.2720060999999987,,,,,,,,35,18,Man,Rechts,2,
,xotask,xotask,dotcolour,41,1,101,101,training,positivefb,96,easy,7,0.38361880000047677,['n'],1,right,['2'],5,0.15020710000044346,,,,,,,,35,18,Man,Rechts,2,
,xotask,xotask,dotcolour,42,1,102,102,training,positivefb,92,average,17,0.5005256999993435,['n'],1,right,['1'],6,0.15578009999990172,,,,,,,,35,18,Man,Rechts,2,
,xotask,xotask,dotcolour,43,1,103,103,training,positivefb,96,average,17,0.40028650000022026,['n'],1,right,['1'],6,0.19761509999989357,,,,,,,,35,18,Man,Rechts,2,
,xotask,xotask,dotcolour,44,1,104,104,training,positivefb,94,average,64,0.18381060000047,['n'],0,left,['2'],5,0.3339099000004353,,,,,,,,35,18,Man,Rechts,2,
,xotask,xotask,dotcolour,45,1,105,105,training,positivefb,94,easy,8,0.5008303999993586,['n'],1,right,['2'],5,0.13215419999960432,,,,,,,,35,18,Man,Rechts,2,
,xotask,xotask,dotcolour,46,1,106,106,training,positivefb,96,easy,73,0.4000482999999804,['n'],0,left,['2'],5,0.14316770000004908,,,,,,,,35,18,Man,Rechts,2,
,xotask,xotask,dotcolour,47,1,107,107,training,positivefb,99,hard,29,0.384390600000188,['n'],1,right,['2'],5,0.17023919999974169,,,,,,,,35,18,Man,Rechts,2,
,xotask,xotask,dotcolour,48,1,108,108,training,positivefb,89,hard,54,0.3841922000001432,['n'],0,left,['2'],5,0.18836969999938447,,,,,,,,35,18,Man,Rechts,2,
,xotask,xotask,dotcolour,49,1,109,109,training,positivefb,72,hard,54,0.5668118000003233,['n'],0,left,['3'],4,0.8460998000000473,,,,,,,,35,18,Man,Rechts,2,
,xotask,xotask,dotcolour,50,1,110,110,training,positivefb,89,average,63,0.6171446000007563,['n'],0,left,['3'],4,0.18083690000003116,,,,,,,,35,18,Man,Rechts,2,
,xotask,xotask,dotcolour,51,1,111,111,training,positivefb,89,easy,70,0.9508200999998735,['c'],1,left,['2'],5,0.07992079999985435,,,,,,,,35,18,Man,Rechts,2,
,xotask,xotask,dotcolour,52,1,112,112,training,positivefb,98,easy,74,0.5663863999998284,['c'],1,left,['2'],5,0.11034310000013647,,,,,,,,35,18,Man,Rechts,2,
,xotask,xotask,dotcolour,53,1,113,113,training,positivefb,86,average,19,0.5016538999998374,['c'],0,right,['3'],4,0.566330999999991,,,,,,,,35,18,Man,Rechts,2,
,xotask,xotask,dotcolour,54,1,114,114,training,positivefb,99,hard,50,0.3844741000002614,['n'],0,left,['3'],4,0.18447629999991477,,,,,,,,35,18,Man,Rechts,2,
,xotask,xotask,dotcolour,55,1,115,115,training,positivefb,79,hard,53,0.5498192000004565,['c'],1,left,['3'],4,0.14766180000060558,,,,,,,,35,18,Man,Rechts,2,
,xotask,xotask,dotcolour,56,1,116,116,training,positivefb,93,hard,50,0.4008851999997205,['c'],1,left,['2'],5,0.19771140000011656,,,,,,,,35,18,Man,Rechts,2,
,xotask,xotask,dotcolour,57,1,117,117,training,positivefb,95,hard,50,0.41615550000005896,['n'],0,left,['2'],5,0.39672309999969,,,,,,,,35,18,Man,Rechts,2,
,xotask,xotask,dotcolour,58,1,118,118,training,positivefb,96,hard,26,0.5009912999994413,['c'],0,right,['8'],3,0.8495333000000755,,,,,,,,35,18,Man,Rechts,2,
,xotask,xotask,dotcolour,59,1,119,119,training,positivefb,95,easy,9,1.017800999999963,['n'],1,right,['3'],4,0.1750451999996585,,,,,,,,35,18,Man,Rechts,2,
,dotcolour,xotask,dotcolour,0,2,120,120,main,positivefb,-99,average,,1.3351007999999638,['c'],1,left,['3'],4,0.08734279999953287,52,,,,,,,35,18,Man,Rechts,2,
,dotcolour,xotask,dotcolour,1,2,121,121,main,positivefb,-99,hard,,1.767843399999947,['c'],0,right,['3'],4,0.10152440000001661,38,,,,,,,35,18,Man,Rechts,2,
,dotcolour,xotask,dotcolour,2,2,122,122,main,positivefb,-99,easy,,2.7509393000000273,['n'],1,right,['3'],4,0.15645749999930558,19,,,,,,,35,18,Man,Rechts,2,
,dotcolour,xotask,dotcolour,3,2,123,123,main,positivefb,-99,hard,,0.9167391000000862,['n'],1,right,['2'],5,0.13016679999964254,35,,,,,,,35,18,Man,Rechts,2,
,dotcolour,xotask,dotcolour,4,2,124,124,main,positivefb,-99,average,,0.7845663999996759,['c'],1,left,['2'],5,0.12687569999980042,51,,,,,,,35,18,Man,Rechts,2,
,dotcolour,xotask,dotcolour,5,2,125,125,main,positivefb,-99,easy,,0.7504422000001796,['c'],1,left,['2'],5,0.16547759999957634,64,,,,,,,35,18,Man,Rechts,2,
,dotcolour,xotask,dotcolour,6,2,126,126,main,positivefb,-99,average,,0.7671481000006679,['n'],1,right,['2'],5,0.1762165999998615,26,,,,,,,35,18,Man,Rechts,2,
,dotcolour,xotask,dotcolour,7,2,127,127,main,positivefb,-99,easy,,0.585208600000442,['c'],1,left,['2'],5,0.1790234000000055,63,,,,,,,35,18,Man,Rechts,2,
,dotcolour,xotask,dotcolour,8,2,128,128,main,positivefb,-99,easy,,0.5511188000000402,['n'],1,right,['2'],5,0.10271180000017921,16,,,,,,,35,18,Man,Rechts,2,
,dotcolour,xotask,dotcolour,9,2,129,129,main,positivefb,-99,average,,0.4682313000002978,['n'],1,right,['2'],5,0.07375909999973373,27,,,,,,,35,18,Man,Rechts,2,
,dotcolour,xotask,dotcolour,10,2,130,130,main,positivefb,-99,easy,,0.4011746000005587,['n'],1,right,['2'],5,0.07133220000014262,15,,,,,,,35,18,Man,Rechts,2,
,dotcolour,xotask,dotcolour,11,2,131,131,main,positivefb,-99,easy,,0.3679539000004297,['n'],1,right,['2'],5,0.12709850000010192,17,,,,,,,35,18,Man,Rechts,2,
,dotcolour,xotask,dotcolour,12,2,132,132,main,positivefb,-99,easy,,0.9179027000000133,['c'],1,left,['2'],5,0.07825020000018412,61,,,,,,,35,18,Man,Rechts,2,
,dotcolour,xotask,dotcolour,13,2,133,133,main,positivefb,-99,easy,,0.601345200000651,['c'],1,left,['2'],5,0.099574500000017,65,,,,,,,35,18,Man,Rechts,2,
,dotcolour,xotask,dotcolour,14,2,134,134,main,positivefb,-99,average,,0.4509563999999955,['n'],1,right,['2'],5,0.11925960000007763,25,,,,,,,35,18,Man,Rechts,2,
,dotcolour,xotask,dotcolour,15,2,135,135,main,positivefb,-99,average,,0.5180405000000974,['n'],1,right,['2'],5,0.11050169999998616,27,,,,,,,35,18,Man,Rechts,2,
,dotcolour,xotask,dotcolour,16,2,136,136,main,positivefb,-99,easy,,0.3680007000002661,['n'],1,right,['2'],5,0.12429010000050766,17,,,,,,,35,18,Man,Rechts,2,
,dotcolour,xotask,dotcolour,17,2,137,137,main,positivefb,-99,hard,,0.3840957000002163,['n'],1,right,['2'],5,0.1840690999997605,35,,,,,,,35,18,Man,Rechts,2,
,dotcolour,xotask,dotcolour,18,2,138,138,main,positivefb,-99,easy,,0.4846155000004728,['c'],1,left,['2'],5,0.06247960000018793,65,,,,,,,35,18,Man,Rechts,2,
,dotcolour,xotask,dotcolour,19,2,139,139,main,positivefb,-99,hard,,0.6181332999994993,['n'],1,right,['2'],5,0.10888830000021699,36,,,,,,,35,18,Man,Rechts,2,
,dotcolour,xotask,dotcolour,20,2,140,140,main,positivefb,-99,hard,,0.6345217000007324,['c'],0,right,['2'],5,0.19196000000010827,39,,,,,,,35,18,Man,Rechts,2,
,dotcolour,xotask,dotcolour,21,2,141,141,main,positivefb,-99,hard,,0.6513371999999436,['n'],1,right,['2'],5,0.13530919999993785,36,,,,,,,35,18,Man,Rechts,2,
,dotcolour,xotask,dotcolour,22,2,142,142,main,positivefb,-99,easy,,0.4678974999997081,['c'],0,right,['2'],5,0.1520712999999887,18,,,,,,,35,18,Man,Rechts,2,
,dotcolour,xotask,dotcolour,23,2,143,143,main,positivefb,-99,average,,0.683376799999678,['c'],1,left,['2'],5,0.1513160999993488,52,,,,,,,35,18,Man,Rechts,2,
,dotcolour,xotask,dotcolour,24,2,144,144,main,positivefb,-99,easy,,0.934050699999716,['c'],0,right,['2'],5,0.11676720000014029,15,,,,,,,35,18,Man,Rechts,2,
,dotcolour,xotask,dotcolour,25,2,145,145,main,positivefb,-99,average,,0.6342691999998351,['n'],1,right,['2'],5,0.14290759999948932,25,,,,,,,35,18,Man,Rechts,2,
,dotcolour,xotask,dotcolour,26,2,146,146,main,positivefb,-99,hard,,0.6174530999996932,['c'],1,left,['2'],5,0.12981660000059492,45,,,,,,,35,18,Man,Rechts,2,
,dotcolour,xotask,dotcolour,27,2,147,147,main,positivefb,-99,average,,0.5846119999996517,['c'],1,left,['2'],5,0.13466109999990294,51,,,,,,,35,18,Man,Rechts,2,
,dotcolour,xotask,dotcolour,28,2,148,148,main,positivefb,-99,easy,,0.4837821000000986,['c'],1,left,['2'],5,0.14320600000064587,62,,,,,,,35,18,Man,Rechts,2,
,dotcolour,xotask,dotcolour,29,2,149,149,main,positivefb,-99,hard,,0.701051500000176,['n'],0,left,['2'],5,0.15802530000019033,41,,,,,,,35,18,Man,Rechts,2,
,dotcolour,xotask,dotcolour,30,2,150,150,main,positivefb,-99,easy,,0.6351579000001948,['c'],1,left,['2'],5,0.18342420000044513,65,,,,,,,35,18,Man,Rechts,2,
,dotcolour,xotask,dotcolour,31,2,151,151,main,positivefb,-99,average,,0.516355000000658,['c'],1,left,['2'],5,0.14818239999931393,52,,,,,,,35,18,Man,Rechts,2,
,dotcolour,xotask,dotcolour,32,2,152,152,main,positivefb,-99,easy,,0.5504163999994489,['n'],1,right,['2'],5,0.12846189999982016,19,,,,,,,35,18,Man,Rechts,2,
,dotcolour,xotask,dotcolour,33,2,153,153,main,positivefb,-99,hard,,0.4518102000001818,['c'],1,left,['2'],5,0.18694069999946805,42,,,,,,,35,18,Man,Rechts,2,
,dotcolour,xotask,dotcolour,34,2,154,154,main,positivefb,-99,easy,,0.4653527000000395,['c'],1,left,['2'],5,0.1780650999999125,61,,,,,,,35,18,Man,Rechts,2,
,dotcolour,xotask,dotcolour,35,2,155,155,main,positivefb,-99,easy,,0.550514600000497,['c'],1,left,['2'],5,0.141031699999985,65,,,,,,,35,18,Man,Rechts,2,
,dotcolour,xotask,dotcolour,36,2,156,156,main,positivefb,-99,hard,,0.5001655000005485,['c'],1,left,['2'],5,0.14074110000001383,45,,,,,,,35,18,Man,Rechts,2,
,dotcolour,xotask,dotcolour,37,2,157,157,main,positivefb,-99,hard,,0.6501562000003105,['c'],1,left,['2'],5,0.20650370000021212,43,,,,,,,35,18,Man,Rechts,2,
,dotcolour,xotask,dotcolour,38,2,158,158,main,positivefb,-99,average,,0.634219700000358,['c'],1,left,['2'],5,0.09331619999920804,51,,,,,,,35,18,Man,Rechts,2,
,dotcolour,xotask,dotcolour,39,2,159,159,main,positivefb,-99,average,,0.4672392000002219,['c'],1,left,['2'],5,0.1359400999999707,55,,,,,,,35,18,Man,Rechts,2,
,dotcolour,xotask,dotcolour,40,2,160,160,main,positivefb,-99,hard,,0.484448600000178,['c'],0,right,['2'],5,0.16820279999956256,35,,,,,,,35,18,Man,Rechts,2,
,dotcolour,xotask,dotcolour,41,2,161,161,main,positivefb,-99,hard,,0.7172037999998793,['c'],1,left,['2'],5,0.1736319999999978,42,,,,,,,35,18,Man,Rechts,2,
,dotcolour,xotask,dotcolour,42,2,162,162,main,positivefb,-99,hard,,0.6830847000001086,['c'],0,right,['3'],4,0.6522798000005423,39,,,,,,,35,18,Man,Rechts,2,
,dotcolour,xotask,dotcolour,43,2,163,163,main,positivefb,-99,average,,0.534273199999916,['n'],1,right,['2'],5,0.10152899999957299,27,,,,,,,35,18,Man,Rechts,2,
,dotcolour,xotask,dotcolour,44,2,164,164,main,positivefb,-99,hard,,0.6671747000000323,['c'],1,left,['2'],5,0.13542230000075506,42,,,,,,,35,18,Man,Rechts,2,
,dotcolour,xotask,dotcolour,45,2,165,165,main,positivefb,-99,average,,0.5331086000005598,['n'],1,right,['2'],5,0.16567679999934626,26,,,,,,,35,18,Man,Rechts,2,
,dotcolour,xotask,dotcolour,46,2,166,166,main,positivefb,-99,hard,,0.7855715999994572,['c'],1,left,['2'],5,0.1286576000002242,44,,,,,,,35,18,Man,Rechts,2,
,dotcolour,xotask,dotcolour,47,2,167,167,main,positivefb,-99,average,,0.7172249999994165,['n'],1,right,['2'],5,0.16760669999985112,29,,,,,,,35,18,Man,Rechts,2,
,dotcolour,xotask,dotcolour,48,2,168,168,main,positivefb,-99,easy,,0.5003789000002143,['n'],1,right,['2'],5,0.18191269999988435,17,,,,,,,35,18,Man,Rechts,2,
,dotcolour,xotask,dotcolour,49,2,169,169,main,positivefb,-99,hard,,0.7182618000006187,['c'],1,left,['2'],5,0.1543338000001313,42,,,,,,,35,18,Man,Rechts,2,
,dotcolour,xotask,dotcolour,50,2,170,170,main,positivefb,-99,hard,,0.5841931999993903,['c'],0,right,['2'],5,0.13374329999987822,39,,,,,,,35,18,Man,Rechts,2,
,dotcolour,xotask,dotcolour,51,2,171,171,main,positivefb,-99,average,,0.5498999999999796,['c'],1,left,['2'],5,0.15482929999961925,52,,,,,,,35,18,Man,Rechts,2,
,dotcolour,xotask,dotcolour,52,2,172,172,main,positivefb,-99,average,,0.5180780000000595,['c'],1,left,['2'],5,0.16926580000017566,53,,,,,,,35,18,Man,Rechts,2,
,dotcolour,xotask,dotcolour,53,2,173,173,main,positivefb,-99,average,,0.5672305999996752,['n'],1,right,['2'],5,0.124206100000265,25,,,,,,,35,18,Man,Rechts,2,
,dotcolour,xotask,dotcolour,54,2,174,174,main,positivefb,-99,easy,,0.6673434999993333,['n'],0,left,['2'],5,0.22990199999912875,64,,,,,,,35,18,Man,Rechts,2,
,dotcolour,xotask,dotcolour,55,2,175,175,main,positivefb,-99,hard,,1.0177160000002914,['c'],1,left,['2'],5,0.15725730000031035,44,,,,,,,35,18,Man,Rechts,2,
,dotcolour,xotask,dotcolour,56,2,176,176,main,positivefb,-99,average,,0.6019022999998924,['n'],1,right,['2'],5,0.15973980000035226,25,,,,,,,35,18,Man,Rechts,2,
,dotcolour,xotask,dotcolour,57,2,177,177,main,positivefb,-99,hard,,0.5680230999996638,['n'],1,right,['2'],5,0.13211749999936728,39,,,,,,,35,18,Man,Rechts,2,
,dotcolour,xotask,dotcolour,58,2,178,178,main,positivefb,-99,average,,0.7848544999997102,['c'],1,left,['2'],5,0.13586269999996148,54,,,,,,,35,18,Man,Rechts,2,
,dotcolour,xotask,dotcolour,59,2,179,179,main,positivefb,-99,easy,,0.6329977999994298,['n'],1,right,['2'],5,0.12957000000005792,18,,,,,,,35,18,Man,Rechts,2,
,dotcolour,xotask,dotcolour,0,3,180,180,main,positivefb,-99,easy,,3.68452249999973,['n'],0,left,['2'],5,0.17491959999915707,62,,,,,,,35,18,Man,Rechts,2,
,dotcolour,xotask,dotcolour,1,3,181,181,main,positivefb,-99,average,,0.46723649999967165,['n'],1,right,['2'],5,0.11894529999972292,27,,,,,,,35,18,Man,Rechts,2,
,dotcolour,xotask,dotcolour,2,3,182,182,main,positivefb,-99,average,,0.6185207999997147,['n'],1,right,['2'],5,0.13061370000013994,25,,,,,,,35,18,Man,Rechts,2,
,dotcolour,xotask,dotcolour,3,3,183,183,main,positivefb,-99,easy,,0.5351713000000018,['n'],1,right,['2'],5,0.16021079999973153,15,,,,,,,35,18,Man,Rechts,2,
,dotcolour,xotask,dotcolour,4,3,184,184,main,positivefb,-99,average,,0.5684307000001354,['n'],1,right,['2'],5,0.11671910000040953,25,,,,,,,35,18,Man,Rechts,2,
,dotcolour,xotask,dotcolour,5,3,185,185,main,positivefb,-99,average,,0.7007914000005258,['c'],1,left,['2'],5,0.15752960000008898,53,,,,,,,35,18,Man,Rechts,2,
,dotcolour,xotask,dotcolour,6,3,186,186,main,positivefb,-99,average,,0.6011729000001651,['c'],1,left,['2'],5,0.15156999999999243,53,,,,,,,35,18,Man,Rechts,2,
,dotcolour,xotask,dotcolour,7,3,187,187,main,positivefb,-99,hard,,0.3674503000002005,['c'],0,right,['2'],5,0.11490709999998217,38,,,,,,,35,18,Man,Rechts,2,
,dotcolour,xotask,dotcolour,8,3,188,188,main,positivefb,-99,easy,,0.4172667000002548,['c'],1,left,['2'],5,0.10255919999963226,64,,,,,,,35,18,Man,Rechts,2,
,dotcolour,xotask,dotcolour,9,3,189,189,main,positivefb,-99,easy,,0.40124399999967864,['n'],1,right,['2'],5,0.14000099999975646,19,,,,,,,35,18,Man,Rechts,2,
,dotcolour,xotask,dotcolour,10,3,190,190,main,positivefb,-99,average,,0.40130670000053215,['n'],1,right,['2'],5,0.11855060000016238,25,,,,,,,35,18,Man,Rechts,2,
,dotcolour,xotask,dotcolour,11,3,191,191,main,positivefb,-99,hard,,0.36715860000003886,['n'],1,right,['2'],5,0.14781930000026478,39,,,,,,,35,18,Man,Rechts,2,
,dotcolour,xotask,dotcolour,12,3,192,192,main,positivefb,-99,hard,,0.334881800000403,['c'],0,right,['2'],5,0.11332270000002609,36,,,,,,,35,18,Man,Rechts,2,
,dotcolour,xotask,dotcolour,13,3,193,193,main,positivefb,-99,average,,0.30074100000001636,['n'],0,left,['2'],5,0.19441049999932147,53,,,,,,,35,18,Man,Rechts,2,
,dotcolour,xotask,dotcolour,14,3,194,194,main,positivefb,-99,average,,0.4662047000001621,['c'],1,left,['2'],5,0.11244130000068253,51,,,,,,,35,18,Man,Rechts,2,
,dotcolour,xotask,dotcolour,15,3,195,195,main,positivefb,-99,hard,,0.3010293000006641,['c'],0,right,['2'],5,0.12978470000052766,35,,,,,,,35,18,Man,Rechts,2,
,dotcolour,xotask,dotcolour,16,3,196,196,main,positivefb,-99,easy,,1.0500368000002709,['c'],1,left,['2'],5,0.09190560000024561,65,,,,,,,35,18,Man,Rechts,2,
,dotcolour,xotask,dotcolour,17,3,197,197,main,positivefb,-99,average,,0.4173610000007102,['c'],1,left,['2'],5,0.11224049999964336,55,,,,,,,35,18,Man,Rechts,2,
,dotcolour,xotask,dotcolour,18,3,198,198,main,positivefb,-99,average,,0.3175935999997819,['c'],1,left,['2'],5,0.1048118999997314,55,,,,,,,35,18,Man,Rechts,2,
,dotcolour,xotask,dotcolour,19,3,199,199,main,positivefb,-99,hard,,0.3840393000000404,['c'],0,right,['2'],5,0.30178020000039396,38,,,,,,,35,18,Man,Rechts,2,
,dotcolour,xotask,dotcolour,20,3,200,200,main,positivefb,-99,hard,,0.5832087999997384,['n'],0,left,['2'],5,0.1626272000003155,41,,,,,,,35,18,Man,Rechts,2,
,dotcolour,xotask,dotcolour,21,3,201,201,main,positivefb,-99,easy,,0.45150009999997565,['c'],0,right,['2'],5,0.13214670000070328,19,,,,,,,35,18,Man,Rechts,2,
,dotcolour,xotask,dotcolour,22,3,202,202,main,positivefb,-99,easy,,0.9667045000005601,['c'],1,left,['2'],5,0.10467419999986305,65,,,,,,,35,18,Man,Rechts,2,
,dotcolour,xotask,dotcolour,23,3,203,203,main,positivefb,-99,average,,0.650450400000409,['n'],1,right,['2'],5,0.19468330000017886,28,,,,,,,35,18,Man,Rechts,2,
,dotcolour,xotask,dotcolour,24,3,204,204,main,positivefb,-99,easy,,0.8679027999996833,['c'],1,left,['1'],6,0.0984483000002001,63,,,,,,,35,18,Man,Rechts,2,
,dotcolour,xotask,dotcolour,25,3,205,205,main,positivefb,-99,hard,,0.9335386999991897,['n'],0,left,['2'],5,0.160896600000342,42,,,,,,,35,18,Man,Rechts,2,
,dotcolour,xotask,dotcolour,26,3,206,206,main,positivefb,-99,average,,0.7511508999996295,['n'],1,right,['2'],5,0.15813770000022487,27,,,,,,,35,18,Man,Rechts,2,
,dotcolour,xotask,dotcolour,27,3,207,207,main,positivefb,-99,average,,0.5827597999996215,['c'],1,left,['2'],5,0.20937989999947604,51,,,,,,,35,18,Man,Rechts,2,
,dotcolour,xotask,dotcolour,28,3,208,208,main,positivefb,-99,average,,0.6176237999998193,['n'],1,right,['2'],5,0.18455180000000837,26,,,,,,,35,18,Man,Rechts,2,
,dotcolour,xotask,dotcolour,29,3,209,209,main,positivefb,-99,hard,,0.6832812000002377,['c'],1,left,['2'],5,0.1758284999996249,41,,,,,,,35,18,Man,Rechts,2,
,dotcolour,xotask,dotcolour,30,3,210,210,main,positivefb,-99,hard,,0.9508504000004905,['n'],0,left,['2'],5,0.24296919999960664,43,,,,,,,35,18,Man,Rechts,2,
,dotcolour,xotask,dotcolour,31,3,211,211,main,positivefb,-99,hard,,0.6509519999999611,['c'],1,left,['2'],5,0.1046636999999464,42,,,,,,,35,18,Man,Rechts,2,
,dotcolour,xotask,dotcolour,32,3,212,212,main,positivefb,-99,easy,,0.5672231999997166,['c'],1,left,['2'],5,0.0949971000000005,65,,,,,,,35,18,Man,Rechts,2,
,dotcolour,xotask,dotcolour,33,3,213,213,main,positivefb,-99,average,,0.5343443000001571,['c'],1,left,['2'],5,0.14230529999986175,51,,,,,,,35,18,Man,Rechts,2,
,dotcolour,xotask,dotcolour,34,3,214,214,main,positivefb,-99,easy,,0.5507963000000018,['c'],1,left,['2'],5,0.13148480000018026,63,,,,,,,35,18,Man,Rechts,2,
,dotcolour,xotask,dotcolour,35,3,215,215,main,positivefb,-99,easy,,0.8006796999998187,['n'],1,right,['2'],5,0.12726850000035483,19,,,,,,,35,18,Man,Rechts,2,
,dotcolour,xotask,dotcolour,36,3,216,216,main,positivefb,-99,average,,0.5672690000001239,['c'],1,left,['2'],5,0.14025840000067546,53,,,,,,,35,18,Man,Rechts,2,
,dotcolour,xotask,dotcolour,37,3,217,217,main,positivefb,-99,hard,,0.5334061000003203,['c'],1,left,['2'],5,0.12241749999975582,41,,,,,,,35,18,Man,Rechts,2,
,dotcolour,xotask,dotcolour,38,3,218,218,main,positivefb,-99,hard,,0.5506618999997954,['c'],1,left,['2'],5,0.09668039999996836,41,,,,,,,35,18,Man,Rechts,2,
,dotcolour,xotask,dotcolour,39,3,219,219,main,positivefb,-99,easy,,0.7342028000002756,['n'],1,right,['2'],5,0.15222799999992276,17,,,,,,,35,18,Man,Rechts,2,
,dotcolour,xotask,dotcolour,40,3,220,220,main,positivefb,-99,hard,,0.5835995999996157,['n'],1,right,['2'],5,0.21964529999968363,35,,,,,,,35,18,Man,Rechts,2,
,dotcolour,xotask,dotcolour,41,3,221,221,main,positivefb,-99,average,,0.5680786000002627,['n'],1,right,['2'],5,0.14111330000014277,28,,,,,,,35,18,Man,Rechts,2,
,dotcolour,xotask,dotcolour,42,3,222,222,main,positivefb,-99,easy,,0.5006401000000551,['n'],1,right,['2'],5,0.14906040000005305,16,,,,,,,35,18,Man,Rechts,2,
,dotcolour,xotask,dotcolour,43,3,223,223,main,positivefb,-99,hard,,0.6674157999996169,['c'],0,right,['2'],5,0.1645013999996081,36,,,,,,,35,18,Man,Rechts,2,
,dotcolour,xotask,dotcolour,44,3,224,224,main,positivefb,-99,hard,,0.6177139999999781,['c'],0,right,['2'],5,0.19729730000017298,37,,,,,,,35,18,Man,Rechts,2,
,dotcolour,xotask,dotcolour,45,3,225,225,main,positivefb,-99,easy,,0.7676541000000725,['c'],1,left,['2'],5,0.24017240000011952,65,,,,,,,35,18,Man,Rechts,2,
,dotcolour,xotask,dotcolour,46,3,226,226,main,positivefb,-99,hard,,0.5506303000001935,['n'],0,left,['2'],5,0.14522319999923639,42,,,,,,,35,18,Man,Rechts,2,
,dotcolour,xotask,dotcolour,47,3,227,227,main,positivefb,-99,hard,,0.8497246000006271,['n'],0,left,['2'],5,0.14659370000026684,43,,,,,,,35,18,Man,Rechts,2,
,dotcolour,xotask,dotcolour,48,3,228,228,main,positivefb,-99,easy,,0.8341159999999945,['n'],0,left,['8'],3,0.9248543000003338,62,,,,,,,35,18,Man,Rechts,2,
,dotcolour,xotask,dotcolour,49,3,229,229,main,positivefb,-99,easy,,0.618442099999811,['n'],1,right,['2'],5,0.2716355000002295,19,,,,,,,35,18,Man,Rechts,2,
,dotcolour,xotask,dotcolour,50,3,230,230,main,positivefb,-99,hard,,0.5340229000003092,['c'],1,left,['2'],5,0.1533095000004323,45,,,,,,,35,18,Man,Rechts,2,
,dotcolour,xotask,dotcolour,51,3,231,231,main,positivefb,-99,hard,,0.43468959999972867,['c'],0,right,['2'],5,0.12201699999968696,35,,,,,,,35,18,Man,Rechts,2,
,dotcolour,xotask,dotcolour,52,3,232,232,main,positivefb,-99,easy,,0.40122150000024703,['n'],1,right,['2'],5,0.19803649999994377,16,,,,,,,35,18,Man,Rechts,2,
,dotcolour,xotask,dotcolour,53,3,233,233,main,positivefb,-99,hard,,0.6510754000000816,['c'],0,right,['2'],5,0.17264979999981733,38,,,,,,,35,18,Man,Rechts,2,
,dotcolour,xotask,dotcolour,54,3,234,234,main,positivefb,-99,average,,0.6177717000000484,['n'],1,right,['2'],5,1.4223545000004378,25,,,,,,,35,18,Man,Rechts,2,
,dotcolour,xotask,dotcolour,55,3,235,235,main,positivefb,-99,easy,,0.41694079999979294,['n'],1,right,['2'],5,0.12477510000007896,15,,,,,,,35,18,Man,Rechts,2,
,dotcolour,xotask,dotcolour,56,3,236,236,main,positivefb,-99,easy,,0.3841997999998057,['n'],0,left,['1'],6,0.47404439999991155,61,,,,,,,35,18,Man,Rechts,2,
,dotcolour,xotask,dotcolour,57,3,237,237,main,positivefb,-99,average,,0.9178930999996737,['c'],1,left,['2'],5,0.12338459999955376,55,,,,,,,35,18,Man,Rechts,2,
,dotcolour,xotask,dotcolour,58,3,238,238,main,positivefb,-99,easy,,0.6336697000006097,['n'],1,right,['2'],5,0.13409649999994144,15,,,,,,,35,18,Man,Rechts,2,
,dotcolour,xotask,dotcolour,59,3,239,239,main,positivefb,-99,average,,0.5502727000002778,['n'],1,right,['2'],5,0.1633417000002737,29,,,,,,,35,18,Man,Rechts,2,
,dotcolour,xotask,dotcolour,0,4,240,240,main,positivefb,-99,average,,0.6351435999995374,['n'],1,right,['2'],5,0.14816870000049676,25,,,,,,,35,18,Man,Rechts,2,
,dotcolour,xotask,dotcolour,1,4,241,241,main,positivefb,-99,average,,0.384163400000034,['n'],1,right,['2'],5,0.13583849999940867,29,,,,,,,35,18,Man,Rechts,2,
,dotcolour,xotask,dotcolour,2,4,242,242,main,positivefb,-99,hard,,0.35060210000028746,['n'],0,left,['2'],5,0.11753669999961858,45,,,,,,,35,18,Man,Rechts,2,
,dotcolour,xotask,dotcolour,3,4,243,243,main,positivefb,-99,hard,,0.4506355000003168,['n'],1,right,['2'],5,0.13486730000022362,38,,,,,,,35,18,Man,Rechts,2,
,dotcolour,xotask,dotcolour,4,4,244,244,main,positivefb,-99,easy,,0.29953720000048634,['n'],0,left,['2'],5,0.206802499999867,62,,,,,,,35,18,Man,Rechts,2,
,dotcolour,xotask,dotcolour,5,4,245,245,main,positivefb,-99,hard,,0.9172127000001637,['n'],0,left,['2'],5,0.1304868000006536,42,,,,,,,35,18,Man,Rechts,2,
,dotcolour,xotask,dotcolour,6,4,246,246,main,positivefb,-99,hard,,0.4843888999994306,['n'],1,right,['2'],5,0.1711457999999766,39,,,,,,,35,18,Man,Rechts,2,
,dotcolour,xotask,dotcolour,7,4,247,247,main,positivefb,-99,hard,,0.5675103999992643,['n'],0,left,['2'],5,0.12606030000006285,44,,,,,,,35,18,Man,Rechts,2,
,dotcolour,xotask,dotcolour,8,4,248,248,main,positivefb,-99,average,,0.5511426000002757,['n'],0,left,['2'],5,0.16488269999990735,55,,,,,,,35,18,Man,Rechts,2,
,dotcolour,xotask,dotcolour,9,4,249,249,main,positivefb,-99,hard,,1.001154100000349,['c'],1,left,['3'],4,0.43880450000051496,43,,,,,,,35,18,Man,Rechts,2,
,dotcolour,xotask,dotcolour,10,4,250,250,main,positivefb,-99,easy,,0.5507225000001199,['n'],1,right,['2'],5,0.20812870000008843,18,,,,,,,35,18,Man,Rechts,2,
,dotcolour,xotask,dotcolour,11,4,251,251,main,positivefb,-99,average,,0.4516677999999956,['n'],1,right,['2'],5,0.12655129999984638,29,,,,,,,35,18,Man,Rechts,2,
,dotcolour,xotask,dotcolour,12,4,252,252,main,positivefb,-99,easy,,0.5008553999996366,['n'],1,right,['2'],5,0.1346627000002627,19,,,,,,,35,18,Man,Rechts,2,
,dotcolour,xotask,dotcolour,13,4,253,253,main,positivefb,-99,easy,,0.6331199999995079,['c'],1,left,['1'],6,0.16901529999995546,63,,,,,,,35,18,Man,Rechts,2,
,dotcolour,xotask,dotcolour,14,4,254,254,main,positivefb,-99,hard,,0.6682588000003307,['n'],0,left,['2'],5,0.127719199999774,45,,,,,,,35,18,Man,Rechts,2,
,dotcolour,xotask,dotcolour,15,4,255,255,main,positivefb,-99,average,,0.7003277000003436,['n'],0,left,['2'],5,0.11938479999935225,55,,,,,,,35,18,Man,Rechts,2,
,dotcolour,xotask,dotcolour,16,4,256,256,main,positivefb,-99,easy,,0.8013468999997713,['n'],1,right,['1'],6,0.13941399999930582,19,,,,,,,35,18,Man,Rechts,2,
,dotcolour,xotask,dotcolour,17,4,257,257,main,positivefb,-99,average,,0.9669706000004226,['c'],1,left,['2'],5,0.13637559999915538,55,,,,,,,35,18,Man,Rechts,2,
,dotcolour,xotask,dotcolour,18,4,258,258,main,positivefb,-99,hard,,0.7181768000000375,['n'],1,right,['2'],5,0.11936080000032234,36,,,,,,,35,18,Man,Rechts,2,
,dotcolour,xotask,dotcolour,19,4,259,259,main,positivefb,-99,hard,,0.6688561999999365,['n'],0,left,['2'],5,0.11990530000002764,44,,,,,,,35,18,Man,Rechts,2,
,dotcolour,xotask,dotcolour,20,4,260,260,main,positivefb,-99,easy,,0.6007715999994616,['n'],1,right,['1'],6,0.332703500000207,16,,,,,,,35,18,Man,Rechts,2,
,dotcolour,xotask,dotcolour,21,4,261,261,main,positivefb,-99,hard,,0.6339876000001823,['n'],0,left,['2'],5,0.1825207000001683,41,,,,,,,35,18,Man,Rechts,2,
,dotcolour,xotask,dotcolour,22,4,262,262,main,positivefb,-99,average,,1.9353029999992941,['n'],1,right,['2'],5,0.13081790000069304,27,,,,,,,35,18,Man,Rechts,2,
,dotcolour,xotask,dotcolour,23,4,263,263,main,positivefb,-99,hard,,0.6847466999997778,['n'],1,right,['2'],5,0.15557689999968716,39,,,,,,,35,18,Man,Rechts,2,
,dotcolour,xotask,dotcolour,24,4,264,264,main,positivefb,-99,easy,,0.5505589000003965,['c'],1,left,['2'],5,0.11160039999958826,62,,,,,,,35,18,Man,Rechts,2,
,dotcolour,xotask,dotcolour,25,4,265,265,main,positivefb,-99,easy,,0.7007603000001836,['n'],0,left,['8'],3,0.7926743000007264,64,,,,,,,35,18,Man,Rechts,2,
,dotcolour,xotask,dotcolour,26,4,266,266,main,positivefb,-99,hard,,0.667515000000094,['c'],0,right,['2'],5,0.1675137000001996,35,,,,,,,35,18,Man,Rechts,2,
,dotcolour,xotask,dotcolour,27,4,267,267,main,positivefb,-99,average,,0.5511012999995728,['c'],1,left,['2'],5,0.1472113999998328,52,,,,,,,35,18,Man,Rechts,2,
,dotcolour,xotask,dotcolour,28,4,268,268,main,positivefb,-99,average,,0.567836599999282,['c'],1,left,['2'],5,0.11956910000026255,52,,,,,,,35,18,Man,Rechts,2,
,dotcolour,xotask,dotcolour,29,4,269,269,main,positivefb,-99,easy,,0.4506486999998742,['c'],0,right,['2'],5,0.12994290000006004,19,,,,,,,35,18,Man,Rechts,2,
,dotcolour,xotask,dotcolour,30,4,270,270,main,positivefb,-99,hard,,0.7838713000001007,['n'],1,right,['2'],5,0.15872859999944922,38,,,,,,,35,18,Man,Rechts,2,
,dotcolour,xotask,dotcolour,31,4,271,271,main,positivefb,-99,easy,,0.4338059000001522,['n'],1,right,['2'],5,0.191800499999772,16,,,,,,,35,18,Man,Rechts,2,
,dotcolour,xotask,dotcolour,32,4,272,272,main,positivefb,-99,easy,,0.48398679999991145,['n'],1,right,['2'],5,0.15799019999940356,15,,,,,,,35,18,Man,Rechts,2,
,dotcolour,xotask,dotcolour,33,4,273,273,main,positivefb,-99,hard,,0.433026499999869,['n'],1,right,['2'],5,0.159716600000138,36,,,,,,,35,18,Man,Rechts,2,
,dotcolour,xotask,dotcolour,34,4,274,274,main,positivefb,-99,average,,0.4015278999995644,['n'],1,right,['2'],5,0.19406080000044312,28,,,,,,,35,18,Man,Rechts,2,
,dotcolour,xotask,dotcolour,35,4,275,275,main,positivefb,-99,hard,,0.41787399999975605,['n'],0,left,['2'],5,0.3227888000001258,43,,,,,,,35,18,Man,Rechts,2,
,dotcolour,xotask,dotcolour,36,4,276,276,main,positivefb,-99,average,,0.3512193999995361,['n'],1,right,['2'],5,0.12889139999970212,27,,,,,,,35,18,Man,Rechts,2,
,dotcolour,xotask,dotcolour,37,4,277,277,main,positivefb,-99,easy,,0.43448739999985264,['n'],0,left,['3'],4,0.7151104000004125,63,,,,,,,35,18,Man,Rechts,2,
,dotcolour,xotask,dotcolour,38,4,278,278,main,positivefb,-99,easy,,0.6844607000002725,['n'],1,right,['2'],5,0.1640627000006134,15,,,,,,,35,18,Man,Rechts,2,
,dotcolour,xotask,dotcolour,39,4,279,279,main,positivefb,-99,hard,,0.4508341000000655,['n'],1,right,['2'],5,0.1730413999994198,38,,,,,,,35,18,Man,Rechts,2,
,dotcolour,xotask,dotcolour,40,4,280,280,main,positivefb,-99,average,,0.3508185999999114,['n'],0,left,['2'],5,0.21744810000018333,54,,,,,,,35,18,Man,Rechts,2,
,dotcolour,xotask,dotcolour,41,4,281,281,main,positivefb,-99,easy,,0.3844077000003381,['n'],1,right,['2'],5,0.1211208999993687,16,,,,,,,35,18,Man,Rechts,2,
,dotcolour,xotask,dotcolour,42,4,282,282,main,positivefb,-99,hard,,0.43350250000003143,['n'],0,left,['2'],5,0.11598830000002636,43,,,,,,,35,18,Man,Rechts,2,
,dotcolour,xotask,dotcolour,43,4,283,283,main,positivefb,-99,easy,,1.3010905999999522,['c'],1,left,['2'],5,0.172438499999771,65,,,,,,,35,18,Man,Rechts,2,
,dotcolour,xotask,dotcolour,44,4,284,284,main,positivefb,-99,average,,1.0846169999995254,['n'],1,right,['3'],4,0.16271280000000843,29,,,,,,,35,18,Man,Rechts,2,
,dotcolour,xotask,dotcolour,45,4,285,285,main,positivefb,-99,easy,,0.6349344000000201,['n'],1,right,['3'],4,0.1164214999998876,15,,,,,,,35,18,Man,Rechts,2,
,dotcolour,xotask,dotcolour,46,4,286,286,main,positivefb,-99,average,,0.9008089999997537,['n'],1,right,['2'],5,0.8922866000002614,25,,,,,,,35,18,Man,Rechts,2,
,dotcolour,xotask,dotcolour,47,4,287,287,main,positivefb,-99,average,,0.48373519999950076,['n'],0,left,['8'],3,0.7258551000004445,55,,,,,,,35,18,Man,Rechts,2,
,dotcolour,xotask,dotcolour,48,4,288,288,main,positivefb,-99,average,,0.717225899999903,['c'],1,left,['2'],5,0.16524670000035258,52,,,,,,,35,18,Man,Rechts,2,
,dotcolour,xotask,dotcolour,49,4,289,289,main,positivefb,-99,average,,0.6354195999992953,['n'],1,right,['2'],5,0.13394630000038887,25,,,,,,,35,18,Man,Rechts,2,
,dotcolour,xotask,dotcolour,50,4,290,290,main,positivefb,-99,easy,,0.6845703999997568,['c'],1,left,['2'],5,0.17464099999961036,63,,,,,,,35,18,Man,Rechts,2,
,dotcolour,xotask,dotcolour,51,4,291,291,main,positivefb,-99,hard,,0.5993848000007347,['c'],0,right,['2'],5,0.14430149999952846,38,,,,,,,35,18,Man,Rechts,2,
,dotcolour,xotask,dotcolour,52,4,292,292,main,positivefb,-99,hard,,0.48504529999991064,['n'],1,right,['2'],5,0.1444632000002457,39,,,,,,,35,18,Man,Rechts,2,
,dotcolour,xotask,dotcolour,53,4,293,293,main,positivefb,-99,average,,0.48307500000009895,['n'],0,left,['2'],5,0.16816219999964233,55,,,,,,,35,18,Man,Rechts,2,
,dotcolour,xotask,dotcolour,54,4,294,294,main,positivefb,-99,easy,,0.5336295999995855,['c'],1,left,['1'],6,0.2612083999993047,65,,,,,,,35,18,Man,Rechts,2,
,dotcolour,xotask,dotcolour,55,4,295,295,main,positivefb,-99,average,,0.8512332000000242,['n'],0,left,['2'],5,0.15430989999913436,55,,,,,,,35,18,Man,Rechts,2,
,dotcolour,xotask,dotcolour,56,4,296,296,main,positivefb,-99,easy,,0.9847110000000612,['c'],1,left,['2'],5,0.11730100000022503,61,,,,,,,35,18,Man,Rechts,2,
,dotcolour,xotask,dotcolour,57,4,297,297,main,positivefb,-99,hard,,0.6678683999998611,['c'],1,left,['2'],5,0.11041730000033567,43,,,,,,,35,18,Man,Rechts,2,
,dotcolour,xotask,dotcolour,58,4,298,298,main,positivefb,-99,easy,,0.5178077000000485,['c'],1,left,['2'],5,0.11035979999996925,61,,,,,,,35,18,Man,Rechts,2,
,dotcolour,xotask,dotcolour,59,4,299,299,main,positivefb,-99,average,,0.5010874999998123,['n'],1,right,['2'],5,0.13528670000050624,27,,,,,,,35,18,Man,Rechts,2,
,xotask,xotask,dotcolour,0,0,0,300,training,positivefb,96,average,64,0.8170859000001656,['c'],1,left,['2'],5,0.10735990000011952,,,,,,,,35,18,Man,Rechts,2,
,xotask,xotask,dotcolour,1,0,1,301,training,positivefb,95,average,18,0.7002093000000968,['n'],1,right,['2'],5,0.11567030000060186,,,,,,,,35,18,Man,Rechts,2,
,xotask,xotask,dotcolour,2,0,2,302,training,positivefb,93,average,18,0.8005737000003137,['n'],1,right,['3'],4,0.07074779999948078,,,,,,,,35,18,Man,Rechts,2,
,xotask,xotask,dotcolour,3,0,3,303,training,positivefb,95,hard,25,0.5669668999998976,['n'],1,right,['2'],5,0.11729379999997036,,,,,,,,35,18,Man,Rechts,2,
,xotask,xotask,dotcolour,4,0,4,304,training,positivefb,93,average,61,0.6338887000001705,['c'],1,left,['2'],5,0.04741899999953603,,,,,,,,35,18,Man,Rechts,2,
,xotask,xotask,dotcolour,5,0,5,305,training,positivefb,98,average,61,0.38354160000017146,['c'],1,left,['2'],5,0.0147250999998505,,,,,,,,35,18,Man,Rechts,2,
,xotask,xotask,dotcolour,6,0,6,306,training,positivefb,93,easy,74,0.6165109000003213,['c'],1,left,['2'],5,0.013633499999741616,,,,,,,,35,18,Man,Rechts,2,
,xotask,xotask,dotcolour,7,0,7,307,training,positivefb,88,hard,25,0.8003515000000334,['c'],0,right,['2'],5,0.0855306000003111,,,,,,,,35,18,Man,Rechts,2,
,xotask,xotask,dotcolour,8,0,8,308,training,positivefb,77,average,62,1.000747300000512,['n'],0,left,['2'],5,0.1056178999997428,,,,,,,,35,18,Man,Rechts,2,
,xotask,xotask,dotcolour,9,0,9,309,training,positivefb,95,average,19,0.8830330999999205,['n'],1,right,['2'],5,0.09895500000038737,,,,,,,,35,18,Man,Rechts,2,
,xotask,xotask,dotcolour,10,0,10,310,training,positivefb,76,easy,8,3.2006551000004038,['n'],1,right,['2'],5,0.12712049999936426,,,,,,,,35,18,Man,Rechts,2,
,xotask,xotask,dotcolour,11,0,11,311,training,positivefb,97,average,64,0.550672499999564,['c'],1,left,['2'],5,0.06796810000014375,,,,,,,,35,18,Man,Rechts,2,
,xotask,xotask,dotcolour,12,0,12,312,training,positivefb,99,hard,53,0.33367289999932837,['c'],1,left,['2'],5,0.01187370000025112,,,,,,,,35,18,Man,Rechts,2,
,xotask,xotask,dotcolour,13,0,13,313,training,positivefb,93,average,15,0.4670438000002832,['n'],1,right,['2'],5,0.057964699999502045,,,,,,,,35,18,Man,Rechts,2,
,xotask,xotask,dotcolour,14,0,14,314,training,positivefb,86,hard,50,0.582613699999456,['n'],0,left,['2'],5,0.0798664000003555,,,,,,,,35,18,Man,Rechts,2,
,xotask,xotask,dotcolour,15,0,15,315,training,positivefb,91,easy,9,0.5002432000001136,['n'],1,right,['2'],5,0.06515529999978753,,,,,,,,35,18,Man,Rechts,2,
,xotask,xotask,dotcolour,16,0,16,316,training,positivefb,94,hard,51,0.533936800000447,['c'],1,left,['2'],5,0.09016260000043985,,,,,,,,35,18,Man,Rechts,2,
,xotask,xotask,dotcolour,17,0,17,317,training,positivefb,94,hard,50,0.8507085999999617,['c'],1,left,['2'],5,0.06864009999935661,,,,,,,,35,18,Man,Rechts,2,
,xotask,xotask,dotcolour,18,0,18,318,training,positivefb,96,easy,71,0.4828075000004901,['c'],1,left,['2'],5,0.02240540000002511,,,,,,,,35,18,Man,Rechts,2,
,xotask,xotask,dotcolour,19,0,19,319,training,positivefb,97,easy,7,0.4346248000001651,['n'],1,right,['2'],5,0.05260109999926499,,,,,,,,35,18,Man,Rechts,2,
,xotask,xotask,dotcolour,20,0,20,320,training,positivefb,98,hard,25,0.40087620000031166,['c'],0,right,['2'],5,0.04990619999989576,,,,,,,,35,18,Man,Rechts,2,
,xotask,xotask,dotcolour,21,0,21,321,training,positivefb,96,average,61,0.48435479999989184,['n'],0,left,['2'],5,0.09267619999991439,,,,,,,,35,18,Man,Rechts,2,
,xotask,xotask,dotcolour,22,0,22,322,training,positivefb,96,average,62,0.41674349999993865,['c'],1,left,['2'],5,0.07346429999961401,,,,,,,,35,18,Man,Rechts,2,
,xotask,xotask,dotcolour,23,0,23,323,training,positivefb,99,easy,72,0.35024430000066786,['c'],1,left,['2'],5,0.0485897999997178,,,,,,,,35,18,Man,Rechts,2,
,xotask,xotask,dotcolour,24,0,24,324,training,positivefb,96,hard,26,0.6666390999998839,['n'],1,right,['2'],5,0.08411590000014257,,,,,,,,35,18,Man,Rechts,2,
,xotask,xotask,dotcolour,25,0,25,325,training,positivefb,97,easy,9,0.6009048999994775,['n'],1,right,['1'],6,0.10441390000050887,,,,,,,,35,18,Man,Rechts,2,
,xotask,xotask,dotcolour,26,0,26,326,training,positivefb,96,hard,52,0.4002284999996846,['n'],0,left,['1'],6,0.09252599999945232,,,,,,,,35,18,Man,Rechts,2,
,xotask,xotask,dotcolour,27,0,27,327,training,positivefb,93,average,17,0.5329805000001215,['n'],1,right,['2'],5,0.1555250999999771,,,,,,,,35,18,Man,Rechts,2,
,xotask,xotask,dotcolour,28,0,28,328,training,positivefb,88,easy,72,0.5009448000000702,['n'],0,left,['2'],5,0.10570719999941502,,,,,,,,35,18,Man,Rechts,2,
,xotask,xotask,dotcolour,29,0,29,329,training,positivefb,97,average,19,0.48432729999967705,['n'],1,right,['2'],5,0.09818479999921692,,,,,,,,35,18,Man,Rechts,2,
,xotask,xotask,dotcolour,30,0,30,330,training,positivefb,97,average,16,0.5673160000005737,['n'],1,right,['2'],5,0.0875863000001118,,,,,,,,35,18,Man,Rechts,2,
,xotask,xotask,dotcolour,31,0,31,331,training,positivefb,93,easy,70,0.7670388000005914,['c'],1,left,['2'],5,0.09424179999950866,,,,,,,,35,18,Man,Rechts,2,
,xotask,xotask,dotcolour,32,0,32,332,training,positivefb,97,easy,70,0.5836999000002834,['c'],1,left,['2'],5,0.051787700000204495,,,,,,,,35,18,Man,Rechts,2,
,xotask,xotask,dotcolour,33,0,33,333,training,positivefb,94,hard,52,0.6838414999992892,['n'],0,left,['2'],5,0.045632600000317325,,,,,,,,35,18,Man,Rechts,2,
,xotask,xotask,dotcolour,34,0,34,334,training,positivefb,95,hard,26,0.6667281000000003,['n'],1,right,['2'],5,0.06589210000038292,,,,,,,,35,18,Man,Rechts,2,
,xotask,xotask,dotcolour,35,0,35,335,training,positivefb,98,hard,26,0.6167443000003914,['n'],1,right,['2'],5,0.07911390000026586,,,,,,,,35,18,Man,Rechts,2,
,xotask,xotask,dotcolour,36,0,36,336,training,positivefb,99,easy,73,0.4499457000001712,['c'],1,left,['2'],5,0.07412560000011581,,,,,,,,35,18,Man,Rechts,2,
,xotask,xotask,dotcolour,37,0,37,337,training,positivefb,94,average,62,0.5005685000005542,['n'],0,left,['2'],5,0.10693420000006881,,,,,,,,35,18,Man,Rechts,2,
,xotask,xotask,dotcolour,38,0,38,338,training,positivefb,25,easy,72,0.5666386000002603,['n'],0,left,['8'],3,0.624977299999955,,,,,,,,35,18,Man,Rechts,2,
,xotask,xotask,dotcolour,39,0,39,339,training,positivefb,96,easy,7,0.6506534999998621,['n'],1,right,['2'],5,0.03025230000002921,,,,,,,,35,18,Man,Rechts,2,
,xotask,xotask,dotcolour,40,0,40,340,training,positivefb,91,average,61,0.9667564000001221,['c'],1,left,['2'],5,0.09460649999982707,,,,,,,,35,18,Man,Rechts,2,
,xotask,xotask,dotcolour,41,0,41,341,training,positivefb,84,easy,7,1.1675860000004832,['c'],0,right,['2'],5,0.07694709999941551,,,,,,,,35,18,Man,Rechts,2,
,xotask,xotask,dotcolour,42,0,42,342,training,positivefb,97,hard,27,1.1174335000005158,['n'],1,right,['2'],5,0.11729279999963182,,,,,,,,35,18,Man,Rechts,2,
,xotask,xotask,dotcolour,43,0,43,343,training,positivefb,98,easy,9,0.6176876000008633,['n'],1,right,['2'],5,0.056271100000230945,,,,,,,,35,18,Man,Rechts,2,
,xotask,xotask,dotcolour,44,0,44,344,training,positivefb,94,hard,28,0.4665309000001798,['n'],1,right,['2'],5,0.0757778999995935,,,,,,,,35,18,Man,Rechts,2,
,xotask,xotask,dotcolour,45,0,45,345,training,positivefb,95,easy,8,0.4829186999995727,['n'],1,right,['2'],5,0.038289699999950244,,,,,,,,35,18,Man,Rechts,2,
,xotask,xotask,dotcolour,46,0,46,346,training,positivefb,98,easy,9,0.45102270000006683,['n'],1,right,['2'],5,0.058320500000263564,,,,,,,,35,18,Man,Rechts,2,
,xotask,xotask,dotcolour,47,0,47,347,training,positivefb,92,hard,50,0.5665030000000115,['c'],1,left,['2'],5,0.06550900000002002,,,,,,,,35,18,Man,Rechts,2,
,xotask,xotask,dotcolour,48,0,48,348,training,positivefb,94,average,15,0.4663764999995692,['n'],1,right,['2'],5,0.06122539999978471,,,,,,,,35,18,Man,Rechts,2,
,xotask,xotask,dotcolour,49,0,49,349,training,positivefb,92,average,15,0.38385699999980716,['n'],1,right,['2'],5,0.08293099999991682,,,,,,,,35,18,Man,Rechts,2,
,xotask,xotask,dotcolour,50,0,50,350,training,positivefb,95,easy,74,0.5005281999992803,['c'],1,left,['2'],5,0.13215969999964727,,,,,,,,35,18,Man,Rechts,2,
,xotask,xotask,dotcolour,51,0,51,351,training,positivefb,96,average,61,0.5838473999992857,['c'],1,left,['2'],5,0.0711436000001413,,,,,,,,35,18,Man,Rechts,2,
,xotask,xotask,dotcolour,52,0,52,352,training,positivefb,98,hard,28,0.4334372000002986,['n'],1,right,['2'],5,0.09897279999950115,,,,,,,,35,18,Man,Rechts,2,
,xotask,xotask,dotcolour,53,0,53,353,training,positivefb,89,hard,29,0.4674683000002915,['c'],0,right,['2'],5,0.12402139999994688,,,,,,,,35,18,Man,Rechts,2,
,xotask,xotask,dotcolour,54,0,54,354,training,positivefb,88,hard,52,0.600350100000469,['c'],1,left,['2'],5,0.08024329999989277,,,,,,,,35,18,Man,Rechts,2,
,xotask,xotask,dotcolour,55,0,55,355,training,positivefb,92,hard,51,0.5676002000000153,['n'],0,left,['2'],5,0.08645950000027369,,,,,,,,35,18,Man,Rechts,2,
,xotask,xotask,dotcolour,56,0,56,356,training,positivefb,91,average,15,0.6664315999996688,['n'],1,right,['2'],5,0.09654809999938152,,,,,,,,35,18,Man,Rechts,2,
,xotask,xotask,dotcolour,57,0,57,357,training,positivefb,92,hard,50,0.732857499999227,['n'],0,left,['2'],5,0.1039056999998138,,,,,,,,35,18,Man,Rechts,2,
,xotask,xotask,dotcolour,58,0,58,358,training,positivefb,85,easy,72,0.550194599999486,['c'],1,left,['2'],5,0.16656269999930373,,,,,,,,35,18,Man,Rechts,2,
,xotask,xotask,dotcolour,59,0,59,359,training,positivefb,94,easy,6,0.700405800000226,['c'],0,right,['2'],5,0.3235688000004302,,,,,,,,35,18,Man,Rechts,2,
,xotask,xotask,dotcolour,0,1,60,360,training,positivefb,66,easy,71,0.7173551000005318,['n'],0,left,['3'],4,0.7100718000001507,,,,,,,,35,18,Man,Rechts,2,
,xotask,xotask,dotcolour,1,1,61,361,training,positivefb,94,average,16,0.7001227999999173,['n'],1,right,['2'],5,0.07027610000022833,,,,,,,,35,18,Man,Rechts,2,
,xotask,xotask,dotcolour,2,1,62,362,training,positivefb,95,hard,29,0.48479480000059993,['n'],1,right,['2'],5,0.03974040000048262,,,,,,,,35,18,Man,Rechts,2,
,xotask,xotask,dotcolour,3,1,63,363,training,positivefb,94,easy,5,0.7985079000000042,['n'],1,right,['2'],5,0.07072990000051504,,,,,,,,35,18,Man,Rechts,2,
,xotask,xotask,dotcolour,4,1,64,364,training,positivefb,86,hard,25,2.5010496999993848,['n'],1,right,['2'],5,0.10449489999973594,,,,,,,,35,18,Man,Rechts,2,
,xotask,xotask,dotcolour,5,1,65,365,training,positivefb,92,hard,28,0.7170851999999286,['c'],0,right,['2'],5,0.0792301999999836,,,,,,,,35,18,Man,Rechts,2,
,xotask,xotask,dotcolour,6,1,66,366,training,positivefb,95,hard,28,0.567124000000149,['n'],1,right,['2'],5,0.09422249999988708,,,,,,,,35,18,Man,Rechts,2,
,xotask,xotask,dotcolour,7,1,67,367,training,positivefb,98,hard,53,0.46629769999981363,['n'],0,left,['2'],5,0.04805529999975988,,,,,,,,35,18,Man,Rechts,2,
,xotask,xotask,dotcolour,8,1,68,368,training,positivefb,95,easy,70,0.666572800000722,['c'],1,left,['2'],5,0.0834645000004457,,,,,,,,35,18,Man,Rechts,2,
,xotask,xotask,dotcolour,9,1,69,369,training,positivefb,94,easy,5,0.6341043000002173,['n'],1,right,['2'],5,0.0716004999994766,,,,,,,,35,18,Man,Rechts,2,
,xotask,xotask,dotcolour,10,1,70,370,training,positivefb,84,hard,51,0.3824797999996008,['n'],0,left,['2'],5,0.09283709999999701,,,,,,,,35,18,Man,Rechts,2,
,xotask,xotask,dotcolour,11,1,71,371,training,positivefb,99,easy,5,0.45037409999986266,['n'],1,right,['2'],5,0.047725200000058976,,,,,,,,35,18,Man,Rechts,2,
,xotask,xotask,dotcolour,12,1,72,372,training,positivefb,96,hard,51,0.5497556999998778,['c'],1,left,['2'],5,0.055686400000013236,,,,,,,,35,18,Man,Rechts,2,
,xotask,xotask,dotcolour,13,1,73,373,training,positivefb,92,hard,27,0.5507718999997451,['n'],1,right,['2'],5,0.1037452000000485,,,,,,,,35,18,Man,Rechts,2,
,xotask,xotask,dotcolour,14,1,74,374,training,positivefb,96,average,15,0.5674804000000222,['n'],1,right,['2'],5,0.08493080000062037,,,,,,,,35,18,Man,Rechts,2,
,xotask,xotask,dotcolour,15,1,75,375,training,positivefb,79,average,60,0.48406579999937094,['n'],0,left,['3'],4,0.6783300999995845,,,,,,,,35,18,Man,Rechts,2,
,xotask,xotask,dotcolour,16,1,76,376,training,positivefb,98,average,19,0.5324482999994871,['n'],1,right,['2'],5,0.038000100000317616,,,,,,,,35,18,Man,Rechts,2,
,xotask,xotask,dotcolour,17,1,77,377,training,positivefb,97,easy,73,0.7666398999999728,['c'],1,left,['2'],5,0.10220500000013999,,,,,,,,35,18,Man,Rechts,2,
,xotask,xotask,dotcolour,18,1,78,378,training,positivefb,90,easy,72,0.7498263000006773,['c'],1,left,['2'],5,0.0841933000001518,,,,,,,,35,18,Man,Rechts,2,
,xotask,xotask,dotcolour,19,1,79,379,training,positivefb,93,hard,54,0.6995490999997855,['c'],1,left,['1'],6,0.06948879999981727,,,,,,,,35,18,Man,Rechts,2,
,xotask,xotask,dotcolour,20,1,80,380,training,positivefb,95,average,17,0.9661769000003915,['n'],1,right,['1'],6,0.1079513999993651,,,,,,,,35,18,Man,Rechts,2,
,xotask,xotask,dotcolour,21,1,81,381,training,positivefb,96,average,15,0.45040330000028916,['n'],1,right,['1'],6,0.10187130000031175,,,,,,,,35,18,Man,Rechts,2,
,xotask,xotask,dotcolour,22,1,82,382,training,positivefb,95,hard,27,0.4662687999998525,['n'],1,right,['1'],6,0.08725839999988239,,,,,,,,35,18,Man,Rechts,2,
,xotask,xotask,dotcolour,23,1,83,383,training,positivefb,95,easy,8,0.500373199999558,['n'],1,right,['2'],5,0.08820430000014312,,,,,,,,35,18,Man,Rechts,2,
,xotask,xotask,dotcolour,24,1,84,384,training,positivefb,97,average,63,0.4833184999997684,['n'],0,left,['1'],6,0.10546429999976681,,,,,,,,35,18,Man,Rechts,2,
,xotask,xotask,dotcolour,25,1,85,385,training,positivefb,96,hard,28,0.516677499999787,['n'],1,right,['1'],6,0.10513500000070053,,,,,,,,35,18,Man,Rechts,2,
,xotask,xotask,dotcolour,26,1,86,386,training,positivefb,94,average,62,0.8162178000002314,['c'],1,left,['2'],5,0.11553420000018377,,,,,,,,35,18,Man,Rechts,2,
,xotask,xotask,dotcolour,27,1,87,387,training,positivefb,79,hard,52,0.6170560000000478,['c'],1,left,['1'],6,0.12722730000041338,,,,,,,,35,18,Man,Rechts,2,
,xotask,xotask,dotcolour,28,1,88,388,training,positivefb,93,average,61,0.650860300000204,['c'],1,left,['1'],6,0.0961022999999841,,,,,,,,35,18,Man,Rechts,2,
,xotask,xotask,dotcolour,29,1,89,389,training,positivefb,91,average,63,0.48357579999992595,['c'],1,left,['1'],6,0.0974580000001879,,,,,,,,35,18,Man,Rechts,2,
,xotask,xotask,dotcolour,30,1,90,390,training,positivefb,99,easy,74,0.39993740000045364,['c'],1,left,['1'],6,0.04624889999922743,,,,,,,,35,18,Man,Rechts,2,
,xotask,xotask,dotcolour,31,1,91,391,training,positivefb,99,hard,53,0.36791210000046703,['c'],1,left,['1'],6,0.0304297000002407,,,,,,,,35,18,Man,Rechts,2,
,xotask,xotask,dotcolour,32,1,92,392,training,positivefb,96,average,63,0.5172998999996707,['c'],1,left,['1'],6,0.04864220000035857,,,,,,,,35,18,Man,Rechts,2,
,xotask,xotask,dotcolour,33,1,93,393,training,positivefb,95,easy,5,0.7335339999999633,['n'],1,right,['1'],6,0.1056404000000839,,,,,,,,35,18,Man,Rechts,2,
,xotask,xotask,dotcolour,34,1,94,394,training,positivefb,92,average,63,0.598858399999699,['c'],1,left,['1'],6,0.08512340000015683,,,,,,,,35,18,Man,Rechts,2,
,xotask,xotask,dotcolour,35,1,95,395,training,positivefb,94,easy,74,0.6005952999994406,['c'],1,left,['1'],6,0.042856600000050094,,,,,,,,35,18,Man,Rechts,2,
,xotask,xotask,dotcolour,36,1,96,396,training,positivefb,55,average,16,0.4002418999998554,['c'],0,right,['2'],5,0.16891220000070462,,,,,,,,35,18,Man,Rechts,2,
,xotask,xotask,dotcolour,37,1,97,397,training,positivefb,98,easy,9,0.48461310000038793,['n'],1,right,['2'],5,0.17520839999997406,,,,,,,,35,18,Man,Rechts,2,
,xotask,xotask,dotcolour,38,1,98,398,training,positivefb,93,average,60,0.500254099999438,['c'],1,left,['1'],6,0.11642630000005738,,,,,,,,35,18,Man,Rechts,2,
,xotask,xotask,dotcolour,39,1,99,399,training,positivefb,95,easy,5,0.43391370000063034,['n'],1,right,['2'],5,0.14280909999979485,,,,,,,,35,18,Man,Rechts,2,
,xotask,xotask,dotcolour,40,1,100,400,training,positivefb,98,easy,72,0.5839294999996127,['c'],1,left,['1'],6,0.12193100000058621,,,,,,,,35,18,Man,Rechts,2,
,xotask,xotask,dotcolour,41,1,101,401,training,positivefb,98,average,63,0.5339916999992056,['c'],1,left,['1'],6,0.19200499999988097,,,,,,,,35,18,Man,Rechts,2,
,xotask,xotask,dotcolour,42,1,102,402,training,positivefb,97,easy,9,0.7338610999995581,['n'],1,right,['1'],6,0.130613600000288,,,,,,,,35,18,Man,Rechts,2,
,xotask,xotask,dotcolour,43,1,103,403,training,positivefb,97,easy,74,0.8504564000004393,['c'],1,left,['1'],6,0.09170029999950202,,,,,,,,35,18,Man,Rechts,2,
,xotask,xotask,dotcolour,44,1,104,404,training,positivefb,98,easy,5,0.41683519999969576,['c'],0,right,['1'],6,0.04795569999987492,,,,,,,,35,18,Man,Rechts,2,
,xotask,xotask,dotcolour,45,1,105,405,training,positivefb,96,hard,29,0.3500802999997177,['n'],1,right,['1'],6,0.0798984000002747,,,,,,,,35,18,Man,Rechts,2,
,xotask,xotask,dotcolour,46,1,106,406,training,positivefb,98,hard,29,0.46657890000005864,['n'],1,right,['2'],5,0.1225282999994306,,,,,,,,35,18,Man,Rechts,2,
,xotask,xotask,dotcolour,47,1,107,407,training,positivefb,88,average,16,0.4668743000001996,['n'],1,right,['1'],6,0.10742109999955574,,,,,,,,35,18,Man,Rechts,2,
,xotask,xotask,dotcolour,48,1,108,408,training,positivefb,68,easy,7,0.4337532999998075,['c'],0,right,['8'],3,0.9422918999998728,,,,,,,,35,18,Man,Rechts,2,
,xotask,xotask,dotcolour,49,1,109,409,training,positivefb,97,average,18,0.8668823999996675,['n'],1,right,['2'],5,0.18198199999915232,,,,,,,,35,18,Man,Rechts,2,
,xotask,xotask,dotcolour,50,1,110,410,training,positivefb,97,hard,50,0.8670337999992626,['c'],1,left,['2'],5,0.12389100000018516,,,,,,,,35,18,Man,Rechts,2,
,xotask,xotask,dotcolour,51,1,111,411,training,positivefb,83,hard,53,0.7015330999993239,['c'],1,left,['2'],5,0.11606060000030993,,,,,,,,35,18,Man,Rechts,2,
,xotask,xotask,dotcolour,52,1,112,412,training,positivefb,95,hard,51,0.7662773000001835,['c'],1,left,['2'],5,0.11298809999971127,,,,,,,,35,18,Man,Rechts,2,
,xotask,xotask,dotcolour,53,1,113,413,training,positivefb,84,average,63,0.4501369000008708,['c'],1,left,['2'],5,0.2183192999991661,,,,,,,,35,18,Man,Rechts,2,
,xotask,xotask,dotcolour,54,1,114,414,training,positivefb,96,hard,28,0.8500069000001531,['n'],1,right,['2'],5,0.08696670000063023,,,,,,,,35,18,Man,Rechts,2,
,xotask,xotask,dotcolour,55,1,115,415,training,positivefb,98,easy,71,0.6668036000000939,['c'],1,left,['2'],5,0.13744580000002316,,,,,,,,35,18,Man,Rechts,2,
,xotask,xotask,dotcolour,56,1,116,416,training,positivefb,92,average,16,0.583124200000384,['n'],1,right,['2'],5,0.08477690000017901,,,,,,,,35,18,Man,Rechts,2,
,xotask,xotask,dotcolour,57,1,117,417,training,positivefb,84,average,15,0.4176233999996839,['c'],0,right,['2'],5,0.06515310000031604,,,,,,,,35,18,Man,Rechts,2,
,xotask,xotask,dotcolour,58,1,118,418,training,positivefb,95,hard,52,0.7003403999997317,['c'],1,left,['2'],5,0.09004280000044673,,,,,,,,35,18,Man,Rechts,2,
,xotask,xotask,dotcolour,59,1,119,419,training,positivefb,90,easy,70,0.8171339000000444,['n'],0,left,['2'],5,0.14283859999977722,,,,,,,,35,18,Man,Rechts,2,
,xotask,xotask,dotcolour,0,2,120,420,main,positivefb,-99,easy,70,1.55107500000031,['c'],1,left,['2'],5,0.06736569999975472,,,,,,,,35,18,Man,Rechts,2,
,xotask,xotask,dotcolour,1,2,121,421,main,positivefb,-99,hard,54,0.5846159000002444,['n'],0,left,['2'],5,0.08231050000085816,,,,,,,,35,18,Man,Rechts,2,
,xotask,xotask,dotcolour,2,2,122,422,main,positivefb,-99,hard,27,0.4850569000000178,['n'],1,right,['2'],5,0.052949400000215974,,,,,,,,35,18,Man,Rechts,2,
,xotask,xotask,dotcolour,3,2,123,423,main,positivefb,-99,average,64,0.4833528999997725,['c'],1,left,['2'],5,0.07204609999917011,,,,,,,,35,18,Man,Rechts,2,
,xotask,xotask,dotcolour,4,2,124,424,main,positivefb,-99,average,60,0.4515713999999207,['c'],1,left,['2'],5,0.0919899999998961,,,,,,,,35,18,Man,Rechts,2,
,xotask,xotask,dotcolour,5,2,125,425,main,positivefb,-99,hard,50,0.4664049000002706,['c'],1,left,['2'],5,0.07045990000005986,,,,,,,,35,18,Man,Rechts,2,
,xotask,xotask,dotcolour,6,2,126,426,main,positivefb,-99,hard,26,0.30100510000011127,['c'],0,right,['2'],5,0.04849149999972724,,,,,,,,35,18,Man,Rechts,2,
,xotask,xotask,dotcolour,7,2,127,427,main,positivefb,-99,easy,6,0.25031980000039766,['c'],0,right,['2'],5,0.05279860000064218,,,,,,,,35,18,Man,Rechts,2,
,xotask,xotask,dotcolour,8,2,128,428,main,positivefb,-99,easy,5,0.1651013000000603,['n'],1,right,['2'],5,0.036446199999772944,,,,,,,,35,18,Man,Rechts,2,
,xotask,xotask,dotcolour,9,2,129,429,main,positivefb,-99,hard,53,0.18921510000018316,['c'],1,left,['2'],5,0.8028196000004755,,,,,,,,35,18,Man,Rechts,2,
,xotask,xotask,dotcolour,10,2,130,430,main,positivefb,-99,hard,26,0.6003536999996868,['n'],1,right,['2'],5,0.06779869999991206,,,,,,,,35,18,Man,Rechts,2,
,xotask,xotask,dotcolour,11,2,131,431,main,positivefb,-99,average,18,0.4011963000002652,['n'],1,right,['2'],5,0.05808190000061586,,,,,,,,35,18,Man,Rechts,2,
,xotask,xotask,dotcolour,12,2,132,432,main,positivefb,-99,easy,5,0.3678827000003366,['n'],1,right,['2'],5,0.05798470000081579,,,,,,,,35,18,Man,Rechts,2,
,xotask,xotask,dotcolour,13,2,133,433,main,positivefb,-99,hard,50,0.3513219999995272,['n'],0,left,['2'],5,0.04245320000063657,,,,,,,,35,18,Man,Rechts,2,
,xotask,xotask,dotcolour,14,2,134,434,main,positivefb,-99,easy,8,0.2503627999994933,['n'],1,right,['2'],5,0.08779400000003079,,,,,,,,35,18,Man,Rechts,2,
,xotask,xotask,dotcolour,15,2,135,435,main,positivefb,-99,average,15,0.3164313999996011,['n'],1,right,['2'],5,0.05668909999985772,,,,,,,,35,18,Man,Rechts,2,
,xotask,xotask,dotcolour,16,2,136,436,main,positivefb,-99,hard,50,0.301314999999704,['c'],1,left,['2'],5,0.059286700000484416,,,,,,,,35,18,Man,Rechts,2,
,xotask,xotask,dotcolour,17,2,137,437,main,positivefb,-99,average,18,0.3675048000004608,['c'],0,right,['2'],5,0.05950519999987591,,,,,,,,35,18,Man,Rechts,2,
,xotask,xotask,dotcolour,18,2,138,438,main,positivefb,-99,easy,70,0.3002080999995087,['n'],0,left,['3'],4,0.2219004999997196,,,,,,,,35,18,Man,Rechts,2,
,xotask,xotask,dotcolour,19,2,139,439,main,positivefb,-99,hard,54,0.4181300000000192,['c'],1,left,['2'],5,0.0454079000001002,,,,,,,,35,18,Man,Rechts,2,
,xotask,xotask,dotcolour,20,2,140,440,main,positivefb,-99,hard,29,0.28373000000010506,['c'],0,right,['2'],5,0.07330910000018775,,,,,,,,35,18,Man,Rechts,2,
,xotask,xotask,dotcolour,21,2,141,441,main,positivefb,-99,easy,6,0.26731890000064595,['c'],0,right,['2'],5,0.0764058999993722,,,,,,,,35,18,Man,Rechts,2,
,xotask,xotask,dotcolour,22,2,142,442,main,positivefb,-99,easy,9,0.21629859999939072,['n'],1,right,['2'],5,0.06552040000042325,,,,,,,,35,18,Man,Rechts,2,
,xotask,xotask,dotcolour,23,2,143,443,main,positivefb,-99,average,62,0.2831458000000566,['n'],0,left,['2'],5,0.06801110000014887,,,,,,,,35,18,Man,Rechts,2,
,xotask,xotask,dotcolour,24,2,144,444,main,positivefb,-99,average,17,0.23355069999979605,['n'],1,right,['2'],5,0.08941440000035072,,,,,,,,35,18,Man,Rechts,2,
,xotask,xotask,dotcolour,25,2,145,445,main,positivefb,-99,hard,28,0.18488840000009077,['n'],1,right,['2'],5,0.0947070000001986,,,,,,,,35,18,Man,Rechts,2,
,xotask,xotask,dotcolour,26,2,146,446,main,positivefb,-99,average,16,0.23333720000027824,['n'],1,right,['2'],5,0.06621329999961745,,,,,,,,35,18,Man,Rechts,2,
,xotask,xotask,dotcolour,27,2,147,447,main,positivefb,-99,average,61,0.23441809999985708,['n'],0,left,['2'],5,0.09528110000064771,,,,,,,,35,18,Man,Rechts,2,
,xotask,xotask,dotcolour,28,2,148,448,main,positivefb,-99,hard,27,0.2341507000001002,['n'],1,right,['2'],5,0.09092280000004394,,,,,,,,35,18,Man,Rechts,2,
,xotask,xotask,dotcolour,29,2,149,449,main,positivefb,-99,hard,25,0.2336660999999367,['n'],1,right,['2'],5,0.10398170000007667,,,,,,,,35,18,Man,Rechts,2,
,xotask,xotask,dotcolour,30,2,150,450,main,positivefb,-99,average,63,0.23323450000043522,['n'],0,left,['2'],5,0.1385016000003816,,,,,,,,35,18,Man,Rechts,2,
,xotask,xotask,dotcolour,31,2,151,451,main,positivefb,-99,easy,70,0.16763300000002346,['n'],0,left,['2'],5,0.02210780000041268,,,,,,,,35,18,Man,Rechts,2,
,xotask,xotask,dotcolour,32,2,152,452,main,positivefb,-99,hard,26,0.21711169999980484,['n'],1,right,['2'],5,0.1969784000002619,,,,,,,,35,18,Man,Rechts,2,
,xotask,xotask,dotcolour,33,2,153,453,main,positivefb,-99,easy,74,0.41785499999969034,['c'],1,left,['2'],5,0.8460502999996606,,,,,,,,35,18,Man,Rechts,2,
,xotask,xotask,dotcolour,34,2,154,454,main,positivefb,-99,average,15,0.21761909999986528,['c'],0,right,['2'],5,0.052863100000649865,,,,,,,,35,18,Man,Rechts,2,
,xotask,xotask,dotcolour,35,2,155,455,main,positivefb,-99,easy,74,0.3165643000002092,['n'],0,left,['2'],5,0.0789758000000802,,,,,,,,35,18,Man,Rechts,2,
,xotask,xotask,dotcolour,36,2,156,456,main,positivefb,-99,easy,5,0.1356673000000228,['c'],0,right,['2'],5,0.021470900000167603,,,,,,,,35,18,Man,Rechts,2,
,xotask,xotask,dotcolour,37,2,157,457,main,positivefb,-99,easy,71,0.40070899999955145,['c'],1,left,['2'],5,0.06065450000005512,,,,,,,,35,18,Man,Rechts,2,
,xotask,xotask,dotcolour,38,2,158,458,main,positivefb,-99,average,18,0.33387669999956415,['c'],0,right,['2'],5,0.09451879999960511,,,,,,,,35,18,Man,Rechts,2,
,xotask,xotask,dotcolour,39,2,159,459,main,positivefb,-99,hard,53,0.6676022000001467,['c'],1,left,['2'],5,0.08898610000051121,,,,,,,,35,18,Man,Rechts,2,
,xotask,xotask,dotcolour,40,2,160,460,main,positivefb,-99,average,63,0.43411809999997786,['c'],1,left,['2'],5,0.08482350000031147,,,,,,,,35,18,Man,Rechts,2,
,xotask,xotask,dotcolour,41,2,161,461,main,positivefb,-99,easy,73,0.15580099999988306,['c'],1,left,['2'],5,0.05873729999984789,,,,,,,,35,18,Man,Rechts,2,
,xotask,xotask,dotcolour,42,2,162,462,main,positivefb,-99,average,62,0.21727319999990868,['c'],1,left,['2'],5,0.08766909999940253,,,,,,,,35,18,Man,Rechts,2,
,xotask,xotask,dotcolour,43,2,163,463,main,positivefb,-99,average,18,0.04059599999982311,['c'],0,right,['2'],5,0.878088999999818,,,,,,,,35,18,Man,Rechts,2,
,xotask,xotask,dotcolour,44,2,164,464,main,positivefb,-99,easy,74,0.21768279999923834,['c'],1,left,['2'],5,0.026745699999992212,,,,,,,,35,18,Man,Rechts,2,
,xotask,xotask,dotcolour,45,2,165,465,main,positivefb,-99,easy,7,0.12601739999990968,['c'],0,right,['2'],5,0.7954328999994686,,,,,,,,35,18,Man,Rechts,2,
,xotask,xotask,dotcolour,46,2,166,466,main,positivefb,-99,easy,71,1.7668837999999596,['c'],1,left,['2'],5,0.08525999999983469,,,,,,,,35,18,Man,Rechts,2,
,xotask,xotask,dotcolour,47,2,167,467,main,positivefb,-99,easy,6,0.31696829999964393,['c'],0,right,['2'],5,0.022635799999989104,,,,,,,,35,18,Man,Rechts,2,
,xotask,xotask,dotcolour,48,2,168,468,main,positivefb,-99,hard,54,0.2485276999996131,['c'],1,left,['2'],5,0.02021219999915047,,,,,,,,35,18,Man,Rechts,2,
,xotask,xotask,dotcolour,49,2,169,469,main,positivefb,-99,easy,8,0.46838579999985086,['n'],1,right,['3'],4,0.12101059999986319,,,,,,,,35,18,Man,Rechts,2,
,xotask,xotask,dotcolour,50,2,170,470,main,positivefb,-99,average,63,0.40045980000013515,['n'],0,left,['2'],5,0.12597679999998945,,,,,,,,35,18,Man,Rechts,2,
,xotask,xotask,dotcolour,51,2,171,471,main,positivefb,-99,hard,54,0.13192569999955595,['c'],1,left,['2'],5,0.0019781000000875792,,,,,,,,35,18,Man,Rechts,2,
,xotask,xotask,dotcolour,52,2,172,472,main,positivefb,-99,average,60,0.11521670000001905,['c'],1,left,['2'],5,0.04296309999972436,,,,,,,,35,18,Man,Rechts,2,
,xotask,xotask,dotcolour,53,2,173,473,main,positivefb,-99,average,60,0.2176690000005692,['c'],1,left,['2'],5,0.08890770000016346,,,,,,,,35,18,Man,Rechts,2,
,xotask,xotask,dotcolour,54,2,174,474,main,positivefb,-99,hard,28,0.21645490000082646,['c'],0,right,['2'],5,0.0936424999999872,,,,,,,,35,18,Man,Rechts,2,
,xotask,xotask,dotcolour,55,2,175,475,main,positivefb,-99,easy,72,0.24963449999995646,['c'],1,left,['2'],5,0.08915869999964343,,,,,,,,35,18,Man,Rechts,2,
,xotask,xotask,dotcolour,56,2,176,476,main,positivefb,-99,average,17,0.2500667999993311,['c'],0,right,['2'],5,0.1488057000005938,,,,,,,,35,18,Man,Rechts,2,
,xotask,xotask,dotcolour,57,2,177,477,main,positivefb,-99,hard,54,0.1289464000001317,['n'],0,left,['2'],5,0.05571629999940342,,,,,,,,35,18,Man,Rechts,2,
,xotask,xotask,dotcolour,58,2,178,478,main,positivefb,-99,hard,26,1.4340565000002243,['c'],0,right,['2'],5,0.03660489999947458,,,,,,,,35,18,Man,Rechts,2,
,xotask,xotask,dotcolour,59,2,179,479,main,positivefb,-99,average,18,0.5177465000006123,['c'],0,right,['2'],5,0.05498799999986659,,,,,,,,35,18,Man,Rechts,2,
,xotask,xotask,dotcolour,0,3,180,480,main,positivefb,-99,hard,29,0.7512355999997453,['n'],1,right,['2'],5,0.10613499999999476,,,,,,,,35,18,Man,Rechts,2,
,xotask,xotask,dotcolour,1,3,181,481,main,positivefb,-99,average,15,0.2830144999998083,['n'],1,right,['2'],5,0.12266550000003917,,,,,,,,35,18,Man,Rechts,2,
,xotask,xotask,dotcolour,2,3,182,482,main,positivefb,-99,average,64,0.2673301000004358,['c'],1,left,['2'],5,0.09251289999974688,,,,,,,,35,18,Man,Rechts,2,
,xotask,xotask,dotcolour,3,3,183,483,main,positivefb,-99,easy,70,0.10024759999942034,['c'],1,left,['8'],3,0.6265474000001632,,,,,,,,35,18,Man,Rechts,2,
,xotask,xotask,dotcolour,4,3,184,484,main,positivefb,-99,average,16,0.833554699999695,['n'],1,right,['2'],5,0.11202330000014626,,,,,,,,35,18,Man,Rechts,2,
,xotask,xotask,dotcolour,5,3,185,485,main,positivefb,-99,easy,9,0.11908549999952811,['c'],0,right,['2'],5,1.2537257000003592,,,,,,,,35,18,Man,Rechts,2,
,xotask,xotask,dotcolour,6,3,186,486,main,positivefb,-99,easy,73,0.5186194999996587,['c'],1,left,['2'],5,0.054976499999611406,,,,,,,,35,18,Man,Rechts,2,
,xotask,xotask,dotcolour,7,3,187,487,main,positivefb,-99,average,60,0.4850854000005711,['c'],1,left,['2'],5,0.09095350000006874,,,,,,,,35,18,Man,Rechts,2,
,xotask,xotask,dotcolour,8,3,188,488,main,positivefb,-99,hard,54,0.35138159999951313,['c'],1,left,['2'],5,0.08147719999942638,,,,,,,,35,18,Man,Rechts,2,
,xotask,xotask,dotcolour,9,3,189,489,main,positivefb,-99,average,63,0.3680477999996583,['c'],1,left,['2'],5,0.08053340000060416,,,,,,,,35,18,Man,Rechts,2,
,xotask,xotask,dotcolour,10,3,190,490,main,positivefb,-99,easy,73,0.34949589999996533,['n'],0,left,['2'],5,0.08900979999998526,,,,,,,,35,18,Man,Rechts,2,
,xotask,xotask,dotcolour,11,3,191,491,main,positivefb,-99,easy,70,0.16029520000029152,['c'],1,left,['2'],5,0.04677590000028431,,,,,,,,35,18,Man,Rechts,2,
,xotask,xotask,dotcolour,12,3,192,492,main,positivefb,-99,easy,6,0.23343100000056438,['n'],1,right,['2'],5,0.21198180000010325,,,,,,,,35,18,Man,Rechts,2,
,xotask,xotask,dotcolour,13,3,193,493,main,positivefb,-99,easy,7,0.2508772000001045,['n'],1,right,['2'],5,0.1544584000002942,,,,,,,,35,18,Man,Rechts,2,
,xotask,xotask,dotcolour,14,3,194,494,main,positivefb,-99,hard,29,0.14437920000000304,['c'],0,right,['2'],5,0.04585469999983616,,,,,,,,35,18,Man,Rechts,2,
,xotask,xotask,dotcolour,15,3,195,495,main,positivefb,-99,easy,72,0.25079469999946014,['n'],0,left,['2'],5,0.13828400000056718,,,,,,,,35,18,Man,Rechts,2,
,xotask,xotask,dotcolour,16,3,196,496,main,positivefb,-99,hard,54,0.10408480000023701,['c'],1,left,['2'],5,0.03841689999990194,,,,,,,,35,18,Man,Rechts,2,
,xotask,xotask,dotcolour,17,3,197,497,main,positivefb,-99,hard,26,0.09487560000070516,['n'],1,right,['2'],5,1.3098431999997047,,,,,,,,35,18,Man,Rechts,2,
,xotask,xotask,dotcolour,18,3,198,498,main,positivefb,-99,average,17,0.3168645000005199,['c'],0,right,['2'],5,0.02903260000039154,,,,,,,,35,18,Man,Rechts,2,
,xotask,xotask,dotcolour,19,3,199,499,main,positivefb,-99,average,64,0.2834359999997105,['c'],1,left,['2'],5,0.09790820000034728,,,,,,,,35,18,Man,Rechts,2,
,xotask,xotask,dotcolour,20,3,200,500,main,positivefb,-99,average,15,0.26777320000019245,['c'],0,right,['2'],5,0.1396348999996917,,,,,,,,35,18,Man,Rechts,2,
,xotask,xotask,dotcolour,21,3,201,501,main,positivefb,-99,average,16,0.14486140000008163,['c'],0,right,['2'],5,0.07986439999967843,,,,,,,,35,18,Man,Rechts,2,
,xotask,xotask,dotcolour,22,3,202,502,main,positivefb,-99,easy,72,0.1927657000005638,['c'],1,left,['2'],5,0.10929159999977855,,,,,,,,35,18,Man,Rechts,2,
,xotask,xotask,dotcolour,23,3,203,503,main,positivefb,-99,easy,6,0.28337939999983064,['c'],0,right,['2'],5,0.12631950000013603,,,,,,,,35,18,Man,Rechts,2,
,xotask,xotask,dotcolour,24,3,204,504,main,positivefb,-99,hard,27,0.35133760000007896,['c'],0,right,['2'],5,0.10853529999985767,,,,,,,,35,18,Man,Rechts,2,
,xotask,xotask,dotcolour,25,3,205,505,main,positivefb,-99,easy,73,0.7845741999999518,['c'],1,left,['2'],5,0.08234569999967789,,,,,,,,35,18,Man,Rechts,2,
,xotask,xotask,dotcolour,26,3,206,506,main,positivefb,-99,average,19,0.750277900000583,['n'],1,right,['2'],5,0.05773629999930563,,,,,,,,35,18,Man,Rechts,2,
,xotask,xotask,dotcolour,27,3,207,507,main,positivefb,-99,hard,54,0.36661849999927654,['c'],1,left,['2'],5,0.0817298000001756,,,,,,,,35,18,Man,Rechts,2,
,xotask,xotask,dotcolour,28,3,208,508,main,positivefb,-99,easy,9,0.0810209000001123,['c'],0,right,['2'],5,0.007483600000341539,,,,,,,,35,18,Man,Rechts,2,
,xotask,xotask,dotcolour,29,3,209,509,main,positivefb,-99,easy,6,0.12099690000013652,['c'],0,right,['2'],5,0.048263800000313495,,,,,,,,35,18,Man,Rechts,2,
,xotask,xotask,dotcolour,30,3,210,510,main,positivefb,-99,easy,5,0.03970200000003388,['n'],1,right,['2'],5,0.0066921999996338855,,,,,,,,35,18,Man,Rechts,2,
,xotask,xotask,dotcolour,31,3,211,511,main,positivefb,-99,hard,28,0.15264549999938026,['c'],0,right,['2'],5,0.039253500000086206,,,,,,,,35,18,Man,Rechts,2,
,xotask,xotask,dotcolour,32,3,212,512,main,positivefb,-99,average,63,0.04944020000039018,['n'],0,left,['2'],5,0.023028399999930116,,,,,,,,35,18,Man,Rechts,2,
,xotask,xotask,dotcolour,33,3,213,513,main,positivefb,-99,average,63,0.16004720000000816,['c'],1,left,['2'],5,0.9586798999998791,,,,,,,,35,18,Man,Rechts,2,
,xotask,xotask,dotcolour,34,3,214,514,main,positivefb,-99,hard,54,0.5840939999998227,['c'],1,left,['2'],5,0.08225130000028003,,,,,,,,35,18,Man,Rechts,2,
,xotask,xotask,dotcolour,35,3,215,515,main,positivefb,-99,average,62,0.23304929999994783,['c'],1,left,['2'],5,0.14114729999982956,,,,,,,,35,18,Man,Rechts,2,
,xotask,xotask,dotcolour,36,3,216,516,main,positivefb,-99,easy,6,0.18649030000051425,['c'],0,right,['2'],5,0.07317429999966407,,,,,,,,35,18,Man,Rechts,2,
,xotask,xotask,dotcolour,37,3,217,517,main,positivefb,-99,hard,29,0.24931789999936882,['c'],0,right,['2'],5,0.07702960000005987,,,,,,,,35,18,Man,Rechts,2,
,xotask,xotask,dotcolour,38,3,218,518,main,positivefb,-99,hard,28,0.4005301999995936,['c'],0,right,['2'],5,0.10634789999949135,,,,,,,,35,18,Man,Rechts,2,
,xotask,xotask,dotcolour,39,3,219,519,main,positivefb,-99,average,18,0.40153449999979784,['c'],0,right,['2'],5,0.08758239999951911,,,,,,,,35,18,Man,Rechts,2,
,xotask,xotask,dotcolour,40,3,220,520,main,positivefb,-99,average,16,0.07939520000036282,['n'],1,right,['2'],5,0.013291900000695023,,,,,,,,35,18,Man,Rechts,2,
,xotask,xotask,dotcolour,41,3,221,521,main,positivefb,-99,hard,53,0.12779000000045926,['c'],1,left,['2'],5,0.06199060000017198,,,,,,,,35,18,Man,Rechts,2,
,xotask,xotask,dotcolour,42,3,222,522,main,positivefb,-99,easy,70,0.10268319999977393,['c'],1,left,['2'],5,0.019959100000050967,,,,,,,,35,18,Man,Rechts,2,
,xotask,xotask,dotcolour,43,3,223,523,main,positivefb,-99,average,61,0.41615080000065063,['c'],1,left,['2'],5,0.08340010000028997,,,,,,,,35,18,Man,Rechts,2,
,xotask,xotask,dotcolour,44,3,224,524,main,positivefb,-99,hard,26,0.2498341000000437,['c'],0,right,['2'],5,0.08694410000043717,,,,,,,,35,18,Man,Rechts,2,
,xotask,xotask,dotcolour,45,3,225,525,main,positivefb,-99,hard,52,0.25080479999996896,['c'],1,left,['2'],5,0.1377660999996806,,,,,,,,35,18,Man,Rechts,2,
,xotask,xotask,dotcolour,46,3,226,526,main,positivefb,-99,average,15,0.3835909999997966,['c'],0,right,['2'],5,0.05454509999981383,,,,,,,,35,18,Man,Rechts,2,
,xotask,xotask,dotcolour,47,3,227,527,main,positivefb,-99,hard,29,0.26716299999952753,['c'],0,right,['2'],5,0.03466939999998431,,,,,,,,35,18,Man,Rechts,2,
,xotask,xotask,dotcolour,48,3,228,528,main,positivefb,-99,hard,54,0.16472440000052302,['c'],1,left,['2'],5,0.0740642000000662,,,,,,,,35,18,Man,Rechts,2,
,xotask,xotask,dotcolour,49,3,229,529,main,positivefb,-99,hard,51,0.2663417000003392,['c'],1,left,['2'],5,0.08527980000053503,,,,,,,,35,18,Man,Rechts,2,
,xotask,xotask,dotcolour,50,3,230,530,main,positivefb,-99,average,62,0.18914049999966664,['n'],0,left,['2'],5,0.0748702000000776,,,,,,,,35,18,Man,Rechts,2,
,xotask,xotask,dotcolour,51,3,231,531,main,positivefb,-99,average,18,0.23338439999952243,['c'],0,right,['2'],5,0.07181099999979779,,,,,,,,35,18,Man,Rechts,2,
,xotask,xotask,dotcolour,52,3,232,532,main,positivefb,-99,easy,8,0.21699850000004517,['n'],1,right,['2'],5,0.06041490000006888,,,,,,,,35,18,Man,Rechts,2,
,xotask,xotask,dotcolour,53,3,233,533,main,positivefb,-99,hard,28,0.05269930000031309,['c'],0,right,['2'],5,1.0595204000001104,,,,,,,,35,18,Man,Rechts,2,
,xotask,xotask,dotcolour,54,3,234,534,main,positivefb,-99,hard,51,0.2499206000002232,['c'],1,left,['2'],5,0.07144540000081179,,,,,,,,35,18,Man,Rechts,2,
,xotask,xotask,dotcolour,55,3,235,535,main,positivefb,-99,hard,51,0.4344956999993883,['n'],0,left,['2'],5,0.07640529999935097,,,,,,,,35,18,Man,Rechts,2,
,xotask,xotask,dotcolour,56,3,236,536,main,positivefb,-99,easy,74,0.26799190000019735,['c'],1,left,['2'],5,0.11127529999976105,,,,,,,,35,18,Man,Rechts,2,
,xotask,xotask,dotcolour,57,3,237,537,main,positivefb,-99,easy,73,1.05115190000015,['c'],1,left,['2'],5,0.04198640000049636,,,,,,,,35,18,Man,Rechts,2,
,xotask,xotask,dotcolour,58,3,238,538,main,positivefb,-99,easy,8,0.30000179999933607,['c'],0,right,['2'],5,0.06950919999962935,,,,,,,,35,18,Man,Rechts,2,
,xotask,xotask,dotcolour,59,3,239,539,main,positivefb,-99,average,60,0.667693400000644,['c'],1,left,['2'],5,0.06491820000064763,,,,,,,,35,18,Man,Rechts,2,
,xotask,xotask,dotcolour,0,4,240,540,main,positivefb,-99,easy,74,1.300618299999769,['n'],0,left,['2'],5,0.1331508000002941,,,,,,,,35,18,Man,Rechts,2,
,xotask,xotask,dotcolour,1,4,241,541,main,positivefb,-99,easy,9,0.61709989999963,['n'],1,right,['2'],5,0.0555183999995279,,,,,,,,35,18,Man,Rechts,2,
,xotask,xotask,dotcolour,2,4,242,542,main,positivefb,-99,easy,7,0.2682629999999335,['n'],1,right,['2'],5,0.05137509999985923,,,,,,,,35,18,Man,Rechts,2,
,xotask,xotask,dotcolour,3,4,243,543,main,positivefb,-99,hard,54,0.28463539999938803,['n'],0,left,['2'],5,0.05515520000062679,,,,,,,,35,18,Man,Rechts,2,
,xotask,xotask,dotcolour,4,4,244,544,main,positivefb,-99,average,15,0.2343311000004178,['c'],0,right,['2'],5,0.06113740000000689,,,,,,,,35,18,Man,Rechts,2,
,xotask,xotask,dotcolour,5,4,245,545,main,positivefb,-99,easy,8,0.24951770000006945,['n'],1,right,['2'],5,0.05771469999945111,,,,,,,,35,18,Man,Rechts,2,
,xotask,xotask,dotcolour,6,4,246,546,main,positivefb,-99,easy,73,0.2681938000005175,['c'],1,left,['2'],5,0.03745030000027327,,,,,,,,35,18,Man,Rechts,2,
,xotask,xotask,dotcolour,7,4,247,547,main,positivefb,-99,average,62,0.2339734999995926,['n'],0,left,['2'],5,0.0832485999999335,,,,,,,,35,18,Man,Rechts,2,
,xotask,xotask,dotcolour,8,4,248,548,main,positivefb,-99,average,15,0.1868867000002865,['c'],0,right,['2'],5,0.04022259999965172,,,,,,,,35,18,Man,Rechts,2,
,xotask,xotask,dotcolour,9,4,249,549,main,positivefb,-99,average,62,0.2501965999999811,['n'],0,left,['2'],5,0.0784734999997454,,,,,,,,35,18,Man,Rechts,2,
,xotask,xotask,dotcolour,10,4,250,550,main,positivefb,-99,hard,25,0.19889599999987695,['c'],0,right,['2'],5,0.03560079999988375,,,,,,,,35,18,Man,Rechts,2,
,xotask,xotask,dotcolour,11,4,251,551,main,positivefb,-99,hard,53,0.1647184000003108,['c'],1,left,['2'],5,0.06007020000015473,,,,,,,,35,18,Man,Rechts,2,
,xotask,xotask,dotcolour,12,4,252,552,main,positivefb,-99,easy,70,0.06913149999945745,['c'],1,left,['2'],5,0.8187341000002561,,,,,,,,35,18,Man,Rechts,2,
,xotask,xotask,dotcolour,13,4,253,553,main,positivefb,-99,hard,29,0.08421840000028169,['c'],0,right,['2'],5,1.2906617999997252,,,,,,,,35,18,Man,Rechts,2,
,xotask,xotask,dotcolour,14,4,254,554,main,positivefb,-99,hard,25,0.17013679999945452,['c'],0,right,['2'],5,0.024040100000092934,,,,,,,,35,18,Man,Rechts,2,
,xotask,xotask,dotcolour,15,4,255,555,main,positivefb,-99,hard,54,0.5174604000003455,['c'],1,left,['2'],5,0.09870869999940624,,,,,,,,35,18,Man,Rechts,2,
,xotask,xotask,dotcolour,16,4,256,556,main,positivefb,-99,easy,73,0.6673199999995632,['c'],1,left,['2'],5,0.028724899999360787,,,,,,,,35,18,Man,Rechts,2,
,xotask,xotask,dotcolour,17,4,257,557,main,positivefb,-99,easy,71,0.5844341000001805,['c'],1,left,['2'],5,0.0695106000002852,,,,,,,,35,18,Man,Rechts,2,
,xotask,xotask,dotcolour,18,4,258,558,main,positivefb,-99,easy,5,0.784673200000725,['n'],1,right,['2'],5,0.059901800000261574,,,,,,,,35,18,Man,Rechts,2,
,xotask,xotask,dotcolour,19,4,259,559,main,positivefb,-99,easy,7,0.5000679000004311,['n'],1,right,['2'],5,0.0784217999998873,,,,,,,,35,18,Man,Rechts,2,
,xotask,xotask,dotcolour,20,4,260,560,main,positivefb,-99,average,16,0.06254249999983585,['n'],1,right,['2'],5,0.6612421999998332,,,,,,,,35,18,Man,Rechts,2,
,xotask,xotask,dotcolour,21,4,261,561,main,positivefb,-99,average,64,0.2686757999999827,['n'],0,left,['2'],5,0.008845400000609516,,,,,,,,35,18,Man,Rechts,2,
,xotask,xotask,dotcolour,22,4,262,562,main,positivefb,-99,hard,28,0.6170565000002171,['c'],0,right,['2'],5,0.0721441000005143,,,,,,,,35,18,Man,Rechts,2,
,xotask,xotask,dotcolour,23,4,263,563,main,positivefb,-99,hard,28,0.30100099999981467,['n'],1,right,['2'],5,0.03486400000019785,,,,,,,,35,18,Man,Rechts,2,
,xotask,xotask,dotcolour,24,4,264,564,main,positivefb,-99,easy,9,0.4173417000001791,['n'],1,right,['2'],5,0.049421100000472507,,,,,,,,35,18,Man,Rechts,2,
,xotask,xotask,dotcolour,25,4,265,565,main,positivefb,-99,hard,25,0.38358289999996487,['n'],1,right,['2'],5,0.016926499999499356,,,,,,,,35,18,Man,Rechts,2,
,xotask,xotask,dotcolour,26,4,266,566,main,positivefb,-99,average,62,0.23330780000014784,['n'],0,left,['2'],5,0.04752269999971759,,,,,,,,35,18,Man,Rechts,2,
,xotask,xotask,dotcolour,27,4,267,567,main,positivefb,-99,average,64,0.07219789999999193,['n'],0,left,['2'],5,0.046765099999902304,,,,,,,,35,18,Man,Rechts,2,
,xotask,xotask,dotcolour,28,4,268,568,main,positivefb,-99,easy,9,0.2497947000001659,['c'],0,right,['2'],5,0.10697309999977733,,,,,,,,35,18,Man,Rechts,2,
,xotask,xotask,dotcolour,29,4,269,569,main,positivefb,-99,hard,26,0.21718200000032084,['n'],1,right,['2'],5,0.04727740000089398,,,,,,,,35,18,Man,Rechts,2,
,xotask,xotask,dotcolour,30,4,270,570,main,positivefb,-99,easy,72,0.2838701000000583,['c'],1,left,['2'],5,0.8921111999998175,,,,,,,,35,18,Man,Rechts,2,
,xotask,xotask,dotcolour,31,4,271,571,main,positivefb,-99,easy,8,0.2672400999999809,['c'],0,right,['2'],5,0.014182799999616691,,,,,,,,35,18,Man,Rechts,2,
,xotask,xotask,dotcolour,32,4,272,572,main,positivefb,-99,easy,71,0.8174300000000585,['c'],1,left,['2'],5,0.05386949999956414,,,,,,,,35,18,Man,Rechts,2,
,xotask,xotask,dotcolour,33,4,273,573,main,positivefb,-99,hard,25,0.6325996000005034,['c'],0,right,['2'],5,0.059566300000369665,,,,,,,,35,18,Man,Rechts,2,
,xotask,xotask,dotcolour,34,4,274,574,main,positivefb,-99,hard,51,0.7834480999999869,['n'],0,left,['2'],5,0.09875319999991916,,,,,,,,35,18,Man,Rechts,2,
,xotask,xotask,dotcolour,35,4,275,575,main,positivefb,-99,hard,25,0.07427889999962645,['c'],0,right,['2'],5,0.8562862999997378,,,,,,,,35,18,Man,Rechts,2,
,xotask,xotask,dotcolour,36,4,276,576,main,positivefb,-99,easy,6,0.3334176000007574,['n'],1,right,['2'],5,0.06520269999964512,,,,,,,,35,18,Man,Rechts,2,
,xotask,xotask,dotcolour,37,4,277,577,main,positivefb,-99,average,17,0.21691219999956957,['c'],0,right,['2'],5,0.05409220000001369,,,,,,,,35,18,Man,Rechts,2,
,xotask,xotask,dotcolour,38,4,278,578,main,positivefb,-99,average,16,0.24915249999958178,['n'],1,right,['2'],5,0.05893869999999879,,,,,,,,35,18,Man,Rechts,2,
,xotask,xotask,dotcolour,39,4,279,579,main,positivefb,-99,hard,51,0.2171371000004001,['n'],0,left,['2'],5,0.0006321000000752974,,,,,,,,35,18,Man,Rechts,2,
,xotask,xotask,dotcolour,40,4,280,580,main,positivefb,-99,average,60,0.16340630000013334,['n'],0,left,['2'],5,0.07370860000082757,,,,,,,,35,18,Man,Rechts,2,
,xotask,xotask,dotcolour,41,4,281,581,main,positivefb,-99,average,17,0.16957149999961985,['c'],0,right,['2'],5,0.6396231999997326,,,,,,,,35,18,Man,Rechts,2,
,xotask,xotask,dotcolour,42,4,282,582,main,positivefb,-99,average,64,0.08987899999920046,['n'],0,left,['2'],5,0.03146840000044904,,,,,,,,35,18,Man,Rechts,2,
,xotask,xotask,dotcolour,43,4,283,583,main,positivefb,-99,average,15,0.09797150000031252,['c'],0,right,['2'],5,0.9112672999999631,,,,,,,,35,18,Man,Rechts,2,
,xotask,xotask,dotcolour,44,4,284,584,main,positivefb,-99,average,19,0.9679914999996981,['c'],0,right,['2'],5,0.02893809999932273,,,,,,,,35,18,Man,Rechts,2,
,xotask,xotask,dotcolour,45,4,285,585,main,positivefb,-99,average,61,0.36732089999986783,['c'],1,left,['2'],5,0.09437900000011723,,,,,,,,35,18,Man,Rechts,2,
,xotask,xotask,dotcolour,46,4,286,586,main,positivefb,-99,easy,70,0.18988229999922623,['c'],1,left,['2'],5,0.1476950999995097,,,,,,,,35,18,Man,Rechts,2,
,xotask,xotask,dotcolour,47,4,287,587,main,positivefb,-99,hard,54,0.2683978000004572,['c'],1,left,['2'],5,0.10061969999969733,,,,,,,,35,18,Man,Rechts,2,
,xotask,xotask,dotcolour,48,4,288,588,main,positivefb,-99,average,19,0.24967169999945327,['c'],0,right,['2'],5,0.11086830000022019,,,,,,,,35,18,Man,Rechts,2,
,xotask,xotask,dotcolour,49,4,289,589,main,positivefb,-99,easy,9,0.2844735999997283,['n'],1,right,['2'],5,0.09653829999933805,,,,,,,,35,18,Man,Rechts,2,
,xotask,xotask,dotcolour,50,4,290,590,main,positivefb,-99,hard,27,0.10386110000035842,['c'],0,right,['2'],5,0.014164399999572197,,,,,,,,35,18,Man,Rechts,2,
,xotask,xotask,dotcolour,51,4,291,591,main,positivefb,-99,easy,72,0.23333460000048944,['n'],0,left,['2'],5,0.13298200000008364,,,,,,,,35,18,Man,Rechts,2,
,xotask,xotask,dotcolour,52,4,292,592,main,positivefb,-99,average,17,0.11482700000033219,['c'],0,right,['2'],5,0.025177399999847694,,,,,,,,35,18,Man,Rechts,2,
,xotask,xotask,dotcolour,53,4,293,593,main,positivefb,-99,hard,52,0.21606579999934183,['c'],1,left,['2'],5,0.07117990000006102,,,,,,,,35,18,Man,Rechts,2,
,xotask,xotask,dotcolour,54,4,294,594,main,positivefb,-99,hard,51,0.14402109999991808,['c'],1,left,['2'],5,0.05429610000010143,,,,,,,,35,18,Man,Rechts,2,
,xotask,xotask,dotcolour,55,4,295,595,main,positivefb,-99,average,62,0.17505679999976564,['c'],1,left,['2'],5,0.10103320000052918,,,,,,,,35,18,Man,Rechts,2,
,xotask,xotask,dotcolour,56,4,296,596,main,positivefb,-99,hard,50,0.35120650000044407,['c'],1,left,['2'],5,0.11496429999988322,,,,,,,,35,18,Man,Rechts,2,
,xotask,xotask,dotcolour,57,4,297,597,main,positivefb,-99,easy,71,0.11300039999969158,['c'],1,left,['2'],5,0.04781100000036531,,,,,,,,35,18,Man,Rechts,2,
,xotask,xotask,dotcolour,58,4,298,598,main,positivefb,-99,average,64,0.19317060000048514,['c'],1,left,['2'],5,0.0705403000001752,,,,,,,,35,18,Man,Rechts,2,
,xotask,xotask,dotcolour,59,4,299,599,main,positivefb,-99,hard,53,0.9343713999996908,['c'],1,left,['2'],5,0.10345219999999244,,,,,,,,35,18,Man,Rechts,2,
,xotask,xotask,dotcolour,0,0,0,600,training,positivefb,83,hard,28,0.9180751000003511,['n'],1,right,['2'],5,0.09220300000015413,,,,,,,,35,18,Man,Rechts,2,
,xotask,xotask,dotcolour,1,0,1,601,training,positivefb,94,average,15,0.35018349999973,['c'],0,right,['2'],5,0.06643720000010944,,,,,,,,35,18,Man,Rechts,2,
,xotask,xotask,dotcolour,2,0,2,602,training,positivefb,99,easy,8,0.16962580000017624,['c'],0,right,['2'],5,0.040443900000354915,,,,,,,,35,18,Man,Rechts,2,
,xotask,xotask,dotcolour,3,0,3,603,training,positivefb,100,easy,7,0.23317950000000565,['n'],1,right,['2'],5,0.08543600000029983,,,,,,,,35,18,Man,Rechts,2,
,xotask,xotask,dotcolour,4,0,4,604,training,positivefb,93,average,60,0.633492799999658,['c'],1,left,['2'],5,0.07251540000015666,,,,,,,,35,18,Man,Rechts,2,
,xotask,xotask,dotcolour,5,0,5,605,training,positivefb,96,average,61,0.6679647999999361,['c'],1,left,['2'],5,0.1071153000002596,,,,,,,,35,18,Man,Rechts,2,
,xotask,xotask,dotcolour,6,0,6,606,training,positivefb,96,average,15,0.5165658999994776,['n'],1,right,['2'],5,0.08325859999968088,,,,,,,,35,18,Man,Rechts,2,
,xotask,xotask,dotcolour,7,0,7,607,training,positivefb,94,easy,8,0.5165445000002364,['n'],1,right,['1'],6,0.29832269999951677,,,,,,,,35,18,Man,Rechts,2,
,xotask,xotask,dotcolour,8,0,8,608,training,positivefb,96,easy,74,0.6169089999993957,['c'],1,left,['1'],6,0.08631500000046799,,,,,,,,35,18,Man,Rechts,2,
,xotask,xotask,dotcolour,9,0,9,609,training,positivefb,97,average,19,0.5336096999999427,['n'],1,right,['2'],5,0.03822719999971014,,,,,,,,35,18,Man,Rechts,2,
,xotask,xotask,dotcolour,10,0,10,610,training,positivefb,97,easy,73,0.5669630000002144,['c'],1,left,"['1', '2']",6,0.11755809999976918,,,,,,,,35,18,Man,Rechts,2,
,xotask,xotask,dotcolour,11,0,11,611,training,positivefb,98,easy,71,0.3004034999994474,['c'],1,left,['2'],5,0.06063540000013745,,,,,,,,35,18,Man,Rechts,2,
,xotask,xotask,dotcolour,12,0,12,612,training,positivefb,94,average,62,0.6004315000000133,['c'],1,left,['2'],5,0.043165699999917706,,,,,,,,35,18,Man,Rechts,2,
,xotask,xotask,dotcolour,13,0,13,613,training,positivefb,95,hard,25,0.26746519999960583,['c'],0,right,['2'],5,0.047231900000042515,,,,,,,,35,18,Man,Rechts,2,
,xotask,xotask,dotcolour,14,0,14,614,training,positivefb,97,hard,50,0.5999759000005724,['c'],1,left,['2'],5,0.09339240000008431,,,,,,,,35,18,Man,Rechts,2,
,xotask,xotask,dotcolour,15,0,15,615,training,positivefb,100,easy,73,0.43457849999958853,['c'],1,left,['1'],6,0.3293104999993375,,,,,,,,35,18,Man,Rechts,2,
,xotask,xotask,dotcolour,16,0,16,616,training,positivefb,98,easy,74,0.5993226999999024,['c'],1,left,['1'],6,0.12424649999957182,,,,,,,,35,18,Man,Rechts,2,
,xotask,xotask,dotcolour,17,0,17,617,training,positivefb,100,average,64,0.29943850000017846,['c'],1,left,['2'],5,0.09172940000007657,,,,,,,,35,18,Man,Rechts,2,
,xotask,xotask,dotcolour,18,0,18,618,training,positivefb,88,easy,9,0.7176459000002069,['c'],0,right,['1'],6,0.1237301999999545,,,,,,,,35,18,Man,Rechts,2,
,xotask,xotask,dotcolour,19,0,19,619,training,positivefb,97,hard,26,0.4831363000002966,['n'],1,right,['2'],5,0.10002829999939422,,,,,,,,35,18,Man,Rechts,2,
,xotask,xotask,dotcolour,20,0,20,620,training,positivefb,94,average,16,0.6169734999994034,['n'],1,right,['2'],5,0.04686599999968166,,,,,,,,35,18,Man,Rechts,2,
,xotask,xotask,dotcolour,21,0,21,621,training,positivefb,97,hard,25,0.5838692999996056,['n'],1,right,['2'],5,0.15021830000023328,,,,,,,,35,18,Man,Rechts,2,
,xotask,xotask,dotcolour,22,0,22,622,training,positivefb,99,easy,8,0.5683962000002794,['c'],0,right,['2'],5,0.2735431000000972,,,,,,,,35,18,Man,Rechts,2,
,xotask,xotask,dotcolour,23,0,23,623,training,positivefb,99,average,17,0.46676730000035604,['n'],1,right,['2'],5,0.0604100999998991,,,,,,,,35,18,Man,Rechts,2,
,xotask,xotask,dotcolour,24,0,24,624,training,positivefb,97,easy,70,0.6506963000001633,['c'],1,left,['2'],5,0.08088480000060372,,,,,,,,35,18,Man,Rechts,2,
,xotask,xotask,dotcolour,25,0,25,625,training,positivefb,97,average,62,0.7993765000001076,['c'],1,left,['2'],5,0.09374949999983073,,,,,,,,35,18,Man,Rechts,2,
,xotask,xotask,dotcolour,26,0,26,626,training,positivefb,96,easy,70,0.5177313999993203,['c'],1,left,['2'],5,0.10191979999945033,,,,,,,,35,18,Man,Rechts,2,
,xotask,xotask,dotcolour,27,0,27,627,training,positivefb,95,average,16,0.7331907999996474,['n'],1,right,['2'],5,0.044599400000151945,,,,,,,,35,18,Man,Rechts,2,
,xotask,xotask,dotcolour,28,0,28,628,training,positivefb,85,hard,29,0.6322157000004154,['n'],1,right,['1'],6,0.1303791000000274,,,,,,,,35,18,Man,Rechts,2,
,xotask,xotask,dotcolour,29,0,29,629,training,positivefb,99,easy,74,0.5830499999992753,['c'],1,left,['2'],5,0.09377440000025672,,,,,,,,35,18,Man,Rechts,2,
,xotask,xotask,dotcolour,30,0,30,630,training,positivefb,96,easy,9,0.750165599999491,['n'],1,right,['2'],5,0.08479360000001179,,,,,,,,35,18,Man,Rechts,2,
,xotask,xotask,dotcolour,31,0,31,631,training,positivefb,93,average,15,0.48420360000000073,['n'],1,right,['2'],5,0.07767949999924895,,,,,,,,35,18,Man,Rechts,2,
,xotask,xotask,dotcolour,32,0,32,632,training,positivefb,96,easy,7,0.48280109999996057,['n'],1,right,['2'],5,0.07192299999951501,,,,,,,,35,18,Man,Rechts,2,
,xotask,xotask,dotcolour,33,0,33,633,training,positivefb,91,hard,26,0.3996972000004462,['n'],1,right,['2'],5,0.14126549999946292,,,,,,,,35,18,Man,Rechts,2,
,xotask,xotask,dotcolour,34,0,34,634,training,positivefb,81,hard,50,0.4005334000003131,['n'],0,left,['8'],3,0.6964942000004157,,,,,,,,35,18,Man,Rechts,2,
,xotask,xotask,dotcolour,35,0,35,635,training,positivefb,94,hard,52,0.7014309000005596,['c'],1,left,['2'],5,0.06490409999969415,,,,,,,,35,18,Man,Rechts,2,
,xotask,xotask,dotcolour,36,0,36,636,training,positivefb,97,easy,5,0.599384099999952,['n'],1,right,['2'],5,0.054685199999767065,,,,,,,,35,18,Man,Rechts,2,
,xotask,xotask,dotcolour,37,0,37,637,training,positivefb,97,average,16,0.48331450000023324,['n'],1,right,['2'],5,0.08099229999970703,,,,,,,,35,18,Man,Rechts,2,
,xotask,xotask,dotcolour,38,0,38,638,training,positivefb,97,easy,6,0.3831389000006311,['n'],1,right,['2'],5,0.05399119999947288,,,,,,,,35,18,Man,Rechts,2,
,xotask,xotask,dotcolour,39,0,39,639,training,positivefb,91,average,61,0.6663728000003175,['c'],1,left,['2'],5,0.07363929999974062,,,,,,,,35,18,Man,Rechts,2,
