starttime,task,fbtask,firsttask,withinblocktrial,block,withintasktrial,trial,running,feedback,fbscore,difflevel,n_xes,rt,resp,cor,cresp,conf_press,cj,RTconf,reddots,post1,post2,post3,post4,post5,stoptime,sub,age,gender,handedness,session,
1715583563,xotask,xotask,dotcolour,0,0,0,0,training,negativefb,55,average,64,1.0006237000000056,['c'],1,left,['8'],4,1.0061217999999599,,,,,,,,9,18,Man,Rechts,2,
,xotask,xotask,dotcolour,1,0,1,1,training,negativefb,86,average,17,0.7319431000000804,['n'],1,right,['8'],4,0.3043170999999347,,,,,,,,9,18,Man,Rechts,2,
,xotask,xotask,dotcolour,2,0,2,2,training,negativefb,64,easy,5,0.5998653000001468,['n'],1,right,['9'],5,0.2922946999999567,,,,,,,,9,18,Man,Rechts,2,
,xotask,xotask,dotcolour,3,0,3,3,training,negativefb,44,hard,52,0.6159975000000486,['c'],1,left,['9'],5,0.22367989999997917,,,,,,,,9,18,Man,Rechts,2,
,xotask,xotask,dotcolour,4,0,4,4,training,negativefb,10,average,63,0.31745410000007723,['n'],0,left,['9'],5,0.24272049999990486,,,,,,,,9,18,Man,Rechts,2,
,xotask,xotask,dotcolour,5,0,5,5,training,negativefb,51,hard,27,1.0329971000001024,['c'],0,right,['8'],4,0.3287084999999479,,,,,,,,9,18,Man,Rechts,2,
,xotask,xotask,dotcolour,6,0,6,6,training,negativefb,85,hard,26,0.6168609999999717,['n'],1,right,['9'],5,0.29124750000005406,,,,,,,,9,18,Man,Rechts,2,
,xotask,xotask,dotcolour,7,0,7,7,training,negativefb,97,average,19,0.48267260000011447,['n'],1,right,['9'],5,0.39686970000002475,,,,,,,,9,18,Man,Rechts,2,
,xotask,xotask,dotcolour,8,0,8,8,training,negativefb,49,easy,5,1.017461400000002,['n'],1,right,['0'],6,0.172829800000045,,,,,,,,9,18,Man,Rechts,2,
,xotask,xotask,dotcolour,9,0,9,9,training,negativefb,11,hard,27,0.41547830000013164,['c'],0,right,['2'],2,0.7494881000000078,,,,,,,,9,18,Man,Rechts,2,
,xotask,xotask,dotcolour,10,0,10,10,training,negativefb,93,easy,72,0.4502046000000064,['n'],0,left,['9'],5,0.27006359999995766,,,,,,,,9,18,Man,Rechts,2,
,xotask,xotask,dotcolour,11,0,11,11,training,negativefb,93,average,61,0.59945730000004,['c'],1,left,['9'],5,0.2509480999999596,,,,,,,,9,18,Man,Rechts,2,
,xotask,xotask,dotcolour,12,0,12,12,training,negativefb,47,easy,71,0.5504690999998729,['n'],0,left,['9'],5,0.25131050000004507,,,,,,,,9,18,Man,Rechts,2,
,xotask,xotask,dotcolour,13,0,13,13,training,negativefb,93,easy,8,0.35021130000018275,['n'],1,right,['9'],5,0.3151821999999811,,,,,,,,9,18,Man,Rechts,2,
,xotask,xotask,dotcolour,14,0,14,14,training,negativefb,29,hard,26,0.7324596999999358,['n'],1,right,['8'],4,0.32188909999990756,,,,,,,,9,18,Man,Rechts,2,
,xotask,xotask,dotcolour,15,0,15,15,training,negativefb,89,easy,70,0.46508399999993344,['c'],1,left,['9'],5,0.21085050000010597,,,,,,,,9,18,Man,Rechts,2,
,xotask,xotask,dotcolour,16,0,16,16,training,negativefb,89,average,64,0.4163570000000618,['n'],0,left,['9'],5,0.2181241000000682,,,,,,,,9,18,Man,Rechts,2,
,xotask,xotask,dotcolour,17,0,17,17,training,negativefb,60,average,15,0.8660835000000588,['n'],1,right,['9'],5,0.24692639999989296,,,,,,,,9,18,Man,Rechts,2,
,xotask,xotask,dotcolour,18,0,18,18,training,negativefb,95,easy,9,0.4186659000001782,['n'],1,right,['9'],5,0.4767229000001407,,,,,,,,9,18,Man,Rechts,2,
,xotask,xotask,dotcolour,19,0,19,19,training,negativefb,85,easy,74,0.4827920999998696,['c'],1,left,['9'],5,0.23108369999999923,,,,,,,,9,18,Man,Rechts,2,
,xotask,xotask,dotcolour,20,0,20,20,training,negativefb,26,average,64,0.8839439000000766,['n'],0,left,['9'],5,0.7790362000000641,,,,,,,,9,18,Man,Rechts,2,
,xotask,xotask,dotcolour,21,0,21,21,training,negativefb,58,average,61,0.7166780000000017,['c'],1,left,['8'],4,0.19961780000016915,,,,,,,,9,18,Man,Rechts,2,
,xotask,xotask,dotcolour,22,0,22,22,training,negativefb,27,average,15,0.5829587999999148,['c'],0,right,['9'],5,0.23245029999998224,,,,,,,,9,18,Man,Rechts,2,
,xotask,xotask,dotcolour,23,0,23,23,training,negativefb,23,hard,54,0.5162818000001153,['n'],0,left,['3'],3,0.5705196999999771,,,,,,,,9,18,Man,Rechts,2,
,xotask,xotask,dotcolour,24,0,24,24,training,negativefb,40,hard,29,0.8504961000001003,['c'],0,right,['0'],6,0.2339379000000008,,,,,,,,9,18,Man,Rechts,2,
,xotask,xotask,dotcolour,25,0,25,25,training,negativefb,85,average,64,0.6824059000000489,['c'],1,left,['9'],5,0.2693624999999429,,,,,,,,9,18,Man,Rechts,2,
,xotask,xotask,dotcolour,26,0,26,26,training,negativefb,53,easy,8,0.4330480000000989,['n'],1,right,['9'],5,0.40898969999989276,,,,,,,,9,18,Man,Rechts,2,
,xotask,xotask,dotcolour,27,0,27,27,training,negativefb,31,easy,72,0.30026790000010806,['c'],1,left,['8'],4,0.22965189999990798,,,,,,,,9,18,Man,Rechts,2,
,xotask,xotask,dotcolour,28,0,28,28,training,negativefb,20,hard,53,0.3831130999999459,['n'],0,left,['9'],5,0.5735756999999921,,,,,,,,9,18,Man,Rechts,2,
,xotask,xotask,dotcolour,29,0,29,29,training,negativefb,49,average,63,0.7494970999998714,['n'],0,left,['9'],5,0.30501649999996516,,,,,,,,9,18,Man,Rechts,2,
,xotask,xotask,dotcolour,30,0,30,30,training,negativefb,74,average,64,0.48408150000000205,['n'],0,left,['3'],3,0.7060988000000634,,,,,,,,9,18,Man,Rechts,2,
,xotask,xotask,dotcolour,31,0,31,31,training,negativefb,80,easy,73,0.9328820000000633,['c'],1,left,['9'],5,0.25654000000008637,,,,,,,,9,18,Man,Rechts,2,
,xotask,xotask,dotcolour,32,0,32,32,training,negativefb,57,easy,9,0.4823989999999867,['n'],1,right,['8'],4,0.23430839999991804,,,,,,,,9,18,Man,Rechts,2,
,xotask,xotask,dotcolour,33,0,33,33,training,negativefb,71,easy,74,0.5317880000000059,['c'],1,left,['9'],5,0.2605449000000135,,,,,,,,9,18,Man,Rechts,2,
,xotask,xotask,dotcolour,34,0,34,34,training,negativefb,82,average,18,0.7003310000000056,['n'],1,right,['0'],6,0.2547690000001239,,,,,,,,9,18,Man,Rechts,2,
,xotask,xotask,dotcolour,35,0,35,35,training,negativefb,66,hard,53,0.45095040000001063,['c'],1,left,['8'],4,0.2987444999998843,,,,,,,,9,18,Man,Rechts,2,
,xotask,xotask,dotcolour,36,0,36,36,training,negativefb,77,average,64,0.8498878999998851,['c'],1,left,['8'],4,0.28525980000017626,,,,,,,,9,18,Man,Rechts,2,
,xotask,xotask,dotcolour,37,0,37,37,training,negativefb,63,easy,74,0.7502557000000252,['c'],1,left,['9'],5,0.13141939999991337,,,,,,,,9,18,Man,Rechts,2,
,xotask,xotask,dotcolour,38,0,38,38,training,negativefb,25,hard,28,0.6838345000001027,['c'],0,right,['3'],3,0.6039568999999574,,,,,,,,9,18,Man,Rechts,2,
,xotask,xotask,dotcolour,39,0,39,39,training,negativefb,59,hard,54,0.766830999999911,['n'],0,left,['0'],6,0.5659089999999196,,,,,,,,9,18,Man,Rechts,2,
,xotask,xotask,dotcolour,40,0,40,40,training,negativefb,70,hard,51,0.8166728999999577,['c'],1,left,['9'],5,0.3895416000000296,,,,,,,,9,18,Man,Rechts,2,
,xotask,xotask,dotcolour,41,0,41,41,training,negativefb,38,hard,50,0.8657656999998835,['c'],1,left,['9'],5,0.21995779999997467,,,,,,,,9,18,Man,Rechts,2,
,xotask,xotask,dotcolour,42,0,42,42,training,negativefb,94,hard,27,0.3333855000000767,['n'],1,right,['3'],3,0.6301619000000755,,,,,,,,9,18,Man,Rechts,2,
,xotask,xotask,dotcolour,43,0,43,43,training,negativefb,79,easy,7,0.5670831999998427,['c'],0,right,['8'],4,0.3989910999998756,,,,,,,,9,18,Man,Rechts,2,
,xotask,xotask,dotcolour,44,0,44,44,training,negativefb,92,average,19,0.8850992000000133,['n'],1,right,['8'],4,0.33915440000009767,,,,,,,,9,18,Man,Rechts,2,
,xotask,xotask,dotcolour,45,0,45,45,training,negativefb,95,hard,52,0.6655637999999726,['c'],1,left,['8'],4,0.7155986000000212,,,,,,,,9,18,Man,Rechts,2,
,xotask,xotask,dotcolour,46,0,46,46,training,negativefb,77,hard,25,1.349546200000077,['n'],1,right,['8'],4,0.3215821000001142,,,,,,,,9,18,Man,Rechts,2,
,xotask,xotask,dotcolour,47,0,47,47,training,negativefb,52,average,18,0.6156687000000147,['c'],0,right,['3'],3,0.5086175999999796,,,,,,,,9,18,Man,Rechts,2,
,xotask,xotask,dotcolour,48,0,48,48,training,negativefb,74,easy,6,0.7325556999999208,['n'],1,right,['9'],5,0.24275280000006205,,,,,,,,9,18,Man,Rechts,2,
,xotask,xotask,dotcolour,49,0,49,49,training,negativefb,94,easy,72,0.3169288999999935,['c'],1,left,['8'],4,0.30142419999992853,,,,,,,,9,18,Man,Rechts,2,
,xotask,xotask,dotcolour,50,0,50,50,training,negativefb,43,average,16,0.3995101999998951,['n'],1,right,['9'],5,0.20959849999985636,,,,,,,,9,18,Man,Rechts,2,
,xotask,xotask,dotcolour,51,0,51,51,training,negativefb,66,average,17,0.401008499999989,['n'],1,right,['0'],6,0.24857730000007905,,,,,,,,9,18,Man,Rechts,2,
,xotask,xotask,dotcolour,52,0,52,52,training,negativefb,79,easy,8,0.9162880999999743,['n'],1,right,['9'],5,0.17021260000001348,,,,,,,,9,18,Man,Rechts,2,
,xotask,xotask,dotcolour,53,0,53,53,training,negativefb,40,easy,70,0.5829393999999866,['c'],1,left,['9'],5,0.18087070000001404,,,,,,,,9,18,Man,Rechts,2,
,xotask,xotask,dotcolour,54,0,54,54,training,negativefb,49,hard,28,0.7159043000001475,['n'],1,right,['9'],5,0.257746300000008,,,,,,,,9,18,Man,Rechts,2,
,xotask,xotask,dotcolour,55,0,55,55,training,negativefb,36,hard,51,0.6163926000001538,['n'],0,left,['8'],4,0.5905984000000899,,,,,,,,9,18,Man,Rechts,2,
,xotask,xotask,dotcolour,56,0,56,56,training,negativefb,58,hard,27,0.700948199999857,['c'],0,right,['8'],4,0.42753060000018195,,,,,,,,9,18,Man,Rechts,2,
,xotask,xotask,dotcolour,57,0,57,57,training,negativefb,56,hard,51,1.4840791999999965,['c'],1,left,['9'],5,0.15122169999995094,,,,,,,,9,18,Man,Rechts,2,
,xotask,xotask,dotcolour,58,0,58,58,training,negativefb,90,easy,8,0.4834773000000041,['n'],1,right,['9'],5,0.20566489999987425,,,,,,,,9,18,Man,Rechts,2,
,xotask,xotask,dotcolour,59,0,59,59,training,negativefb,85,average,15,0.6667477999999392,['n'],1,right,['8'],4,0.2840327999999772,,,,,,,,9,18,Man,Rechts,2,
,xotask,xotask,dotcolour,0,1,60,60,training,negativefb,59,hard,51,0.7671867999999904,['c'],1,left,['8'],4,0.22642029999997249,,,,,,,,9,18,Man,Rechts,2,
,xotask,xotask,dotcolour,1,1,61,61,training,negativefb,89,hard,27,0.31679880000001504,['n'],1,right,['8'],4,0.6540431000000808,,,,,,,,9,18,Man,Rechts,2,
,xotask,xotask,dotcolour,2,1,62,62,training,negativefb,53,hard,53,0.8326200999999855,['c'],1,left,['9'],5,0.18637280000007195,,,,,,,,9,18,Man,Rechts,2,
,xotask,xotask,dotcolour,3,1,63,63,training,negativefb,76,average,19,0.5008859000001848,['n'],1,right,['9'],5,0.27858930000002147,,,,,,,,9,18,Man,Rechts,2,
,xotask,xotask,dotcolour,4,1,64,64,training,negativefb,75,hard,51,0.6992113999999674,['c'],1,left,['9'],5,0.16085479999992458,,,,,,,,9,18,Man,Rechts,2,
,xotask,xotask,dotcolour,5,1,65,65,training,negativefb,49,hard,52,0.48302300000000287,['c'],1,left,['0'],6,0.28004569999984597,,,,,,,,9,18,Man,Rechts,2,
,xotask,xotask,dotcolour,6,1,66,66,training,negativefb,73,average,64,0.7001697000000604,['c'],1,left,['9'],5,0.16903409999986252,,,,,,,,9,18,Man,Rechts,2,
,xotask,xotask,dotcolour,7,1,67,67,training,negativefb,93,easy,9,0.33296870000003764,['n'],1,right,['9'],5,0.2772013999999672,,,,,,,,9,18,Man,Rechts,2,
,xotask,xotask,dotcolour,8,1,68,68,training,negativefb,98,average,63,0.3175538999998935,['c'],1,left,['9'],5,0.23790960000019368,,,,,,,,9,18,Man,Rechts,2,
,xotask,xotask,dotcolour,9,1,69,69,training,negativefb,81,hard,26,0.6175688999999238,['c'],0,right,['9'],5,0.4678255999999692,,,,,,,,9,18,Man,Rechts,2,
,xotask,xotask,dotcolour,10,1,70,70,training,negativefb,29,hard,53,0.3835463999998865,['n'],0,left,['9'],5,0.32200639999996383,,,,,,,,9,18,Man,Rechts,2,
,xotask,xotask,dotcolour,11,1,71,71,training,negativefb,64,average,15,0.6502487000000201,['c'],0,right,['9'],5,0.2194357000000764,,,,,,,,9,18,Man,Rechts,2,
,xotask,xotask,dotcolour,12,1,72,72,training,negativefb,23,easy,70,0.8167081000001417,['n'],0,left,['1'],1,0.9620098000000326,,,,,,,,9,18,Man,Rechts,2,
,xotask,xotask,dotcolour,13,1,73,73,training,negativefb,87,easy,9,0.7345205999999962,['n'],1,right,['8'],4,0.30284389999997074,,,,,,,,9,18,Man,Rechts,2,
,xotask,xotask,dotcolour,14,1,74,74,training,negativefb,39,average,16,0.5500696999999946,['c'],0,right,['9'],5,0.25343789999988076,,,,,,,,9,18,Man,Rechts,2,
,xotask,xotask,dotcolour,15,1,75,75,training,negativefb,71,average,64,0.6998283000000356,['c'],1,left,['9'],5,0.20729809999988902,,,,,,,,9,18,Man,Rechts,2,
,xotask,xotask,dotcolour,16,1,76,76,training,negativefb,43,hard,52,0.8327970999998797,['c'],1,left,['9'],5,0.19788579999999456,,,,,,,,9,18,Man,Rechts,2,
,xotask,xotask,dotcolour,17,1,77,77,training,negativefb,39,easy,74,0.5340966000001117,['c'],1,left,['9'],5,0.5451215000000502,,,,,,,,9,18,Man,Rechts,2,
,xotask,xotask,dotcolour,18,1,78,78,training,negativefb,57,easy,71,1.00006970000004,['c'],1,left,['9'],5,0.2121754999998302,,,,,,,,9,18,Man,Rechts,2,
,xotask,xotask,dotcolour,19,1,79,79,training,negativefb,66,hard,27,0.8342250000000604,['n'],1,right,['8'],4,0.29076579999991736,,,,,,,,9,18,Man,Rechts,2,
,xotask,xotask,dotcolour,20,1,80,80,training,negativefb,26,easy,74,0.2840588999999909,['c'],1,left,['8'],4,0.20366829999989022,,,,,,,,9,18,Man,Rechts,2,
,xotask,xotask,dotcolour,21,1,81,81,training,negativefb,68,average,17,0.2506051000000298,['n'],1,right,['9'],5,0.3383957000000919,,,,,,,,9,18,Man,Rechts,2,
,xotask,xotask,dotcolour,22,1,82,82,training,negativefb,79,easy,73,0.41682829999990645,['c'],1,left,['0'],6,0.26810090000003584,,,,,,,,9,18,Man,Rechts,2,
,xotask,xotask,dotcolour,23,1,83,83,training,negativefb,79,hard,50,0.53282779999995,['c'],1,left,['0'],6,0.25214390000019193,,,,,,,,9,18,Man,Rechts,2,
,xotask,xotask,dotcolour,24,1,84,84,training,negativefb,19,easy,7,0.4506607000000713,['c'],0,right,['3'],3,0.6160990000000766,,,,,,,,9,18,Man,Rechts,2,
,xotask,xotask,dotcolour,25,1,85,85,training,negativefb,47,easy,9,0.5837970000000041,['c'],0,right,['3'],3,0.5606343000001743,,,,,,,,9,18,Man,Rechts,2,
,xotask,xotask,dotcolour,26,1,86,86,training,negativefb,65,hard,26,0.9508379999999761,['n'],1,right,['9'],5,0.18072189999998045,,,,,,,,9,18,Man,Rechts,2,
,xotask,xotask,dotcolour,27,1,87,87,training,negativefb,80,hard,52,0.616052800000034,['c'],1,left,['9'],5,0.26939979999997377,,,,,,,,9,18,Man,Rechts,2,
,xotask,xotask,dotcolour,28,1,88,88,training,negativefb,57,average,18,0.3503802000000178,['n'],1,right,['9'],5,0.332275700000082,,,,,,,,9,18,Man,Rechts,2,
,xotask,xotask,dotcolour,29,1,89,89,training,negativefb,15,hard,29,0.40085849999991296,['c'],0,right,['8'],4,0.5436869999998635,,,,,,,,9,18,Man,Rechts,2,
,xotask,xotask,dotcolour,30,1,90,90,training,negativefb,41,hard,26,0.13229040000010173,['n'],1,right,['9'],5,0.7465497000000596,,,,,,,,9,18,Man,Rechts,2,
,xotask,xotask,dotcolour,31,1,91,91,training,negativefb,72,average,19,0.8164043000001584,['n'],1,right,['0'],6,0.2362009000000853,,,,,,,,9,18,Man,Rechts,2,
,xotask,xotask,dotcolour,32,1,92,92,training,negativefb,78,easy,72,0.534179100000074,['c'],1,left,['9'],5,0.197722899999917,,,,,,,,9,18,Man,Rechts,2,
,xotask,xotask,dotcolour,33,1,93,93,training,negativefb,76,easy,71,0.7162352999998802,['c'],1,left,['9'],5,0.1538782000000083,,,,,,,,9,18,Man,Rechts,2,
,xotask,xotask,dotcolour,34,1,94,94,training,negativefb,59,easy,8,0.5831481999998687,['n'],1,right,['0'],6,0.20458880000001045,,,,,,,,9,18,Man,Rechts,2,
,xotask,xotask,dotcolour,35,1,95,95,training,negativefb,70,average,64,0.5660846999999194,['c'],1,left,['9'],5,0.27796940000007453,,,,,,,,9,18,Man,Rechts,2,
,xotask,xotask,dotcolour,36,1,96,96,training,negativefb,35,hard,52,0.4834527000000435,['c'],1,left,['9'],5,0.18369649999999638,,,,,,,,9,18,Man,Rechts,2,
,xotask,xotask,dotcolour,37,1,97,97,training,negativefb,48,hard,29,0.46598180000000866,['n'],1,right,['0'],6,0.3020840000001499,,,,,,,,9,18,Man,Rechts,2,
,xotask,xotask,dotcolour,38,1,98,98,training,negativefb,68,average,64,0.5495407999999316,['c'],1,left,['9'],5,0.2282970999999634,,,,,,,,9,18,Man,Rechts,2,
,xotask,xotask,dotcolour,39,1,99,99,training,negativefb,80,hard,54,0.6165866000001188,['c'],1,left,['9'],5,0.2426590000000033,,,,,,,,9,18,Man,Rechts,2,
,xotask,xotask,dotcolour,40,1,100,100,training,negativefb,43,easy,6,0.7005824999998822,['n'],1,right,['9'],5,0.20558050000022376,,,,,,,,9,18,Man,Rechts,2,
,xotask,xotask,dotcolour,41,1,101,101,training,negativefb,74,easy,5,0.6839402000000518,['n'],1,right,['0'],6,0.18610480000006646,,,,,,,,9,18,Man,Rechts,2,
,xotask,xotask,dotcolour,42,1,102,102,training,negativefb,26,hard,29,0.5162232000000131,['n'],1,right,['9'],5,0.37393329999986236,,,,,,,,9,18,Man,Rechts,2,
,xotask,xotask,dotcolour,43,1,103,103,training,negativefb,75,hard,29,0.9341945999999552,['c'],0,right,['9'],5,0.25758270000005723,,,,,,,,9,18,Man,Rechts,2,
,xotask,xotask,dotcolour,44,1,104,104,training,negativefb,82,easy,73,0.8003565999999864,['c'],1,left,['9'],5,0.20078280000006998,,,,,,,,9,18,Man,Rechts,2,
,xotask,xotask,dotcolour,45,1,105,105,training,negativefb,79,average,17,0.8827602000001207,['n'],1,right,['9'],5,0.5409587999999985,,,,,,,,9,18,Man,Rechts,2,
,xotask,xotask,dotcolour,46,1,106,106,training,negativefb,90,easy,73,0.4828069999998661,['c'],1,left,['9'],5,0.340147399999978,,,,,,,,9,18,Man,Rechts,2,
,xotask,xotask,dotcolour,47,1,107,107,training,negativefb,63,average,18,0.4827321000000211,['n'],1,right,['9'],5,0.24356119999993098,,,,,,,,9,18,Man,Rechts,2,
,xotask,xotask,dotcolour,48,1,108,108,training,negativefb,45,easy,5,0.40024419999986094,['c'],0,right,['9'],5,0.3387582000000293,,,,,,,,9,18,Man,Rechts,2,
,xotask,xotask,dotcolour,49,1,109,109,training,negativefb,71,average,61,0.6668214000001171,['c'],1,left,['0'],6,0.2348323999999593,,,,,,,,9,18,Man,Rechts,2,
,xotask,xotask,dotcolour,50,1,110,110,training,negativefb,89,hard,26,0.43336859999999433,['n'],1,right,['9'],5,0.3123897999998917,,,,,,,,9,18,Man,Rechts,2,
,xotask,xotask,dotcolour,51,1,111,111,training,negativefb,82,average,64,0.39932550000003175,['c'],1,left,['9'],5,0.2923577999999907,,,,,,,,9,18,Man,Rechts,2,
,xotask,xotask,dotcolour,52,1,112,112,training,negativefb,83,easy,74,0.599476599999889,['c'],1,left,['9'],5,0.23302840000019387,,,,,,,,9,18,Man,Rechts,2,
,xotask,xotask,dotcolour,53,1,113,113,training,negativefb,79,easy,7,0.4657850999999482,['n'],1,right,['9'],5,0.2532886999999846,,,,,,,,9,18,Man,Rechts,2,
,xotask,xotask,dotcolour,54,1,114,114,training,negativefb,22,average,62,0.8161230999999134,['c'],1,left,['9'],5,0.20228560000009566,,,,,,,,9,18,Man,Rechts,2,
,xotask,xotask,dotcolour,55,1,115,115,training,negativefb,52,average,19,1.383577399999922,['n'],1,right,['0'],6,0.3944610000000921,,,,,,,,9,18,Man,Rechts,2,
,xotask,xotask,dotcolour,56,1,116,116,training,negativefb,29,easy,7,0.5497785000000022,['c'],0,right,['3'],3,0.669445499999938,,,,,,,,9,18,Man,Rechts,2,
,xotask,xotask,dotcolour,57,1,117,117,training,negativefb,82,average,62,0.6004104000001007,['c'],1,left,['9'],5,0.2511657000000014,,,,,,,,9,18,Man,Rechts,2,
,xotask,xotask,dotcolour,58,1,118,118,training,negativefb,47,average,15,0.5006607000000258,['n'],1,right,['9'],5,0.22951560000001336,,,,,,,,9,18,Man,Rechts,2,
,xotask,xotask,dotcolour,59,1,119,119,training,negativefb,49,average,63,0.8332846999999219,['c'],1,left,['9'],5,0.3317305000000488,,,,,,,,9,18,Man,Rechts,2,
,dotcolour,xotask,dotcolour,0,2,120,120,main,negativefb,-99,easy,,1.0182159000000865,['n'],1,right,['9'],5,0.4217529000000013,15,,,,,,,9,18,Man,Rechts,2,
,dotcolour,xotask,dotcolour,1,2,121,121,main,negativefb,-99,hard,,0.43366149999997106,['c'],1,left,['8'],4,0.307776899999908,44,,,,,,,9,18,Man,Rechts,2,
,dotcolour,xotask,dotcolour,2,2,122,122,main,negativefb,-99,average,,0.5510916000000634,['n'],1,right,['9'],5,0.25864230000001953,26,,,,,,,9,18,Man,Rechts,2,
,dotcolour,xotask,dotcolour,3,2,123,123,main,negativefb,-99,easy,,0.5002958999998555,['c'],1,left,['9'],5,0.21403429999986656,65,,,,,,,9,18,Man,Rechts,2,
,dotcolour,xotask,dotcolour,4,2,124,124,main,negativefb,-99,hard,,0.7000059000001784,['n'],1,right,['9'],5,0.29852949999985867,35,,,,,,,9,18,Man,Rechts,2,
,dotcolour,xotask,dotcolour,5,2,125,125,main,negativefb,-99,average,,0.5669539000000441,['c'],1,left,['9'],5,0.16141099999981634,55,,,,,,,9,18,Man,Rechts,2,
,dotcolour,xotask,dotcolour,6,2,126,126,main,negativefb,-99,average,,0.46718559999999343,['n'],0,left,['9'],5,0.20144950000008066,52,,,,,,,9,18,Man,Rechts,2,
,dotcolour,xotask,dotcolour,7,2,127,127,main,negativefb,-99,hard,,0.9343627999999171,['n'],1,right,['9'],5,0.22080959999993865,38,,,,,,,9,18,Man,Rechts,2,
,dotcolour,xotask,dotcolour,8,2,128,128,main,negativefb,-99,easy,,0.6166964999999891,['n'],1,right,['9'],5,0.15618949999998222,18,,,,,,,9,18,Man,Rechts,2,
,dotcolour,xotask,dotcolour,9,2,129,129,main,negativefb,-99,easy,,0.5171216999999615,['n'],1,right,['9'],5,0.1781479000001127,16,,,,,,,9,18,Man,Rechts,2,
,dotcolour,xotask,dotcolour,10,2,130,130,main,negativefb,-99,hard,,0.7669058000001314,['c'],0,right,['9'],5,0.1976852999998755,39,,,,,,,9,18,Man,Rechts,2,
,dotcolour,xotask,dotcolour,11,2,131,131,main,negativefb,-99,easy,,0.5674314000000322,['c'],1,left,['9'],5,0.744309899999962,63,,,,,,,9,18,Man,Rechts,2,
,dotcolour,xotask,dotcolour,12,2,132,132,main,negativefb,-99,hard,,1.1500943999999436,['c'],1,left,['9'],5,0.15774439999995593,41,,,,,,,9,18,Man,Rechts,2,
,dotcolour,xotask,dotcolour,13,2,133,133,main,negativefb,-99,hard,,0.5164945999999873,['c'],1,left,['9'],5,0.16394249999984822,43,,,,,,,9,18,Man,Rechts,2,
,dotcolour,xotask,dotcolour,14,2,134,134,main,negativefb,-99,average,,0.5665690000000723,['n'],1,right,['9'],5,0.15994000000000597,27,,,,,,,9,18,Man,Rechts,2,
,dotcolour,xotask,dotcolour,15,2,135,135,main,negativefb,-99,hard,,0.5343225999999959,['c'],0,right,['9'],5,0.18942100000003848,38,,,,,,,9,18,Man,Rechts,2,
,dotcolour,xotask,dotcolour,16,2,136,136,main,negativefb,-99,easy,,0.6502686000001177,['n'],1,right,['9'],5,0.12469609999993736,18,,,,,,,9,18,Man,Rechts,2,
,dotcolour,xotask,dotcolour,17,2,137,137,main,negativefb,-99,easy,,0.46683409999991454,['c'],1,left,['9'],5,0.16590770000016164,63,,,,,,,9,18,Man,Rechts,2,
,dotcolour,xotask,dotcolour,18,2,138,138,main,negativefb,-99,easy,,0.4830116000000544,['n'],1,right,['9'],5,0.1720225000001392,15,,,,,,,9,18,Man,Rechts,2,
,dotcolour,xotask,dotcolour,19,2,139,139,main,negativefb,-99,hard,,1.2669281999999384,['c'],0,right,['3'],3,0.21964900000011767,38,,,,,,,9,18,Man,Rechts,2,
,dotcolour,xotask,dotcolour,20,2,140,140,main,negativefb,-99,hard,,0.5993989999999485,['n'],0,left,['8'],4,0.5876772000001438,43,,,,,,,9,18,Man,Rechts,2,
,dotcolour,xotask,dotcolour,21,2,141,141,main,negativefb,-99,average,,0.6166510999998991,['c'],1,left,['8'],4,0.18059870000001865,54,,,,,,,9,18,Man,Rechts,2,
,dotcolour,xotask,dotcolour,22,2,142,142,main,negativefb,-99,average,,0.600889000000052,['n'],1,right,['9'],5,0.270817500000021,27,,,,,,,9,18,Man,Rechts,2,
,dotcolour,xotask,dotcolour,23,2,143,143,main,negativefb,-99,easy,,0.6828770000001896,['c'],1,left,['9'],5,0.16893839999988813,65,,,,,,,9,18,Man,Rechts,2,
,dotcolour,xotask,dotcolour,24,2,144,144,main,negativefb,-99,easy,,0.6344454000000042,['n'],1,right,['9'],5,0.13011200000005374,19,,,,,,,9,18,Man,Rechts,2,
,dotcolour,xotask,dotcolour,25,2,145,145,main,negativefb,-99,average,,0.5166837000001578,['c'],1,left,['8'],4,0.20169830000008915,51,,,,,,,9,18,Man,Rechts,2,
,dotcolour,xotask,dotcolour,26,2,146,146,main,negativefb,-99,average,,0.6658698999999615,['c'],0,right,['9'],5,0.27147800000011557,27,,,,,,,9,18,Man,Rechts,2,
,dotcolour,xotask,dotcolour,27,2,147,147,main,negativefb,-99,hard,,1.4350451000000248,['n'],1,right,['8'],4,0.15621149999992667,38,,,,,,,9,18,Man,Rechts,2,
,dotcolour,xotask,dotcolour,28,2,148,148,main,negativefb,-99,average,,0.6167156999999861,['c'],1,left,['9'],5,0.15029779999986204,55,,,,,,,9,18,Man,Rechts,2,
,dotcolour,xotask,dotcolour,29,2,149,149,main,negativefb,-99,average,,0.6328452000000198,['c'],1,left,['9'],5,0.18377019999979893,52,,,,,,,9,18,Man,Rechts,2,
,dotcolour,xotask,dotcolour,30,2,150,150,main,negativefb,-99,hard,,0.8828396999999768,['c'],0,right,['9'],5,0.17354040000009263,38,,,,,,,9,18,Man,Rechts,2,
,dotcolour,xotask,dotcolour,31,2,151,151,main,negativefb,-99,easy,,0.616756500000065,['c'],1,left,['9'],5,0.13487510000004477,65,,,,,,,9,18,Man,Rechts,2,
,dotcolour,xotask,dotcolour,32,2,152,152,main,negativefb,-99,hard,,1.20061110000006,['n'],0,left,['8'],4,0.16268009999998867,44,,,,,,,9,18,Man,Rechts,2,
,dotcolour,xotask,dotcolour,33,2,153,153,main,negativefb,-99,easy,,0.58453059999988,['n'],1,right,['9'],5,0.38162529999999606,17,,,,,,,9,18,Man,Rechts,2,
,dotcolour,xotask,dotcolour,34,2,154,154,main,negativefb,-99,easy,,0.5329117999999653,['n'],1,right,['9'],5,0.21014149999996334,18,,,,,,,9,18,Man,Rechts,2,
,dotcolour,xotask,dotcolour,35,2,155,155,main,negativefb,-99,hard,,0.5831414999997833,['c'],1,left,['8'],4,0.2836817999998402,41,,,,,,,9,18,Man,Rechts,2,
,dotcolour,xotask,dotcolour,36,2,156,156,main,negativefb,-99,easy,,0.6839295000002039,['c'],1,left,['9'],5,0.19696079999994254,64,,,,,,,9,18,Man,Rechts,2,
,dotcolour,xotask,dotcolour,37,2,157,157,main,negativefb,-99,average,,0.7339985999999499,['n'],1,right,['9'],5,0.1614832000000206,26,,,,,,,9,18,Man,Rechts,2,
,dotcolour,xotask,dotcolour,38,2,158,158,main,negativefb,-99,hard,,2.3671730000000935,['n'],1,right,['3'],3,0.1262051999999585,37,,,,,,,9,18,Man,Rechts,2,
,dotcolour,xotask,dotcolour,39,2,159,159,main,negativefb,-99,hard,,0.5499796999999944,['c'],1,left,['8'],4,0.1958172999998169,44,,,,,,,9,18,Man,Rechts,2,
,dotcolour,xotask,dotcolour,40,2,160,160,main,negativefb,-99,average,,0.4666737000000012,['n'],1,right,['9'],5,0.18663880000008248,27,,,,,,,9,18,Man,Rechts,2,
,dotcolour,xotask,dotcolour,41,2,161,161,main,negativefb,-99,hard,,0.6168322999999418,['c'],1,left,['9'],5,0.2112549000000854,42,,,,,,,9,18,Man,Rechts,2,
,dotcolour,xotask,dotcolour,42,2,162,162,main,negativefb,-99,average,,0.433450700000094,['c'],1,left,['9'],5,0.18580040000006193,55,,,,,,,9,18,Man,Rechts,2,
,dotcolour,xotask,dotcolour,43,2,163,163,main,negativefb,-99,average,,0.4177148000001125,['c'],0,right,['8'],4,0.28354349999995065,28,,,,,,,9,18,Man,Rechts,2,
,dotcolour,xotask,dotcolour,44,2,164,164,main,negativefb,-99,average,,0.8171563999999307,['n'],1,right,['9'],5,0.17628510000008646,26,,,,,,,9,18,Man,Rechts,2,
,dotcolour,xotask,dotcolour,45,2,165,165,main,negativefb,-99,hard,,0.7000683999999637,['c'],1,left,['8'],4,0.23042559999998957,43,,,,,,,9,18,Man,Rechts,2,
,dotcolour,xotask,dotcolour,46,2,166,166,main,negativefb,-99,average,,1.0505444000000352,['n'],0,left,['9'],5,0.14014780000002247,51,,,,,,,9,18,Man,Rechts,2,
,dotcolour,xotask,dotcolour,47,2,167,167,main,negativefb,-99,average,,0.7171241999999438,['c'],1,left,['8'],4,0.16302969999992456,52,,,,,,,9,18,Man,Rechts,2,
,dotcolour,xotask,dotcolour,48,2,168,168,main,negativefb,-99,hard,,0.9008100000000923,['c'],0,right,['9'],5,0.16170360000000983,39,,,,,,,9,18,Man,Rechts,2,
,dotcolour,xotask,dotcolour,49,2,169,169,main,negativefb,-99,average,,0.44989970000005997,['c'],1,left,['9'],5,0.17885709999995925,51,,,,,,,9,18,Man,Rechts,2,
,dotcolour,xotask,dotcolour,50,2,170,170,main,negativefb,-99,easy,,0.41624780000006467,['c'],1,left,['9'],5,0.18781719999992674,64,,,,,,,9,18,Man,Rechts,2,
,dotcolour,xotask,dotcolour,51,2,171,171,main,negativefb,-99,easy,,0.7510601999999835,['n'],1,right,['9'],5,0.15118379999989884,18,,,,,,,9,18,Man,Rechts,2,
,dotcolour,xotask,dotcolour,52,2,172,172,main,negativefb,-99,average,,1.6502262000001338,['n'],1,right,['3'],3,0.14418309999996382,29,,,,,,,9,18,Man,Rechts,2,
,dotcolour,xotask,dotcolour,53,2,173,173,main,negativefb,-99,easy,,0.8496387000000141,['n'],1,right,['9'],5,0.12920129999997698,17,,,,,,,9,18,Man,Rechts,2,
,dotcolour,xotask,dotcolour,54,2,174,174,main,negativefb,-99,hard,,0.8352523999999448,['c'],1,left,['9'],5,0.16314680000004955,44,,,,,,,9,18,Man,Rechts,2,
,dotcolour,xotask,dotcolour,55,2,175,175,main,negativefb,-99,easy,,0.5672194999999647,['c'],1,left,['9'],5,0.19954180000013366,63,,,,,,,9,18,Man,Rechts,2,
,dotcolour,xotask,dotcolour,56,2,176,176,main,negativefb,-99,hard,,0.7494907000000239,['c'],0,right,['8'],4,0.2506382000001395,39,,,,,,,9,18,Man,Rechts,2,
,dotcolour,xotask,dotcolour,57,2,177,177,main,negativefb,-99,easy,,0.5668229000000338,['c'],1,left,['8'],4,0.2508299999999508,64,,,,,,,9,18,Man,Rechts,2,
,dotcolour,xotask,dotcolour,58,2,178,178,main,negativefb,-99,easy,,0.5175136999998813,['c'],1,left,['9'],5,0.14055559999997058,64,,,,,,,9,18,Man,Rechts,2,
,dotcolour,xotask,dotcolour,59,2,179,179,main,negativefb,-99,average,,0.6001678000000084,['n'],1,right,['9'],5,0.16032800000016323,27,,,,,,,9,18,Man,Rechts,2,
,dotcolour,xotask,dotcolour,0,3,180,180,main,negativefb,-99,easy,,0.7330041000000165,['n'],0,left,['9'],5,0.29580970000006346,62,,,,,,,9,18,Man,Rechts,2,
,dotcolour,xotask,dotcolour,1,3,181,181,main,negativefb,-99,hard,,1.0833824999999706,['c'],0,right,['8'],4,0.4098181999997905,39,,,,,,,9,18,Man,Rechts,2,
,dotcolour,xotask,dotcolour,2,3,182,182,main,negativefb,-99,average,,0.5664123000001382,['n'],1,right,['9'],5,0.15543810000008307,27,,,,,,,9,18,Man,Rechts,2,
,dotcolour,xotask,dotcolour,3,3,183,183,main,negativefb,-99,average,,0.6830494999999246,['c'],1,left,['9'],5,0.13117099999999482,51,,,,,,,9,18,Man,Rechts,2,
,dotcolour,xotask,dotcolour,4,3,184,184,main,negativefb,-99,hard,,0.4005090000000564,['c'],0,right,['3'],3,0.8947507000000314,39,,,,,,,9,18,Man,Rechts,2,
,dotcolour,xotask,dotcolour,5,3,185,185,main,negativefb,-99,easy,,0.6510939000002054,['c'],1,left,['9'],5,0.1301734999999553,61,,,,,,,9,18,Man,Rechts,2,
,dotcolour,xotask,dotcolour,6,3,186,186,main,negativefb,-99,easy,,0.5337804000000688,['c'],1,left,['8'],4,0.2893997000001036,63,,,,,,,9,18,Man,Rechts,2,
,dotcolour,xotask,dotcolour,7,3,187,187,main,negativefb,-99,easy,,0.4333791999999903,['c'],1,left,['8'],4,0.22881090000009863,61,,,,,,,9,18,Man,Rechts,2,
,dotcolour,xotask,dotcolour,8,3,188,188,main,negativefb,-99,hard,,1.2002651000000242,['c'],1,left,['9'],5,0.09345920000009755,42,,,,,,,9,18,Man,Rechts,2,
,dotcolour,xotask,dotcolour,9,3,189,189,main,negativefb,-99,hard,,1.1659482000000025,['n'],1,right,['3'],3,0.13914469999986068,39,,,,,,,9,18,Man,Rechts,2,
,dotcolour,xotask,dotcolour,10,3,190,190,main,negativefb,-99,easy,,1.9177040000001853,['n'],1,right,['9'],5,0.17874080000001413,15,,,,,,,9,18,Man,Rechts,2,
,dotcolour,xotask,dotcolour,11,3,191,191,main,negativefb,-99,easy,,0.6166094000000157,['n'],1,right,['9'],5,0.16406350000011116,16,,,,,,,9,18,Man,Rechts,2,
,dotcolour,xotask,dotcolour,12,3,192,192,main,negativefb,-99,average,,0.584568999999874,['n'],1,right,['9'],5,0.1671105999998872,25,,,,,,,9,18,Man,Rechts,2,
,dotcolour,xotask,dotcolour,13,3,193,193,main,negativefb,-99,average,,1.1174051999998937,['c'],1,left,['8'],4,0.12513160000003154,55,,,,,,,9,18,Man,Rechts,2,
,dotcolour,xotask,dotcolour,14,3,194,194,main,negativefb,-99,hard,,0.6171377000000575,['c'],0,right,['8'],4,0.5518351000000621,38,,,,,,,9,18,Man,Rechts,2,
,dotcolour,xotask,dotcolour,15,3,195,195,main,negativefb,-99,easy,,0.5173866999998609,['c'],1,left,['9'],5,0.1495503999999528,64,,,,,,,9,18,Man,Rechts,2,
,dotcolour,xotask,dotcolour,16,3,196,196,main,negativefb,-99,average,,0.86771130000011,['n'],1,right,['8'],4,0.24671299999999974,29,,,,,,,9,18,Man,Rechts,2,
,dotcolour,xotask,dotcolour,17,3,197,197,main,negativefb,-99,average,,0.6343779999999697,['c'],1,left,['8'],4,0.19646699999998418,54,,,,,,,9,18,Man,Rechts,2,
,dotcolour,xotask,dotcolour,18,3,198,198,main,negativefb,-99,average,,0.4340323999999782,['c'],1,left,['9'],5,0.18885099999988597,55,,,,,,,9,18,Man,Rechts,2,
,dotcolour,xotask,dotcolour,19,3,199,199,main,negativefb,-99,average,,0.43465829999991,['c'],1,left,['9'],5,0.14066279999997278,55,,,,,,,9,18,Man,Rechts,2,
,dotcolour,xotask,dotcolour,20,3,200,200,main,negativefb,-99,hard,,0.36767620000000534,['c'],0,right,['8'],4,0.6331791000000067,35,,,,,,,9,18,Man,Rechts,2,
,dotcolour,xotask,dotcolour,21,3,201,201,main,negativefb,-99,easy,,0.5841909000000669,['n'],1,right,['9'],5,0.23280850000014652,15,,,,,,,9,18,Man,Rechts,2,
,dotcolour,xotask,dotcolour,22,3,202,202,main,negativefb,-99,easy,,0.6509187999999995,['n'],1,right,['8'],4,0.23087229999987358,19,,,,,,,9,18,Man,Rechts,2,
,dotcolour,xotask,dotcolour,23,3,203,203,main,negativefb,-99,average,,1.2511713999999756,['n'],1,right,['3'],3,0.4761482999999771,28,,,,,,,9,18,Man,Rechts,2,
,dotcolour,xotask,dotcolour,24,3,204,204,main,negativefb,-99,easy,,1.034161099999892,['n'],1,right,['9'],5,0.24101010000003953,18,,,,,,,9,18,Man,Rechts,2,
,dotcolour,xotask,dotcolour,25,3,205,205,main,negativefb,-99,easy,,0.5166203999999652,['c'],1,left,['9'],5,0.24428019999982098,65,,,,,,,9,18,Man,Rechts,2,
,dotcolour,xotask,dotcolour,26,3,206,206,main,negativefb,-99,easy,,0.6830975999998827,['c'],0,right,['8'],4,0.8484311999998226,18,,,,,,,9,18,Man,Rechts,2,
,dotcolour,xotask,dotcolour,27,3,207,207,main,negativefb,-99,hard,,1.2824934000000212,['c'],1,left,['8'],4,0.16334660000006807,41,,,,,,,9,18,Man,Rechts,2,
,dotcolour,xotask,dotcolour,28,3,208,208,main,negativefb,-99,average,,0.8836899000000358,['c'],1,left,['9'],5,0.5235887999999704,52,,,,,,,9,18,Man,Rechts,2,
,dotcolour,xotask,dotcolour,29,3,209,209,main,negativefb,-99,average,,0.6837496000000556,['c'],1,left,['8'],4,0.2039790000001176,53,,,,,,,9,18,Man,Rechts,2,
,dotcolour,xotask,dotcolour,30,3,210,210,main,negativefb,-99,hard,,1.3840417999999772,['n'],1,right,['3'],3,0.3495918000000984,35,,,,,,,9,18,Man,Rechts,2,
,dotcolour,xotask,dotcolour,31,3,211,211,main,negativefb,-99,average,,0.666725900000074,['n'],1,right,['8'],4,0.17398329999991802,27,,,,,,,9,18,Man,Rechts,2,
,dotcolour,xotask,dotcolour,32,3,212,212,main,negativefb,-99,average,,0.4168477000000621,['n'],0,left,['2'],2,1.183157700000038,51,,,,,,,9,18,Man,Rechts,2,
,dotcolour,xotask,dotcolour,33,3,213,213,main,negativefb,-99,hard,,0.633531400000038,['c'],0,right,['9'],5,0.19913790000009612,38,,,,,,,9,18,Man,Rechts,2,
,dotcolour,xotask,dotcolour,34,3,214,214,main,negativefb,-99,hard,,0.7674164000000019,['c'],1,left,['9'],5,0.32905830000004244,42,,,,,,,9,18,Man,Rechts,2,
,dotcolour,xotask,dotcolour,35,3,215,215,main,negativefb,-99,average,,0.7334559000000809,['c'],1,left,['9'],5,0.22363109999992048,53,,,,,,,9,18,Man,Rechts,2,
,dotcolour,xotask,dotcolour,36,3,216,216,main,negativefb,-99,hard,,0.5843094999997902,['c'],1,left,['8'],4,0.2399262000001272,44,,,,,,,9,18,Man,Rechts,2,
,dotcolour,xotask,dotcolour,37,3,217,217,main,negativefb,-99,hard,,1.4009146999999302,['n'],1,right,['3'],3,0.32842490000007274,35,,,,,,,9,18,Man,Rechts,2,
,dotcolour,xotask,dotcolour,38,3,218,218,main,negativefb,-99,hard,,0.8353878999998869,['c'],1,left,['8'],4,0.17923080000014124,41,,,,,,,9,18,Man,Rechts,2,
,dotcolour,xotask,dotcolour,39,3,219,219,main,negativefb,-99,easy,,1.0333262999999988,['n'],1,right,['9'],5,0.13925859999994827,19,,,,,,,9,18,Man,Rechts,2,
,dotcolour,xotask,dotcolour,40,3,220,220,main,negativefb,-99,hard,,1.0160099000001992,['c'],1,left,['8'],4,0.1982825000000048,44,,,,,,,9,18,Man,Rechts,2,
,dotcolour,xotask,dotcolour,41,3,221,221,main,negativefb,-99,easy,,1.7329987999999048,['n'],1,right,['8'],4,0.2181919999998172,15,,,,,,,9,18,Man,Rechts,2,
,dotcolour,xotask,dotcolour,42,3,222,222,main,negativefb,-99,average,,0.5510957000001326,['c'],0,right,['9'],5,0.1723176999998941,26,,,,,,,9,18,Man,Rechts,2,
,dotcolour,xotask,dotcolour,43,3,223,223,main,negativefb,-99,hard,,1.4336183000000347,['n'],0,left,['3'],3,0.7334739999998874,41,,,,,,,9,18,Man,Rechts,2,
,dotcolour,xotask,dotcolour,44,3,224,224,main,negativefb,-99,average,,0.5689978000000337,['c'],1,left,['8'],4,0.21764020000000528,51,,,,,,,9,18,Man,Rechts,2,
,dotcolour,xotask,dotcolour,45,3,225,225,main,negativefb,-99,average,,0.6175160999998752,['n'],1,right,['9'],5,0.1529725000000326,26,,,,,,,9,18,Man,Rechts,2,
,dotcolour,xotask,dotcolour,46,3,226,226,main,negativefb,-99,easy,,0.6509467000000768,['n'],1,right,['9'],5,0.5619970999998714,19,,,,,,,9,18,Man,Rechts,2,
,dotcolour,xotask,dotcolour,47,3,227,227,main,negativefb,-99,easy,,0.617385000000013,['c'],1,left,['8'],4,0.13890809999998055,65,,,,,,,9,18,Man,Rechts,2,
,dotcolour,xotask,dotcolour,48,3,228,228,main,negativefb,-99,easy,,0.4335696000000553,['c'],1,left,['9'],5,0.11000930000000153,61,,,,,,,9,18,Man,Rechts,2,
,dotcolour,xotask,dotcolour,49,3,229,229,main,negativefb,-99,easy,,0.31714289999990797,['c'],1,left,['9'],5,0.14156899999989037,64,,,,,,,9,18,Man,Rechts,2,
,dotcolour,xotask,dotcolour,50,3,230,230,main,negativefb,-99,hard,,0.31653720000008434,['c'],1,left,['9'],5,0.23625400000014452,45,,,,,,,9,18,Man,Rechts,2,
,dotcolour,xotask,dotcolour,51,3,231,231,main,negativefb,-99,average,,0.38375599999994847,['n'],1,right,['9'],5,0.17970519999994394,28,,,,,,,9,18,Man,Rechts,2,
,dotcolour,xotask,dotcolour,52,3,232,232,main,negativefb,-99,hard,,0.816163700000061,['n'],0,left,['9'],5,0.15030449999994744,43,,,,,,,9,18,Man,Rechts,2,
,dotcolour,xotask,dotcolour,53,3,233,233,main,negativefb,-99,hard,,0.866489399999864,['n'],1,right,['3'],3,0.7738010000000486,38,,,,,,,9,18,Man,Rechts,2,
,dotcolour,xotask,dotcolour,54,3,234,234,main,negativefb,-99,average,,0.7842379999999594,['n'],1,right,['8'],4,0.17702969999982088,25,,,,,,,9,18,Man,Rechts,2,
,dotcolour,xotask,dotcolour,55,3,235,235,main,negativefb,-99,average,,0.633529499999895,['n'],1,right,['9'],5,0.20940990000008242,25,,,,,,,9,18,Man,Rechts,2,
,dotcolour,xotask,dotcolour,56,3,236,236,main,negativefb,-99,hard,,0.6833873000000494,['c'],1,left,['9'],5,0.18283960000007937,45,,,,,,,9,18,Man,Rechts,2,
,dotcolour,xotask,dotcolour,57,3,237,237,main,negativefb,-99,easy,,0.4504171999999471,['c'],1,left,['9'],5,0.23778119999997216,62,,,,,,,9,18,Man,Rechts,2,
,dotcolour,xotask,dotcolour,58,3,238,238,main,negativefb,-99,hard,,0.41709900000000744,['c'],0,right,['9'],5,0.26850439999998343,37,,,,,,,9,18,Man,Rechts,2,
,dotcolour,xotask,dotcolour,59,3,239,239,main,negativefb,-99,easy,,0.716870500000141,['n'],1,right,['9'],5,0.14175430000000233,15,,,,,,,9,18,Man,Rechts,2,
,dotcolour,xotask,dotcolour,0,4,240,240,main,negativefb,-99,average,,0.5350473000000875,['c'],1,left,['9'],5,0.17673130000002857,52,,,,,,,9,18,Man,Rechts,2,
,dotcolour,xotask,dotcolour,1,4,241,241,main,negativefb,-99,hard,,0.4672497999999905,['n'],0,left,['8'],4,0.3365446999998767,42,,,,,,,9,18,Man,Rechts,2,
,dotcolour,xotask,dotcolour,2,4,242,242,main,negativefb,-99,average,,0.9495231999999305,['c'],1,left,['8'],4,0.1575629999999819,55,,,,,,,9,18,Man,Rechts,2,
,dotcolour,xotask,dotcolour,3,4,243,243,main,negativefb,-99,average,,0.7829291999998986,['n'],1,right,['9'],5,0.1693321999998716,27,,,,,,,9,18,Man,Rechts,2,
,dotcolour,xotask,dotcolour,4,4,244,244,main,negativefb,-99,easy,,0.6172363000000587,['c'],0,right,['3'],3,0.46605250000015985,17,,,,,,,9,18,Man,Rechts,2,
,dotcolour,xotask,dotcolour,5,4,245,245,main,negativefb,-99,hard,,0.6500530000000708,['n'],0,left,['9'],5,0.1907373000001371,41,,,,,,,9,18,Man,Rechts,2,
,dotcolour,xotask,dotcolour,6,4,246,246,main,negativefb,-99,hard,,0.8840089000000262,['n'],1,right,['8'],4,0.508037700000159,38,,,,,,,9,18,Man,Rechts,2,
,dotcolour,xotask,dotcolour,7,4,247,247,main,negativefb,-99,hard,,0.9506249000000935,['c'],0,right,['8'],4,0.13927899999998772,39,,,,,,,9,18,Man,Rechts,2,
,dotcolour,xotask,dotcolour,8,4,248,248,main,negativefb,-99,hard,,0.45089260000008835,['n'],1,right,['9'],5,0.2291195999998763,35,,,,,,,9,18,Man,Rechts,2,
,dotcolour,xotask,dotcolour,9,4,249,249,main,negativefb,-99,easy,,0.7999235999998291,['n'],1,right,['8'],4,0.3809159999998428,16,,,,,,,9,18,Man,Rechts,2,
,dotcolour,xotask,dotcolour,10,4,250,250,main,negativefb,-99,average,,0.4340769000000364,['c'],1,left,['8'],4,0.2769309999998768,54,,,,,,,9,18,Man,Rechts,2,
,dotcolour,xotask,dotcolour,11,4,251,251,main,negativefb,-99,hard,,0.5668895000001157,['n'],0,left,['9'],5,0.29326960000003055,43,,,,,,,9,18,Man,Rechts,2,
,dotcolour,xotask,dotcolour,12,4,252,252,main,negativefb,-99,average,,0.6334451999998691,['c'],1,left,['3'],3,0.2489124000001084,55,,,,,,,9,18,Man,Rechts,2,
,dotcolour,xotask,dotcolour,13,4,253,253,main,negativefb,-99,easy,,0.7330411999998887,['n'],0,left,['8'],4,0.2423066999999719,65,,,,,,,9,18,Man,Rechts,2,
,dotcolour,xotask,dotcolour,14,4,254,254,main,negativefb,-99,hard,,1.8841677999998865,['c'],1,left,['8'],4,0.14243850000002567,44,,,,,,,9,18,Man,Rechts,2,
,dotcolour,xotask,dotcolour,15,4,255,255,main,negativefb,-99,easy,,1.817469699999947,['n'],1,right,['8'],4,0.1372759999999289,17,,,,,,,9,18,Man,Rechts,2,
,dotcolour,xotask,dotcolour,16,4,256,256,main,negativefb,-99,hard,,0.617482400000199,['c'],0,right,['9'],5,0.3636457000000064,39,,,,,,,9,18,Man,Rechts,2,
,dotcolour,xotask,dotcolour,17,4,257,257,main,negativefb,-99,easy,,0.6509855999997853,['c'],1,left,['9'],5,0.196514999999863,64,,,,,,,9,18,Man,Rechts,2,
,dotcolour,xotask,dotcolour,18,4,258,258,main,negativefb,-99,hard,,1.4508260999998583,['c'],0,right,['9'],5,0.16400690000000395,38,,,,,,,9,18,Man,Rechts,2,
,dotcolour,xotask,dotcolour,19,4,259,259,main,negativefb,-99,average,,0.6009048000000803,['c'],1,left,['9'],5,0.2228950999999597,52,,,,,,,9,18,Man,Rechts,2,
,dotcolour,xotask,dotcolour,20,4,260,260,main,negativefb,-99,average,,0.5664286000001084,['n'],1,right,['9'],5,0.1522436000000198,27,,,,,,,9,18,Man,Rechts,2,
,dotcolour,xotask,dotcolour,21,4,261,261,main,negativefb,-99,average,,0.48557159999995747,['c'],1,left,['9'],5,0.15902340000002368,54,,,,,,,9,18,Man,Rechts,2,
,dotcolour,xotask,dotcolour,22,4,262,262,main,negativefb,-99,easy,,0.517886899999894,['c'],1,left,['9'],5,0.18041100000004917,65,,,,,,,9,18,Man,Rechts,2,
,dotcolour,xotask,dotcolour,23,4,263,263,main,negativefb,-99,easy,,0.4343596000001071,['c'],1,left,['9'],5,0.19034469999996873,65,,,,,,,9,18,Man,Rechts,2,
,dotcolour,xotask,dotcolour,24,4,264,264,main,negativefb,-99,easy,,0.6839551000000483,['n'],1,right,['9'],5,0.13248490000000857,17,,,,,,,9,18,Man,Rechts,2,
,dotcolour,xotask,dotcolour,25,4,265,265,main,negativefb,-99,average,,0.9843392000000222,['n'],1,right,['8'],4,0.19992799999999988,27,,,,,,,9,18,Man,Rechts,2,
,dotcolour,xotask,dotcolour,26,4,266,266,main,negativefb,-99,easy,,0.7337789000000612,['n'],1,right,['8'],4,0.17962400000010348,16,,,,,,,9,18,Man,Rechts,2,
,dotcolour,xotask,dotcolour,27,4,267,267,main,negativefb,-99,average,,0.5833678999999847,['n'],1,right,['9'],5,0.30228039999997236,28,,,,,,,9,18,Man,Rechts,2,
,dotcolour,xotask,dotcolour,28,4,268,268,main,negativefb,-99,hard,,0.8508565999998154,['n'],1,right,['8'],4,0.15317770000001474,38,,,,,,,9,18,Man,Rechts,2,
,dotcolour,xotask,dotcolour,29,4,269,269,main,negativefb,-99,average,,0.7508162999999968,['n'],1,right,['8'],4,0.22931130000006306,28,,,,,,,9,18,Man,Rechts,2,
,dotcolour,xotask,dotcolour,30,4,270,270,main,negativefb,-99,easy,,0.5168722999999318,['n'],1,right,['8'],4,0.19277570000008382,18,,,,,,,9,18,Man,Rechts,2,
,dotcolour,xotask,dotcolour,31,4,271,271,main,negativefb,-99,hard,,0.40034300000002077,['n'],0,left,['8'],4,0.762666900000113,43,,,,,,,9,18,Man,Rechts,2,
,dotcolour,xotask,dotcolour,32,4,272,272,main,negativefb,-99,easy,,0.7663739999998143,['c'],1,left,['9'],5,0.17454270000007455,64,,,,,,,9,18,Man,Rechts,2,
,dotcolour,xotask,dotcolour,33,4,273,273,main,negativefb,-99,easy,,0.5178037999999106,['n'],1,right,['8'],4,0.15538230000015574,18,,,,,,,9,18,Man,Rechts,2,
,dotcolour,xotask,dotcolour,34,4,274,274,main,negativefb,-99,easy,,0.9008585000001403,['c'],1,left,['9'],5,0.16199440000013965,62,,,,,,,9,18,Man,Rechts,2,
,dotcolour,xotask,dotcolour,35,4,275,275,main,negativefb,-99,hard,,1.116440700000112,['n'],0,left,['3'],3,0.1289856000000782,41,,,,,,,9,18,Man,Rechts,2,
,dotcolour,xotask,dotcolour,36,4,276,276,main,negativefb,-99,hard,,0.6007912000000033,['c'],1,left,['8'],4,0.5003146999999899,43,,,,,,,9,18,Man,Rechts,2,
,dotcolour,xotask,dotcolour,37,4,277,277,main,negativefb,-99,hard,,0.9172157000000425,['c'],1,left,['9'],5,0.21265040000002955,44,,,,,,,9,18,Man,Rechts,2,
,dotcolour,xotask,dotcolour,38,4,278,278,main,negativefb,-99,average,,0.6837794999999005,['c'],1,left,['8'],4,0.15390759999991133,52,,,,,,,9,18,Man,Rechts,2,
,dotcolour,xotask,dotcolour,39,4,279,279,main,negativefb,-99,hard,,0.5850405000001047,['c'],0,right,['3'],3,0.8365426000000298,37,,,,,,,9,18,Man,Rechts,2,
,dotcolour,xotask,dotcolour,40,4,280,280,main,negativefb,-99,hard,,0.9835760999999366,['c'],1,left,['9'],5,0.5415384000000358,42,,,,,,,9,18,Man,Rechts,2,
,dotcolour,xotask,dotcolour,41,4,281,281,main,negativefb,-99,easy,,0.4503329000001486,['c'],1,left,['9'],5,0.22241299999996045,64,,,,,,,9,18,Man,Rechts,2,
,dotcolour,xotask,dotcolour,42,4,282,282,main,negativefb,-99,hard,,1.1163684999999077,['c'],0,right,['3'],3,0.22578260000000228,38,,,,,,,9,18,Man,Rechts,2,
,dotcolour,xotask,dotcolour,43,4,283,283,main,negativefb,-99,average,,0.7836954000001697,['n'],1,right,['8'],4,0.2668541999998979,28,,,,,,,9,18,Man,Rechts,2,
,dotcolour,xotask,dotcolour,44,4,284,284,main,negativefb,-99,average,,0.6676540000000841,['c'],1,left,['8'],4,0.2625600999999733,54,,,,,,,9,18,Man,Rechts,2,
,dotcolour,xotask,dotcolour,45,4,285,285,main,negativefb,-99,easy,,0.6005711999998766,['c'],1,left,['9'],5,0.1803116000000955,62,,,,,,,9,18,Man,Rechts,2,
,dotcolour,xotask,dotcolour,46,4,286,286,main,negativefb,-99,average,,0.45089949999987766,['c'],1,left,['9'],5,0.25279070000010506,52,,,,,,,9,18,Man,Rechts,2,
,dotcolour,xotask,dotcolour,47,4,287,287,main,negativefb,-99,easy,,0.5013689999998405,['n'],1,right,['9'],5,0.1760093999998844,18,,,,,,,9,18,Man,Rechts,2,
,dotcolour,xotask,dotcolour,48,4,288,288,main,negativefb,-99,hard,,0.4508428999999978,['c'],1,left,['9'],5,0.20772899999997207,44,,,,,,,9,18,Man,Rechts,2,
,dotcolour,xotask,dotcolour,49,4,289,289,main,negativefb,-99,easy,,0.6336360000000241,['c'],1,left,['9'],5,0.1270963000001757,64,,,,,,,9,18,Man,Rechts,2,
,dotcolour,xotask,dotcolour,50,4,290,290,main,negativefb,-99,easy,,0.45050880000007965,['c'],1,left,['9'],5,0.18577540000001136,63,,,,,,,9,18,Man,Rechts,2,
,dotcolour,xotask,dotcolour,51,4,291,291,main,negativefb,-99,average,,0.5999312000001282,['n'],1,right,['8'],4,0.20285869999997885,28,,,,,,,9,18,Man,Rechts,2,
,dotcolour,xotask,dotcolour,52,4,292,292,main,negativefb,-99,easy,,0.7168291000000409,['n'],1,right,['8'],4,0.17501510000010967,18,,,,,,,9,18,Man,Rechts,2,
,dotcolour,xotask,dotcolour,53,4,293,293,main,negativefb,-99,average,,0.5841003000000455,['c'],1,left,['9'],5,0.12911679999979242,54,,,,,,,9,18,Man,Rechts,2,
,dotcolour,xotask,dotcolour,54,4,294,294,main,negativefb,-99,hard,,0.7667038000001867,['c'],0,right,['9'],5,0.2710277999999562,38,,,,,,,9,18,Man,Rechts,2,
,dotcolour,xotask,dotcolour,55,4,295,295,main,negativefb,-99,hard,,1.0165091000001212,['n'],1,right,['9'],5,0.13174679999997352,37,,,,,,,9,18,Man,Rechts,2,
,dotcolour,xotask,dotcolour,56,4,296,296,main,negativefb,-99,average,,0.48277600000005805,['n'],1,right,['9'],5,0.30835079999997106,29,,,,,,,9,18,Man,Rechts,2,
,dotcolour,xotask,dotcolour,57,4,297,297,main,negativefb,-99,average,,0.43403079999984584,['n'],1,right,['9'],5,0.19169470000019828,29,,,,,,,9,18,Man,Rechts,2,
,dotcolour,xotask,dotcolour,58,4,298,298,main,negativefb,-99,average,,0.39977829999997994,['n'],1,right,['9'],5,0.18487880000020596,27,,,,,,,9,18,Man,Rechts,2,
,dotcolour,xotask,dotcolour,59,4,299,299,main,negativefb,-99,easy,,0.44978390000005675,['n'],1,right,['9'],5,0.16116710000005696,18,,,,,,,9,18,Man,Rechts,2,
,xotask,xotask,dotcolour,0,0,0,300,training,negativefb,39,hard,27,0.9165777000000617,['n'],1,right,['8'],4,0.9149988000001485,,,,,,,,9,18,Man,Rechts,2,
,xotask,xotask,dotcolour,1,0,1,301,training,negativefb,27,average,17,0.6326442000001862,['c'],0,right,['8'],4,0.22918189999995775,,,,,,,,9,18,Man,Rechts,2,
,xotask,xotask,dotcolour,2,0,2,302,training,negativefb,57,easy,72,0.7663193000000774,['c'],1,left,['9'],5,0.16602390000002742,,,,,,,,9,18,Man,Rechts,2,
,xotask,xotask,dotcolour,3,0,3,303,training,negativefb,76,average,17,0.7339275000001635,['n'],1,right,['8'],4,0.16182129999992867,,,,,,,,9,18,Man,Rechts,2,
,xotask,xotask,dotcolour,4,0,4,304,training,negativefb,12,average,17,0.48311340000009295,['c'],0,right,['3'],3,0.4719100999998318,,,,,,,,9,18,Man,Rechts,2,
,xotask,xotask,dotcolour,5,0,5,305,training,negativefb,87,easy,5,2.6003791000000547,['n'],1,right,['8'],4,1.1184481999998752,,,,,,,,9,18,Man,Rechts,2,
,xotask,xotask,dotcolour,6,0,6,306,training,negativefb,37,easy,5,0.566941799999995,['n'],1,right,['9'],5,0.1950291999999081,,,,,,,,9,18,Man,Rechts,2,
,xotask,xotask,dotcolour,7,0,7,307,training,negativefb,28,hard,29,0.5999894000001404,['n'],1,right,['9'],5,0.32352510000009715,,,,,,,,9,18,Man,Rechts,2,
,xotask,xotask,dotcolour,8,0,8,308,training,negativefb,61,easy,74,0.46591780000017025,['c'],1,left,['9'],5,0.22028359999990244,,,,,,,,9,18,Man,Rechts,2,
,xotask,xotask,dotcolour,9,0,9,309,training,negativefb,35,average,60,0.5675148000000263,['c'],1,left,['9'],5,0.20562950000021374,,,,,,,,9,18,Man,Rechts,2,
,xotask,xotask,dotcolour,10,0,10,310,training,negativefb,8,average,18,0.6495528999998896,['c'],0,right,['3'],3,0.763345500000014,,,,,,,,9,18,Man,Rechts,2,
,xotask,xotask,dotcolour,11,0,11,311,training,negativefb,77,easy,5,0.6669822000001204,['n'],1,right,['9'],5,0.1782453999999234,,,,,,,,9,18,Man,Rechts,2,
,xotask,xotask,dotcolour,12,0,12,312,training,negativefb,88,easy,74,0.34856539999987035,['c'],1,left,['9'],5,0.19843889999992825,,,,,,,,9,18,Man,Rechts,2,
,xotask,xotask,dotcolour,13,0,13,313,training,negativefb,67,average,62,0.6345240000000558,['c'],1,left,['8'],4,0.3015414999999848,,,,,,,,9,18,Man,Rechts,2,
,xotask,xotask,dotcolour,14,0,14,314,training,negativefb,62,hard,50,0.5504100000000562,['n'],0,left,['3'],3,0.4435510000000704,,,,,,,,9,18,Man,Rechts,2,
,xotask,xotask,dotcolour,15,0,15,315,training,negativefb,74,easy,7,0.8158066000000872,['n'],1,right,['8'],4,0.20170629999984158,,,,,,,,9,18,Man,Rechts,2,
,xotask,xotask,dotcolour,16,0,16,316,training,negativefb,56,average,19,0.7008101999999781,['n'],1,right,['9'],5,0.1976151999999729,,,,,,,,9,18,Man,Rechts,2,
,xotask,xotask,dotcolour,17,0,17,317,training,negativefb,9,hard,28,0.3996397999999317,['c'],0,right,['9'],5,0.2945637000000261,,,,,,,,9,18,Man,Rechts,2,
,xotask,xotask,dotcolour,18,0,18,318,training,negativefb,47,easy,73,0.667218000000048,['c'],1,left,['9'],5,0.2086540000000241,,,,,,,,9,18,Man,Rechts,2,
,xotask,xotask,dotcolour,19,0,19,319,training,negativefb,9,easy,5,0.583458900000096,['c'],0,right,['2'],2,0.5372503999999481,,,,,,,,9,18,Man,Rechts,2,
,xotask,xotask,dotcolour,20,0,20,320,training,negativefb,58,easy,5,0.5498704999999973,['n'],1,right,['9'],5,0.18209219999994275,,,,,,,,9,18,Man,Rechts,2,
,xotask,xotask,dotcolour,21,0,21,321,training,negativefb,36,easy,70,0.666472899999917,['c'],1,left,['0'],6,0.18803969999999026,,,,,,,,9,18,Man,Rechts,2,
,xotask,xotask,dotcolour,22,0,22,322,training,negativefb,74,average,19,0.8835253000002012,['n'],1,right,['8'],4,0.18650129999991805,,,,,,,,9,18,Man,Rechts,2,
,xotask,xotask,dotcolour,23,0,23,323,training,negativefb,55,hard,26,0.28283809999993537,['c'],0,right,['8'],4,0.17608769999992546,,,,,,,,9,18,Man,Rechts,2,
,xotask,xotask,dotcolour,24,0,24,324,training,negativefb,67,hard,27,0.3673137000000679,['n'],1,right,['9'],5,0.30622699999980796,,,,,,,,9,18,Man,Rechts,2,
,xotask,xotask,dotcolour,25,0,25,325,training,negativefb,60,hard,50,0.3170918000000711,['c'],1,left,['8'],4,0.21793649999995068,,,,,,,,9,18,Man,Rechts,2,
,xotask,xotask,dotcolour,26,0,26,326,training,negativefb,56,hard,28,0.40030509999996866,['n'],1,right,['9'],5,0.201081300000169,,,,,,,,9,18,Man,Rechts,2,
,xotask,xotask,dotcolour,27,0,27,327,training,negativefb,63,hard,28,0.565355400000044,['c'],0,right,['9'],5,0.24222109999982422,,,,,,,,9,18,Man,Rechts,2,
,xotask,xotask,dotcolour,28,0,28,328,training,negativefb,24,average,16,0.6163943999999901,['c'],0,right,['9'],5,0.272105799999963,,,,,,,,9,18,Man,Rechts,2,
,xotask,xotask,dotcolour,29,0,29,329,training,negativefb,76,easy,74,2.017690200000061,['c'],1,left,['9'],5,0.6216653999999835,,,,,,,,9,18,Man,Rechts,2,
,xotask,xotask,dotcolour,30,0,30,330,training,negativefb,87,hard,51,0.6832104000000072,['c'],1,left,['9'],5,0.2252493000000868,,,,,,,,9,18,Man,Rechts,2,
,xotask,xotask,dotcolour,31,0,31,331,training,negativefb,54,easy,5,0.8670993999999155,['n'],1,right,['9'],5,0.23002329999985704,,,,,,,,9,18,Man,Rechts,2,
,xotask,xotask,dotcolour,32,0,32,332,training,negativefb,65,easy,71,0.7660282000001644,['c'],1,left,['9'],5,0.1269503999999415,,,,,,,,9,18,Man,Rechts,2,
,xotask,xotask,dotcolour,33,0,33,333,training,negativefb,35,average,61,0.5999323999999433,['c'],1,left,['9'],5,0.3225323000001481,,,,,,,,9,18,Man,Rechts,2,
,xotask,xotask,dotcolour,34,0,34,334,training,negativefb,58,hard,54,0.6994617000000289,['n'],0,left,['9'],5,0.21786139999994703,,,,,,,,9,18,Man,Rechts,2,
,xotask,xotask,dotcolour,35,0,35,335,training,negativefb,45,hard,54,0.583477799999855,['c'],1,left,['9'],5,0.193751999999904,,,,,,,,9,18,Man,Rechts,2,
,xotask,xotask,dotcolour,36,0,36,336,training,negativefb,49,hard,28,0.6337748000000829,['n'],1,right,['8'],4,0.24914829999988797,,,,,,,,9,18,Man,Rechts,2,
,xotask,xotask,dotcolour,37,0,37,337,training,negativefb,84,average,62,0.43370340000001306,['c'],1,left,['8'],4,0.19771109999987857,,,,,,,,9,18,Man,Rechts,2,
,xotask,xotask,dotcolour,38,0,38,338,training,negativefb,68,hard,53,0.6006191999999828,['c'],1,left,['9'],5,0.23047320000000582,,,,,,,,9,18,Man,Rechts,2,
,xotask,xotask,dotcolour,39,0,39,339,training,negativefb,6,average,17,0.63367489999996,['c'],0,right,['2'],2,0.6612640999999257,,,,,,,,9,18,Man,Rechts,2,
,xotask,xotask,dotcolour,40,0,40,340,training,negativefb,77,easy,73,0.7172550000000228,['c'],1,left,['9'],5,0.15710969999986446,,,,,,,,9,18,Man,Rechts,2,
,xotask,xotask,dotcolour,41,0,41,341,training,negativefb,91,easy,72,0.48444389999986015,['c'],1,left,['9'],5,0.24512400000003254,,,,,,,,9,18,Man,Rechts,2,
,xotask,xotask,dotcolour,42,0,42,342,training,negativefb,56,easy,72,0.5502920000001268,['c'],1,left,['9'],5,0.15663629999994555,,,,,,,,9,18,Man,Rechts,2,
,xotask,xotask,dotcolour,43,0,43,343,training,negativefb,45,average,63,0.8513981999999487,['c'],1,left,['8'],4,0.1976650999999947,,,,,,,,9,18,Man,Rechts,2,
,xotask,xotask,dotcolour,44,0,44,344,training,negativefb,47,average,61,0.5840183999998771,['c'],1,left,['9'],5,0.1744983000000957,,,,,,,,9,18,Man,Rechts,2,
,xotask,xotask,dotcolour,45,0,45,345,training,negativefb,58,easy,5,0.5677695999997923,['n'],1,right,['9'],5,0.20123609999996006,,,,,,,,9,18,Man,Rechts,2,
,xotask,xotask,dotcolour,46,0,46,346,training,negativefb,63,hard,29,0.5661877000000004,['c'],0,right,['9'],5,0.1869885000000977,,,,,,,,9,18,Man,Rechts,2,
,xotask,xotask,dotcolour,47,0,47,347,training,negativefb,40,easy,9,0.48294050000004063,['n'],1,right,['0'],6,0.23217090000002827,,,,,,,,9,18,Man,Rechts,2,
,xotask,xotask,dotcolour,48,0,48,348,training,negativefb,75,average,62,0.567758700000013,['c'],1,left,['9'],5,0.16738839999993615,,,,,,,,9,18,Man,Rechts,2,
,xotask,xotask,dotcolour,49,0,49,349,training,negativefb,69,average,60,0.5504484999999022,['c'],1,left,['9'],5,0.13161029999992024,,,,,,,,9,18,Man,Rechts,2,
,xotask,xotask,dotcolour,50,0,50,350,training,negativefb,50,average,16,0.4512285000000702,['c'],0,right,['8'],4,0.6126254999999219,,,,,,,,9,18,Man,Rechts,2,
,xotask,xotask,dotcolour,51,0,51,351,training,negativefb,71,average,62,0.716604800000141,['n'],0,left,['9'],5,0.2161038000001554,,,,,,,,9,18,Man,Rechts,2,
,xotask,xotask,dotcolour,52,0,52,352,training,negativefb,90,average,60,0.6825134000000617,['c'],1,left,['9'],5,0.13162289999991117,,,,,,,,9,18,Man,Rechts,2,
,xotask,xotask,dotcolour,53,0,53,353,training,negativefb,36,hard,50,0.8833660000000236,['n'],0,left,['9'],5,0.25129169999991063,,,,,,,,9,18,Man,Rechts,2,
,xotask,xotask,dotcolour,54,0,54,354,training,negativefb,74,hard,52,0.33239199999979974,['c'],1,left,['9'],5,0.2447243999999955,,,,,,,,9,18,Man,Rechts,2,
,xotask,xotask,dotcolour,55,0,55,355,training,negativefb,6,easy,8,0.4666416999998546,['c'],0,right,['3'],3,0.7045605000000705,,,,,,,,9,18,Man,Rechts,2,
,xotask,xotask,dotcolour,56,0,56,356,training,negativefb,82,hard,54,0.7827644999999848,['c'],1,left,['9'],5,0.17370789999995395,,,,,,,,9,18,Man,Rechts,2,
,xotask,xotask,dotcolour,57,0,57,357,training,negativefb,67,average,17,0.6495923999998467,['n'],1,right,['9'],5,0.1568861000000652,,,,,,,,9,18,Man,Rechts,2,
,xotask,xotask,dotcolour,58,0,58,358,training,negativefb,44,hard,27,1.050255399999969,['c'],0,right,['9'],5,0.13273879999997007,,,,,,,,9,18,Man,Rechts,2,
,xotask,xotask,dotcolour,59,0,59,359,training,negativefb,37,hard,50,0.4664745000000039,['c'],1,left,['9'],5,0.18112489999998616,,,,,,,,9,18,Man,Rechts,2,
,xotask,xotask,dotcolour,0,1,60,360,training,negativefb,25,hard,27,0.7349133999998685,['c'],0,right,['9'],5,0.19783270000016273,,,,,,,,9,18,Man,Rechts,2,
,xotask,xotask,dotcolour,1,1,61,361,training,negativefb,65,easy,70,0.6503814000000148,['c'],1,left,['0'],6,0.24441569999999047,,,,,,,,9,18,Man,Rechts,2,
,xotask,xotask,dotcolour,2,1,62,362,training,negativefb,8,average,17,0.5332928000000265,['c'],0,right,['9'],5,0.38989010000000235,,,,,,,,9,18,Man,Rechts,2,
,xotask,xotask,dotcolour,3,1,63,363,training,negativefb,69,easy,8,0.7007160999999087,['c'],0,right,['9'],5,0.2507104999999683,,,,,,,,9,18,Man,Rechts,2,
,xotask,xotask,dotcolour,4,1,64,364,training,negativefb,56,average,61,0.49965880000013385,['c'],1,left,['9'],5,0.157122599999866,,,,,,,,9,18,Man,Rechts,2,
,xotask,xotask,dotcolour,5,1,65,365,training,negativefb,26,hard,26,0.549932900000158,['n'],1,right,['9'],5,0.2001394999999775,,,,,,,,9,18,Man,Rechts,2,
,xotask,xotask,dotcolour,6,1,66,366,training,negativefb,92,average,64,0.6501923999999235,['c'],1,left,['8'],4,0.23103500000001986,,,,,,,,9,18,Man,Rechts,2,
,xotask,xotask,dotcolour,7,1,67,367,training,negativefb,86,easy,71,0.566970099999935,['c'],1,left,['9'],5,0.21552670000005492,,,,,,,,9,18,Man,Rechts,2,
,xotask,xotask,dotcolour,8,1,68,368,training,negativefb,60,hard,50,0.7499663000000965,['n'],0,left,['8'],4,0.25730429999998705,,,,,,,,9,18,Man,Rechts,2,
,xotask,xotask,dotcolour,9,1,69,369,training,negativefb,60,average,17,0.4664768999998614,['c'],0,right,['8'],4,0.25224439999988135,,,,,,,,9,18,Man,Rechts,2,
,xotask,xotask,dotcolour,10,1,70,370,training,negativefb,91,easy,74,0.5500316000000112,['c'],1,left,['8'],4,0.19646060000013676,,,,,,,,9,18,Man,Rechts,2,
,xotask,xotask,dotcolour,11,1,71,371,training,negativefb,49,hard,25,0.7332716000000801,['c'],0,right,['8'],4,0.15220410000006268,,,,,,,,9,18,Man,Rechts,2,
,xotask,xotask,dotcolour,12,1,72,372,training,negativefb,83,average,18,0.39937609999992674,['n'],1,right,['9'],5,0.3221161999999822,,,,,,,,9,18,Man,Rechts,2,
,xotask,xotask,dotcolour,13,1,73,373,training,negativefb,62,hard,29,0.5667679999999109,['c'],0,right,['8'],4,0.21445779999999104,,,,,,,,9,18,Man,Rechts,2,
,xotask,xotask,dotcolour,14,1,74,374,training,negativefb,81,hard,52,1.0506374999999935,['c'],1,left,['8'],4,0.14842720000001464,,,,,,,,9,18,Man,Rechts,2,
,xotask,xotask,dotcolour,15,1,75,375,training,negativefb,96,average,18,0.5826432999999724,['n'],1,right,['9'],5,0.216025400000035,,,,,,,,9,18,Man,Rechts,2,
,xotask,xotask,dotcolour,16,1,76,376,training,negativefb,28,average,18,0.4997396999999637,['c'],0,right,['9'],5,0.3702528999999686,,,,,,,,9,18,Man,Rechts,2,
,xotask,xotask,dotcolour,17,1,77,377,training,negativefb,92,easy,5,0.4336393999999473,['n'],1,right,['9'],5,0.2030798999999206,,,,,,,,9,18,Man,Rechts,2,
,xotask,xotask,dotcolour,18,1,78,378,training,negativefb,61,easy,7,0.49942879999980505,['n'],1,right,['9'],5,0.342949100000169,,,,,,,,9,18,Man,Rechts,2,
,xotask,xotask,dotcolour,19,1,79,379,training,negativefb,87,easy,6,0.48358749999988504,['n'],1,right,['9'],5,0.2301668999998583,,,,,,,,9,18,Man,Rechts,2,
,xotask,xotask,dotcolour,20,1,80,380,training,negativefb,95,average,63,0.5661963000000014,['c'],1,left,['9'],5,0.2472806999999193,,,,,,,,9,18,Man,Rechts,2,
,xotask,xotask,dotcolour,21,1,81,381,training,negativefb,8,easy,71,0.4003998999999112,['n'],0,left,['3'],3,2.1898797999999715,,,,,,,,9,18,Man,Rechts,2,
,xotask,xotask,dotcolour,22,1,82,382,training,negativefb,44,average,64,0.6661948999999368,['c'],1,left,['8'],4,0.2515011999998933,,,,,,,,9,18,Man,Rechts,2,
,xotask,xotask,dotcolour,23,1,83,383,training,negativefb,87,average,61,0.4333242000000155,['c'],1,left,['8'],4,0.3520557000001645,,,,,,,,9,18,Man,Rechts,2,
,xotask,xotask,dotcolour,24,1,84,384,training,negativefb,77,easy,8,0.8175361000000976,['n'],1,right,['9'],5,0.11434770000005301,,,,,,,,9,18,Man,Rechts,2,
,xotask,xotask,dotcolour,25,1,85,385,training,negativefb,79,hard,54,0.6169810999999754,['c'],1,left,['9'],5,0.18130600000017694,,,,,,,,9,18,Man,Rechts,2,
,xotask,xotask,dotcolour,26,1,86,386,training,negativefb,70,hard,27,0.6496898000000328,['n'],1,right,['9'],5,0.1877894000001561,,,,,,,,9,18,Man,Rechts,2,
,xotask,xotask,dotcolour,27,1,87,387,training,negativefb,63,average,17,0.6338471000001391,['n'],1,right,['9'],5,0.14819850000003498,,,,,,,,9,18,Man,Rechts,2,
,xotask,xotask,dotcolour,28,1,88,388,training,negativefb,40,easy,72,0.7003952000000027,['c'],1,left,['9'],5,0.17018689999986236,,,,,,,,9,18,Man,Rechts,2,
,xotask,xotask,dotcolour,29,1,89,389,training,negativefb,83,hard,51,0.6163844000000154,['n'],0,left,['9'],5,0.18762979999996787,,,,,,,,9,18,Man,Rechts,2,
,xotask,xotask,dotcolour,30,1,90,390,training,negativefb,10,easy,6,0.36695289999988745,['c'],0,right,['9'],5,0.21311439999999493,,,,,,,,9,18,Man,Rechts,2,
,xotask,xotask,dotcolour,31,1,91,391,training,negativefb,8,average,64,0.3329239999998208,['n'],0,left,['8'],4,0.4566251999999622,,,,,,,,9,18,Man,Rechts,2,
,xotask,xotask,dotcolour,32,1,92,392,training,negativefb,75,easy,73,0.766088899999886,['c'],1,left,['8'],4,0.18298929999991742,,,,,,,,9,18,Man,Rechts,2,
,xotask,xotask,dotcolour,33,1,93,393,training,negativefb,77,easy,8,0.516616600000134,['n'],1,right,['9'],5,0.15591070000004947,,,,,,,,9,18,Man,Rechts,2,
,xotask,xotask,dotcolour,34,1,94,394,training,negativefb,23,hard,26,0.7335881999999856,['c'],0,right,['8'],4,0.24863239999990583,,,,,,,,9,18,Man,Rechts,2,
,xotask,xotask,dotcolour,35,1,95,395,training,negativefb,83,easy,9,0.7671029000000544,['n'],1,right,['9'],5,0.1682519000000866,,,,,,,,9,18,Man,Rechts,2,
,xotask,xotask,dotcolour,36,1,96,396,training,negativefb,37,hard,50,1.1335171000000628,['c'],1,left,['3'],3,0.131990500000029,,,,,,,,9,18,Man,Rechts,2,
,xotask,xotask,dotcolour,37,1,97,397,training,negativefb,49,hard,50,0.7175882000001366,['n'],0,left,['8'],4,0.18686560000014651,,,,,,,,9,18,Man,Rechts,2,
,xotask,xotask,dotcolour,38,1,98,398,training,negativefb,71,hard,26,0.7502070999998978,['n'],1,right,['8'],4,0.18884509999998045,,,,,,,,9,18,Man,Rechts,2,
,xotask,xotask,dotcolour,39,1,99,399,training,negativefb,81,average,16,0.5000497000000905,['n'],1,right,['8'],4,0.1859145000000808,,,,,,,,9,18,Man,Rechts,2,
,xotask,xotask,dotcolour,40,1,100,400,training,negativefb,50,easy,5,0.6831881000000521,['n'],1,right,['9'],5,0.12732819999996536,,,,,,,,9,18,Man,Rechts,2,
,xotask,xotask,dotcolour,41,1,101,401,training,negativefb,81,average,19,0.6670873999999003,['n'],1,right,['9'],5,0.19218109999997068,,,,,,,,9,18,Man,Rechts,2,
,xotask,xotask,dotcolour,42,1,102,402,training,negativefb,16,hard,28,0.48353240000005826,['c'],0,right,['9'],5,0.17296989999999823,,,,,,,,9,18,Man,Rechts,2,
,xotask,xotask,dotcolour,43,1,103,403,training,negativefb,64,hard,54,0.5335133000000951,['n'],0,left,['8'],4,0.20183780000002116,,,,,,,,9,18,Man,Rechts,2,
,xotask,xotask,dotcolour,44,1,104,404,training,negativefb,34,hard,29,0.5661534000000756,['c'],0,right,['8'],4,0.21122639999998682,,,,,,,,9,18,Man,Rechts,2,
,xotask,xotask,dotcolour,45,1,105,405,training,negativefb,92,average,17,0.5166649999998754,['n'],1,right,['8'],4,0.22225679999996828,,,,,,,,9,18,Man,Rechts,2,
,xotask,xotask,dotcolour,46,1,106,406,training,negativefb,75,average,64,0.6656393999999182,['n'],0,left,['3'],3,0.3958267000000433,,,,,,,,9,18,Man,Rechts,2,
,xotask,xotask,dotcolour,47,1,107,407,training,negativefb,75,easy,72,0.8667104999999538,['c'],1,left,['9'],5,0.2331702999999834,,,,,,,,9,18,Man,Rechts,2,
,xotask,xotask,dotcolour,48,1,108,408,training,negativefb,77,hard,54,0.433740299999954,['c'],1,left,['9'],5,0.1986979999999221,,,,,,,,9,18,Man,Rechts,2,
,xotask,xotask,dotcolour,49,1,109,409,training,negativefb,89,easy,8,0.3340205000001788,['n'],1,right,['9'],5,0.20103729999982534,,,,,,,,9,18,Man,Rechts,2,
,xotask,xotask,dotcolour,50,1,110,410,training,negativefb,86,easy,71,0.38248440000006667,['c'],1,left,['9'],5,0.22567000000003645,,,,,,,,9,18,Man,Rechts,2,
,xotask,xotask,dotcolour,51,1,111,411,training,negativefb,87,hard,27,0.8151483999999982,['n'],1,right,['3'],3,0.32107159999986834,,,,,,,,9,18,Man,Rechts,2,
,xotask,xotask,dotcolour,52,1,112,412,training,negativefb,52,hard,51,0.5494873999998617,['c'],1,left,['9'],5,0.20594859999982873,,,,,,,,9,18,Man,Rechts,2,
,xotask,xotask,dotcolour,53,1,113,413,training,negativefb,27,hard,51,0.5495028000000275,['c'],1,left,['8'],4,0.20816130000002886,,,,,,,,9,18,Man,Rechts,2,
,xotask,xotask,dotcolour,54,1,114,414,training,negativefb,42,average,17,0.8501249999999345,['c'],0,right,['3'],3,0.509823600000118,,,,,,,,9,18,Man,Rechts,2,
,xotask,xotask,dotcolour,55,1,115,415,training,negativefb,16,easy,71,0.5998187000000144,['n'],0,left,['3'],3,0.4977942999998959,,,,,,,,9,18,Man,Rechts,2,
,xotask,xotask,dotcolour,56,1,116,416,training,negativefb,80,average,63,0.6169155000000046,['c'],1,left,['9'],5,0.21367960000020503,,,,,,,,9,18,Man,Rechts,2,
,xotask,xotask,dotcolour,57,1,117,417,training,negativefb,40,average,60,0.583330100000012,['n'],0,left,['9'],5,0.1834369999999126,,,,,,,,9,18,Man,Rechts,2,
,xotask,xotask,dotcolour,58,1,118,418,training,negativefb,16,easy,70,0.03301449999980832,['c'],1,left,['9'],5,0.3603011999998671,,,,,,,,9,18,Man,Rechts,2,
,xotask,xotask,dotcolour,59,1,119,419,training,negativefb,36,average,64,0.4157979000001433,['c'],1,left,['9'],5,0.2333740999999918,,,,,,,,9,18,Man,Rechts,2,
,xotask,xotask,dotcolour,0,2,120,420,main,negativefb,-99,hard,52,0.567200800000137,['c'],1,left,['9'],5,0.12756510000008348,,,,,,,,9,18,Man,Rechts,2,
,xotask,xotask,dotcolour,1,2,121,421,main,negativefb,-99,average,16,0.4505424999999832,['n'],1,right,['9'],5,0.25767510000014227,,,,,,,,9,18,Man,Rechts,2,
,xotask,xotask,dotcolour,2,2,122,422,main,negativefb,-99,average,64,0.5175198999997974,['c'],1,left,['9'],5,0.13233999999988555,,,,,,,,9,18,Man,Rechts,2,
,xotask,xotask,dotcolour,3,2,123,423,main,negativefb,-99,average,63,0.5183402999998634,['n'],0,left,['8'],4,0.17832940000016606,,,,,,,,9,18,Man,Rechts,2,
,xotask,xotask,dotcolour,4,2,124,424,main,negativefb,-99,easy,74,0.3666972999999416,['c'],1,left,['8'],4,0.14233200000012403,,,,,,,,9,18,Man,Rechts,2,
,xotask,xotask,dotcolour,5,2,125,425,main,negativefb,-99,average,60,0.36716180000007625,['c'],1,left,['9'],5,0.13822770000001583,,,,,,,,9,18,Man,Rechts,2,
,xotask,xotask,dotcolour,6,2,126,426,main,negativefb,-99,average,60,0.36714560000018537,['c'],1,left,['8'],4,0.11188339999989694,,,,,,,,9,18,Man,Rechts,2,
,xotask,xotask,dotcolour,7,2,127,427,main,negativefb,-99,average,64,0.5171975999999177,['c'],1,left,['8'],4,0.12036039999998138,,,,,,,,9,18,Man,Rechts,2,
,xotask,xotask,dotcolour,8,2,128,428,main,negativefb,-99,hard,51,0.6842225999998846,['c'],1,left,['9'],5,0.16796270000008917,,,,,,,,9,18,Man,Rechts,2,
,xotask,xotask,dotcolour,9,2,129,429,main,negativefb,-99,average,15,0.5001761999999417,['n'],1,right,['9'],5,0.150212700000111,,,,,,,,9,18,Man,Rechts,2,
,xotask,xotask,dotcolour,10,2,130,430,main,negativefb,-99,easy,73,0.4839415999999801,['c'],1,left,['8'],4,0.20629490000010264,,,,,,,,9,18,Man,Rechts,2,
,xotask,xotask,dotcolour,11,2,131,431,main,negativefb,-99,hard,26,0.41723030000002836,['n'],1,right,['8'],4,0.15780849999987367,,,,,,,,9,18,Man,Rechts,2,
,xotask,xotask,dotcolour,12,2,132,432,main,negativefb,-99,hard,54,0.6678809999998521,['n'],0,left,['8'],4,0.09433839999996962,,,,,,,,9,18,Man,Rechts,2,
,xotask,xotask,dotcolour,13,2,133,433,main,negativefb,-99,average,17,0.33429290000003675,['c'],0,right,['8'],4,0.21445300000004863,,,,,,,,9,18,Man,Rechts,2,
,xotask,xotask,dotcolour,14,2,134,434,main,negativefb,-99,hard,28,0.8174854000001233,['n'],1,right,['8'],4,0.15002069999991363,,,,,,,,9,18,Man,Rechts,2,
,xotask,xotask,dotcolour,15,2,135,435,main,negativefb,-99,average,15,0.7170955999999933,['n'],1,right,['8'],4,0.1479128999999375,,,,,,,,9,18,Man,Rechts,2,
,xotask,xotask,dotcolour,16,2,136,436,main,negativefb,-99,hard,51,1.0667656999999053,['n'],0,left,['8'],4,0.33279379999999037,,,,,,,,9,18,Man,Rechts,2,
,xotask,xotask,dotcolour,17,2,137,437,main,negativefb,-99,hard,52,0.4171976000000086,['c'],1,left,['8'],4,0.14271710000002713,,,,,,,,9,18,Man,Rechts,2,
,xotask,xotask,dotcolour,18,2,138,438,main,negativefb,-99,easy,70,0.4682651000000533,['c'],1,left,['9'],5,0.18448719999992136,,,,,,,,9,18,Man,Rechts,2,
,xotask,xotask,dotcolour,19,2,139,439,main,negativefb,-99,easy,6,0.567631800000072,['n'],1,right,['8'],4,0.19476320000012493,,,,,,,,9,18,Man,Rechts,2,
,xotask,xotask,dotcolour,20,2,140,440,main,negativefb,-99,easy,6,0.5506404999998722,['c'],0,right,['9'],5,0.19048530000009123,,,,,,,,9,18,Man,Rechts,2,
,xotask,xotask,dotcolour,21,2,141,441,main,negativefb,-99,easy,9,0.9174277999998139,['n'],1,right,['9'],5,0.2424490999999307,,,,,,,,9,18,Man,Rechts,2,
,xotask,xotask,dotcolour,22,2,142,442,main,negativefb,-99,easy,5,0.41761680000013257,['n'],1,right,['9'],5,0.2096564999999373,,,,,,,,9,18,Man,Rechts,2,
,xotask,xotask,dotcolour,23,2,143,443,main,negativefb,-99,easy,8,0.80129090000014,['n'],1,right,['9'],5,0.16264879999994264,,,,,,,,9,18,Man,Rechts,2,
,xotask,xotask,dotcolour,24,2,144,444,main,negativefb,-99,easy,6,0.4335094000000481,['n'],1,right,['9'],5,0.18777170000021215,,,,,,,,9,18,Man,Rechts,2,
,xotask,xotask,dotcolour,25,2,145,445,main,negativefb,-99,easy,71,0.5838625999999749,['c'],1,left,['9'],5,0.20584050000002208,,,,,,,,9,18,Man,Rechts,2,
,xotask,xotask,dotcolour,26,2,146,446,main,negativefb,-99,hard,50,0.8346722999999656,['c'],1,left,['8'],4,0.1250304000000142,,,,,,,,9,18,Man,Rechts,2,
,xotask,xotask,dotcolour,27,2,147,447,main,negativefb,-99,hard,25,0.4676887999999053,['c'],0,right,['8'],4,0.07036510000011731,,,,,,,,9,18,Man,Rechts,2,
,xotask,xotask,dotcolour,28,2,148,448,main,negativefb,-99,easy,72,0.68492040000001,['c'],1,left,['9'],5,0.14464559999987614,,,,,,,,9,18,Man,Rechts,2,
,xotask,xotask,dotcolour,29,2,149,449,main,negativefb,-99,hard,26,1.2347418000001653,['n'],1,right,['9'],5,0.10656409999978678,,,,,,,,9,18,Man,Rechts,2,
,xotask,xotask,dotcolour,30,2,150,450,main,negativefb,-99,hard,50,0.6178246000001764,['c'],1,left,['8'],4,0.11152210000000196,,,,,,,,9,18,Man,Rechts,2,
,xotask,xotask,dotcolour,31,2,151,451,main,negativefb,-99,average,16,1.2341484999999466,['n'],1,right,['9'],5,0.13079390000007152,,,,,,,,9,18,Man,Rechts,2,
,xotask,xotask,dotcolour,32,2,152,452,main,negativefb,-99,hard,27,0.6172360000000481,['c'],0,right,['8'],4,0.18202659999997195,,,,,,,,9,18,Man,Rechts,2,
,xotask,xotask,dotcolour,33,2,153,453,main,negativefb,-99,hard,54,0.5665337000000363,['n'],0,left,['8'],4,0.16863459999990482,,,,,,,,9,18,Man,Rechts,2,
,xotask,xotask,dotcolour,34,2,154,454,main,negativefb,-99,hard,26,0.4670581000000311,['c'],0,right,['9'],5,0.27936150000005,,,,,,,,9,18,Man,Rechts,2,
,xotask,xotask,dotcolour,35,2,155,455,main,negativefb,-99,easy,8,0.5840436999999383,['n'],1,right,['8'],4,0.1590912000001481,,,,,,,,9,18,Man,Rechts,2,
,xotask,xotask,dotcolour,36,2,156,456,main,negativefb,-99,hard,52,0.5835099999999329,['c'],1,left,['8'],4,0.12968130000012934,,,,,,,,9,18,Man,Rechts,2,
,xotask,xotask,dotcolour,37,2,157,457,main,negativefb,-99,hard,52,0.4170079000000442,['n'],0,left,['8'],4,0.16596660000004704,,,,,,,,9,18,Man,Rechts,2,
,xotask,xotask,dotcolour,38,2,158,458,main,negativefb,-99,average,16,0.2836194000001342,['c'],0,right,['8'],4,0.26084240000000136,,,,,,,,9,18,Man,Rechts,2,
,xotask,xotask,dotcolour,39,2,159,459,main,negativefb,-99,easy,71,0.5334282999999687,['n'],0,left,['8'],4,0.16614580000009482,,,,,,,,9,18,Man,Rechts,2,
,xotask,xotask,dotcolour,40,2,160,460,main,negativefb,-99,easy,8,0.6497893000000659,['c'],0,right,['8'],4,0.18196680000005472,,,,,,,,9,18,Man,Rechts,2,
,xotask,xotask,dotcolour,41,2,161,461,main,negativefb,-99,average,64,1.4822044000000005,['n'],0,left,['9'],5,0.13249930000006316,,,,,,,,9,18,Man,Rechts,2,
,xotask,xotask,dotcolour,42,2,162,462,main,negativefb,-99,average,15,0.6011931999998978,['c'],0,right,['8'],4,0.1439117999998416,,,,,,,,9,18,Man,Rechts,2,
,xotask,xotask,dotcolour,43,2,163,463,main,negativefb,-99,easy,5,1.0018059999999878,['n'],1,right,['8'],4,0.1552620999998453,,,,,,,,9,18,Man,Rechts,2,
,xotask,xotask,dotcolour,44,2,164,464,main,negativefb,-99,easy,9,0.7494611999998142,['n'],1,right,['9'],5,0.09592029999998886,,,,,,,,9,18,Man,Rechts,2,
,xotask,xotask,dotcolour,45,2,165,465,main,negativefb,-99,hard,29,1.1839999000001171,['n'],1,right,['8'],4,0.14951399999995374,,,,,,,,9,18,Man,Rechts,2,
,xotask,xotask,dotcolour,46,2,166,466,main,negativefb,-99,average,16,0.4838151999999809,['n'],1,right,['8'],4,0.22859809999999925,,,,,,,,9,18,Man,Rechts,2,
,xotask,xotask,dotcolour,47,2,167,467,main,negativefb,-99,hard,28,1.3186660000001211,['n'],1,right,['9'],5,0.16899899999998524,,,,,,,,9,18,Man,Rechts,2,
,xotask,xotask,dotcolour,48,2,168,468,main,negativefb,-99,hard,29,0.5681038999998691,['n'],1,right,['8'],4,0.1322483999999804,,,,,,,,9,18,Man,Rechts,2,
,xotask,xotask,dotcolour,49,2,169,469,main,negativefb,-99,easy,71,0.466735799999924,['n'],0,left,['8'],4,0.14137970000001587,,,,,,,,9,18,Man,Rechts,2,
,xotask,xotask,dotcolour,50,2,170,470,main,negativefb,-99,easy,71,0.7998720000000503,['c'],1,left,['9'],5,0.22438899999997375,,,,,,,,9,18,Man,Rechts,2,
,xotask,xotask,dotcolour,51,2,171,471,main,negativefb,-99,average,60,0.9333847000000333,['c'],1,left,['9'],5,0.36383749999981774,,,,,,,,9,18,Man,Rechts,2,
,xotask,xotask,dotcolour,52,2,172,472,main,negativefb,-99,average,62,0.7006794000001264,['c'],1,left,['8'],4,0.16183020000016768,,,,,,,,9,18,Man,Rechts,2,
,xotask,xotask,dotcolour,53,2,173,473,main,negativefb,-99,easy,72,0.7498952000000827,['c'],1,left,['8'],4,0.07088330000010501,,,,,,,,9,18,Man,Rechts,2,
,xotask,xotask,dotcolour,54,2,174,474,main,negativefb,-99,average,15,0.6839228000001185,['n'],1,right,['9'],5,0.24961609999991197,,,,,,,,9,18,Man,Rechts,2,
,xotask,xotask,dotcolour,55,2,175,475,main,negativefb,-99,average,15,0.8502608999999666,['c'],0,right,['8'],4,0.48608740000008765,,,,,,,,9,18,Man,Rechts,2,
,xotask,xotask,dotcolour,56,2,176,476,main,negativefb,-99,hard,27,0.4842100999999275,['n'],1,right,['8'],4,0.20803499999988162,,,,,,,,9,18,Man,Rechts,2,
,xotask,xotask,dotcolour,57,2,177,477,main,negativefb,-99,average,63,0.6679871999999705,['n'],0,left,['8'],4,0.18993179999984022,,,,,,,,9,18,Man,Rechts,2,
,xotask,xotask,dotcolour,58,2,178,478,main,negativefb,-99,average,60,0.3330120000000534,['c'],1,left,['8'],4,0.193835799999988,,,,,,,,9,18,Man,Rechts,2,
,xotask,xotask,dotcolour,59,2,179,479,main,negativefb,-99,easy,73,0.4171670000000631,['c'],1,left,['8'],4,0.1222442000000683,,,,,,,,9,18,Man,Rechts,2,
,xotask,xotask,dotcolour,0,3,180,480,main,negativefb,-99,average,60,1.1345777999999882,['n'],0,left,['8'],4,0.1477405999999064,,,,,,,,9,18,Man,Rechts,2,
,xotask,xotask,dotcolour,1,3,181,481,main,negativefb,-99,average,64,0.517136199999868,['c'],1,left,['8'],4,0.1621443999999883,,,,,,,,9,18,Man,Rechts,2,
,xotask,xotask,dotcolour,2,3,182,482,main,negativefb,-99,hard,26,0.5166784000000462,['c'],0,right,['9'],5,0.12907639999980347,,,,,,,,9,18,Man,Rechts,2,
,xotask,xotask,dotcolour,3,3,183,483,main,negativefb,-99,hard,50,0.6176421000000119,['n'],0,left,['8'],4,0.21972989999994752,,,,,,,,9,18,Man,Rechts,2,
,xotask,xotask,dotcolour,4,3,184,484,main,negativefb,-99,hard,50,0.43373810000002777,['c'],1,left,['9'],5,0.2664694000000054,,,,,,,,9,18,Man,Rechts,2,
,xotask,xotask,dotcolour,5,3,185,485,main,negativefb,-99,easy,7,0.6337114000000383,['c'],0,right,['9'],5,0.1269872000000305,,,,,,,,9,18,Man,Rechts,2,
,xotask,xotask,dotcolour,6,3,186,486,main,negativefb,-99,average,61,0.3835159999998723,['n'],0,left,['8'],4,0.16451970000002802,,,,,,,,9,18,Man,Rechts,2,
,xotask,xotask,dotcolour,7,3,187,487,main,negativefb,-99,average,63,0.8169935000000805,['c'],1,left,['8'],4,0.15068989999986115,,,,,,,,9,18,Man,Rechts,2,
,xotask,xotask,dotcolour,8,3,188,488,main,negativefb,-99,easy,6,0.6665995000000748,['n'],1,right,['8'],4,0.14138440000010633,,,,,,,,9,18,Man,Rechts,2,
,xotask,xotask,dotcolour,9,3,189,489,main,negativefb,-99,easy,74,0.5844088000001193,['c'],1,left,['8'],4,0.20220660000018142,,,,,,,,9,18,Man,Rechts,2,
,xotask,xotask,dotcolour,10,3,190,490,main,negativefb,-99,hard,50,0.7845737000000099,['n'],0,left,['8'],4,0.243414600000051,,,,,,,,9,18,Man,Rechts,2,
,xotask,xotask,dotcolour,11,3,191,491,main,negativefb,-99,average,18,0.3339241999999558,['c'],0,right,['8'],4,0.2453227999999399,,,,,,,,9,18,Man,Rechts,2,
,xotask,xotask,dotcolour,12,3,192,492,main,negativefb,-99,easy,7,0.7004010000000562,['n'],1,right,['9'],5,0.12830970000004527,,,,,,,,9,18,Man,Rechts,2,
,xotask,xotask,dotcolour,13,3,193,493,main,negativefb,-99,average,62,0.5665927000000011,['c'],1,left,['8'],4,0.08630589999984295,,,,,,,,9,18,Man,Rechts,2,
,xotask,xotask,dotcolour,14,3,194,494,main,negativefb,-99,easy,72,0.6340112999998837,['c'],1,left,['9'],5,0.14656139999988227,,,,,,,,9,18,Man,Rechts,2,
,xotask,xotask,dotcolour,15,3,195,495,main,negativefb,-99,hard,25,0.5502914999999575,['n'],1,right,['9'],5,0.127241099999992,,,,,,,,9,18,Man,Rechts,2,
,xotask,xotask,dotcolour,16,3,196,496,main,negativefb,-99,hard,51,0.25016120000009323,['c'],1,left,['8'],4,0.11372239999991507,,,,,,,,9,18,Man,Rechts,2,
,xotask,xotask,dotcolour,17,3,197,497,main,negativefb,-99,average,17,0.3849776000001839,['n'],1,right,['9'],5,0.2387257000000318,,,,,,,,9,18,Man,Rechts,2,
,xotask,xotask,dotcolour,18,3,198,498,main,negativefb,-99,average,63,0.5177684999998746,['n'],0,left,['9'],5,0.13814219999994748,,,,,,,,9,18,Man,Rechts,2,
,xotask,xotask,dotcolour,19,3,199,499,main,negativefb,-99,easy,73,0.26738090000026205,['c'],1,left,['8'],4,0.20268480000004274,,,,,,,,9,18,Man,Rechts,2,
,xotask,xotask,dotcolour,20,3,200,500,main,negativefb,-99,hard,28,0.8010595000000649,['n'],1,right,['8'],4,0.1154473000001417,,,,,,,,9,18,Man,Rechts,2,
,xotask,xotask,dotcolour,21,3,201,501,main,negativefb,-99,easy,5,0.5179297999998198,['n'],1,right,['8'],4,0.10646390000010797,,,,,,,,9,18,Man,Rechts,2,
,xotask,xotask,dotcolour,22,3,202,502,main,negativefb,-99,easy,9,0.30126049999989846,['c'],0,right,['8'],4,0.8349127999999837,,,,,,,,9,18,Man,Rechts,2,
,xotask,xotask,dotcolour,23,3,203,503,main,negativefb,-99,average,63,0.45039409999981217,['n'],0,left,['8'],4,0.1848878999999215,,,,,,,,9,18,Man,Rechts,2,
,xotask,xotask,dotcolour,24,3,204,504,main,negativefb,-99,average,19,0.617728299999726,['n'],1,right,['9'],5,0.1773309000000154,,,,,,,,9,18,Man,Rechts,2,
,xotask,xotask,dotcolour,25,3,205,505,main,negativefb,-99,hard,28,1.1173579999999674,['n'],1,right,['8'],4,0.17564409999977215,,,,,,,,9,18,Man,Rechts,2,
,xotask,xotask,dotcolour,26,3,206,506,main,negativefb,-99,hard,50,1.0008606000001237,['c'],1,left,['9'],5,0.2484852999996292,,,,,,,,9,18,Man,Rechts,2,
,xotask,xotask,dotcolour,27,3,207,507,main,negativefb,-99,hard,50,0.5839096000004247,['c'],1,left,['9'],5,0.12806899999986854,,,,,,,,9,18,Man,Rechts,2,
,xotask,xotask,dotcolour,28,3,208,508,main,negativefb,-99,average,17,0.6007463999999345,['c'],0,right,['9'],5,0.1398546999998871,,,,,,,,9,18,Man,Rechts,2,
,xotask,xotask,dotcolour,29,3,209,509,main,negativefb,-99,hard,27,0.3667342000003373,['n'],1,right,['9'],5,0.16906559999961246,,,,,,,,9,18,Man,Rechts,2,
,xotask,xotask,dotcolour,30,3,210,510,main,negativefb,-99,average,61,0.31804290000036417,['c'],1,left,['8'],4,0.6058833999995841,,,,,,,,9,18,Man,Rechts,2,
,xotask,xotask,dotcolour,31,3,211,511,main,negativefb,-99,hard,27,0.6006327000000056,['c'],0,right,['8'],4,0.19926669999995283,,,,,,,,9,18,Man,Rechts,2,
,xotask,xotask,dotcolour,32,3,212,512,main,negativefb,-99,easy,9,0.683665700000347,['c'],0,right,['9'],5,0.7731966999999713,,,,,,,,9,18,Man,Rechts,2,
,xotask,xotask,dotcolour,33,3,213,513,main,negativefb,-99,easy,73,0.8678049000000101,['c'],1,left,['9'],5,0.10809229999995296,,,,,,,,9,18,Man,Rechts,2,
,xotask,xotask,dotcolour,34,3,214,514,main,negativefb,-99,average,64,0.8506508000000395,['n'],0,left,['8'],4,0.15865460000031817,,,,,,,,9,18,Man,Rechts,2,
,xotask,xotask,dotcolour,35,3,215,515,main,negativefb,-99,hard,53,0.3333536999998614,['c'],1,left,['9'],5,0.5803046000000904,,,,,,,,9,18,Man,Rechts,2,
,xotask,xotask,dotcolour,36,3,216,516,main,negativefb,-99,average,16,1.0000382999996873,['c'],0,right,['8'],4,0.17339739999988524,,,,,,,,9,18,Man,Rechts,2,
,xotask,xotask,dotcolour,37,3,217,517,main,negativefb,-99,average,17,1.0507935000000543,['n'],1,right,['8'],4,0.19800919999988764,,,,,,,,9,18,Man,Rechts,2,
,xotask,xotask,dotcolour,38,3,218,518,main,negativefb,-99,easy,74,0.6496773999997458,['c'],1,left,['8'],4,0.18077960000027815,,,,,,,,9,18,Man,Rechts,2,
,xotask,xotask,dotcolour,39,3,219,519,main,negativefb,-99,easy,74,0.5997729000000618,['c'],1,left,['9'],5,0.18387570000004416,,,,,,,,9,18,Man,Rechts,2,
,xotask,xotask,dotcolour,40,3,220,520,main,negativefb,-99,easy,73,0.4851757000001271,['c'],1,left,['9'],5,0.28524329999982,,,,,,,,9,18,Man,Rechts,2,
,xotask,xotask,dotcolour,41,3,221,521,main,negativefb,-99,hard,28,0.7182788000000073,['n'],1,right,['9'],5,0.2540031000003182,,,,,,,,9,18,Man,Rechts,2,
,xotask,xotask,dotcolour,42,3,222,522,main,negativefb,-99,hard,26,0.5683651999997892,['c'],0,right,['8'],4,0.25416379999978744,,,,,,,,9,18,Man,Rechts,2,
,xotask,xotask,dotcolour,43,3,223,523,main,negativefb,-99,easy,7,0.8177679000000353,['n'],1,right,['9'],5,0.18036019999999553,,,,,,,,9,18,Man,Rechts,2,
,xotask,xotask,dotcolour,44,3,224,524,main,negativefb,-99,easy,5,0.3339336999997613,['n'],1,right,['9'],5,0.16099590000021635,,,,,,,,9,18,Man,Rechts,2,
,xotask,xotask,dotcolour,45,3,225,525,main,negativefb,-99,average,17,0.483277100000123,['n'],1,right,['9'],5,0.2007925999996587,,,,,,,,9,18,Man,Rechts,2,
,xotask,xotask,dotcolour,46,3,226,526,main,negativefb,-99,average,64,0.633570200000122,['c'],1,left,['8'],4,0.16023489999997764,,,,,,,,9,18,Man,Rechts,2,
,xotask,xotask,dotcolour,47,3,227,527,main,negativefb,-99,hard,26,0.3833596999998008,['n'],1,right,['9'],5,0.21136810000007245,,,,,,,,9,18,Man,Rechts,2,
,xotask,xotask,dotcolour,48,3,228,528,main,negativefb,-99,hard,25,0.3505905000001803,['c'],0,right,['8'],4,0.19015230000013617,,,,,,,,9,18,Man,Rechts,2,
,xotask,xotask,dotcolour,49,3,229,529,main,negativefb,-99,easy,72,0.36689320000004955,['n'],0,left,['9'],5,0.2009809999999561,,,,,,,,9,18,Man,Rechts,2,
,xotask,xotask,dotcolour,50,3,230,530,main,negativefb,-99,hard,51,1.2490962000001673,['c'],1,left,['8'],4,0.13455089999979464,,,,,,,,9,18,Man,Rechts,2,
,xotask,xotask,dotcolour,51,3,231,531,main,negativefb,-99,easy,7,0.6987945000000764,['n'],1,right,['8'],4,0.1499831000000995,,,,,,,,9,18,Man,Rechts,2,
,xotask,xotask,dotcolour,52,3,232,532,main,negativefb,-99,easy,9,0.5172327000000223,['n'],1,right,['9'],5,0.22816980000015974,,,,,,,,9,18,Man,Rechts,2,
,xotask,xotask,dotcolour,53,3,233,533,main,negativefb,-99,easy,73,0.5841611999999259,['c'],1,left,['8'],4,0.18939339999997173,,,,,,,,9,18,Man,Rechts,2,
,xotask,xotask,dotcolour,54,3,234,534,main,negativefb,-99,easy,71,0.5681165999999394,['c'],1,left,['9'],5,0.1923333999998249,,,,,,,,9,18,Man,Rechts,2,
,xotask,xotask,dotcolour,55,3,235,535,main,negativefb,-99,hard,54,0.6166249000002608,['n'],0,left,['8'],4,0.23303600000008373,,,,,,,,9,18,Man,Rechts,2,
,xotask,xotask,dotcolour,56,3,236,536,main,negativefb,-99,hard,52,0.5344605999998748,['c'],1,left,['8'],4,0.19500030000017432,,,,,,,,9,18,Man,Rechts,2,
,xotask,xotask,dotcolour,57,3,237,537,main,negativefb,-99,average,16,0.5846131999996942,['n'],1,right,['9'],5,0.18035989999998492,,,,,,,,9,18,Man,Rechts,2,
,xotask,xotask,dotcolour,58,3,238,538,main,negativefb,-99,average,17,0.5013014999999541,['c'],0,right,['8'],4,0.2583998000000065,,,,,,,,9,18,Man,Rechts,2,
,xotask,xotask,dotcolour,59,3,239,539,main,negativefb,-99,average,15,0.6340792999999394,['c'],0,right,['8'],4,0.856966199999988,,,,,,,,9,18,Man,Rechts,2,
,xotask,xotask,dotcolour,0,4,240,540,main,negativefb,-99,average,63,0.8509853999998995,['c'],1,left,['8'],4,0.1785223000001679,,,,,,,,9,18,Man,Rechts,2,
,xotask,xotask,dotcolour,1,4,241,541,main,negativefb,-99,easy,72,0.567514900000333,['c'],1,left,['9'],5,0.20640030000004117,,,,,,,,9,18,Man,Rechts,2,
,xotask,xotask,dotcolour,2,4,242,542,main,negativefb,-99,hard,25,1.6662529999998696,['n'],1,right,['9'],5,6.212925799999994,,,,,,,,9,18,Man,Rechts,2,
,xotask,xotask,dotcolour,3,4,243,543,main,negativefb,-99,average,61,0.8009729000000334,['c'],1,left,['9'],5,0.16464570000016465,,,,,,,,9,18,Man,Rechts,2,
,xotask,xotask,dotcolour,4,4,244,544,main,negativefb,-99,average,64,0.6191054000000804,['c'],1,left,['9'],5,0.17504199999984849,,,,,,,,9,18,Man,Rechts,2,
,xotask,xotask,dotcolour,5,4,245,545,main,negativefb,-99,easy,73,0.4675345999999081,['c'],1,left,['8'],4,0.27001960000006875,,,,,,,,9,18,Man,Rechts,2,
,xotask,xotask,dotcolour,6,4,246,546,main,negativefb,-99,average,18,0.5167562999999973,['n'],1,right,['8'],4,0.20699520000016491,,,,,,,,9,18,Man,Rechts,2,
,xotask,xotask,dotcolour,7,4,247,547,main,negativefb,-99,easy,5,0.668159100000139,['c'],0,right,['9'],5,0.21370329999990645,,,,,,,,9,18,Man,Rechts,2,
,xotask,xotask,dotcolour,8,4,248,548,main,negativefb,-99,average,15,1.20081349999964,['n'],1,right,['9'],5,0.14239390000011554,,,,,,,,9,18,Man,Rechts,2,
,xotask,xotask,dotcolour,9,4,249,549,main,negativefb,-99,hard,28,0.517005600000175,['n'],1,right,['9'],5,0.13336200000003373,,,,,,,,9,18,Man,Rechts,2,
,xotask,xotask,dotcolour,10,4,250,550,main,negativefb,-99,hard,27,0.4168002000001252,['n'],1,right,['9'],5,0.20693440000013652,,,,,,,,9,18,Man,Rechts,2,
,xotask,xotask,dotcolour,11,4,251,551,main,negativefb,-99,easy,9,0.6671900999999707,['n'],1,right,['9'],5,0.16623280000021623,,,,,,,,9,18,Man,Rechts,2,
,xotask,xotask,dotcolour,12,4,252,552,main,negativefb,-99,hard,25,0.5842894999996133,['n'],1,right,['8'],4,0.3926859000002878,,,,,,,,9,18,Man,Rechts,2,
,xotask,xotask,dotcolour,13,4,253,553,main,negativefb,-99,hard,51,0.6170427999995809,['n'],0,left,['9'],5,0.17719940000006318,,,,,,,,9,18,Man,Rechts,2,
,xotask,xotask,dotcolour,14,4,254,554,main,negativefb,-99,easy,8,1.3846969000001081,['n'],1,right,['9'],5,0.2511685000004036,,,,,,,,9,18,Man,Rechts,2,
,xotask,xotask,dotcolour,15,4,255,555,main,negativefb,-99,hard,25,0.5497219999997469,['c'],0,right,['8'],4,0.39623100000017075,,,,,,,,9,18,Man,Rechts,2,
,xotask,xotask,dotcolour,16,4,256,556,main,negativefb,-99,easy,8,0.8012530000000879,['n'],1,right,['9'],5,0.1652561999999307,,,,,,,,9,18,Man,Rechts,2,
,xotask,xotask,dotcolour,17,4,257,557,main,negativefb,-99,easy,5,0.5507901000000857,['n'],1,right,['9'],5,0.153701700000056,,,,,,,,9,18,Man,Rechts,2,
,xotask,xotask,dotcolour,18,4,258,558,main,negativefb,-99,easy,5,0.4847491999998965,['n'],1,right,['9'],5,0.2095549000000574,,,,,,,,9,18,Man,Rechts,2,
,xotask,xotask,dotcolour,19,4,259,559,main,negativefb,-99,easy,73,0.6164284000001317,['c'],1,left,['9'],5,0.13748850000001767,,,,,,,,9,18,Man,Rechts,2,
,xotask,xotask,dotcolour,20,4,260,560,main,negativefb,-99,easy,71,0.5347677999998268,['c'],1,left,['9'],5,0.15176560000008976,,,,,,,,9,18,Man,Rechts,2,
,xotask,xotask,dotcolour,21,4,261,561,main,negativefb,-99,easy,71,0.4334780999997747,['c'],1,left,['9'],5,0.30517349999990984,,,,,,,,9,18,Man,Rechts,2,
,xotask,xotask,dotcolour,22,4,262,562,main,negativefb,-99,average,63,0.6499113999998372,['n'],0,left,['9'],5,0.21059310000009646,,,,,,,,9,18,Man,Rechts,2,
,xotask,xotask,dotcolour,23,4,263,563,main,negativefb,-99,hard,54,1.0013358000001062,['n'],0,left,['9'],5,0.1485806999999113,,,,,,,,9,18,Man,Rechts,2,
,xotask,xotask,dotcolour,24,4,264,564,main,negativefb,-99,average,16,0.8340445000003456,['c'],0,right,['8'],4,0.16580659999999625,,,,,,,,9,18,Man,Rechts,2,
,xotask,xotask,dotcolour,25,4,265,565,main,negativefb,-99,hard,50,0.6333976999999322,['n'],0,left,['8'],4,0.14960440000004382,,,,,,,,9,18,Man,Rechts,2,
,xotask,xotask,dotcolour,26,4,266,566,main,negativefb,-99,hard,54,0.5835526000000755,['c'],1,left,['8'],4,0.12133799999992334,,,,,,,,9,18,Man,Rechts,2,
,xotask,xotask,dotcolour,27,4,267,567,main,negativefb,-99,easy,74,0.5348119000000224,['n'],0,left,['9'],5,0.28788159999976415,,,,,,,,9,18,Man,Rechts,2,
,xotask,xotask,dotcolour,28,4,268,568,main,negativefb,-99,average,16,1.4339695999997275,['c'],0,right,['9'],5,0.3327825000001212,,,,,,,,9,18,Man,Rechts,2,
,xotask,xotask,dotcolour,29,4,269,569,main,negativefb,-99,average,63,0.5180092999999033,['c'],1,left,['9'],5,0.1464362000001529,,,,,,,,9,18,Man,Rechts,2,
,xotask,xotask,dotcolour,30,4,270,570,main,negativefb,-99,easy,6,0.7338546000000861,['n'],1,right,['9'],5,0.16142970000009882,,,,,,,,9,18,Man,Rechts,2,
,xotask,xotask,dotcolour,31,4,271,571,main,negativefb,-99,easy,71,0.7345089000000371,['c'],1,left,['9'],5,0.1027564999999413,,,,,,,,9,18,Man,Rechts,2,
,xotask,xotask,dotcolour,32,4,272,572,main,negativefb,-99,hard,51,0.9173335000000407,['n'],0,left,['8'],4,0.18176579999999376,,,,,,,,9,18,Man,Rechts,2,
,xotask,xotask,dotcolour,33,4,273,573,main,negativefb,-99,average,64,1.0679552999999942,['c'],1,left,['9'],5,0.14980819999982486,,,,,,,,9,18,Man,Rechts,2,
,xotask,xotask,dotcolour,34,4,274,574,main,negativefb,-99,average,16,0.6490503999998509,['n'],1,right,['9'],5,0.11045130000002246,,,,,,,,9,18,Man,Rechts,2,
,xotask,xotask,dotcolour,35,4,275,575,main,negativefb,-99,easy,72,0.5826641999997264,['c'],1,left,['9'],5,0.1474066999999195,,,,,,,,9,18,Man,Rechts,2,
,xotask,xotask,dotcolour,36,4,276,576,main,negativefb,-99,easy,74,0.550903500000004,['c'],1,left,['9'],5,0.17696399999977075,,,,,,,,9,18,Man,Rechts,2,
,xotask,xotask,dotcolour,37,4,277,577,main,negativefb,-99,average,61,0.6181742999997368,['n'],0,left,['9'],5,0.22588989999985642,,,,,,,,9,18,Man,Rechts,2,
,xotask,xotask,dotcolour,38,4,278,578,main,negativefb,-99,hard,28,0.584300500000154,['c'],0,right,['8'],4,0.25842389999979787,,,,,,,,9,18,Man,Rechts,2,
,xotask,xotask,dotcolour,39,4,279,579,main,negativefb,-99,average,18,0.5847813999998834,['c'],0,right,['8'],4,0.11439900000004855,,,,,,,,9,18,Man,Rechts,2,
,xotask,xotask,dotcolour,40,4,280,580,main,negativefb,-99,average,16,0.551300000000083,['c'],0,right,['9'],5,0.4879280000000108,,,,,,,,9,18,Man,Rechts,2,
,xotask,xotask,dotcolour,41,4,281,581,main,negativefb,-99,average,18,0.6173335999997107,['n'],1,right,['8'],4,0.17378259999986767,,,,,,,,9,18,Man,Rechts,2,
,xotask,xotask,dotcolour,42,4,282,582,main,negativefb,-99,hard,28,0.5345310000002428,['c'],0,right,['8'],4,0.13033089999998992,,,,,,,,9,18,Man,Rechts,2,
,xotask,xotask,dotcolour,43,4,283,583,main,negativefb,-99,hard,51,0.8499519000001783,['c'],1,left,['8'],4,0.18888560000004873,,,,,,,,9,18,Man,Rechts,2,
,xotask,xotask,dotcolour,44,4,284,584,main,negativefb,-99,average,61,0.6842342999998436,['c'],1,left,['8'],4,0.1937753000001976,,,,,,,,9,18,Man,Rechts,2,
,xotask,xotask,dotcolour,45,4,285,585,main,negativefb,-99,average,62,0.3845285999996122,['n'],0,left,['9'],5,0.24393940000027214,,,,,,,,9,18,Man,Rechts,2,
,xotask,xotask,dotcolour,46,4,286,586,main,negativefb,-99,easy,8,0.7670878999997512,['n'],1,right,['8'],4,0.14870300000029602,,,,,,,,9,18,Man,Rechts,2,
,xotask,xotask,dotcolour,47,4,287,587,main,negativefb,-99,hard,51,0.7344337999998061,['c'],1,left,['8'],4,0.1461303000000953,,,,,,,,9,18,Man,Rechts,2,
,xotask,xotask,dotcolour,48,4,288,588,main,negativefb,-99,hard,29,0.5839866000001166,['n'],1,right,['8'],4,0.15881639999997788,,,,,,,,9,18,Man,Rechts,2,
,xotask,xotask,dotcolour,49,4,289,589,main,negativefb,-99,hard,27,0.6840256000000409,['c'],0,right,['8'],4,0.16570110000020577,,,,,,,,9,18,Man,Rechts,2,
,xotask,xotask,dotcolour,50,4,290,590,main,negativefb,-99,hard,53,1.2502171000001,['n'],0,left,['8'],4,0.6782839000002241,,,,,,,,9,18,Man,Rechts,2,
,xotask,xotask,dotcolour,51,4,291,591,main,negativefb,-99,average,19,0.8004915999999866,['n'],1,right,['8'],4,0.276284300000043,,,,,,,,9,18,Man,Rechts,2,
,xotask,xotask,dotcolour,52,4,292,592,main,negativefb,-99,hard,51,0.6672744999996212,['c'],1,left,['8'],4,0.2715414999997847,,,,,,,,9,18,Man,Rechts,2,
,xotask,xotask,dotcolour,53,4,293,593,main,negativefb,-99,hard,53,1.3835635999998885,['n'],0,left,['8'],4,0.9347559000002548,,,,,,,,9,18,Man,Rechts,2,
,xotask,xotask,dotcolour,54,4,294,594,main,negativefb,-99,average,15,0.8500410999999986,['n'],1,right,['8'],4,0.12683460000016566,,,,,,,,9,18,Man,Rechts,2,
,xotask,xotask,dotcolour,55,4,295,595,main,negativefb,-99,average,62,0.617341000000124,['c'],1,left,['8'],4,0.1628550999998879,,,,,,,,9,18,Man,Rechts,2,
,xotask,xotask,dotcolour,56,4,296,596,main,negativefb,-99,easy,9,0.6843718000000081,['n'],1,right,['8'],4,0.14598620000015217,,,,,,,,9,18,Man,Rechts,2,
,xotask,xotask,dotcolour,57,4,297,597,main,negativefb,-99,hard,26,0.41714550000006057,['c'],0,right,['8'],4,0.1895409000003383,,,,,,,,9,18,Man,Rechts,2,
,xotask,xotask,dotcolour,58,4,298,598,main,negativefb,-99,easy,9,0.5503923999999643,['c'],0,right,['8'],4,0.192460299999766,,,,,,,,9,18,Man,Rechts,2,
,xotask,xotask,dotcolour,59,4,299,599,main,negativefb,-99,easy,73,0.7661749999997483,['c'],1,left,['8'],4,0.16276319999997213,,,,,,,,9,18,Man,Rechts,2,
,xotask,xotask,dotcolour,0,0,0,600,training,negativefb,21,average,62,0.9340750000001208,['c'],1,left,['9'],5,0.18949409999959244,,,,,,,,9,18,Man,Rechts,2,
,xotask,xotask,dotcolour,1,0,1,601,training,negativefb,15,easy,9,0.5005443000000014,['c'],0,right,['8'],4,0.4094961000000694,,,,,,,,9,18,Man,Rechts,2,
,xotask,xotask,dotcolour,2,0,2,602,training,negativefb,59,hard,53,0.6163911999997254,['c'],1,left,['8'],4,0.16912050000019008,,,,,,,,9,18,Man,Rechts,2,
,xotask,xotask,dotcolour,3,0,3,603,training,negativefb,90,hard,50,0.6493923999996696,['c'],1,left,['9'],5,0.18513949999987744,,,,,,,,9,18,Man,Rechts,2,
,xotask,xotask,dotcolour,4,0,4,604,training,negativefb,36,easy,7,0.6328871999999137,['n'],1,right,['8'],4,0.20043710000027204,,,,,,,,9,18,Man,Rechts,2,
,xotask,xotask,dotcolour,5,0,5,605,training,negativefb,52,hard,51,0.40083859999958804,['c'],1,left,['9'],5,0.16862870000022667,,,,,,,,9,18,Man,Rechts,2,
,xotask,xotask,dotcolour,6,0,6,606,training,negativefb,32,easy,73,0.29940600000009,['n'],0,left,['8'],4,0.3341915000000881,,,,,,,,9,18,Man,Rechts,2,
,xotask,xotask,dotcolour,7,0,7,607,training,negativefb,81,hard,53,0.6322012000000541,['c'],1,left,['9'],5,0.1833440000000337,,,,,,,,9,18,Man,Rechts,2,
,xotask,xotask,dotcolour,8,0,8,608,training,negativefb,88,hard,51,0.6504543999999441,['c'],1,left,['9'],5,0.1422378999995999,,,,,,,,9,18,Man,Rechts,2,
,xotask,xotask,dotcolour,9,0,9,609,training,negativefb,81,hard,51,0.5825198000002274,['c'],1,left,['9'],5,0.1775831999998445,,,,,,,,9,18,Man,Rechts,2,
,xotask,xotask,dotcolour,10,0,10,610,training,negativefb,38,average,62,0.6503548999999111,['n'],0,left,['9'],5,0.22490530000004583,,,,,,,,9,18,Man,Rechts,2,
,xotask,xotask,dotcolour,11,0,11,611,training,negativefb,40,easy,70,0.6487695000000713,['c'],1,left,['9'],5,0.142124099999819,,,,,,,,9,18,Man,Rechts,2,
,xotask,xotask,dotcolour,12,0,12,612,training,negativefb,64,average,15,0.7333661999996366,['n'],1,right,['9'],5,0.2037571000000753,,,,,,,,9,18,Man,Rechts,2,
,xotask,xotask,dotcolour,13,0,13,613,training,negativefb,80,average,15,0.882946599999741,['n'],1,right,['9'],5,0.208516299999701,,,,,,,,9,18,Man,Rechts,2,
,xotask,xotask,dotcolour,14,0,14,614,training,negativefb,84,average,61,0.4176095999996505,['c'],1,left,['9'],5,0.19199509999998554,,,,,,,,9,18,Man,Rechts,2,
,xotask,xotask,dotcolour,15,0,15,615,training,negativefb,38,average,60,0.5166269999999713,['c'],1,left,['9'],5,0.15593360000002576,,,,,,,,9,18,Man,Rechts,2,
,xotask,xotask,dotcolour,16,0,16,616,training,negativefb,27,hard,27,0.9686470999999983,['n'],1,right,['8'],4,0.23907650000001013,,,,,,,,9,18,Man,Rechts,2,
,xotask,xotask,dotcolour,17,0,17,617,training,negativefb,52,hard,52,0.33396810000022015,['c'],1,left,['9'],5,0.2566658999999163,,,,,,,,9,18,Man,Rechts,2,
,xotask,xotask,dotcolour,18,0,18,618,training,negativefb,93,average,19,0.4003317000001516,['n'],1,right,['8'],4,0.15797330000032161,,,,,,,,9,18,Man,Rechts,2,
,xotask,xotask,dotcolour,19,0,19,619,training,negativefb,82,easy,70,0.4007254000002831,['c'],1,left,['8'],4,0.17613219999975627,,,,,,,,9,18,Man,Rechts,2,
,xotask,xotask,dotcolour,20,0,20,620,training,negativefb,92,average,60,0.4505802999997286,['c'],1,left,['8'],4,0.1598516999997628,,,,,,,,9,18,Man,Rechts,2,
,xotask,xotask,dotcolour,21,0,21,621,training,negativefb,87,average,19,0.5500593000001572,['n'],1,right,['9'],5,0.16412239999999656,,,,,,,,9,18,Man,Rechts,2,
,xotask,xotask,dotcolour,22,0,22,622,training,negativefb,53,hard,50,0.5496665999999095,['c'],1,left,['8'],4,0.1516286000000946,,,,,,,,9,18,Man,Rechts,2,
,xotask,xotask,dotcolour,23,0,23,623,training,negativefb,68,hard,28,0.9342523999998775,['n'],1,right,['9'],5,0.164894799999729,,,,,,,,9,18,Man,Rechts,2,
,xotask,xotask,dotcolour,24,0,24,624,training,negativefb,43,average,64,0.5346561000001202,['c'],1,left,['8'],4,0.15361469999970723,,,,,,,,9,18,Man,Rechts,2,
,xotask,xotask,dotcolour,25,0,25,625,training,negativefb,28,average,16,0.39990549999993164,['c'],0,right,['8'],4,0.47502410000015516,,,,,,,,9,18,Man,Rechts,2,
,xotask,xotask,dotcolour,26,0,26,626,training,negativefb,58,hard,27,0.6670377000000371,['n'],1,right,['9'],5,0.19840940000040064,,,,,,,,9,18,Man,Rechts,2,
,xotask,xotask,dotcolour,27,0,27,627,training,negativefb,61,hard,27,0.46601700000019264,['n'],1,right,['8'],4,0.2277961999998297,,,,,,,,9,18,Man,Rechts,2,
,xotask,xotask,dotcolour,28,0,28,628,training,negativefb,81,easy,71,0.5993444999999156,['c'],1,left,['9'],5,0.147667900000215,,,,,,,,9,18,Man,Rechts,2,
,xotask,xotask,dotcolour,29,0,29,629,training,negativefb,69,hard,27,0.5497471999997288,['n'],1,right,['8'],4,0.20079580000037822,,,,,,,,9,18,Man,Rechts,2,
,xotask,xotask,dotcolour,30,0,30,630,training,negativefb,62,average,60,0.6166567999998733,['c'],1,left,['9'],5,0.1677215999998225,,,,,,,,9,18,Man,Rechts,2,
,xotask,xotask,dotcolour,31,0,31,631,training,negativefb,79,easy,74,0.6836355000000367,['c'],1,left,['9'],5,0.16601770000033866,,,,,,,,9,18,Man,Rechts,2,
,xotask,xotask,dotcolour,32,0,32,632,training,negativefb,58,hard,29,0.7167139000002862,['n'],1,right,['9'],5,0.23488320000024032,,,,,,,,9,18,Man,Rechts,2,
,xotask,xotask,dotcolour,33,0,33,633,training,negativefb,41,easy,6,0.3492725999999493,['c'],0,right,['9'],5,0.29136490000018966,,,,,,,,9,18,Man,Rechts,2,
,xotask,xotask,dotcolour,34,0,34,634,training,negativefb,73,average,16,0.28312759999971604,['n'],1,right,['9'],5,0.23699020000003657,,,,,,,,9,18,Man,Rechts,2,
,xotask,xotask,dotcolour,35,0,35,635,training,negativefb,75,average,18,0.5668398999996498,['n'],1,right,['9'],5,0.18115930000021763,,,,,,,,9,18,Man,Rechts,2,
,xotask,xotask,dotcolour,36,0,36,636,training,negativefb,61,easy,70,0.6665205999997852,['c'],1,left,['9'],5,0.11519959999986895,,,,,,,,9,18,Man,Rechts,2,
,xotask,xotask,dotcolour,37,0,37,637,training,negativefb,78,average,19,0.6002303000000211,['n'],1,right,['9'],5,0.19876350000004095,,,,,,,,9,18,Man,Rechts,2,
,xotask,xotask,dotcolour,38,0,38,638,training,negativefb,10,hard,52,0.6333569999997053,['n'],0,left,['8'],4,0.34903159999976197,,,,,,,,9,18,Man,Rechts,2,
,xotask,xotask,dotcolour,39,0,39,639,training,negativefb,46,easy,7,0.933829500000229,['n'],1,right,['9'],5,0.18644300000005387,,,,,,,,9,18,Man,Rechts,2,
,xotask,xotask,dotcolour,40,0,40,640,training,negativefb,50,hard,29,0.6498728999999912,['n'],1,right,['9'],5,0.20911879999994198,,,,,,,,9,18,Man,Rechts,2,
,xotask,xotask,dotcolour,41,0,41,641,training,negativefb,12,easy,8,0.5336249000001771,['c'],0,right,['8'],4,0.32338039999967805,,,,,,,,9,18,Man,Rechts,2,
,xotask,xotask,dotcolour,42,0,42,642,training,negativefb,39,hard,29,0.4495284999998148,['n'],1,right,['9'],5,0.17319290000023102,,,,,,,,9,18,Man,Rechts,2,
,xotask,xotask,dotcolour,43,0,43,643,training,negativefb,38,average,19,0.6668249999997897,['n'],1,right,['8'],4,0.1957647000003817,,,,,,,,9,18,Man,Rechts,2,
,xotask,xotask,dotcolour,44,0,44,644,training,negativefb,61,average,61,0.6175490999999056,['c'],1,left,['8'],4,0.1242168000003403,,,,,,,,9,18,Man,Rechts,2,
,xotask,xotask,dotcolour,45,0,45,645,training,negativefb,43,easy,7,0.5500022999999601,['n'],1,right,['8'],4,0.14539289999993343,,,,,,,,9,18,Man,Rechts,2,
