starttime,task,fbtask,firsttask,withinblocktrial,block,withintasktrial,trial,running,feedback,fbscore,difflevel,reddots,rt,resp,cor,cresp,conf_press,cj,RTconf,n_xes,post1,post2,post3,post4,post5,stoptime,sub,age,gender,handedness,session,
1715675565,dotcolour,dotcolour,xotask,0,0,0,0,training,negativefb,67,easy,62,1.0167421999994986,['c'],1,left,['2'],5,0.7540687000000617,,,,,,,,36,19,Vrouw,Links,2,
,dotcolour,dotcolour,xotask,1,0,1,1,training,negativefb,45,average,27,0.9340870999994877,['n'],1,right,['2'],5,0.6862547000000632,,,,,,,,36,19,Vrouw,Links,2,
,dotcolour,dotcolour,xotask,2,0,2,2,training,negativefb,80,easy,64,2.9003413000000364,['c'],1,left,['1'],6,0.9355798000005962,,,,,,,,36,19,Vrouw,Links,2,
,dotcolour,dotcolour,xotask,3,0,3,3,training,negativefb,43,hard,45,1.616947400000754,['n'],0,left,['3'],4,0.6334766999998465,,,,,,,,36,19,Vrouw,Links,2,
,dotcolour,dotcolour,xotask,4,0,4,4,training,negativefb,69,average,51,1.499568399999589,['c'],1,left,['2'],5,0.4196040999995603,,,,,,,,36,19,Vrouw,Links,2,
,dotcolour,dotcolour,xotask,5,0,5,5,training,negativefb,69,easy,61,1.3329995000003692,['c'],1,left,['1'],6,0.3816113000002588,,,,,,,,36,19,Vrouw,Links,2,
,dotcolour,dotcolour,xotask,6,0,6,6,training,negativefb,49,hard,45,1.5997435999997833,['n'],0,left,['3'],4,0.5823772000003373,,,,,,,,36,19,Vrouw,Links,2,
,dotcolour,dotcolour,xotask,7,0,7,7,training,negativefb,51,easy,19,0.9169168999997055,['n'],1,right,['2'],5,0.4267950000003111,,,,,,,,36,19,Vrouw,Links,2,
,dotcolour,dotcolour,xotask,8,0,8,8,training,negativefb,41,average,53,1.0668759000000136,['c'],1,left,['2'],5,0.6395142999999734,,,,,,,,36,19,Vrouw,Links,2,
,dotcolour,dotcolour,xotask,9,0,9,9,training,negativefb,82,hard,41,2.0163243999995757,['n'],0,left,['3'],4,0.6134543999996822,,,,,,,,36,19,Vrouw,Links,2,
,dotcolour,dotcolour,xotask,10,0,10,10,training,negativefb,72,average,28,1.116770099999485,['n'],1,right,['3'],4,0.20844409999972413,,,,,,,,36,19,Vrouw,Links,2,
,dotcolour,dotcolour,xotask,11,0,11,11,training,negativefb,29,easy,19,0.6509992999999668,['n'],1,right,['2'],5,0.25528880000001664,,,,,,,,36,19,Vrouw,Links,2,
,dotcolour,dotcolour,xotask,12,0,12,12,training,negativefb,97,average,29,0.7673916000003373,['n'],1,right,['3'],4,0.9579791999994995,,,,,,,,36,19,Vrouw,Links,2,
,dotcolour,dotcolour,xotask,13,0,13,13,training,negativefb,77,average,51,1.1332004999994751,['c'],1,left,['2'],5,0.30705480000051466,,,,,,,,36,19,Vrouw,Links,2,
,dotcolour,dotcolour,xotask,14,0,14,14,training,negativefb,78,easy,63,1.6170099999999366,['c'],1,left,['1'],6,0.27799770000001445,,,,,,,,36,19,Vrouw,Links,2,
,dotcolour,dotcolour,xotask,15,0,15,15,training,negativefb,37,hard,35,1.7831089000001157,['c'],0,right,['3'],4,0.5487917999998899,,,,,,,,36,19,Vrouw,Links,2,
,dotcolour,dotcolour,xotask,16,0,16,16,training,negativefb,89,easy,15,1.1502047000003586,['n'],1,right,['1'],6,0.43209850000039296,,,,,,,,36,19,Vrouw,Links,2,
,dotcolour,dotcolour,xotask,17,0,17,17,training,negativefb,54,average,28,0.816813500000535,['n'],1,right,['1'],6,0.20614630000000034,,,,,,,,36,19,Vrouw,Links,2,
,dotcolour,dotcolour,xotask,18,0,18,18,training,negativefb,85,average,51,0.9838853999999628,['c'],1,left,['2'],5,0.6066747000004398,,,,,,,,36,19,Vrouw,Links,2,
,dotcolour,dotcolour,xotask,19,0,19,19,training,negativefb,67,easy,16,1.1014352000001963,['n'],1,right,['1'],6,0.275141000000076,,,,,,,,36,19,Vrouw,Links,2,
,dotcolour,dotcolour,xotask,20,0,20,20,training,negativefb,18,hard,37,2.1327172999999675,['c'],0,right,['3'],4,1.0747904999998354,,,,,,,,36,19,Vrouw,Links,2,
,dotcolour,dotcolour,xotask,21,0,21,21,training,negativefb,61,hard,45,1.8165319999998246,['c'],1,left,['2'],5,0.3278338000000076,,,,,,,,36,19,Vrouw,Links,2,
,dotcolour,dotcolour,xotask,22,0,22,22,training,negativefb,40,hard,38,1.084120200000143,['n'],1,right,['3'],4,0.3202748000003339,,,,,,,,36,19,Vrouw,Links,2,
,dotcolour,dotcolour,xotask,23,0,23,23,training,negativefb,60,average,26,2.1000055000004068,['n'],1,right,['8'],3,0.5110040999998091,,,,,,,,36,19,Vrouw,Links,2,
,dotcolour,dotcolour,xotask,24,0,24,24,training,negativefb,65,easy,15,1.1331697000005079,['n'],1,right,['2'],5,0.3825357999994594,,,,,,,,36,19,Vrouw,Links,2,
,dotcolour,dotcolour,xotask,25,0,25,25,training,negativefb,38,easy,65,0.9008858000006512,['c'],1,left,['1'],6,0.25018720000025496,,,,,,,,36,19,Vrouw,Links,2,
,dotcolour,dotcolour,xotask,26,0,26,26,training,negativefb,57,hard,43,3.6166423000004215,['c'],1,left,['3'],4,0.7042836999999054,,,,,,,,36,19,Vrouw,Links,2,
,dotcolour,dotcolour,xotask,27,0,27,27,training,negativefb,33,hard,42,1.2330033999996886,['n'],0,left,['3'],4,0.4431369999992967,,,,,,,,36,19,Vrouw,Links,2,
,dotcolour,dotcolour,xotask,28,0,28,28,training,negativefb,57,easy,61,0.9510390000004918,['c'],1,left,['2'],5,0.32333310000012716,,,,,,,,36,19,Vrouw,Links,2,
,dotcolour,dotcolour,xotask,29,0,29,29,training,negativefb,55,hard,39,1.16760609999983,['n'],1,right,['3'],4,0.27240880000044854,,,,,,,,36,19,Vrouw,Links,2,
,dotcolour,dotcolour,xotask,30,0,30,30,training,negativefb,68,easy,15,0.915584299999864,['n'],1,right,['1'],6,0.24086540000007517,,,,,,,,36,19,Vrouw,Links,2,
,dotcolour,dotcolour,xotask,31,0,31,31,training,negativefb,94,average,28,1.81759030000012,['n'],1,right,['3'],4,0.7743786999999429,,,,,,,,36,19,Vrouw,Links,2,
,dotcolour,dotcolour,xotask,32,0,32,32,training,negativefb,77,easy,63,1.2668230999997832,['c'],1,left,['2'],5,0.44552030000068044,,,,,,,,36,19,Vrouw,Links,2,
,dotcolour,dotcolour,xotask,33,0,33,33,training,negativefb,23,hard,37,2.3484975999999733,['c'],0,right,['3'],4,0.318333100000018,,,,,,,,36,19,Vrouw,Links,2,
,dotcolour,dotcolour,xotask,34,0,34,34,training,negativefb,53,average,54,1.098892899999555,['c'],1,left,['1'],6,0.4777750000002925,,,,,,,,36,19,Vrouw,Links,2,
,dotcolour,dotcolour,xotask,35,0,35,35,training,negativefb,69,average,53,1.0013693999999305,['c'],1,left,['1'],6,0.2588181999999506,,,,,,,,36,19,Vrouw,Links,2,
,dotcolour,dotcolour,xotask,36,0,36,36,training,negativefb,70,easy,16,1.0336598000003505,['n'],1,right,['3'],4,0.3193803999993179,,,,,,,,36,19,Vrouw,Links,2,
,dotcolour,dotcolour,xotask,37,0,37,37,training,negativefb,79,easy,64,0.6494349999993574,['c'],1,left,['2'],5,0.35269680000055814,,,,,,,,36,19,Vrouw,Links,2,
,dotcolour,dotcolour,xotask,38,0,38,38,training,negativefb,82,easy,65,0.8000436000002082,['c'],1,left,['1'],6,0.32247559999996156,,,,,,,,36,19,Vrouw,Links,2,
,dotcolour,dotcolour,xotask,39,0,39,39,training,negativefb,52,hard,38,0.9175296000003073,['n'],1,right,['3'],4,0.24926890000006097,,,,,,,,36,19,Vrouw,Links,2,
,dotcolour,dotcolour,xotask,40,0,40,40,training,negativefb,42,average,27,1.200765799999317,['n'],1,right,['2'],5,0.23990449999928387,,,,,,,,36,19,Vrouw,Links,2,
,dotcolour,dotcolour,xotask,41,0,41,41,training,negativefb,66,hard,38,2.499678300000596,['n'],1,right,['3'],4,0.2980107000003045,,,,,,,,36,19,Vrouw,Links,2,
,dotcolour,dotcolour,xotask,42,0,42,42,training,negativefb,77,average,28,1.4163734999992812,['n'],1,right,['3'],4,0.4215405000004466,,,,,,,,36,19,Vrouw,Links,2,
,dotcolour,dotcolour,xotask,43,0,43,43,training,negativefb,62,hard,36,1.733828899999935,['c'],0,right,['3'],4,0.3040913000004366,,,,,,,,36,19,Vrouw,Links,2,
,dotcolour,dotcolour,xotask,44,0,44,44,training,negativefb,60,hard,43,1.9840486999992208,['c'],1,left,['3'],4,0.3246841999998651,,,,,,,,36,19,Vrouw,Links,2,
,dotcolour,dotcolour,xotask,45,0,45,45,training,negativefb,59,average,53,0.6658339000005071,['c'],1,left,['2'],5,0.47676180000053137,,,,,,,,36,19,Vrouw,Links,2,
,dotcolour,dotcolour,xotask,46,0,46,46,training,negativefb,90,hard,45,2.0162600000003295,['c'],1,left,['3'],4,1.3297784000005777,,,,,,,,36,19,Vrouw,Links,2,
,dotcolour,dotcolour,xotask,47,0,47,47,training,negativefb,57,hard,41,1.4167788999993718,['c'],1,left,['3'],4,0.27688670000043203,,,,,,,,36,19,Vrouw,Links,2,
,dotcolour,dotcolour,xotask,48,0,48,48,training,negativefb,47,average,27,1.750099400000181,['n'],1,right,['3'],4,0.26722330000029615,,,,,,,,36,19,Vrouw,Links,2,
,dotcolour,dotcolour,xotask,49,0,49,49,training,negativefb,78,average,52,0.8495557999995071,['c'],1,left,['3'],4,0.23959519999971235,,,,,,,,36,19,Vrouw,Links,2,
,dotcolour,dotcolour,xotask,50,0,50,50,training,negativefb,55,hard,43,0.883310100000017,['c'],1,left,['3'],4,0.22706030000063038,,,,,,,,36,19,Vrouw,Links,2,
,dotcolour,dotcolour,xotask,51,0,51,51,training,negativefb,62,average,28,0.9839917999997851,['n'],1,right,['3'],4,0.24283589999959077,,,,,,,,36,19,Vrouw,Links,2,
,dotcolour,dotcolour,xotask,52,0,52,52,training,negativefb,81,hard,35,1.0329545000004146,['n'],1,right,['3'],4,0.47195819999978994,,,,,,,,36,19,Vrouw,Links,2,
,dotcolour,dotcolour,xotask,53,0,53,53,training,negativefb,44,average,53,0.7667412000000695,['n'],0,left,['9'],2,1.8147619000001214,,,,,,,,36,19,Vrouw,Links,2,
,dotcolour,dotcolour,xotask,54,0,54,54,training,negativefb,38,easy,19,1.3340487000004941,['n'],1,right,['2'],5,0.3603037000002587,,,,,,,,36,19,Vrouw,Links,2,
,dotcolour,dotcolour,xotask,55,0,55,55,training,negativefb,71,average,51,0.966833299999962,['c'],1,left,['2'],5,0.6350916000001234,,,,,,,,36,19,Vrouw,Links,2,
,dotcolour,dotcolour,xotask,56,0,56,56,training,negativefb,60,easy,15,3.6171469000000798,['n'],1,right,['2'],5,0.2975196999996115,,,,,,,,36,19,Vrouw,Links,2,
,dotcolour,dotcolour,xotask,57,0,57,57,training,negativefb,19,hard,37,0.8827836999998908,['n'],1,right,['3'],4,0.2588478000006944,,,,,,,,36,19,Vrouw,Links,2,
,dotcolour,dotcolour,xotask,58,0,58,58,training,negativefb,77,easy,18,0.8995875000000524,['n'],1,right,['2'],5,0.22825730000022304,,,,,,,,36,19,Vrouw,Links,2,
,dotcolour,dotcolour,xotask,59,0,59,59,training,negativefb,34,easy,63,2.249490300000616,['c'],1,left,['3'],4,0.4983186999997997,,,,,,,,36,19,Vrouw,Links,2,
,dotcolour,dotcolour,xotask,0,1,60,60,training,negativefb,66,average,55,1.3672813000002861,['c'],1,left,['3'],4,0.23431179999988672,,,,,,,,36,19,Vrouw,Links,2,
,dotcolour,dotcolour,xotask,1,1,61,61,training,negativefb,52,hard,35,0.7670821000001524,['n'],1,right,['3'],4,0.1701662999994369,,,,,,,,36,19,Vrouw,Links,2,
,dotcolour,dotcolour,xotask,2,1,62,62,training,negativefb,65,hard,45,0.7679670000006809,['n'],0,left,['3'],4,0.1643668999995498,,,,,,,,36,19,Vrouw,Links,2,
,dotcolour,dotcolour,xotask,3,1,63,63,training,negativefb,67,easy,62,0.6339313999997103,['c'],1,left,['3'],4,0.19715130000076897,,,,,,,,36,19,Vrouw,Links,2,
,dotcolour,dotcolour,xotask,4,1,64,64,training,negativefb,67,average,25,0.7167659000006097,['n'],1,right,['2'],5,0.2411989000001995,,,,,,,,36,19,Vrouw,Links,2,
,dotcolour,dotcolour,xotask,5,1,65,65,training,negativefb,47,hard,35,1.2331536000001506,['n'],1,right,['3'],4,0.4227827000004254,,,,,,,,36,19,Vrouw,Links,2,
,dotcolour,dotcolour,xotask,6,1,66,66,training,negativefb,79,hard,44,1.2164444999998523,['c'],1,left,['2'],5,0.2851279999995313,,,,,,,,36,19,Vrouw,Links,2,
,dotcolour,dotcolour,xotask,7,1,67,67,training,negativefb,44,easy,19,0.8336576000001514,['n'],1,right,['2'],5,0.17636839999977383,,,,,,,,36,19,Vrouw,Links,2,
,dotcolour,dotcolour,xotask,8,1,68,68,training,negativefb,20,easy,62,0.7001650000001973,['c'],1,left,['2'],5,0.21333250000043336,,,,,,,,36,19,Vrouw,Links,2,
,dotcolour,dotcolour,xotask,9,1,69,69,training,negativefb,62,easy,17,0.9662409000002299,['n'],1,right,['2'],5,0.11071460000039224,,,,,,,,36,19,Vrouw,Links,2,
,dotcolour,dotcolour,xotask,10,1,70,70,training,negativefb,79,easy,63,0.7171490000000631,['c'],1,left,['1'],6,0.3184070999996038,,,,,,,,36,19,Vrouw,Links,2,
,dotcolour,dotcolour,xotask,11,1,71,71,training,negativefb,53,hard,39,1.5152944999999818,['n'],1,right,['3'],4,0.7096885000000839,,,,,,,,36,19,Vrouw,Links,2,
,dotcolour,dotcolour,xotask,12,1,72,72,training,negativefb,90,hard,41,0.984689700000672,['c'],1,left,['1'],6,0.2657610999995086,,,,,,,,36,19,Vrouw,Links,2,
,dotcolour,dotcolour,xotask,13,1,73,73,training,negativefb,24,hard,43,0.7335131999998339,['n'],0,left,['1'],6,0.34640399999989313,,,,,,,,36,19,Vrouw,Links,2,
,dotcolour,dotcolour,xotask,14,1,74,74,training,negativefb,64,hard,35,1.667056400000547,['c'],0,right,['2'],5,0.6261348000007274,,,,,,,,36,19,Vrouw,Links,2,
,dotcolour,dotcolour,xotask,15,1,75,75,training,negativefb,58,easy,19,1.266569399999753,['n'],1,right,['2'],5,0.21486479999930452,,,,,,,,36,19,Vrouw,Links,2,
,dotcolour,dotcolour,xotask,16,1,76,76,training,negativefb,55,average,29,1.4002268000003824,['n'],1,right,['2'],5,0.42203320000044187,,,,,,,,36,19,Vrouw,Links,2,
,dotcolour,dotcolour,xotask,17,1,77,77,training,negativefb,62,hard,36,2.1508984000001874,['n'],1,right,['3'],4,0.18283860000065033,,,,,,,,36,19,Vrouw,Links,2,
,dotcolour,dotcolour,xotask,18,1,78,78,training,negativefb,50,average,27,0.8509633000003305,['n'],1,right,['2'],5,0.22181320000072446,,,,,,,,36,19,Vrouw,Links,2,
,dotcolour,dotcolour,xotask,19,1,79,79,training,negativefb,46,average,28,1.16720770000029,['n'],1,right,['3'],4,0.27098360000036337,,,,,,,,36,19,Vrouw,Links,2,
,dotcolour,dotcolour,xotask,20,1,80,80,training,negativefb,82,hard,41,1.3499986000006174,['c'],1,left,['2'],5,0.3018695000000662,,,,,,,,36,19,Vrouw,Links,2,
,dotcolour,dotcolour,xotask,21,1,81,81,training,negativefb,65,average,54,1.1326655000002575,['c'],1,left,['2'],5,0.18929659999957948,,,,,,,,36,19,Vrouw,Links,2,
,dotcolour,dotcolour,xotask,22,1,82,82,training,negativefb,33,average,28,1.0497089000000415,['n'],1,right,['2'],5,0.14686780000010913,,,,,,,,36,19,Vrouw,Links,2,
,dotcolour,dotcolour,xotask,23,1,83,83,training,negativefb,85,average,52,0.9008174999999028,['c'],1,left,['2'],5,0.20109229999980016,,,,,,,,36,19,Vrouw,Links,2,
,dotcolour,dotcolour,xotask,24,1,84,84,training,negativefb,85,easy,64,0.783468499999799,['c'],1,left,['2'],5,0.21812469999986206,,,,,,,,36,19,Vrouw,Links,2,
,dotcolour,dotcolour,xotask,25,1,85,85,training,negativefb,33,hard,38,1.183228599999893,['c'],0,right,['3'],4,0.40984649999973044,,,,,,,,36,19,Vrouw,Links,2,
,dotcolour,dotcolour,xotask,26,1,86,86,training,negativefb,45,easy,17,0.7664685999998255,['n'],1,right,['2'],5,0.21983319999981177,,,,,,,,36,19,Vrouw,Links,2,
,dotcolour,dotcolour,xotask,27,1,87,87,training,negativefb,49,average,54,0.9326562999995076,['c'],1,left,['2'],5,0.23771510000005946,,,,,,,,36,19,Vrouw,Links,2,
,dotcolour,dotcolour,xotask,28,1,88,88,training,negativefb,21,hard,43,0.9171831000003294,['n'],0,left,['2'],5,0.17539170000054582,,,,,,,,36,19,Vrouw,Links,2,
,dotcolour,dotcolour,xotask,29,1,89,89,training,negativefb,69,hard,35,0.8499142000000575,['n'],1,right,['3'],4,0.22290960000009363,,,,,,,,36,19,Vrouw,Links,2,
,dotcolour,dotcolour,xotask,30,1,90,90,training,negativefb,83,easy,18,0.7835290000002715,['n'],1,right,['2'],5,0.2542546000004222,,,,,,,,36,19,Vrouw,Links,2,
,dotcolour,dotcolour,xotask,31,1,91,91,training,negativefb,65,average,27,0.8326415000001361,['n'],1,right,['3'],4,0.22026029999960883,,,,,,,,36,19,Vrouw,Links,2,
,dotcolour,dotcolour,xotask,32,1,92,92,training,negativefb,87,easy,64,0.8334090000007564,['c'],1,left,['2'],5,0.48961340000005293,,,,,,,,36,19,Vrouw,Links,2,
,dotcolour,dotcolour,xotask,33,1,93,93,training,negativefb,53,average,51,1.2329611999994086,['c'],1,left,['3'],4,0.300856400000157,,,,,,,,36,19,Vrouw,Links,2,
,dotcolour,dotcolour,xotask,34,1,94,94,training,negativefb,69,hard,36,1.1002964999997857,['n'],1,right,['2'],5,0.7967272000005323,,,,,,,,36,19,Vrouw,Links,2,
,dotcolour,dotcolour,xotask,35,1,95,95,training,negativefb,74,average,54,0.7329171999999744,['c'],1,left,['2'],5,0.20826949999991484,,,,,,,,36,19,Vrouw,Links,2,
,dotcolour,dotcolour,xotask,36,1,96,96,training,negativefb,79,average,26,1.0001441000003979,['n'],1,right,['2'],5,0.2324932000001354,,,,,,,,36,19,Vrouw,Links,2,
,dotcolour,dotcolour,xotask,37,1,97,97,training,negativefb,86,easy,63,0.86640990000069,['c'],1,left,['2'],5,0.1885362000002715,,,,,,,,36,19,Vrouw,Links,2,
,dotcolour,dotcolour,xotask,38,1,98,98,training,negativefb,34,hard,44,2.3170136000007915,['n'],0,left,['3'],4,0.28050600000005943,,,,,,,,36,19,Vrouw,Links,2,
,dotcolour,dotcolour,xotask,39,1,99,99,training,negativefb,22,easy,18,0.649498499999936,['c'],0,right,['8'],3,1.1559583999996903,,,,,,,,36,19,Vrouw,Links,2,
,dotcolour,dotcolour,xotask,40,1,100,100,training,negativefb,46,easy,63,3.249738100000286,['c'],1,left,['2'],5,0.2595307999999932,,,,,,,,36,19,Vrouw,Links,2,
,dotcolour,dotcolour,xotask,41,1,101,101,training,negativefb,98,easy,64,1.0007349999996222,['c'],1,left,['2'],5,0.5378270999999586,,,,,,,,36,19,Vrouw,Links,2,
,dotcolour,dotcolour,xotask,42,1,102,102,training,negativefb,33,average,27,1.434095100000377,['n'],1,right,['3'],4,0.691052000000127,,,,,,,,36,19,Vrouw,Links,2,
,dotcolour,dotcolour,xotask,43,1,103,103,training,negativefb,43,average,52,1.099783099999513,['n'],0,left,['0'],1,1.243557900000269,,,,,,,,36,19,Vrouw,Links,2,
,dotcolour,dotcolour,xotask,44,1,104,104,training,negativefb,47,easy,15,3.383281000000352,['n'],1,right,['2'],5,0.20285650000005262,,,,,,,,36,19,Vrouw,Links,2,
,dotcolour,dotcolour,xotask,45,1,105,105,training,negativefb,74,easy,61,1.866618600000038,['c'],1,left,['2'],5,0.2331025999992562,,,,,,,,36,19,Vrouw,Links,2,
,dotcolour,dotcolour,xotask,46,1,106,106,training,negativefb,62,hard,41,1.3511939999998503,['n'],0,left,['3'],4,0.29700119999961316,,,,,,,,36,19,Vrouw,Links,2,
,dotcolour,dotcolour,xotask,47,1,107,107,training,negativefb,25,hard,35,1.6667763000004925,['n'],1,right,['2'],5,0.29900700000052893,,,,,,,,36,19,Vrouw,Links,2,
,dotcolour,dotcolour,xotask,48,1,108,108,training,negativefb,48,average,29,0.9495926999998119,['n'],1,right,['3'],4,0.29740379999930155,,,,,,,,36,19,Vrouw,Links,2,
,dotcolour,dotcolour,xotask,49,1,109,109,training,negativefb,64,average,28,1.0156670999995185,['c'],0,right,['3'],4,0.4780358999996679,,,,,,,,36,19,Vrouw,Links,2,
,dotcolour,dotcolour,xotask,50,1,110,110,training,negativefb,82,hard,45,0.9828065000001516,['c'],1,left,['2'],5,0.25951069999973697,,,,,,,,36,19,Vrouw,Links,2,
,dotcolour,dotcolour,xotask,51,1,111,111,training,negativefb,50,easy,18,1.2841178000007858,['n'],1,right,['2'],5,0.23779610000019602,,,,,,,,36,19,Vrouw,Links,2,
,dotcolour,dotcolour,xotask,52,1,112,112,training,negativefb,68,easy,18,2.3826065000002927,['n'],1,right,['2'],5,0.27725159999954485,,,,,,,,36,19,Vrouw,Links,2,
,dotcolour,dotcolour,xotask,53,1,113,113,training,negativefb,43,average,55,0.7334395000007135,['c'],1,left,['2'],5,0.2776387000003524,,,,,,,,36,19,Vrouw,Links,2,
,dotcolour,dotcolour,xotask,54,1,114,114,training,negativefb,35,easy,61,1.7328771000002234,['c'],1,left,['2'],5,0.2935190000007424,,,,,,,,36,19,Vrouw,Links,2,
,dotcolour,dotcolour,xotask,55,1,115,115,training,negativefb,71,average,54,0.8160166999996363,['c'],1,left,['2'],5,0.30553059999965626,,,,,,,,36,19,Vrouw,Links,2,
,dotcolour,dotcolour,xotask,56,1,116,116,training,negativefb,77,hard,35,0.7835917000002155,['n'],1,right,['3'],4,0.23847220000061498,,,,,,,,36,19,Vrouw,Links,2,
,dotcolour,dotcolour,xotask,57,1,117,117,training,negativefb,87,easy,15,1.1326263000000836,['n'],1,right,['2'],5,0.34409470000082365,,,,,,,,36,19,Vrouw,Links,2,
,dotcolour,dotcolour,xotask,58,1,118,118,training,negativefb,65,hard,41,1.0993748000000778,['n'],0,left,['3'],4,0.28626209999947605,,,,,,,,36,19,Vrouw,Links,2,
,dotcolour,dotcolour,xotask,59,1,119,119,training,negativefb,53,average,52,1.1668635000005452,['c'],1,left,['2'],5,0.34043370000017603,,,,,,,,36,19,Vrouw,Links,2,
,xotask,dotcolour,xotask,0,2,120,120,main,negativefb,-99,average,,1.7678418000004967,['n'],1,right,['2'],5,0.4671547999996619,16,,,,,,,36,19,Vrouw,Links,2,
,xotask,dotcolour,xotask,1,2,121,121,main,negativefb,-99,hard,,1.2678589999995893,['n'],1,right,['2'],5,0.2947469999999157,27,,,,,,,36,19,Vrouw,Links,2,
,xotask,dotcolour,xotask,2,2,122,122,main,negativefb,-99,hard,,0.9845562000000427,['c'],1,left,['2'],5,0.3245308000005025,53,,,,,,,36,19,Vrouw,Links,2,
,xotask,dotcolour,xotask,3,2,123,123,main,negativefb,-99,easy,,0.8674516000000949,['c'],1,left,['2'],5,0.277984600000309,70,,,,,,,36,19,Vrouw,Links,2,
,xotask,dotcolour,xotask,4,2,124,124,main,negativefb,-99,average,,0.6679269999995086,['c'],1,left,['2'],5,0.2969751999999062,64,,,,,,,36,19,Vrouw,Links,2,
,xotask,dotcolour,xotask,5,2,125,125,main,negativefb,-99,hard,,1.3833340000001044,['c'],0,right,['3'],4,0.30256479999934527,28,,,,,,,36,19,Vrouw,Links,2,
,xotask,dotcolour,xotask,6,2,126,126,main,negativefb,-99,easy,,0.934758000000329,['c'],1,left,['2'],5,0.30283159999999043,72,,,,,,,36,19,Vrouw,Links,2,
,xotask,dotcolour,xotask,7,2,127,127,main,negativefb,-99,hard,,1.3676123000004736,['c'],0,right,['3'],4,0.30040659999940544,28,,,,,,,36,19,Vrouw,Links,2,
,xotask,dotcolour,xotask,8,2,128,128,main,negativefb,-99,easy,,0.9178492999999435,['n'],1,right,['2'],5,0.6446754999997211,8,,,,,,,36,19,Vrouw,Links,2,
,xotask,dotcolour,xotask,9,2,129,129,main,negativefb,-99,easy,,1.6183633999999074,['c'],1,left,['3'],4,0.27487899999960064,71,,,,,,,36,19,Vrouw,Links,2,
,xotask,dotcolour,xotask,10,2,130,130,main,negativefb,-99,easy,,0.8505992999998853,['n'],1,right,['3'],4,0.4147613999994064,8,,,,,,,36,19,Vrouw,Links,2,
,xotask,dotcolour,xotask,11,2,131,131,main,negativefb,-99,average,,0.9357882999993308,['n'],1,right,['2'],5,0.4495083000001614,15,,,,,,,36,19,Vrouw,Links,2,
,xotask,dotcolour,xotask,12,2,132,132,main,negativefb,-99,average,,0.6679062000002887,['n'],1,right,['2'],5,0.4058142999992924,19,,,,,,,36,19,Vrouw,Links,2,
,xotask,dotcolour,xotask,13,2,133,133,main,negativefb,-99,hard,,2.6020189999999275,['n'],1,right,['3'],4,0.334982499999569,28,,,,,,,36,19,Vrouw,Links,2,
,xotask,dotcolour,xotask,14,2,134,134,main,negativefb,-99,easy,,0.8011730999996871,['c'],1,left,['2'],5,0.40977380000003905,73,,,,,,,36,19,Vrouw,Links,2,
,xotask,dotcolour,xotask,15,2,135,135,main,negativefb,-99,average,,0.6843329000002996,['c'],1,left,['2'],5,0.3033126000000266,60,,,,,,,36,19,Vrouw,Links,2,
,xotask,dotcolour,xotask,16,2,136,136,main,negativefb,-99,hard,,0.718923000000359,['c'],0,right,['3'],4,0.41573909999988246,26,,,,,,,36,19,Vrouw,Links,2,
,xotask,dotcolour,xotask,17,2,137,137,main,negativefb,-99,easy,,1.1180643999996391,['c'],1,left,['2'],5,0.35442690000036237,74,,,,,,,36,19,Vrouw,Links,2,
,xotask,dotcolour,xotask,18,2,138,138,main,negativefb,-99,hard,,1.867420100000345,['c'],0,right,['3'],4,0.3150980000000345,29,,,,,,,36,19,Vrouw,Links,2,
,xotask,dotcolour,xotask,19,2,139,139,main,negativefb,-99,average,,1.5012096000000383,['n'],1,right,['2'],5,0.7073410000002696,17,,,,,,,36,19,Vrouw,Links,2,
,xotask,dotcolour,xotask,20,2,140,140,main,negativefb,-99,average,,1.0842845000006491,['c'],1,left,['3'],4,0.3395719000000099,63,,,,,,,36,19,Vrouw,Links,2,
,xotask,dotcolour,xotask,21,2,141,141,main,negativefb,-99,average,,0.9505859999999302,['n'],1,right,['2'],5,0.6571591000001717,19,,,,,,,36,19,Vrouw,Links,2,
,xotask,dotcolour,xotask,22,2,142,142,main,negativefb,-99,average,,0.8004685999994763,['n'],1,right,['2'],5,0.3838322999999946,19,,,,,,,36,19,Vrouw,Links,2,
,xotask,dotcolour,xotask,23,2,143,143,main,negativefb,-99,average,,1.0181479000002582,['c'],1,left,['3'],4,0.9286899999997331,63,,,,,,,36,19,Vrouw,Links,2,
,xotask,dotcolour,xotask,24,2,144,144,main,negativefb,-99,hard,,1.1013276000003316,['n'],1,right,['3'],4,0.3682423000000199,28,,,,,,,36,19,Vrouw,Links,2,
,xotask,dotcolour,xotask,25,2,145,145,main,negativefb,-99,average,,1.9503107000000455,['c'],1,left,['2'],5,0.46880400000009104,61,,,,,,,36,19,Vrouw,Links,2,
,xotask,dotcolour,xotask,26,2,146,146,main,negativefb,-99,easy,,1.068094000000201,['n'],1,right,['2'],5,0.6642652999998973,6,,,,,,,36,19,Vrouw,Links,2,
,xotask,dotcolour,xotask,27,2,147,147,main,negativefb,-99,easy,,0.9006154999997307,['n'],0,left,['0'],1,1.4271561999994447,74,,,,,,,36,19,Vrouw,Links,2,
,xotask,dotcolour,xotask,28,2,148,148,main,negativefb,-99,easy,,1.4679352000002837,['n'],1,right,['2'],5,0.3284696000000622,7,,,,,,,36,19,Vrouw,Links,2,
,xotask,dotcolour,xotask,29,2,149,149,main,negativefb,-99,hard,,3.00170049999997,['c'],1,left,['3'],4,0.3645549000002575,51,,,,,,,36,19,Vrouw,Links,2,
,xotask,dotcolour,xotask,30,2,150,150,main,negativefb,-99,average,,1.1844786000001477,['n'],0,left,['2'],5,0.3587717000000339,64,,,,,,,36,19,Vrouw,Links,2,
,xotask,dotcolour,xotask,31,2,151,151,main,negativefb,-99,hard,,1.0344281999996383,['n'],0,left,['0'],1,1.0240794000001188,52,,,,,,,36,19,Vrouw,Links,2,
,xotask,dotcolour,xotask,32,2,152,152,main,negativefb,-99,easy,,1.300873600000159,['n'],1,right,['2'],5,0.3881363999998939,9,,,,,,,36,19,Vrouw,Links,2,
,xotask,dotcolour,xotask,33,2,153,153,main,negativefb,-99,easy,,1.1179022000005716,['c'],1,left,['2'],5,0.26519890000054147,73,,,,,,,36,19,Vrouw,Links,2,
,xotask,dotcolour,xotask,34,2,154,154,main,negativefb,-99,hard,,3.1849370999998428,['c'],1,left,['3'],4,0.3512268000004042,52,,,,,,,36,19,Vrouw,Links,2,
,xotask,dotcolour,xotask,35,2,155,155,main,negativefb,-99,hard,,1.0179389000004448,['n'],1,right,['2'],5,0.25808340000003227,25,,,,,,,36,19,Vrouw,Links,2,
,xotask,dotcolour,xotask,36,2,156,156,main,negativefb,-99,easy,,0.6507634999998118,['n'],1,right,['2'],5,0.25479919999997946,7,,,,,,,36,19,Vrouw,Links,2,
,xotask,dotcolour,xotask,37,2,157,157,main,negativefb,-99,hard,,1.3016946999996435,['c'],1,left,['8'],3,1.0326186000002053,50,,,,,,,36,19,Vrouw,Links,2,
,xotask,dotcolour,xotask,38,2,158,158,main,negativefb,-99,average,,0.9016752999996243,['n'],1,right,['2'],5,0.31594199999926786,18,,,,,,,36,19,Vrouw,Links,2,
,xotask,dotcolour,xotask,39,2,159,159,main,negativefb,-99,easy,,1.0342547999998715,['n'],1,right,['2'],5,1.0232779999996637,6,,,,,,,36,19,Vrouw,Links,2,
,xotask,dotcolour,xotask,40,2,160,160,main,negativefb,-99,average,,0.8347954999999274,['c'],1,left,['3'],4,0.4297413999993296,64,,,,,,,36,19,Vrouw,Links,2,
,xotask,dotcolour,xotask,41,2,161,161,main,negativefb,-99,average,,0.7837535000007847,['n'],1,right,['3'],4,0.30250359999990906,15,,,,,,,36,19,Vrouw,Links,2,
,xotask,dotcolour,xotask,42,2,162,162,main,negativefb,-99,hard,,1.0347400000000562,['n'],0,left,['3'],4,0.2653512999995655,51,,,,,,,36,19,Vrouw,Links,2,
,xotask,dotcolour,xotask,43,2,163,163,main,negativefb,-99,easy,,0.40121999999973923,['c'],0,right,['9'],2,0.999745700000858,6,,,,,,,36,19,Vrouw,Links,2,
,xotask,dotcolour,xotask,44,2,164,164,main,negativefb,-99,easy,,1.6495443000003434,['c'],1,left,['3'],4,0.2544265999995332,74,,,,,,,36,19,Vrouw,Links,2,
,xotask,dotcolour,xotask,45,2,165,165,main,negativefb,-99,average,,0.9017886000001454,['c'],1,left,['2'],5,0.2891645999998218,64,,,,,,,36,19,Vrouw,Links,2,
,xotask,dotcolour,xotask,46,2,166,166,main,negativefb,-99,easy,,0.634948699999768,['c'],1,left,['2'],5,0.3249412000004668,71,,,,,,,36,19,Vrouw,Links,2,
,xotask,dotcolour,xotask,47,2,167,167,main,negativefb,-99,hard,,0.6842158999997991,['c'],1,left,['2'],5,0.30183990000023186,53,,,,,,,36,19,Vrouw,Links,2,
,xotask,dotcolour,xotask,48,2,168,168,main,negativefb,-99,hard,,0.9342457000002469,['c'],0,right,['2'],5,0.46076689999972587,25,,,,,,,36,19,Vrouw,Links,2,
,xotask,dotcolour,xotask,49,2,169,169,main,negativefb,-99,average,,1.1848724999999831,['n'],1,right,['2'],5,0.32494709999991755,17,,,,,,,36,19,Vrouw,Links,2,
,xotask,dotcolour,xotask,50,2,170,170,main,negativefb,-99,average,,0.8517833999994764,['n'],1,right,['2'],5,0.2626118999996834,19,,,,,,,36,19,Vrouw,Links,2,
,xotask,dotcolour,xotask,51,2,171,171,main,negativefb,-99,hard,,0.9838864000003014,['c'],1,left,['3'],4,0.8138382000006459,53,,,,,,,36,19,Vrouw,Links,2,
,xotask,dotcolour,xotask,52,2,172,172,main,negativefb,-99,easy,,3.018062099999952,['c'],1,left,['2'],5,0.47801590000017313,74,,,,,,,36,19,Vrouw,Links,2,
,xotask,dotcolour,xotask,53,2,173,173,main,negativefb,-99,average,,0.984110999999757,['c'],1,left,['2'],5,0.34040079999977024,64,,,,,,,36,19,Vrouw,Links,2,
,xotask,dotcolour,xotask,54,2,174,174,main,negativefb,-99,easy,,1.6836336999995183,['c'],0,right,['2'],5,0.30903370000032737,8,,,,,,,36,19,Vrouw,Links,2,
,xotask,dotcolour,xotask,55,2,175,175,main,negativefb,-99,average,,1.401390099999844,['c'],1,left,['2'],5,0.40915599999971164,62,,,,,,,36,19,Vrouw,Links,2,
,xotask,dotcolour,xotask,56,2,176,176,main,negativefb,-99,hard,,1.46753230000013,['c'],1,left,['2'],5,0.2873811999997997,52,,,,,,,36,19,Vrouw,Links,2,
,xotask,dotcolour,xotask,57,2,177,177,main,negativefb,-99,hard,,1.1670007000002443,['c'],1,left,['3'],4,0.302113200000349,52,,,,,,,36,19,Vrouw,Links,2,
,xotask,dotcolour,xotask,58,2,178,178,main,negativefb,-99,hard,,0.967208799999753,['c'],0,right,['3'],4,0.35574590000032913,26,,,,,,,36,19,Vrouw,Links,2,
,xotask,dotcolour,xotask,59,2,179,179,main,negativefb,-99,easy,,0.9002125999995769,['n'],1,right,['2'],5,0.3305181999994602,5,,,,,,,36,19,Vrouw,Links,2,
,xotask,dotcolour,xotask,0,3,180,180,main,negativefb,-99,hard,,1.6346358000000691,['n'],0,left,['3'],4,0.2891831999995702,53,,,,,,,36,19,Vrouw,Links,2,
,xotask,dotcolour,xotask,1,3,181,181,main,negativefb,-99,easy,,0.6512318000004598,['c'],1,left,['2'],5,0.37249940000037896,73,,,,,,,36,19,Vrouw,Links,2,
,xotask,dotcolour,xotask,2,3,182,182,main,negativefb,-99,hard,,0.884355900000628,['n'],1,right,['3'],4,0.35504130000026635,28,,,,,,,36,19,Vrouw,Links,2,
,xotask,dotcolour,xotask,3,3,183,183,main,negativefb,-99,hard,,0.617909999999938,['n'],1,right,['3'],4,0.3089582000002338,26,,,,,,,36,19,Vrouw,Links,2,
,xotask,dotcolour,xotask,4,3,184,184,main,negativefb,-99,easy,,0.5507758000003378,['n'],1,right,['2'],5,0.3718713000007483,8,,,,,,,36,19,Vrouw,Links,2,
,xotask,dotcolour,xotask,5,3,185,185,main,negativefb,-99,average,,0.6169837000006737,['n'],0,left,['8'],3,0.9887834000001021,61,,,,,,,36,19,Vrouw,Links,2,
,xotask,dotcolour,xotask,6,3,186,186,main,negativefb,-99,easy,,1.2341581000000588,['n'],1,right,['2'],5,0.27698720000080357,6,,,,,,,36,19,Vrouw,Links,2,
,xotask,dotcolour,xotask,7,3,187,187,main,negativefb,-99,hard,,0.634576599999491,['c'],1,left,['3'],4,0.4250725000001694,50,,,,,,,36,19,Vrouw,Links,2,
,xotask,dotcolour,xotask,8,3,188,188,main,negativefb,-99,easy,,1.0509121999994022,['c'],1,left,['3'],4,0.5591146999995544,74,,,,,,,36,19,Vrouw,Links,2,
,xotask,dotcolour,xotask,9,3,189,189,main,negativefb,-99,easy,,0.7508951999998317,['c'],1,left,['2'],5,0.5002751000001808,73,,,,,,,36,19,Vrouw,Links,2,
,xotask,dotcolour,xotask,10,3,190,190,main,negativefb,-99,hard,,0.8845707999998922,['c'],1,left,['3'],4,0.3258722000000489,50,,,,,,,36,19,Vrouw,Links,2,
,xotask,dotcolour,xotask,11,3,191,191,main,negativefb,-99,average,,0.6681940999997096,['c'],1,left,['3'],4,0.41494389999934356,61,,,,,,,36,19,Vrouw,Links,2,
,xotask,dotcolour,xotask,12,3,192,192,main,negativefb,-99,hard,,1.0006642999996984,['c'],1,left,['2'],5,0.28688940000029106,51,,,,,,,36,19,Vrouw,Links,2,
,xotask,dotcolour,xotask,13,3,193,193,main,negativefb,-99,average,,0.6341886999998678,['c'],1,left,['2'],5,0.28300039999976434,61,,,,,,,36,19,Vrouw,Links,2,
,xotask,dotcolour,xotask,14,3,194,194,main,negativefb,-99,easy,,0.8675196999993204,['n'],1,right,['2'],5,0.30181480000010197,7,,,,,,,36,19,Vrouw,Links,2,
,xotask,dotcolour,xotask,15,3,195,195,main,negativefb,-99,easy,,0.9684007999994719,['n'],0,left,['0'],1,1.219639300000381,74,,,,,,,36,19,Vrouw,Links,2,
,xotask,dotcolour,xotask,16,3,196,196,main,negativefb,-99,hard,,1.3675335999996605,['c'],1,left,['3'],4,0.3651512000005823,50,,,,,,,36,19,Vrouw,Links,2,
,xotask,dotcolour,xotask,17,3,197,197,main,negativefb,-99,average,,1.0349696999992375,['c'],0,right,['3'],4,0.26165300000047864,16,,,,,,,36,19,Vrouw,Links,2,
,xotask,dotcolour,xotask,18,3,198,198,main,negativefb,-99,easy,,0.9015096000002814,['n'],1,right,['2'],5,0.3688764999997147,6,,,,,,,36,19,Vrouw,Links,2,
,xotask,dotcolour,xotask,19,3,199,199,main,negativefb,-99,average,,0.9842667000002621,['c'],1,left,['3'],4,0.31516479999936564,63,,,,,,,36,19,Vrouw,Links,2,
,xotask,dotcolour,xotask,20,3,200,200,main,negativefb,-99,average,,1.717185999999856,['n'],1,right,['3'],4,0.2587525999997524,15,,,,,,,36,19,Vrouw,Links,2,
,xotask,dotcolour,xotask,21,3,201,201,main,negativefb,-99,hard,,0.8518689000002269,['c'],1,left,['3'],4,0.28716960000019753,54,,,,,,,36,19,Vrouw,Links,2,
,xotask,dotcolour,xotask,22,3,202,202,main,negativefb,-99,average,,1.5337493999995786,['n'],1,right,['3'],4,0.21541930000057619,15,,,,,,,36,19,Vrouw,Links,2,
,xotask,dotcolour,xotask,23,3,203,203,main,negativefb,-99,average,,0.7172065000004295,['c'],1,left,['2'],5,0.2908521999997902,63,,,,,,,36,19,Vrouw,Links,2,
,xotask,dotcolour,xotask,24,3,204,204,main,negativefb,-99,easy,,0.8014930999997887,['n'],1,right,['3'],4,0.2556563999996797,6,,,,,,,36,19,Vrouw,Links,2,
,xotask,dotcolour,xotask,25,3,205,205,main,negativefb,-99,average,,0.8503137000006973,['n'],1,right,['3'],4,0.3406390999998621,16,,,,,,,36,19,Vrouw,Links,2,
,xotask,dotcolour,xotask,26,3,206,206,main,negativefb,-99,easy,,0.6511798000001363,['n'],1,right,['3'],4,0.2779771999994409,5,,,,,,,36,19,Vrouw,Links,2,
,xotask,dotcolour,xotask,27,3,207,207,main,negativefb,-99,easy,,0.5843073999994886,['c'],1,left,['2'],5,0.2681998999996722,73,,,,,,,36,19,Vrouw,Links,2,
,xotask,dotcolour,xotask,28,3,208,208,main,negativefb,-99,average,,0.6351271999992605,['c'],1,left,['2'],5,0.2895693999998912,63,,,,,,,36,19,Vrouw,Links,2,
,xotask,dotcolour,xotask,29,3,209,209,main,negativefb,-99,easy,,0.8843182999999044,['n'],1,right,['2'],5,0.31531900000027235,6,,,,,,,36,19,Vrouw,Links,2,
,xotask,dotcolour,xotask,30,3,210,210,main,negativefb,-99,average,,0.7009396000003107,['n'],1,right,['2'],5,0.25964180000028136,17,,,,,,,36,19,Vrouw,Links,2,
,xotask,dotcolour,xotask,31,3,211,211,main,negativefb,-99,hard,,0.7848253000001932,['n'],1,right,['2'],5,0.23478380000051402,27,,,,,,,36,19,Vrouw,Links,2,
,xotask,dotcolour,xotask,32,3,212,212,main,negativefb,-99,average,,0.8677393999996639,['c'],1,left,['2'],5,0.31087939999997616,62,,,,,,,36,19,Vrouw,Links,2,
,xotask,dotcolour,xotask,33,3,213,213,main,negativefb,-99,hard,,0.9999556000002485,['n'],1,right,['3'],4,0.5394230000001698,27,,,,,,,36,19,Vrouw,Links,2,
,xotask,dotcolour,xotask,34,3,214,214,main,negativefb,-99,easy,,0.6509684999991805,['c'],1,left,['2'],5,0.26926730000013777,74,,,,,,,36,19,Vrouw,Links,2,
,xotask,dotcolour,xotask,35,3,215,215,main,negativefb,-99,hard,,1.0174407000004067,['n'],1,right,['2'],5,0.22730200000023615,26,,,,,,,36,19,Vrouw,Links,2,
,xotask,dotcolour,xotask,36,3,216,216,main,negativefb,-99,hard,,1.0837025000000722,['c'],1,left,['2'],5,0.2393591000000015,51,,,,,,,36,19,Vrouw,Links,2,
,xotask,dotcolour,xotask,37,3,217,217,main,negativefb,-99,hard,,0.9349935000000187,['n'],1,right,['2'],5,0.24947659999997995,25,,,,,,,36,19,Vrouw,Links,2,
,xotask,dotcolour,xotask,38,3,218,218,main,negativefb,-99,easy,,0.7509384000004502,['n'],1,right,['2'],5,0.31388109999988956,8,,,,,,,36,19,Vrouw,Links,2,
,xotask,dotcolour,xotask,39,3,219,219,main,negativefb,-99,hard,,1.0842213999994783,['n'],1,right,['3'],4,0.23538360000020475,26,,,,,,,36,19,Vrouw,Links,2,
,xotask,dotcolour,xotask,40,3,220,220,main,negativefb,-99,average,,0.5508969000002253,['c'],1,left,['2'],5,0.5002290000002176,64,,,,,,,36,19,Vrouw,Links,2,
,xotask,dotcolour,xotask,41,3,221,221,main,negativefb,-99,hard,,1.018149700000322,['c'],1,left,['3'],4,0.20832049999989977,53,,,,,,,36,19,Vrouw,Links,2,
,xotask,dotcolour,xotask,42,3,222,222,main,negativefb,-99,easy,,0.9850472999996782,['n'],1,right,['3'],4,0.21824280000055296,9,,,,,,,36,19,Vrouw,Links,2,
,xotask,dotcolour,xotask,43,3,223,223,main,negativefb,-99,hard,,0.9675145000001066,['n'],1,right,['3'],4,0.299442800000179,28,,,,,,,36,19,Vrouw,Links,2,
,xotask,dotcolour,xotask,44,3,224,224,main,negativefb,-99,easy,,0.7850523999995858,['c'],1,left,['3'],4,0.2330660000006901,70,,,,,,,36,19,Vrouw,Links,2,
,xotask,dotcolour,xotask,45,3,225,225,main,negativefb,-99,average,,0.8340733000004548,['n'],1,right,['3'],4,0.18279180000081396,18,,,,,,,36,19,Vrouw,Links,2,
,xotask,dotcolour,xotask,46,3,226,226,main,negativefb,-99,average,,0.683570499999405,['c'],1,left,['3'],4,0.21220309999989695,63,,,,,,,36,19,Vrouw,Links,2,
,xotask,dotcolour,xotask,47,3,227,227,main,negativefb,-99,hard,,0.9502826999996614,['n'],1,right,['3'],4,0.24763510000047972,25,,,,,,,36,19,Vrouw,Links,2,
,xotask,dotcolour,xotask,48,3,228,228,main,negativefb,-99,average,,0.45139390000076673,['c'],1,left,['3'],4,0.30839279999963765,64,,,,,,,36,19,Vrouw,Links,2,
,xotask,dotcolour,xotask,49,3,229,229,main,negativefb,-99,easy,,0.8344735000000583,['n'],1,right,['2'],5,0.23227829999996175,8,,,,,,,36,19,Vrouw,Links,2,
,xotask,dotcolour,xotask,50,3,230,230,main,negativefb,-99,hard,,0.6678265999998985,['c'],1,left,['3'],4,0.26948689999971975,53,,,,,,,36,19,Vrouw,Links,2,
,xotask,dotcolour,xotask,51,3,231,231,main,negativefb,-99,hard,,0.7513807000004817,['n'],1,right,['2'],5,0.3725475999999617,27,,,,,,,36,19,Vrouw,Links,2,
,xotask,dotcolour,xotask,52,3,232,232,main,negativefb,-99,average,,0.8508133999994243,['n'],1,right,['3'],4,0.2606584000004659,18,,,,,,,36,19,Vrouw,Links,2,
,xotask,dotcolour,xotask,53,3,233,233,main,negativefb,-99,average,,1.085412699999324,['n'],1,right,['3'],4,0.21622200000001612,17,,,,,,,36,19,Vrouw,Links,2,
,xotask,dotcolour,xotask,54,3,234,234,main,negativefb,-99,average,,0.7512402000002112,['n'],1,right,['3'],4,0.2021097999995618,17,,,,,,,36,19,Vrouw,Links,2,
,xotask,dotcolour,xotask,55,3,235,235,main,negativefb,-99,easy,,0.6349920000002385,['c'],1,left,['3'],4,0.1850948999999673,73,,,,,,,36,19,Vrouw,Links,2,
,xotask,dotcolour,xotask,56,3,236,236,main,negativefb,-99,easy,,0.8182392999997319,['c'],1,left,['3'],4,0.730098399999406,71,,,,,,,36,19,Vrouw,Links,2,
,xotask,dotcolour,xotask,57,3,237,237,main,negativefb,-99,hard,,0.7179137999992236,['c'],1,left,['3'],4,0.26510940000025585,51,,,,,,,36,19,Vrouw,Links,2,
,xotask,dotcolour,xotask,58,3,238,238,main,negativefb,-99,easy,,0.7506702000000587,['c'],1,left,['3'],4,0.2335464999996475,72,,,,,,,36,19,Vrouw,Links,2,
,xotask,dotcolour,xotask,59,3,239,239,main,negativefb,-99,average,,1.816987700000027,['c'],0,right,['3'],4,0.8882522000003519,17,,,,,,,36,19,Vrouw,Links,2,
,xotask,dotcolour,xotask,0,4,240,240,main,negativefb,-99,easy,,1.5998706000000311,['n'],1,right,['3'],4,0.19860410000001139,6,,,,,,,36,19,Vrouw,Links,2,
,xotask,dotcolour,xotask,1,4,241,241,main,negativefb,-99,hard,,0.6672883999999613,['n'],1,right,['3'],4,0.3091852999996263,26,,,,,,,36,19,Vrouw,Links,2,
,xotask,dotcolour,xotask,2,4,242,242,main,negativefb,-99,hard,,0.7507789000001139,['c'],0,right,['3'],4,0.2597836999993888,26,,,,,,,36,19,Vrouw,Links,2,
,xotask,dotcolour,xotask,3,4,243,243,main,negativefb,-99,average,,0.8181512000001021,['c'],1,left,['3'],4,0.24171750000004977,61,,,,,,,36,19,Vrouw,Links,2,
,xotask,dotcolour,xotask,4,4,244,244,main,negativefb,-99,average,,0.6674734000007447,['n'],1,right,['3'],4,0.21411260000058974,18,,,,,,,36,19,Vrouw,Links,2,
,xotask,dotcolour,xotask,5,4,245,245,main,negativefb,-99,average,,0.7014939999999115,['n'],1,right,['3'],4,0.1620824999999968,18,,,,,,,36,19,Vrouw,Links,2,
,xotask,dotcolour,xotask,6,4,246,246,main,negativefb,-99,hard,,0.7002382999999099,['c'],1,left,['3'],4,0.20936150000034104,53,,,,,,,36,19,Vrouw,Links,2,
,xotask,dotcolour,xotask,7,4,247,247,main,negativefb,-99,hard,,0.9168138000004546,['n'],1,right,['3'],4,0.22941230000014912,25,,,,,,,36,19,Vrouw,Links,2,
,xotask,dotcolour,xotask,8,4,248,248,main,negativefb,-99,easy,,1.301132300000063,['c'],1,left,['3'],4,0.5131345999998302,71,,,,,,,36,19,Vrouw,Links,2,
,xotask,dotcolour,xotask,9,4,249,249,main,negativefb,-99,easy,,2.1856049999996685,['n'],1,right,['3'],4,0.3906976999996914,9,,,,,,,36,19,Vrouw,Links,2,
,xotask,dotcolour,xotask,10,4,250,250,main,negativefb,-99,hard,,0.9998702000002595,['c'],1,left,['3'],4,0.31148229999962496,54,,,,,,,36,19,Vrouw,Links,2,
,xotask,dotcolour,xotask,11,4,251,251,main,negativefb,-99,average,,0.6337963000005402,['n'],1,right,['3'],4,0.3151212000002488,15,,,,,,,36,19,Vrouw,Links,2,
,xotask,dotcolour,xotask,12,4,252,252,main,negativefb,-99,average,,0.867207000000235,['c'],1,left,['3'],4,0.26016119999985676,60,,,,,,,36,19,Vrouw,Links,2,
,xotask,dotcolour,xotask,13,4,253,253,main,negativefb,-99,average,,0.41762930000004417,['n'],1,right,['3'],4,0.37019020000025193,15,,,,,,,36,19,Vrouw,Links,2,
,xotask,dotcolour,xotask,14,4,254,254,main,negativefb,-99,easy,,0.6022118999999293,['c'],1,left,['2'],5,0.2924286999996184,70,,,,,,,36,19,Vrouw,Links,2,
,xotask,dotcolour,xotask,15,4,255,255,main,negativefb,-99,easy,,0.6502112999996825,['c'],0,right,['3'],4,0.3596159999997326,6,,,,,,,36,19,Vrouw,Links,2,
,xotask,dotcolour,xotask,16,4,256,256,main,negativefb,-99,easy,,0.5516450000004625,['n'],1,right,['3'],4,0.2689740999994683,8,,,,,,,36,19,Vrouw,Links,2,
,xotask,dotcolour,xotask,17,4,257,257,main,negativefb,-99,easy,,0.45136730000012903,['n'],1,right,['3'],4,0.19223169999986567,5,,,,,,,36,19,Vrouw,Links,2,
,xotask,dotcolour,xotask,18,4,258,258,main,negativefb,-99,hard,,0.7503028000000995,['n'],1,right,['3'],4,0.2281671999999162,27,,,,,,,36,19,Vrouw,Links,2,
,xotask,dotcolour,xotask,19,4,259,259,main,negativefb,-99,hard,,0.7178128000005017,['n'],1,right,['3'],4,0.2230120000003808,26,,,,,,,36,19,Vrouw,Links,2,
,xotask,dotcolour,xotask,20,4,260,260,main,negativefb,-99,average,,0.7344358999998803,['c'],1,left,['3'],4,0.2653854999998657,61,,,,,,,36,19,Vrouw,Links,2,
,xotask,dotcolour,xotask,21,4,261,261,main,negativefb,-99,easy,,0.6849170999994385,['n'],1,right,['2'],5,0.284324000000197,7,,,,,,,36,19,Vrouw,Links,2,
,xotask,dotcolour,xotask,22,4,262,262,main,negativefb,-99,easy,,0.9345671999999468,['n'],0,left,['0'],1,1.3087886000002982,74,,,,,,,36,19,Vrouw,Links,2,
,xotask,dotcolour,xotask,23,4,263,263,main,negativefb,-99,hard,,0.8009881999996651,['c'],1,left,['2'],5,0.1371982000000571,50,,,,,,,36,19,Vrouw,Links,2,
,xotask,dotcolour,xotask,24,4,264,264,main,negativefb,-99,average,,1.5839333000003535,['n'],1,right,['3'],4,0.1253324999997858,17,,,,,,,36,19,Vrouw,Links,2,
,xotask,dotcolour,xotask,25,4,265,265,main,negativefb,-99,hard,,0.8334915999994337,['c'],1,left,['2'],5,0.15956759999971837,53,,,,,,,36,19,Vrouw,Links,2,
,xotask,dotcolour,xotask,26,4,266,266,main,negativefb,-99,easy,,0.7837362999998732,['c'],1,left,['2'],5,0.22731329999987793,70,,,,,,,36,19,Vrouw,Links,2,
,xotask,dotcolour,xotask,27,4,267,267,main,negativefb,-99,hard,,0.8846417000004294,['n'],1,right,['3'],4,0.2875230999998166,27,,,,,,,36,19,Vrouw,Links,2,
,xotask,dotcolour,xotask,28,4,268,268,main,negativefb,-99,easy,,0.7678137000002607,['n'],1,right,['2'],5,0.2064916000008452,5,,,,,,,36,19,Vrouw,Links,2,
,xotask,dotcolour,xotask,29,4,269,269,main,negativefb,-99,easy,,0.6505782999993244,['c'],1,left,['2'],5,0.22174139999970066,73,,,,,,,36,19,Vrouw,Links,2,
,xotask,dotcolour,xotask,30,4,270,270,main,negativefb,-99,easy,,0.6507293000004211,['n'],1,right,['2'],5,0.2356736000001547,7,,,,,,,36,19,Vrouw,Links,2,
,xotask,dotcolour,xotask,31,4,271,271,main,negativefb,-99,hard,,0.8516492000007929,['c'],1,left,['2'],5,0.20110509999994974,52,,,,,,,36,19,Vrouw,Links,2,
,xotask,dotcolour,xotask,32,4,272,272,main,negativefb,-99,average,,0.6504728999998406,['n'],1,right,['2'],5,0.2396534999998039,16,,,,,,,36,19,Vrouw,Links,2,
,xotask,dotcolour,xotask,33,4,273,273,main,negativefb,-99,hard,,0.7011259999999311,['n'],0,left,['2'],5,0.21919380000053934,53,,,,,,,36,19,Vrouw,Links,2,
,xotask,dotcolour,xotask,34,4,274,274,main,negativefb,-99,average,,0.7004297999992559,['n'],0,left,['2'],5,0.15899030000036873,60,,,,,,,36,19,Vrouw,Links,2,
,xotask,dotcolour,xotask,35,4,275,275,main,negativefb,-99,average,,0.6507600999993883,['n'],0,left,['2'],5,0.34352510000007896,64,,,,,,,36,19,Vrouw,Links,2,
,xotask,dotcolour,xotask,36,4,276,276,main,negativefb,-99,easy,,3.93423680000069,['c'],1,left,['3'],4,0.558024199999636,72,,,,,,,36,19,Vrouw,Links,2,
,xotask,dotcolour,xotask,37,4,277,277,main,negativefb,-99,average,,0.6845516000003045,['c'],1,left,['3'],4,0.3328345999998419,62,,,,,,,36,19,Vrouw,Links,2,
,xotask,dotcolour,xotask,38,4,278,278,main,negativefb,-99,hard,,0.8843913999999131,['c'],0,right,['3'],4,0.23725330000070244,29,,,,,,,36,19,Vrouw,Links,2,
,xotask,dotcolour,xotask,39,4,279,279,main,negativefb,-99,hard,,0.5013381999997364,['c'],1,left,['3'],4,0.24856249999993452,53,,,,,,,36,19,Vrouw,Links,2,
,xotask,dotcolour,xotask,40,4,280,280,main,negativefb,-99,hard,,0.6349324000002525,['c'],1,left,['3'],4,0.19757750000007945,51,,,,,,,36,19,Vrouw,Links,2,
,xotask,dotcolour,xotask,41,4,281,281,main,negativefb,-99,average,,0.36734920000071725,['c'],0,right,['3'],4,0.1914876999999251,15,,,,,,,36,19,Vrouw,Links,2,
,xotask,dotcolour,xotask,42,4,282,282,main,negativefb,-99,easy,,0.3505228000003626,['n'],0,left,['0'],1,0.9551792000002024,72,,,,,,,36,19,Vrouw,Links,2,
,xotask,dotcolour,xotask,43,4,283,283,main,negativefb,-99,hard,,0.7004182000000583,['c'],1,left,['3'],4,0.16953169999942475,51,,,,,,,36,19,Vrouw,Links,2,
,xotask,dotcolour,xotask,44,4,284,284,main,negativefb,-99,average,,0.5176820999995471,['c'],1,left,['3'],4,0.31822919999922306,60,,,,,,,36,19,Vrouw,Links,2,
,xotask,dotcolour,xotask,45,4,285,285,main,negativefb,-99,easy,,0.43352890000005573,['c'],1,left,['3'],4,0.23394610000013927,73,,,,,,,36,19,Vrouw,Links,2,
,xotask,dotcolour,xotask,46,4,286,286,main,negativefb,-99,average,,0.38379280000026483,['c'],1,left,['3'],4,0.6493390000005093,61,,,,,,,36,19,Vrouw,Links,2,
,xotask,dotcolour,xotask,47,4,287,287,main,negativefb,-99,average,,0.4676558000001023,['c'],0,right,['3'],4,0.23711920000005193,19,,,,,,,36,19,Vrouw,Links,2,
,xotask,dotcolour,xotask,48,4,288,288,main,negativefb,-99,average,,0.7677111000002697,['c'],1,left,['3'],4,0.18299260000003414,60,,,,,,,36,19,Vrouw,Links,2,
,xotask,dotcolour,xotask,49,4,289,289,main,negativefb,-99,hard,,0.7517352000004394,['c'],1,left,['3'],4,1.7216124999995372,50,,,,,,,36,19,Vrouw,Links,2,
,xotask,dotcolour,xotask,50,4,290,290,main,negativefb,-99,easy,,0.6013876999995773,['c'],1,left,['3'],4,0.1895303999999669,72,,,,,,,36,19,Vrouw,Links,2,
,xotask,dotcolour,xotask,51,4,291,291,main,negativefb,-99,average,,0.7008650999996462,['c'],1,left,['2'],5,0.19476990000021033,62,,,,,,,36,19,Vrouw,Links,2,
,xotask,dotcolour,xotask,52,4,292,292,main,negativefb,-99,hard,,0.5995547999991686,['c'],0,right,['3'],4,0.3090858000005028,29,,,,,,,36,19,Vrouw,Links,2,
,xotask,dotcolour,xotask,53,4,293,293,main,negativefb,-99,average,,0.9850897000005716,['c'],0,right,['3'],4,0.4022414999999455,15,,,,,,,36,19,Vrouw,Links,2,
,xotask,dotcolour,xotask,54,4,294,294,main,negativefb,-99,easy,,0.6342995999993946,['n'],1,right,['2'],5,0.2655162000000928,9,,,,,,,36,19,Vrouw,Links,2,
,xotask,dotcolour,xotask,55,4,295,295,main,negativefb,-99,hard,,0.7522924000004423,['n'],1,right,['2'],5,0.22523510000064562,25,,,,,,,36,19,Vrouw,Links,2,
,xotask,dotcolour,xotask,56,4,296,296,main,negativefb,-99,easy,,0.5846293000004152,['n'],1,right,['3'],4,0.3305356999999276,6,,,,,,,36,19,Vrouw,Links,2,
,xotask,dotcolour,xotask,57,4,297,297,main,negativefb,-99,hard,,0.5505321999999069,['n'],1,right,['2'],5,0.31981459999951767,26,,,,,,,36,19,Vrouw,Links,2,
,xotask,dotcolour,xotask,58,4,298,298,main,negativefb,-99,average,,0.46797049999986484,['n'],1,right,['3'],4,0.36885590000019874,19,,,,,,,36,19,Vrouw,Links,2,
,xotask,dotcolour,xotask,59,4,299,299,main,negativefb,-99,easy,,0.8330088999991858,['c'],1,left,['2'],5,0.29723120000016934,71,,,,,,,36,19,Vrouw,Links,2,
,dotcolour,dotcolour,xotask,0,0,0,300,training,negativefb,37,hard,35,1.451649899999211,['n'],1,right,['3'],4,0.24108969999997498,,,,,,,,36,19,Vrouw,Links,2,
,dotcolour,dotcolour,xotask,1,0,1,301,training,negativefb,75,easy,19,0.6335364999995363,['n'],1,right,['2'],5,0.24650999999994383,,,,,,,,36,19,Vrouw,Links,2,
,dotcolour,dotcolour,xotask,2,0,2,302,training,negativefb,66,easy,63,0.917273799999748,['c'],1,left,['3'],4,0.2650585000001229,,,,,,,,36,19,Vrouw,Links,2,
,dotcolour,dotcolour,xotask,3,0,3,303,training,negativefb,53,hard,45,2.183689200000117,['c'],1,left,['2'],5,0.3272177999997439,,,,,,,,36,19,Vrouw,Links,2,
,dotcolour,dotcolour,xotask,4,0,4,304,training,negativefb,74,hard,36,1.1662954000003083,['n'],1,right,['2'],5,0.29150769999978365,,,,,,,,36,19,Vrouw,Links,2,
,dotcolour,dotcolour,xotask,5,0,5,305,training,negativefb,44,hard,37,1.5323786000008113,['c'],0,right,['3'],4,0.3547459000001254,,,,,,,,36,19,Vrouw,Links,2,
,dotcolour,dotcolour,xotask,6,0,6,306,training,negativefb,78,easy,62,1.134154999999737,['c'],1,left,['3'],4,0.254986299999473,,,,,,,,36,19,Vrouw,Links,2,
,dotcolour,dotcolour,xotask,7,0,7,307,training,negativefb,67,easy,19,1.2668211000000156,['n'],1,right,['2'],5,0.21040069999980915,,,,,,,,36,19,Vrouw,Links,2,
,dotcolour,dotcolour,xotask,8,0,8,308,training,negativefb,61,hard,43,1.316208899999765,['n'],0,left,['3'],4,0.2218018999992637,,,,,,,,36,19,Vrouw,Links,2,
,dotcolour,dotcolour,xotask,9,0,9,309,training,negativefb,79,easy,15,0.9830292999995436,['n'],1,right,['2'],5,0.5425005999995847,,,,,,,,36,19,Vrouw,Links,2,
,dotcolour,dotcolour,xotask,10,0,10,310,training,negativefb,53,easy,18,0.5673564999997325,['n'],1,right,['2'],5,0.18617530000028637,,,,,,,,36,19,Vrouw,Links,2,
,dotcolour,dotcolour,xotask,11,0,11,311,training,negativefb,29,hard,41,0.767533000000185,['c'],1,left,['3'],4,0.37230859999999666,,,,,,,,36,19,Vrouw,Links,2,
,dotcolour,dotcolour,xotask,12,0,12,312,training,negativefb,53,easy,16,0.3990073000004486,['n'],1,right,['2'],5,0.1974301000000196,,,,,,,,36,19,Vrouw,Links,2,
,dotcolour,dotcolour,xotask,13,0,13,313,training,negativefb,22,hard,44,0.4498905999998897,['c'],1,left,['3'],4,0.2994952999997622,,,,,,,,36,19,Vrouw,Links,2,
,dotcolour,dotcolour,xotask,14,0,14,314,training,negativefb,65,average,27,0.5500309000008201,['n'],1,right,['2'],5,0.21759450000081415,,,,,,,,36,19,Vrouw,Links,2,
,dotcolour,dotcolour,xotask,15,0,15,315,training,negativefb,9,average,52,0.7664920999995957,['n'],0,left,['8'],3,0.6899312000005011,,,,,,,,36,19,Vrouw,Links,2,
,dotcolour,dotcolour,xotask,16,0,16,316,training,negativefb,28,hard,44,0.8513774000002741,['n'],0,left,['3'],4,1.2051222000000053,,,,,,,,36,19,Vrouw,Links,2,
,dotcolour,dotcolour,xotask,17,0,17,317,training,negativefb,88,easy,64,1.2672570999993695,['c'],1,left,['2'],5,0.3140834999994695,,,,,,,,36,19,Vrouw,Links,2,
,dotcolour,dotcolour,xotask,18,0,18,318,training,negativefb,50,easy,62,0.5669354000001476,['c'],1,left,['1'],6,0.28676759999962087,,,,,,,,36,19,Vrouw,Links,2,
,dotcolour,dotcolour,xotask,19,0,19,319,training,negativefb,93,average,52,0.5837312999992719,['c'],1,left,['2'],5,0.4124154000000999,,,,,,,,36,19,Vrouw,Links,2,
,dotcolour,dotcolour,xotask,20,0,20,320,training,negativefb,87,easy,19,1.1501028999991831,['n'],1,right,['2'],5,0.3022381000000678,,,,,,,,36,19,Vrouw,Links,2,
,dotcolour,dotcolour,xotask,21,0,21,321,training,negativefb,73,hard,37,1.5836257999999361,['n'],1,right,['3'],4,0.3547623000004023,,,,,,,,36,19,Vrouw,Links,2,
,dotcolour,dotcolour,xotask,22,0,22,322,training,negativefb,80,average,27,0.6986055999996097,['n'],1,right,['3'],4,0.27313890000004903,,,,,,,,36,19,Vrouw,Links,2,
,dotcolour,dotcolour,xotask,23,0,23,323,training,negativefb,88,average,52,1.0998922999997376,['c'],1,left,['2'],5,0.31437219999952504,,,,,,,,36,19,Vrouw,Links,2,
,dotcolour,dotcolour,xotask,24,0,24,324,training,negativefb,38,average,26,0.783255199999985,['c'],0,right,['0'],1,1.2701207999998587,,,,,,,,36,19,Vrouw,Links,2,
,dotcolour,dotcolour,xotask,25,0,25,325,training,negativefb,71,easy,64,0.9495985000003202,['c'],1,left,['2'],5,0.35046299999976327,,,,,,,,36,19,Vrouw,Links,2,
,dotcolour,dotcolour,xotask,26,0,26,326,training,negativefb,66,easy,62,0.6669220999992831,['c'],1,left,['2'],5,0.26140080000004673,,,,,,,,36,19,Vrouw,Links,2,
,dotcolour,dotcolour,xotask,27,0,27,327,training,negativefb,68,average,51,0.6835848999999143,['c'],1,left,['3'],4,0.29597199999989243,,,,,,,,36,19,Vrouw,Links,2,
,dotcolour,dotcolour,xotask,28,0,28,328,training,negativefb,53,average,53,0.8159630000000107,['c'],1,left,['2'],5,0.28416419999939535,,,,,,,,36,19,Vrouw,Links,2,
,dotcolour,dotcolour,xotask,29,0,29,329,training,negativefb,67,average,25,1.1164305999991484,['n'],1,right,['2'],5,0.36417749999964144,,,,,,,,36,19,Vrouw,Links,2,
,dotcolour,dotcolour,xotask,30,0,30,330,training,negativefb,50,hard,42,1.2346212000002197,['c'],1,left,['2'],5,0.2606889999997293,,,,,,,,36,19,Vrouw,Links,2,
,dotcolour,dotcolour,xotask,31,0,31,331,training,negativefb,22,average,54,1.0169373999997333,['n'],0,left,['2'],5,0.217519099999663,,,,,,,,36,19,Vrouw,Links,2,
,dotcolour,dotcolour,xotask,32,0,32,332,training,negativefb,49,average,25,0.7664348999996946,['n'],1,right,['2'],5,0.19422660000054748,,,,,,,,36,19,Vrouw,Links,2,
,dotcolour,dotcolour,xotask,33,0,33,333,training,negativefb,61,hard,39,0.9843733000006978,['n'],1,right,['3'],4,0.20407499999964784,,,,,,,,36,19,Vrouw,Links,2,
,dotcolour,dotcolour,xotask,34,0,34,334,training,negativefb,37,average,54,1.1321113000003606,['c'],1,left,['2'],5,0.19833209999978862,,,,,,,,36,19,Vrouw,Links,2,
,dotcolour,dotcolour,xotask,35,0,35,335,training,negativefb,32,average,29,0.5170984000005774,['n'],1,right,['2'],5,0.20236079999995127,,,,,,,,36,19,Vrouw,Links,2,
,dotcolour,dotcolour,xotask,36,0,36,336,training,negativefb,54,easy,18,0.6669441000003644,['n'],1,right,['2'],5,0.15159359999961453,,,,,,,,36,19,Vrouw,Links,2,
,dotcolour,dotcolour,xotask,37,0,37,337,training,negativefb,43,hard,37,0.8832150999996884,['n'],1,right,['3'],4,0.23776139999972656,,,,,,,,36,19,Vrouw,Links,2,
,dotcolour,dotcolour,xotask,38,0,38,338,training,negativefb,65,easy,61,0.7993201999997837,['c'],1,left,['2'],5,0.22831179999957385,,,,,,,,36,19,Vrouw,Links,2,
,dotcolour,dotcolour,xotask,39,0,39,339,training,negativefb,86,easy,63,0.715883699999722,['c'],1,left,['2'],5,0.19978600000013103,,,,,,,,36,19,Vrouw,Links,2,
,dotcolour,dotcolour,xotask,40,0,40,340,training,negativefb,65,average,25,1.2166230999991967,['n'],1,right,['2'],5,0.18229380000047968,,,,,,,,36,19,Vrouw,Links,2,
,dotcolour,dotcolour,xotask,41,0,41,341,training,negativefb,79,easy,64,0.5835010999999213,['c'],1,left,['2'],5,0.18444149999959336,,,,,,,,36,19,Vrouw,Links,2,
,dotcolour,dotcolour,xotask,42,0,42,342,training,negativefb,50,hard,43,1.1005190999994738,['n'],0,left,['2'],5,0.1722464000004038,,,,,,,,36,19,Vrouw,Links,2,
,dotcolour,dotcolour,xotask,43,0,43,343,training,negativefb,31,hard,43,0.6664394999997967,['n'],0,left,['2'],5,0.2513703999993595,,,,,,,,36,19,Vrouw,Links,2,
,dotcolour,dotcolour,xotask,44,0,44,344,training,negativefb,70,easy,19,1.1666607999995904,['n'],1,right,['2'],5,0.3226670000003651,,,,,,,,36,19,Vrouw,Links,2,
,dotcolour,dotcolour,xotask,45,0,45,345,training,negativefb,36,hard,42,0.6998420999998416,['n'],0,left,['3'],4,0.2663940000002185,,,,,,,,36,19,Vrouw,Links,2,
,dotcolour,dotcolour,xotask,46,0,46,346,training,negativefb,82,hard,36,1.1839687000001504,['c'],0,right,['2'],5,0.36858940000001894,,,,,,,,36,19,Vrouw,Links,2,
,dotcolour,dotcolour,xotask,47,0,47,347,training,negativefb,66,average,29,0.8656153000001723,['n'],1,right,['2'],5,0.21548349999920902,,,,,,,,36,19,Vrouw,Links,2,
,dotcolour,dotcolour,xotask,48,0,48,348,training,negativefb,71,average,27,1.2666165999999066,['n'],1,right,['2'],5,0.2034907999995994,,,,,,,,36,19,Vrouw,Links,2,
,dotcolour,dotcolour,xotask,49,0,49,349,training,negativefb,73,average,52,0.7665079000007609,['c'],1,left,['3'],4,0.3404805000000124,,,,,,,,36,19,Vrouw,Links,2,
,dotcolour,dotcolour,xotask,50,0,50,350,training,negativefb,46,average,29,0.7344803999994838,['n'],1,right,['3'],4,0.2340446999996857,,,,,,,,36,19,Vrouw,Links,2,
,dotcolour,dotcolour,xotask,51,0,51,351,training,negativefb,67,hard,35,1.1159013999995295,['c'],0,right,['2'],5,0.419926999999916,,,,,,,,36,19,Vrouw,Links,2,
,dotcolour,dotcolour,xotask,52,0,52,352,training,negativefb,26,average,55,0.7506173000001581,['n'],0,left,['2'],5,0.2938170999996146,,,,,,,,36,19,Vrouw,Links,2,
,dotcolour,dotcolour,xotask,53,0,53,353,training,negativefb,65,hard,39,0.8495717000005243,['n'],1,right,['3'],4,0.3040940999999293,,,,,,,,36,19,Vrouw,Links,2,
,dotcolour,dotcolour,xotask,54,0,54,354,training,negativefb,54,average,54,1.9827887999999803,['n'],0,left,['3'],4,0.3172324999995908,,,,,,,,36,19,Vrouw,Links,2,
,dotcolour,dotcolour,xotask,55,0,55,355,training,negativefb,48,easy,16,0.6509298999999373,['n'],1,right,['2'],5,0.3101126999999906,,,,,,,,36,19,Vrouw,Links,2,
,dotcolour,dotcolour,xotask,56,0,56,356,training,negativefb,59,hard,42,0.9998635000001741,['c'],1,left,['3'],4,0.26642049999918527,,,,,,,,36,19,Vrouw,Links,2,
,dotcolour,dotcolour,xotask,57,0,57,357,training,negativefb,69,easy,65,0.6997431999998298,['c'],1,left,['2'],5,0.33170460000019375,,,,,,,,36,19,Vrouw,Links,2,
,dotcolour,dotcolour,xotask,58,0,58,358,training,negativefb,78,hard,35,0.8325123000004169,['n'],1,right,['3'],4,0.3090957000003982,,,,,,,,36,19,Vrouw,Links,2,
,dotcolour,dotcolour,xotask,59,0,59,359,training,negativefb,64,easy,15,0.9171532999998817,['n'],1,right,['2'],5,0.26024130000041623,,,,,,,,36,19,Vrouw,Links,2,
,dotcolour,dotcolour,xotask,0,1,60,360,training,negativefb,74,easy,63,0.7017016999998305,['c'],1,left,['2'],5,0.2622847000002366,,,,,,,,36,19,Vrouw,Links,2,
,dotcolour,dotcolour,xotask,1,1,61,361,training,negativefb,67,easy,19,0.5670451999994839,['n'],1,right,['2'],5,0.19826540000030946,,,,,,,,36,19,Vrouw,Links,2,
,dotcolour,dotcolour,xotask,2,1,62,362,training,negativefb,66,average,54,0.56654189999972,['c'],1,left,['2'],5,0.19943739999962418,,,,,,,,36,19,Vrouw,Links,2,
,dotcolour,dotcolour,xotask,3,1,63,363,training,negativefb,88,average,53,0.6845698999995875,['c'],1,left,['2'],5,0.2681089999996402,,,,,,,,36,19,Vrouw,Links,2,
,dotcolour,dotcolour,xotask,4,1,64,364,training,negativefb,74,average,54,1.0659122000006391,['c'],1,left,['2'],5,0.35937470000044414,,,,,,,,36,19,Vrouw,Links,2,
,dotcolour,dotcolour,xotask,5,1,65,365,training,negativefb,17,hard,45,0.8666249000007156,['n'],0,left,['3'],4,0.6142038999996657,,,,,,,,36,19,Vrouw,Links,2,
,dotcolour,dotcolour,xotask,6,1,66,366,training,negativefb,91,easy,16,0.7501537000007374,['n'],1,right,['2'],5,0.2553837999994357,,,,,,,,36,19,Vrouw,Links,2,
,dotcolour,dotcolour,xotask,7,1,67,367,training,negativefb,48,hard,35,0.9834040999994613,['n'],1,right,['2'],5,0.20623459999933402,,,,,,,,36,19,Vrouw,Links,2,
,dotcolour,dotcolour,xotask,8,1,68,368,training,negativefb,40,average,52,0.6168708999994124,['c'],1,left,['2'],5,0.2531134999999267,,,,,,,,36,19,Vrouw,Links,2,
,dotcolour,dotcolour,xotask,9,1,69,369,training,negativefb,52,hard,42,0.8998503000002529,['n'],0,left,['2'],5,0.22312690000035218,,,,,,,,36,19,Vrouw,Links,2,
,dotcolour,dotcolour,xotask,10,1,70,370,training,negativefb,64,hard,44,0.7666507000003548,['c'],1,left,['2'],5,0.20838720000028843,,,,,,,,36,19,Vrouw,Links,2,
,dotcolour,dotcolour,xotask,11,1,71,371,training,negativefb,89,easy,16,0.6499979000000167,['n'],1,right,['2'],5,0.301871000000574,,,,,,,,36,19,Vrouw,Links,2,
,dotcolour,dotcolour,xotask,12,1,72,372,training,negativefb,86,easy,15,0.7504208999998809,['n'],1,right,['2'],5,0.1804800999998406,,,,,,,,36,19,Vrouw,Links,2,
,dotcolour,dotcolour,xotask,13,1,73,373,training,negativefb,60,hard,42,1.1829068999995798,['n'],0,left,['3'],4,0.38238209999963146,,,,,,,,36,19,Vrouw,Links,2,
,dotcolour,dotcolour,xotask,14,1,74,374,training,negativefb,31,hard,44,0.750207699999919,['n'],0,left,['2'],5,0.20893799999976181,,,,,,,,36,19,Vrouw,Links,2,
,dotcolour,dotcolour,xotask,15,1,75,375,training,negativefb,54,average,27,0.8176266000000396,['n'],1,right,['3'],4,0.32017369999994116,,,,,,,,36,19,Vrouw,Links,2,
,dotcolour,dotcolour,xotask,16,1,76,376,training,negativefb,88,easy,19,0.749843200000214,['n'],1,right,['3'],4,0.27816379999967467,,,,,,,,36,19,Vrouw,Links,2,
,dotcolour,dotcolour,xotask,17,1,77,377,training,negativefb,85,easy,65,0.6832979000000705,['c'],1,left,['3'],4,0.3034050999995088,,,,,,,,36,19,Vrouw,Links,2,
,dotcolour,dotcolour,xotask,18,1,78,378,training,negativefb,84,average,28,0.765840200000639,['n'],1,right,['3'],4,0.38120449999951234,,,,,,,,36,19,Vrouw,Links,2,
,dotcolour,dotcolour,xotask,19,1,79,379,training,negativefb,87,average,54,1.2328148999995392,['c'],1,left,['2'],5,0.25226979999933974,,,,,,,,36,19,Vrouw,Links,2,
,dotcolour,dotcolour,xotask,20,1,80,380,training,negativefb,74,average,54,0.9513538000001063,['c'],1,left,['3'],4,0.3002899000002799,,,,,,,,36,19,Vrouw,Links,2,
,dotcolour,dotcolour,xotask,21,1,81,381,training,negativefb,83,easy,16,1.0158301000001302,['n'],1,right,['2'],5,0.31959460000052786,,,,,,,,36,19,Vrouw,Links,2,
,dotcolour,dotcolour,xotask,22,1,82,382,training,negativefb,43,hard,42,1.8505151999997906,['c'],1,left,['3'],4,0.34516510000048584,,,,,,,,36,19,Vrouw,Links,2,
,dotcolour,dotcolour,xotask,23,1,83,383,training,negativefb,81,easy,19,0.883157599999322,['n'],1,right,['2'],5,0.3685771000000386,,,,,,,,36,19,Vrouw,Links,2,
,dotcolour,dotcolour,xotask,24,1,84,384,training,negativefb,69,easy,15,1.1836213000005955,['n'],1,right,['2'],5,0.19440510000003997,,,,,,,,36,19,Vrouw,Links,2,
,dotcolour,dotcolour,xotask,25,1,85,385,training,negativefb,82,average,29,0.8002220999997007,['n'],1,right,['2'],5,0.28328770000007353,,,,,,,,36,19,Vrouw,Links,2,
,dotcolour,dotcolour,xotask,26,1,86,386,training,negativefb,69,hard,45,1.6841478000005736,['c'],1,left,['2'],5,0.47648169999956735,,,,,,,,36,19,Vrouw,Links,2,
,dotcolour,dotcolour,xotask,27,1,87,387,training,negativefb,84,hard,38,0.683979399999771,['n'],1,right,['3'],4,0.31067389999952866,,,,,,,,36,19,Vrouw,Links,2,
,dotcolour,dotcolour,xotask,28,1,88,388,training,negativefb,60,average,53,0.8497814000002109,['c'],1,left,['2'],5,0.3442693999995754,,,,,,,,36,19,Vrouw,Links,2,
,dotcolour,dotcolour,xotask,29,1,89,389,training,negativefb,70,easy,15,0.91663139999946,['n'],1,right,['2'],5,0.37474010000005364,,,,,,,,36,19,Vrouw,Links,2,
,dotcolour,dotcolour,xotask,30,1,90,390,training,negativefb,60,average,28,0.6657875999999305,['n'],1,right,['2'],5,0.3411168999991787,,,,,,,,36,19,Vrouw,Links,2,
,dotcolour,dotcolour,xotask,31,1,91,391,training,negativefb,68,average,52,1.100478700000167,['c'],1,left,['3'],4,0.6363369000000603,,,,,,,,36,19,Vrouw,Links,2,
,dotcolour,dotcolour,xotask,32,1,92,392,training,negativefb,62,hard,35,2.0836472999999387,['n'],1,right,['3'],4,0.27136909999990166,,,,,,,,36,19,Vrouw,Links,2,
,dotcolour,dotcolour,xotask,33,1,93,393,training,negativefb,61,easy,64,0.867405900000449,['c'],1,left,['2'],5,0.2979169999998703,,,,,,,,36,19,Vrouw,Links,2,
,dotcolour,dotcolour,xotask,34,1,94,394,training,negativefb,77,hard,38,0.9012880000000223,['n'],1,right,['3'],4,0.40242469999975583,,,,,,,,36,19,Vrouw,Links,2,
,dotcolour,dotcolour,xotask,35,1,95,395,training,negativefb,16,easy,61,0.9836915999994744,['n'],0,left,['0'],1,1.258824700000332,,,,,,,,36,19,Vrouw,Links,2,
,dotcolour,dotcolour,xotask,36,1,96,396,training,negativefb,65,easy,16,1.084576900000684,['n'],1,right,['2'],5,0.3174242000004597,,,,,,,,36,19,Vrouw,Links,2,
,dotcolour,dotcolour,xotask,37,1,97,397,training,negativefb,75,hard,36,1.4336342999995395,['n'],1,right,['2'],5,0.40703300000041054,,,,,,,,36,19,Vrouw,Links,2,
,dotcolour,dotcolour,xotask,38,1,98,398,training,negativefb,55,hard,38,0.9667491000000155,['n'],1,right,['3'],4,0.40045480000026146,,,,,,,,36,19,Vrouw,Links,2,
,dotcolour,dotcolour,xotask,39,1,99,399,training,negativefb,74,hard,44,1.1331584999998086,['c'],1,left,['3'],4,0.26734959999976127,,,,,,,,36,19,Vrouw,Links,2,
,dotcolour,dotcolour,xotask,40,1,100,400,training,negativefb,38,hard,39,1.0502089999999953,['n'],1,right,['3'],4,0.22256719999950292,,,,,,,,36,19,Vrouw,Links,2,
,dotcolour,dotcolour,xotask,41,1,101,401,training,negativefb,72,average,27,1.0504946999999447,['n'],1,right,['3'],4,0.2043348999995942,,,,,,,,36,19,Vrouw,Links,2,
,dotcolour,dotcolour,xotask,42,1,102,402,training,negativefb,76,easy,62,0.7829126999995424,['c'],1,left,['2'],5,0.37255999999979394,,,,,,,,36,19,Vrouw,Links,2,
,dotcolour,dotcolour,xotask,43,1,103,403,training,negativefb,80,average,51,1.5833498000001782,['c'],1,left,['3'],4,0.36661999999978434,,,,,,,,36,19,Vrouw,Links,2,
,dotcolour,dotcolour,xotask,44,1,104,404,training,negativefb,70,easy,63,0.7826336999996784,['c'],1,left,['1'],6,0.28065460000016174,,,,,,,,36,19,Vrouw,Links,2,
,dotcolour,dotcolour,xotask,45,1,105,405,training,negativefb,94,hard,44,0.7498026999992362,['c'],1,left,['3'],4,0.8321299999997791,,,,,,,,36,19,Vrouw,Links,2,
,dotcolour,dotcolour,xotask,46,1,106,406,training,negativefb,41,average,29,1.1500460999995994,['c'],0,right,['2'],5,0.47231449999981123,,,,,,,,36,19,Vrouw,Links,2,
,dotcolour,dotcolour,xotask,47,1,107,407,training,negativefb,52,easy,63,0.6501447000000553,['c'],1,left,['2'],5,0.21156580000024405,,,,,,,,36,19,Vrouw,Links,2,
,dotcolour,dotcolour,xotask,48,1,108,408,training,negativefb,85,easy,63,0.949450699999943,['c'],1,left,['2'],5,0.5258783999997831,,,,,,,,36,19,Vrouw,Links,2,
,dotcolour,dotcolour,xotask,49,1,109,409,training,negativefb,78,average,54,0.7516881999999896,['c'],1,left,['3'],4,0.3072016000005533,,,,,,,,36,19,Vrouw,Links,2,
,dotcolour,dotcolour,xotask,50,1,110,410,training,negativefb,43,average,29,0.6172183999997287,['n'],1,right,['3'],4,0.2780754999994315,,,,,,,,36,19,Vrouw,Links,2,
,dotcolour,dotcolour,xotask,51,1,111,411,training,negativefb,57,average,25,0.9490452000000005,['n'],1,right,['3'],4,0.3737326000000394,,,,,,,,36,19,Vrouw,Links,2,
,dotcolour,dotcolour,xotask,52,1,112,412,training,negativefb,37,easy,63,0.9498655999996117,['n'],0,left,['0'],1,0.8808920999999827,,,,,,,,36,19,Vrouw,Links,2,
,dotcolour,dotcolour,xotask,53,1,113,413,training,negativefb,89,hard,36,1.434131900000466,['n'],1,right,['3'],4,0.42819650000001275,,,,,,,,36,19,Vrouw,Links,2,
,dotcolour,dotcolour,xotask,54,1,114,414,training,negativefb,73,hard,41,3.8174596000008023,['c'],1,left,['3'],4,0.28308089999973163,,,,,,,,36,19,Vrouw,Links,2,
,dotcolour,dotcolour,xotask,55,1,115,415,training,negativefb,64,hard,35,0.7824916999998095,['n'],1,right,['3'],4,0.28101190000052156,,,,,,,,36,19,Vrouw,Links,2,
,dotcolour,dotcolour,xotask,56,1,116,416,training,negativefb,55,hard,38,1.3167484999994485,['n'],1,right,['3'],4,0.3216840000004595,,,,,,,,36,19,Vrouw,Links,2,
,dotcolour,dotcolour,xotask,57,1,117,417,training,negativefb,83,average,25,1.7164270000002944,['n'],1,right,['2'],5,0.4638055000004897,,,,,,,,36,19,Vrouw,Links,2,
,dotcolour,dotcolour,xotask,58,1,118,418,training,negativefb,65,easy,63,2.0000584999997955,['c'],1,left,['2'],5,0.3423438999998325,,,,,,,,36,19,Vrouw,Links,2,
,dotcolour,dotcolour,xotask,59,1,119,419,training,negativefb,46,average,29,1.6507862999997087,['n'],1,right,['2'],5,0.3504699000004621,,,,,,,,36,19,Vrouw,Links,2,
,dotcolour,dotcolour,xotask,0,2,120,420,main,negativefb,-99,easy,15,0.8679296999998769,['n'],1,right,['3'],4,0.1872670000002472,,,,,,,,36,19,Vrouw,Links,2,
,dotcolour,dotcolour,xotask,1,2,121,421,main,negativefb,-99,easy,17,0.5844836999995096,['n'],1,right,['2'],5,0.11767220000001544,,,,,,,,36,19,Vrouw,Links,2,
,dotcolour,dotcolour,xotask,2,2,122,422,main,negativefb,-99,average,52,0.5507889000000432,['c'],1,left,['2'],5,0.17131160000008094,,,,,,,,36,19,Vrouw,Links,2,
,dotcolour,dotcolour,xotask,3,2,123,423,main,negativefb,-99,average,26,0.6342311999997037,['n'],1,right,['2'],5,0.10826209999959246,,,,,,,,36,19,Vrouw,Links,2,
,dotcolour,dotcolour,xotask,4,2,124,424,main,negativefb,-99,hard,44,1.334504299999935,['n'],0,left,['3'],4,0.13986130000012054,,,,,,,,36,19,Vrouw,Links,2,
,dotcolour,dotcolour,xotask,5,2,125,425,main,negativefb,-99,average,27,0.583991700000297,['n'],1,right,['2'],5,0.1996369999997114,,,,,,,,36,19,Vrouw,Links,2,
,dotcolour,dotcolour,xotask,6,2,126,426,main,negativefb,-99,hard,38,0.8008177000001524,['n'],1,right,['3'],4,0.24030360000051587,,,,,,,,36,19,Vrouw,Links,2,
,dotcolour,dotcolour,xotask,7,2,127,427,main,negativefb,-99,easy,61,0.5172800000000279,['c'],1,left,['2'],5,0.1789457000004404,,,,,,,,36,19,Vrouw,Links,2,
,dotcolour,dotcolour,xotask,8,2,128,428,main,negativefb,-99,hard,44,0.7349788000001354,['n'],0,left,['3'],4,0.21525589999964723,,,,,,,,36,19,Vrouw,Links,2,
,dotcolour,dotcolour,xotask,9,2,129,429,main,negativefb,-99,hard,37,0.6173911000005319,['n'],1,right,['3'],4,0.3353524000003745,,,,,,,,36,19,Vrouw,Links,2,
,dotcolour,dotcolour,xotask,10,2,130,430,main,negativefb,-99,hard,39,0.6670766000006552,['n'],1,right,['2'],5,0.21600459999990562,,,,,,,,36,19,Vrouw,Links,2,
,dotcolour,dotcolour,xotask,11,2,131,431,main,negativefb,-99,easy,18,0.46747860000050423,['n'],1,right,['2'],5,0.1727032999997391,,,,,,,,36,19,Vrouw,Links,2,
,dotcolour,dotcolour,xotask,12,2,132,432,main,negativefb,-99,average,51,0.9675820000002204,['c'],1,left,['3'],4,0.3606854999998177,,,,,,,,36,19,Vrouw,Links,2,
,dotcolour,dotcolour,xotask,13,2,133,433,main,negativefb,-99,easy,65,0.8673170000001846,['c'],1,left,['3'],4,0.20842840000022989,,,,,,,,36,19,Vrouw,Links,2,
,dotcolour,dotcolour,xotask,14,2,134,434,main,negativefb,-99,easy,17,0.5179670000006809,['n'],1,right,['3'],4,0.21241269999973156,,,,,,,,36,19,Vrouw,Links,2,
,dotcolour,dotcolour,xotask,15,2,135,435,main,negativefb,-99,hard,42,1.0015443000002051,['c'],1,left,['2'],5,0.24469670000053156,,,,,,,,36,19,Vrouw,Links,2,
,dotcolour,dotcolour,xotask,16,2,136,436,main,negativefb,-99,average,54,0.5846116000002439,['c'],1,left,['2'],5,0.22888509999938833,,,,,,,,36,19,Vrouw,Links,2,
,dotcolour,dotcolour,xotask,17,2,137,437,main,negativefb,-99,hard,38,1.2333011999999144,['n'],1,right,['2'],5,0.25135430000045744,,,,,,,,36,19,Vrouw,Links,2,
,dotcolour,dotcolour,xotask,18,2,138,438,main,negativefb,-99,easy,18,0.5680059000005713,['n'],1,right,['2'],5,0.24354529999982333,,,,,,,,36,19,Vrouw,Links,2,
,dotcolour,dotcolour,xotask,19,2,139,439,main,negativefb,-99,easy,64,0.7019145000003846,['c'],1,left,['2'],5,0.2877280000002429,,,,,,,,36,19,Vrouw,Links,2,
,dotcolour,dotcolour,xotask,20,2,140,440,main,negativefb,-99,easy,64,2.017443500000809,['c'],1,left,['2'],5,0.4517564999996466,,,,,,,,36,19,Vrouw,Links,2,
,dotcolour,dotcolour,xotask,21,2,141,441,main,negativefb,-99,average,25,0.6339028000002145,['n'],1,right,['3'],4,0.22542520000024524,,,,,,,,36,19,Vrouw,Links,2,
,dotcolour,dotcolour,xotask,22,2,142,442,main,negativefb,-99,hard,42,0.5677157999998599,['c'],1,left,['3'],4,0.24254649999966205,,,,,,,,36,19,Vrouw,Links,2,
,dotcolour,dotcolour,xotask,23,2,143,443,main,negativefb,-99,easy,63,0.433620200000405,['n'],0,left,['0'],1,0.7206489000000147,,,,,,,,36,19,Vrouw,Links,2,
,dotcolour,dotcolour,xotask,24,2,144,444,main,negativefb,-99,easy,63,0.800594700000147,['c'],1,left,['2'],5,0.23742640000000392,,,,,,,,36,19,Vrouw,Links,2,
,dotcolour,dotcolour,xotask,25,2,145,445,main,negativefb,-99,average,51,0.9176866999996491,['c'],1,left,['2'],5,0.2474463000007745,,,,,,,,36,19,Vrouw,Links,2,
,dotcolour,dotcolour,xotask,26,2,146,446,main,negativefb,-99,easy,18,0.8178665999994337,['n'],1,right,['2'],5,0.23001810000005207,,,,,,,,36,19,Vrouw,Links,2,
,dotcolour,dotcolour,xotask,27,2,147,447,main,negativefb,-99,average,54,0.9507978999999978,['c'],1,left,['2'],5,0.1676526000001104,,,,,,,,36,19,Vrouw,Links,2,
,dotcolour,dotcolour,xotask,28,2,148,448,main,negativefb,-99,average,54,0.8183163000003333,['c'],1,left,['2'],5,0.38565620000008494,,,,,,,,36,19,Vrouw,Links,2,
,dotcolour,dotcolour,xotask,29,2,149,449,main,negativefb,-99,average,52,0.7169463000000178,['c'],1,left,['2'],5,0.2540547000007791,,,,,,,,36,19,Vrouw,Links,2,
,dotcolour,dotcolour,xotask,30,2,150,450,main,negativefb,-99,average,27,1.1666158999996696,['n'],1,right,['2'],5,0.2543120000000272,,,,,,,,36,19,Vrouw,Links,2,
,dotcolour,dotcolour,xotask,31,2,151,451,main,negativefb,-99,average,26,0.5680592999997316,['n'],1,right,['2'],5,0.24608939999961876,,,,,,,,36,19,Vrouw,Links,2,
,dotcolour,dotcolour,xotask,32,2,152,452,main,negativefb,-99,easy,19,0.8013550000005125,['n'],1,right,['2'],5,0.23715810000066995,,,,,,,,36,19,Vrouw,Links,2,
,dotcolour,dotcolour,xotask,33,2,153,453,main,negativefb,-99,average,54,1.867160299999341,['c'],1,left,['2'],5,0.22614700000031007,,,,,,,,36,19,Vrouw,Links,2,
,dotcolour,dotcolour,xotask,34,2,154,454,main,negativefb,-99,average,53,0.8678169000004345,['c'],1,left,['2'],5,0.19893000000047323,,,,,,,,36,19,Vrouw,Links,2,
,dotcolour,dotcolour,xotask,35,2,155,455,main,negativefb,-99,easy,64,0.5683254000005036,['c'],1,left,['2'],5,0.25786800000059884,,,,,,,,36,19,Vrouw,Links,2,
,dotcolour,dotcolour,xotask,36,2,156,456,main,negativefb,-99,hard,36,0.6675844999999754,['n'],1,right,['2'],5,0.32520690000001196,,,,,,,,36,19,Vrouw,Links,2,
,dotcolour,dotcolour,xotask,37,2,157,457,main,negativefb,-99,average,53,0.7177222000000256,['c'],1,left,['2'],5,0.2290619000004881,,,,,,,,36,19,Vrouw,Links,2,
,dotcolour,dotcolour,xotask,38,2,158,458,main,negativefb,-99,hard,42,0.9346330999997008,['c'],1,left,['2'],5,0.23119150000002264,,,,,,,,36,19,Vrouw,Links,2,
,dotcolour,dotcolour,xotask,39,2,159,459,main,negativefb,-99,hard,39,1.985472600000321,['c'],0,right,['3'],4,0.5511814000001323,,,,,,,,36,19,Vrouw,Links,2,
,dotcolour,dotcolour,xotask,40,2,160,460,main,negativefb,-99,easy,16,0.9506806999997934,['c'],0,right,['0'],1,0.8597682999998142,,,,,,,,36,19,Vrouw,Links,2,
,dotcolour,dotcolour,xotask,41,2,161,461,main,negativefb,-99,average,27,0.7012064999998984,['n'],1,right,['3'],4,0.6303076000003784,,,,,,,,36,19,Vrouw,Links,2,
,dotcolour,dotcolour,xotask,42,2,162,462,main,negativefb,-99,easy,15,0.9670327000003454,['n'],1,right,['2'],5,0.44027209999967454,,,,,,,,36,19,Vrouw,Links,2,
,dotcolour,dotcolour,xotask,43,2,163,463,main,negativefb,-99,easy,65,1.2839767999994365,['c'],1,left,['2'],5,0.2123834000003626,,,,,,,,36,19,Vrouw,Links,2,
,dotcolour,dotcolour,xotask,44,2,164,464,main,negativefb,-99,hard,39,1.2336417000005895,['n'],1,right,['3'],4,0.3151551999999356,,,,,,,,36,19,Vrouw,Links,2,
,dotcolour,dotcolour,xotask,45,2,165,465,main,negativefb,-99,hard,35,1.0662505000000237,['n'],1,right,['3'],4,0.26050319999922067,,,,,,,,36,19,Vrouw,Links,2,
,dotcolour,dotcolour,xotask,46,2,166,466,main,negativefb,-99,hard,35,1.4671983999996883,['n'],1,right,['3'],4,0.24904369999967457,,,,,,,,36,19,Vrouw,Links,2,
,dotcolour,dotcolour,xotask,47,2,167,467,main,negativefb,-99,average,28,1.6176749000005657,['n'],1,right,['2'],5,0.4550418999997419,,,,,,,,36,19,Vrouw,Links,2,
,dotcolour,dotcolour,xotask,48,2,168,468,main,negativefb,-99,hard,45,2.417683599999691,['n'],0,left,['2'],5,0.22926129999996192,,,,,,,,36,19,Vrouw,Links,2,
,dotcolour,dotcolour,xotask,49,2,169,469,main,negativefb,-99,easy,17,0.6349792000000889,['n'],1,right,['2'],5,0.16366839999955118,,,,,,,,36,19,Vrouw,Links,2,
,dotcolour,dotcolour,xotask,50,2,170,470,main,negativefb,-99,easy,62,0.5340016999998625,['c'],1,left,['2'],5,0.18524919999981648,,,,,,,,36,19,Vrouw,Links,2,
,dotcolour,dotcolour,xotask,51,2,171,471,main,negativefb,-99,hard,43,1.3171335000006366,['c'],1,left,['3'],4,0.20546899999953894,,,,,,,,36,19,Vrouw,Links,2,
,dotcolour,dotcolour,xotask,52,2,172,472,main,negativefb,-99,hard,38,0.6168373999998948,['c'],0,right,['3'],4,0.2932690999996339,,,,,,,,36,19,Vrouw,Links,2,
,dotcolour,dotcolour,xotask,53,2,173,473,main,negativefb,-99,average,28,1.1839782999995805,['c'],0,right,['3'],4,0.5955701000002591,,,,,,,,36,19,Vrouw,Links,2,
,dotcolour,dotcolour,xotask,54,2,174,474,main,negativefb,-99,hard,43,1.1668682999998055,['n'],0,left,['3'],4,0.32645920000049955,,,,,,,,36,19,Vrouw,Links,2,
,dotcolour,dotcolour,xotask,55,2,175,475,main,negativefb,-99,average,25,1.5007691999999224,['n'],1,right,['3'],4,0.48657470000034664,,,,,,,,36,19,Vrouw,Links,2,
,dotcolour,dotcolour,xotask,56,2,176,476,main,negativefb,-99,hard,42,1.0523008999998638,['c'],1,left,['3'],4,0.8178718000008303,,,,,,,,36,19,Vrouw,Links,2,
,dotcolour,dotcolour,xotask,57,2,177,477,main,negativefb,-99,easy,61,0.7343262000003961,['c'],1,left,['3'],4,0.30793999999968946,,,,,,,,36,19,Vrouw,Links,2,
,dotcolour,dotcolour,xotask,58,2,178,478,main,negativefb,-99,average,28,2.0334932999994635,['n'],1,right,['3'],4,0.21619600000030914,,,,,,,,36,19,Vrouw,Links,2,
,dotcolour,dotcolour,xotask,59,2,179,479,main,negativefb,-99,hard,43,0.7848660000008749,['n'],0,left,['3'],4,0.22425350000048638,,,,,,,,36,19,Vrouw,Links,2,
,dotcolour,dotcolour,xotask,0,3,180,480,main,negativefb,-99,average,53,0.6679896000005101,['c'],1,left,['3'],4,0.24250630000005913,,,,,,,,36,19,Vrouw,Links,2,
,dotcolour,dotcolour,xotask,1,3,181,481,main,negativefb,-99,average,55,0.5506949000000532,['c'],1,left,['3'],4,0.19478950000029727,,,,,,,,36,19,Vrouw,Links,2,
,dotcolour,dotcolour,xotask,2,3,182,482,main,negativefb,-99,hard,37,0.633287399999972,['c'],0,right,['3'],4,0.23519880000003468,,,,,,,,36,19,Vrouw,Links,2,
,dotcolour,dotcolour,xotask,3,3,183,483,main,negativefb,-99,easy,16,0.5351072000003114,['n'],1,right,['3'],4,0.18920359999992797,,,,,,,,36,19,Vrouw,Links,2,
,dotcolour,dotcolour,xotask,4,3,184,484,main,negativefb,-99,average,54,0.4833944000001793,['c'],1,left,['3'],4,0.22779439999976603,,,,,,,,36,19,Vrouw,Links,2,
,dotcolour,dotcolour,xotask,5,3,185,485,main,negativefb,-99,hard,41,0.3686846999999034,['c'],1,left,['3'],4,1.3248851000007562,,,,,,,,36,19,Vrouw,Links,2,
,dotcolour,dotcolour,xotask,6,3,186,486,main,negativefb,-99,hard,44,0.7339971999999761,['c'],1,left,['3'],4,0.28380600000036793,,,,,,,,36,19,Vrouw,Links,2,
,dotcolour,dotcolour,xotask,7,3,187,487,main,negativefb,-99,hard,36,1.184607899999719,['n'],1,right,['8'],3,0.2819783000004463,,,,,,,,36,19,Vrouw,Links,2,
,dotcolour,dotcolour,xotask,8,3,188,488,main,negativefb,-99,average,54,0.6170798000002833,['c'],1,left,['3'],4,0.2694032999997944,,,,,,,,36,19,Vrouw,Links,2,
,dotcolour,dotcolour,xotask,9,3,189,489,main,negativefb,-99,average,27,0.8171111999999994,['n'],1,right,['3'],4,0.31544790000043577,,,,,,,,36,19,Vrouw,Links,2,
,dotcolour,dotcolour,xotask,10,3,190,490,main,negativefb,-99,hard,36,1.0506670000004306,['c'],0,right,['8'],3,0.6533503000000564,,,,,,,,36,19,Vrouw,Links,2,
,dotcolour,dotcolour,xotask,11,3,191,491,main,negativefb,-99,average,27,0.7181603999997606,['n'],1,right,['3'],4,0.2792865999999776,,,,,,,,36,19,Vrouw,Links,2,
,dotcolour,dotcolour,xotask,12,3,192,492,main,negativefb,-99,average,54,0.7670436999997037,['c'],1,left,['3'],4,0.24717280000004394,,,,,,,,36,19,Vrouw,Links,2,
,dotcolour,dotcolour,xotask,13,3,193,493,main,negativefb,-99,easy,18,2.400951200000236,['n'],1,right,['3'],4,0.237539800000377,,,,,,,,36,19,Vrouw,Links,2,
,dotcolour,dotcolour,xotask,14,3,194,494,main,negativefb,-99,easy,19,0.5007857000000513,['n'],1,right,['3'],4,0.22530519999963872,,,,,,,,36,19,Vrouw,Links,2,
,dotcolour,dotcolour,xotask,15,3,195,495,main,negativefb,-99,easy,64,1.0508865000001606,['c'],1,left,['3'],4,0.27190020000034565,,,,,,,,36,19,Vrouw,Links,2,
,dotcolour,dotcolour,xotask,16,3,196,496,main,negativefb,-99,easy,18,1.4844440000006216,['n'],1,right,['2'],5,0.2582081000000471,,,,,,,,36,19,Vrouw,Links,2,
,dotcolour,dotcolour,xotask,17,3,197,497,main,negativefb,-99,average,55,4.7841255000003,['n'],0,left,['2'],5,0.5371143999991546,,,,,,,,36,19,Vrouw,Links,2,
,dotcolour,dotcolour,xotask,18,3,198,498,main,negativefb,-99,easy,18,0.48539530000016384,['n'],1,right,['2'],5,0.17004220000035275,,,,,,,,36,19,Vrouw,Links,2,
,dotcolour,dotcolour,xotask,19,3,199,499,main,negativefb,-99,easy,62,0.6833350000006249,['c'],1,left,['2'],5,0.2080188999998427,,,,,,,,36,19,Vrouw,Links,2,
,dotcolour,dotcolour,xotask,20,3,200,500,main,negativefb,-99,average,53,0.5676693999994313,['c'],1,left,['2'],5,0.1457111999998233,,,,,,,,36,19,Vrouw,Links,2,
,dotcolour,dotcolour,xotask,21,3,201,501,main,negativefb,-99,average,54,0.6515441000001374,['c'],1,left,['2'],5,0.2592114999997648,,,,,,,,36,19,Vrouw,Links,2,
,dotcolour,dotcolour,xotask,22,3,202,502,main,negativefb,-99,hard,37,0.7674618000000919,['n'],1,right,['2'],5,0.2276348000004873,,,,,,,,36,19,Vrouw,Links,2,
,dotcolour,dotcolour,xotask,23,3,203,503,main,negativefb,-99,average,27,0.6003236999995352,['n'],1,right,['2'],5,0.20321580000018002,,,,,,,,36,19,Vrouw,Links,2,
,dotcolour,dotcolour,xotask,24,3,204,504,main,negativefb,-99,average,25,0.667102800000066,['n'],1,right,['2'],5,0.1624041999994006,,,,,,,,36,19,Vrouw,Links,2,
,dotcolour,dotcolour,xotask,25,3,205,505,main,negativefb,-99,easy,16,0.7184118000004673,['n'],1,right,['2'],5,0.25573680000070453,,,,,,,,36,19,Vrouw,Links,2,
,dotcolour,dotcolour,xotask,26,3,206,506,main,negativefb,-99,average,29,0.6347734000000855,['n'],1,right,['2'],5,0.18899359999977605,,,,,,,,36,19,Vrouw,Links,2,
,dotcolour,dotcolour,xotask,27,3,207,507,main,negativefb,-99,easy,61,0.7000393000007534,['c'],1,left,['2'],5,0.24220619999960036,,,,,,,,36,19,Vrouw,Links,2,
,dotcolour,dotcolour,xotask,28,3,208,508,main,negativefb,-99,easy,62,0.8179933000001256,['c'],1,left,['2'],5,0.22512860000006185,,,,,,,,36,19,Vrouw,Links,2,
,dotcolour,dotcolour,xotask,29,3,209,509,main,negativefb,-99,hard,41,1.034440800000084,['c'],1,left,['2'],5,0.327795100000003,,,,,,,,36,19,Vrouw,Links,2,
,dotcolour,dotcolour,xotask,30,3,210,510,main,negativefb,-99,easy,63,0.801755299999968,['c'],1,left,['2'],5,0.25179469999966386,,,,,,,,36,19,Vrouw,Links,2,
,dotcolour,dotcolour,xotask,31,3,211,511,main,negativefb,-99,hard,36,1.117716499999915,['n'],1,right,['2'],5,0.14100450000023557,,,,,,,,36,19,Vrouw,Links,2,
,dotcolour,dotcolour,xotask,32,3,212,512,main,negativefb,-99,hard,36,0.6680054999997083,['n'],1,right,['2'],5,0.19862539999940054,,,,,,,,36,19,Vrouw,Links,2,
,dotcolour,dotcolour,xotask,33,3,213,513,main,negativefb,-99,hard,42,0.6846745999991981,['c'],1,left,['2'],5,0.17158939999990253,,,,,,,,36,19,Vrouw,Links,2,
,dotcolour,dotcolour,xotask,34,3,214,514,main,negativefb,-99,easy,16,0.7022547000005943,['n'],1,right,['2'],5,0.2894884999996066,,,,,,,,36,19,Vrouw,Links,2,
,dotcolour,dotcolour,xotask,35,3,215,515,main,negativefb,-99,average,26,0.6843701999996483,['n'],1,right,['2'],5,0.25928730000032374,,,,,,,,36,19,Vrouw,Links,2,
,dotcolour,dotcolour,xotask,36,3,216,516,main,negativefb,-99,easy,62,1.1344214000000648,['c'],1,left,['2'],5,0.404585400000542,,,,,,,,36,19,Vrouw,Links,2,
,dotcolour,dotcolour,xotask,37,3,217,517,main,negativefb,-99,easy,16,1.3511410999999498,['n'],1,right,['2'],5,0.215373200000613,,,,,,,,36,19,Vrouw,Links,2,
,dotcolour,dotcolour,xotask,38,3,218,518,main,negativefb,-99,easy,62,0.5661468999996941,['c'],1,left,['2'],5,0.25754049999977724,,,,,,,,36,19,Vrouw,Links,2,
,dotcolour,dotcolour,xotask,39,3,219,519,main,negativefb,-99,average,27,0.6502315999996426,['n'],1,right,['2'],5,0.22940070000004198,,,,,,,,36,19,Vrouw,Links,2,
,dotcolour,dotcolour,xotask,40,3,220,520,main,negativefb,-99,easy,17,0.6338796000000002,['n'],1,right,['2'],5,0.26018959999964864,,,,,,,,36,19,Vrouw,Links,2,
,dotcolour,dotcolour,xotask,41,3,221,521,main,negativefb,-99,easy,62,0.8008480000007694,['c'],1,left,['2'],5,0.25113080000028276,,,,,,,,36,19,Vrouw,Links,2,
,dotcolour,dotcolour,xotask,42,3,222,522,main,negativefb,-99,easy,17,1.0520392000007632,['n'],1,right,['2'],5,0.2717963000004602,,,,,,,,36,19,Vrouw,Links,2,
,dotcolour,dotcolour,xotask,43,3,223,523,main,negativefb,-99,hard,42,1.8835030000000188,['c'],1,left,['2'],5,0.3464312999994945,,,,,,,,36,19,Vrouw,Links,2,
,dotcolour,dotcolour,xotask,44,3,224,524,main,negativefb,-99,hard,39,1.950747400000182,['c'],0,right,['2'],5,0.359371700000338,,,,,,,,36,19,Vrouw,Links,2,
,dotcolour,dotcolour,xotask,45,3,225,525,main,negativefb,-99,average,28,0.5849373000000924,['n'],1,right,['2'],5,0.2428171999999904,,,,,,,,36,19,Vrouw,Links,2,
,dotcolour,dotcolour,xotask,46,3,226,526,main,negativefb,-99,hard,44,2.85104229999979,['n'],0,left,['2'],5,0.2407259999999951,,,,,,,,36,19,Vrouw,Links,2,
,dotcolour,dotcolour,xotask,47,3,227,527,main,negativefb,-99,hard,38,0.9011731000000509,['n'],1,right,['2'],5,3.1718072000003303,,,,,,,,36,19,Vrouw,Links,2,
,dotcolour,dotcolour,xotask,48,3,228,528,main,negativefb,-99,hard,42,2.4844708999999057,['c'],1,left,['3'],4,0.4103683999992427,,,,,,,,36,19,Vrouw,Links,2,
,dotcolour,dotcolour,xotask,49,3,229,529,main,negativefb,-99,hard,37,1.2355047999999442,['c'],0,right,['3'],4,0.28176580000035756,,,,,,,,36,19,Vrouw,Links,2,
,dotcolour,dotcolour,xotask,50,3,230,530,main,negativefb,-99,hard,38,0.7848829000004116,['c'],0,right,['9'],2,0.9761715000004187,,,,,,,,36,19,Vrouw,Links,2,
,dotcolour,dotcolour,xotask,51,3,231,531,main,negativefb,-99,hard,41,2.167438100000254,['c'],1,left,['3'],4,0.3791713999999047,,,,,,,,36,19,Vrouw,Links,2,
,dotcolour,dotcolour,xotask,52,3,232,532,main,negativefb,-99,hard,41,3.533085199999732,['n'],0,left,['3'],4,0.34448259999953734,,,,,,,,36,19,Vrouw,Links,2,
,dotcolour,dotcolour,xotask,53,3,233,533,main,negativefb,-99,hard,41,0.8684321999999156,['n'],0,left,['3'],4,0.9691484000004493,,,,,,,,36,19,Vrouw,Links,2,
,dotcolour,dotcolour,xotask,54,3,234,534,main,negativefb,-99,average,28,0.7335835999992923,['n'],1,right,['3'],4,0.3648484000004828,,,,,,,,36,19,Vrouw,Links,2,
,dotcolour,dotcolour,xotask,55,3,235,535,main,negativefb,-99,easy,63,0.9167703999992227,['c'],1,left,['2'],5,0.5705127999999604,,,,,,,,36,19,Vrouw,Links,2,
,dotcolour,dotcolour,xotask,56,3,236,536,main,negativefb,-99,average,55,0.9672321999996711,['c'],1,left,['2'],5,0.27757259999998496,,,,,,,,36,19,Vrouw,Links,2,
,dotcolour,dotcolour,xotask,57,3,237,537,main,negativefb,-99,average,51,1.2166865999997754,['c'],1,left,['3'],4,0.3242152000002534,,,,,,,,36,19,Vrouw,Links,2,
,dotcolour,dotcolour,xotask,58,3,238,538,main,negativefb,-99,average,27,0.7335769999999684,['c'],0,right,['2'],5,0.3140150999997786,,,,,,,,36,19,Vrouw,Links,2,
,dotcolour,dotcolour,xotask,59,3,239,539,main,negativefb,-99,easy,63,0.5512254999994184,['n'],0,left,['2'],5,0.3116632999999638,,,,,,,,36,19,Vrouw,Links,2,
,dotcolour,dotcolour,xotask,0,4,240,540,main,negativefb,-99,average,52,3.717388199999732,['c'],1,left,['2'],5,0.2862217000001692,,,,,,,,36,19,Vrouw,Links,2,
,dotcolour,dotcolour,xotask,1,4,241,541,main,negativefb,-99,easy,64,0.5173111000003701,['c'],1,left,['2'],5,0.1349638000001505,,,,,,,,36,19,Vrouw,Links,2,
,dotcolour,dotcolour,xotask,2,4,242,542,main,negativefb,-99,hard,42,3.5008443999995507,['n'],0,left,['3'],4,0.17475669999930687,,,,,,,,36,19,Vrouw,Links,2,
,dotcolour,dotcolour,xotask,3,4,243,543,main,negativefb,-99,average,51,0.6839612999992823,['c'],1,left,['3'],4,0.21295089999966876,,,,,,,,36,19,Vrouw,Links,2,
,dotcolour,dotcolour,xotask,4,4,244,544,main,negativefb,-99,average,52,0.5342001999997592,['c'],1,left,['2'],5,0.25631460000022344,,,,,,,,36,19,Vrouw,Links,2,
,dotcolour,dotcolour,xotask,5,4,245,545,main,negativefb,-99,hard,43,0.784139999999752,['c'],1,left,['3'],4,0.5994502999992619,,,,,,,,36,19,Vrouw,Links,2,
,dotcolour,dotcolour,xotask,6,4,246,546,main,negativefb,-99,hard,35,0.6680820000001404,['n'],1,right,['3'],4,0.293411699999524,,,,,,,,36,19,Vrouw,Links,2,
,dotcolour,dotcolour,xotask,7,4,247,547,main,negativefb,-99,hard,41,0.8177303000002212,['n'],0,left,['3'],4,0.21789959999932762,,,,,,,,36,19,Vrouw,Links,2,
,dotcolour,dotcolour,xotask,8,4,248,548,main,negativefb,-99,easy,63,0.6337897000003068,['c'],1,left,['2'],5,0.28100799999992887,,,,,,,,36,19,Vrouw,Links,2,
,dotcolour,dotcolour,xotask,9,4,249,549,main,negativefb,-99,easy,16,0.7175541000005978,['n'],1,right,['2'],5,0.2733551000001171,,,,,,,,36,19,Vrouw,Links,2,
,dotcolour,dotcolour,xotask,10,4,250,550,main,negativefb,-99,hard,43,0.9001030999997965,['n'],0,left,['2'],5,0.2356446000003416,,,,,,,,36,19,Vrouw,Links,2,
,dotcolour,dotcolour,xotask,11,4,251,551,main,negativefb,-99,easy,65,0.8678142999997362,['c'],1,left,['2'],5,0.20794179999938933,,,,,,,,36,19,Vrouw,Links,2,
,dotcolour,dotcolour,xotask,12,4,252,552,main,negativefb,-99,hard,38,0.668320799999492,['n'],1,right,['3'],4,0.3106263999998191,,,,,,,,36,19,Vrouw,Links,2,
,dotcolour,dotcolour,xotask,13,4,253,553,main,negativefb,-99,easy,62,0.5515134000006583,['c'],1,left,['2'],5,0.2533228999991479,,,,,,,,36,19,Vrouw,Links,2,
,dotcolour,dotcolour,xotask,14,4,254,554,main,negativefb,-99,average,27,0.8511433999992732,['n'],1,right,['2'],5,0.1374628000003213,,,,,,,,36,19,Vrouw,Links,2,
,dotcolour,dotcolour,xotask,15,4,255,555,main,negativefb,-99,easy,18,0.6507271000000401,['n'],1,right,['2'],5,0.21906979999948817,,,,,,,,36,19,Vrouw,Links,2,
,dotcolour,dotcolour,xotask,16,4,256,556,main,negativefb,-99,average,52,0.5350950000001831,['c'],1,left,['3'],4,0.3019064000000071,,,,,,,,36,19,Vrouw,Links,2,
,dotcolour,dotcolour,xotask,17,4,257,557,main,negativefb,-99,average,52,0.6998013000002175,['c'],1,left,['2'],5,0.27026910000040516,,,,,,,,36,19,Vrouw,Links,2,
,dotcolour,dotcolour,xotask,18,4,258,558,main,negativefb,-99,easy,63,0.7665685000001758,['c'],1,left,['2'],5,0.3103412999998909,,,,,,,,36,19,Vrouw,Links,2,
,dotcolour,dotcolour,xotask,19,4,259,559,main,negativefb,-99,hard,37,1.0505121000005602,['n'],1,right,['2'],5,0.200301999999283,,,,,,,,36,19,Vrouw,Links,2,
,dotcolour,dotcolour,xotask,20,4,260,560,main,negativefb,-99,average,28,0.8516202999999223,['n'],1,right,['3'],4,0.23913470000024972,,,,,,,,36,19,Vrouw,Links,2,
,dotcolour,dotcolour,xotask,21,4,261,561,main,negativefb,-99,hard,45,0.9679534000006242,['n'],0,left,['3'],4,0.2162956000001941,,,,,,,,36,19,Vrouw,Links,2,
,dotcolour,dotcolour,xotask,22,4,262,562,main,negativefb,-99,easy,19,0.734794700000748,['n'],1,right,['3'],4,0.2663636999996015,,,,,,,,36,19,Vrouw,Links,2,
,dotcolour,dotcolour,xotask,23,4,263,563,main,negativefb,-99,average,55,0.7347790000003442,['c'],1,left,['2'],5,0.29877509999914764,,,,,,,,36,19,Vrouw,Links,2,
,dotcolour,dotcolour,xotask,24,4,264,564,main,negativefb,-99,hard,35,0.8684164000005694,['n'],1,right,['2'],5,0.2696853999996165,,,,,,,,36,19,Vrouw,Links,2,
,dotcolour,dotcolour,xotask,25,4,265,565,main,negativefb,-99,easy,19,1.3839274000001751,['n'],1,right,['2'],5,0.3072794999998223,,,,,,,,36,19,Vrouw,Links,2,
,dotcolour,dotcolour,xotask,26,4,266,566,main,negativefb,-99,average,26,1.8340428999999858,['n'],1,right,['2'],5,0.22310000000015862,,,,,,,,36,19,Vrouw,Links,2,
,dotcolour,dotcolour,xotask,27,4,267,567,main,negativefb,-99,easy,19,0.9675879000005807,['n'],1,right,['2'],5,0.32895600000028935,,,,,,,,36,19,Vrouw,Links,2,
,dotcolour,dotcolour,xotask,28,4,268,568,main,negativefb,-99,average,52,0.8678143999995882,['c'],1,left,['2'],5,0.26637940000000526,,,,,,,,36,19,Vrouw,Links,2,
,dotcolour,dotcolour,xotask,29,4,269,569,main,negativefb,-99,easy,16,0.8852429999997184,['n'],1,right,['2'],5,0.4920401999997921,,,,,,,,36,19,Vrouw,Links,2,
,dotcolour,dotcolour,xotask,30,4,270,570,main,negativefb,-99,average,27,1.7837997000005998,['n'],1,right,['2'],5,0.3468230999997104,,,,,,,,36,19,Vrouw,Links,2,
,dotcolour,dotcolour,xotask,31,4,271,571,main,negativefb,-99,easy,63,0.934789400000227,['c'],1,left,['2'],5,0.40062310000030266,,,,,,,,36,19,Vrouw,Links,2,
,dotcolour,dotcolour,xotask,32,4,272,572,main,negativefb,-99,average,28,1.3843489000000773,['n'],1,right,['3'],4,0.6021397000004072,,,,,,,,36,19,Vrouw,Links,2,
,dotcolour,dotcolour,xotask,33,4,273,573,main,negativefb,-99,hard,42,1.018031499999779,['n'],0,left,['1'],6,0.5857582999997248,,,,,,,,36,19,Vrouw,Links,2,
,dotcolour,dotcolour,xotask,34,4,274,574,main,negativefb,-99,average,51,0.8008395999995628,['n'],0,left,['1'],6,0.2589806999994835,,,,,,,,36,19,Vrouw,Links,2,
,dotcolour,dotcolour,xotask,35,4,275,575,main,negativefb,-99,easy,16,2.3015926999996736,['n'],1,right,['2'],5,0.2295524999999543,,,,,,,,36,19,Vrouw,Links,2,
,dotcolour,dotcolour,xotask,36,4,276,576,main,negativefb,-99,average,28,1.433603000000403,['c'],0,right,['2'],5,0.26893659999950614,,,,,,,,36,19,Vrouw,Links,2,
,dotcolour,dotcolour,xotask,37,4,277,577,main,negativefb,-99,hard,35,0.8511335000002873,['n'],1,right,['3'],4,1.3690669999996317,,,,,,,,36,19,Vrouw,Links,2,
,dotcolour,dotcolour,xotask,38,4,278,578,main,negativefb,-99,easy,64,0.7344662000004973,['c'],1,left,['2'],5,0.23752280000007886,,,,,,,,36,19,Vrouw,Links,2,
,dotcolour,dotcolour,xotask,39,4,279,579,main,negativefb,-99,easy,64,0.5848500000001877,['c'],1,left,['1'],6,0.37360459999945306,,,,,,,,36,19,Vrouw,Links,2,
,dotcolour,dotcolour,xotask,40,4,280,580,main,negativefb,-99,average,52,0.617493600000671,['c'],1,left,['1'],6,0.24666309999975056,,,,,,,,36,19,Vrouw,Links,2,
,dotcolour,dotcolour,xotask,41,4,281,581,main,negativefb,-99,easy,17,1.2841275999999198,['n'],1,right,['8'],3,2.371295199999622,,,,,,,,36,19,Vrouw,Links,2,
,dotcolour,dotcolour,xotask,42,4,282,582,main,negativefb,-99,hard,35,3.184787099999994,['n'],1,right,['3'],4,0.7417112000002817,,,,,,,,36,19,Vrouw,Links,2,
,dotcolour,dotcolour,xotask,43,4,283,583,main,negativefb,-99,hard,43,2.718425400000342,['c'],1,left,['3'],4,0.2523260999996637,,,,,,,,36,19,Vrouw,Links,2,
,dotcolour,dotcolour,xotask,44,4,284,584,main,negativefb,-99,easy,62,0.5514214000004358,['c'],1,left,['2'],5,0.2769298000002891,,,,,,,,36,19,Vrouw,Links,2,
,dotcolour,dotcolour,xotask,45,4,285,585,main,negativefb,-99,average,54,0.8171045000008235,['c'],1,left,['3'],4,0.3218925000001036,,,,,,,,36,19,Vrouw,Links,2,
,dotcolour,dotcolour,xotask,46,4,286,586,main,negativefb,-99,average,26,0.6833629000002475,['n'],1,right,['2'],5,0.2751101000003473,,,,,,,,36,19,Vrouw,Links,2,
,dotcolour,dotcolour,xotask,47,4,287,587,main,negativefb,-99,average,26,0.5343776999998227,['n'],1,right,['2'],5,0.26751319999948464,,,,,,,,36,19,Vrouw,Links,2,
,dotcolour,dotcolour,xotask,48,4,288,588,main,negativefb,-99,hard,36,0.48483850000047823,['n'],1,right,['2'],5,0.29398849999961385,,,,,,,,36,19,Vrouw,Links,2,
,dotcolour,dotcolour,xotask,49,4,289,589,main,negativefb,-99,hard,37,1.367972799999734,['c'],0,right,['3'],4,0.2614127999995617,,,,,,,,36,19,Vrouw,Links,2,
,dotcolour,dotcolour,xotask,50,4,290,590,main,negativefb,-99,hard,45,0.9168806999996377,['c'],1,left,['3'],4,1.1665929999999207,,,,,,,,36,19,Vrouw,Links,2,
,dotcolour,dotcolour,xotask,51,4,291,591,main,negativefb,-99,average,28,1.1843476999993072,['n'],1,right,['3'],4,0.585605499999474,,,,,,,,36,19,Vrouw,Links,2,
,dotcolour,dotcolour,xotask,52,4,292,592,main,negativefb,-99,hard,36,0.8840436999998929,['n'],1,right,['3'],4,0.27974410000024363,,,,,,,,36,19,Vrouw,Links,2,
,dotcolour,dotcolour,xotask,53,4,293,593,main,negativefb,-99,hard,41,0.6829373999999007,['n'],0,left,['3'],4,0.22610619999977644,,,,,,,,36,19,Vrouw,Links,2,
,dotcolour,dotcolour,xotask,54,4,294,594,main,negativefb,-99,easy,19,0.8680617999998503,['n'],1,right,['2'],5,0.3036288000002969,,,,,,,,36,19,Vrouw,Links,2,
,dotcolour,dotcolour,xotask,55,4,295,595,main,negativefb,-99,easy,15,0.7345215999994252,['n'],1,right,['2'],5,0.24693959999967774,,,,,,,,36,19,Vrouw,Links,2,
,dotcolour,dotcolour,xotask,56,4,296,596,main,negativefb,-99,easy,61,1.3181216000002678,['c'],1,left,['2'],5,0.2337654000002658,,,,,,,,36,19,Vrouw,Links,2,
,dotcolour,dotcolour,xotask,57,4,297,597,main,negativefb,-99,average,29,0.8683139000004303,['n'],1,right,['3'],4,0.4064442999997482,,,,,,,,36,19,Vrouw,Links,2,
,dotcolour,dotcolour,xotask,58,4,298,598,main,negativefb,-99,hard,44,0.9344296999997823,['c'],1,left,['2'],5,0.27408740000009857,,,,,,,,36,19,Vrouw,Links,2,
,dotcolour,dotcolour,xotask,59,4,299,599,main,negativefb,-99,hard,39,1.8852379999998448,['n'],1,right,['3'],4,0.5567275000003065,,,,,,,,36,19,Vrouw,Links,2,
,dotcolour,dotcolour,xotask,0,0,0,600,training,negativefb,53,average,29,1.5506055999994715,['n'],1,right,['3'],4,0.2015421999994942,,,,,,,,36,19,Vrouw,Links,2,
,dotcolour,dotcolour,xotask,1,0,1,601,training,negativefb,76,easy,18,0.6176046999999016,['n'],1,right,['2'],5,0.13622719999966648,,,,,,,,36,19,Vrouw,Links,2,
,dotcolour,dotcolour,xotask,2,0,2,602,training,negativefb,36,hard,37,1.7338846000002377,['n'],1,right,['3'],4,0.27782870000010007,,,,,,,,36,19,Vrouw,Links,2,
,dotcolour,dotcolour,xotask,3,0,3,603,training,negativefb,68,average,29,0.6833967000002303,['n'],1,right,['2'],5,0.2477176000002146,,,,,,,,36,19,Vrouw,Links,2,
,dotcolour,dotcolour,xotask,4,0,4,604,training,negativefb,31,easy,18,0.5675419999997757,['n'],1,right,['2'],5,0.23127560000011727,,,,,,,,36,19,Vrouw,Links,2,
,dotcolour,dotcolour,xotask,5,0,5,605,training,negativefb,65,hard,41,1.3170865000001868,['c'],1,left,['3'],4,0.3774876999996195,,,,,,,,36,19,Vrouw,Links,2,
,dotcolour,dotcolour,xotask,6,0,6,606,training,negativefb,36,average,28,1.800091699999939,['c'],0,right,['3'],4,0.258570700000746,,,,,,,,36,19,Vrouw,Links,2,
,dotcolour,dotcolour,xotask,7,0,7,607,training,negativefb,14,hard,45,1.3674583000001803,['n'],0,left,['8'],3,2.401593700000376,,,,,,,,36,19,Vrouw,Links,2,
,dotcolour,dotcolour,xotask,8,0,8,608,training,negativefb,62,average,29,0.8339765999999145,['n'],1,right,['3'],4,0.320071299999654,,,,,,,,36,19,Vrouw,Links,2,
,dotcolour,dotcolour,xotask,9,0,9,609,training,negativefb,84,average,51,0.8998154999999315,['c'],1,left,['3'],4,0.1838633999996091,,,,,,,,36,19,Vrouw,Links,2,
,dotcolour,dotcolour,xotask,10,0,10,610,training,negativefb,81,average,54,0.7005137999994986,['c'],1,left,['3'],4,0.23610310000003665,,,,,,,,36,19,Vrouw,Links,2,
,dotcolour,dotcolour,xotask,11,0,11,611,training,negativefb,74,hard,37,1.1162783000008858,['n'],1,right,['3'],4,0.18184840000049007,,,,,,,,36,19,Vrouw,Links,2,
,dotcolour,dotcolour,xotask,12,0,12,612,training,negativefb,64,easy,64,0.9171465999997963,['c'],1,left,['2'],5,0.2107529999993858,,,,,,,,36,19,Vrouw,Links,2,
,dotcolour,dotcolour,xotask,13,0,13,613,training,negativefb,74,hard,39,0.8174731999997675,['n'],1,right,['3'],4,0.2333610999994562,,,,,,,,36,19,Vrouw,Links,2,
,dotcolour,dotcolour,xotask,14,0,14,614,training,negativefb,57,hard,45,3.5679638000001432,['c'],1,left,['2'],5,0.25696289999996225,,,,,,,,36,19,Vrouw,Links,2,
,dotcolour,dotcolour,xotask,15,0,15,615,training,negativefb,65,average,52,1.0333182999993369,['n'],0,left,['2'],5,0.21379459999934625,,,,,,,,36,19,Vrouw,Links,2,
,dotcolour,dotcolour,xotask,16,0,16,616,training,negativefb,35,easy,65,0.7001752999995006,['n'],0,left,['2'],5,0.17853959999956714,,,,,,,,36,19,Vrouw,Links,2,
,dotcolour,dotcolour,xotask,17,0,17,617,training,negativefb,24,average,53,1.1171126999997796,['n'],0,left,['2'],5,0.19112700000005134,,,,,,,,36,19,Vrouw,Links,2,
,dotcolour,dotcolour,xotask,18,0,18,618,training,negativefb,81,easy,65,0.7842718000001696,['n'],0,left,['2'],5,0.2725942999995823,,,,,,,,36,19,Vrouw,Links,2,
,dotcolour,dotcolour,xotask,19,0,19,619,training,negativefb,49,easy,64,0.6174854000000778,['c'],1,left,['2'],5,0.23734650000005786,,,,,,,,36,19,Vrouw,Links,2,
,dotcolour,dotcolour,xotask,20,0,20,620,training,negativefb,51,average,27,0.8160490999998729,['n'],1,right,['2'],5,0.25063090000003285,,,,,,,,36,19,Vrouw,Links,2,
,dotcolour,dotcolour,xotask,21,0,21,621,training,negativefb,54,hard,36,2.116922400000476,['n'],1,right,['2'],5,0.16479580000032001,,,,,,,,36,19,Vrouw,Links,2,
,dotcolour,dotcolour,xotask,22,0,22,622,training,negativefb,64,hard,45,1.066413100000318,['c'],1,left,['3'],4,0.2831507999999303,,,,,,,,36,19,Vrouw,Links,2,
,dotcolour,dotcolour,xotask,23,0,23,623,training,negativefb,32,average,29,0.8490602000001672,['n'],1,right,['3'],4,0.77347650000047,,,,,,,,36,19,Vrouw,Links,2,
,dotcolour,dotcolour,xotask,24,0,24,624,training,negativefb,9,hard,42,1.817076299999826,['n'],0,left,['3'],4,0.48648529999991297,,,,,,,,36,19,Vrouw,Links,2,
,dotcolour,dotcolour,xotask,25,0,25,625,training,negativefb,48,average,27,0.6834441999999399,['c'],0,right,['2'],5,0.2561071999998603,,,,,,,,36,19,Vrouw,Links,2,
,dotcolour,dotcolour,xotask,26,0,26,626,training,negativefb,65,easy,64,1.0176559000001362,['c'],1,left,['2'],5,0.261588400000619,,,,,,,,36,19,Vrouw,Links,2,
,dotcolour,dotcolour,xotask,27,0,27,627,training,negativefb,88,easy,62,1.3824919999997292,['c'],1,left,['2'],5,0.29191089999949327,,,,,,,,36,19,Vrouw,Links,2,
,dotcolour,dotcolour,xotask,28,0,28,628,training,negativefb,79,easy,63,0.8178141999997024,['c'],1,left,['1'],6,0.31228680000003806,,,,,,,,36,19,Vrouw,Links,2,
,dotcolour,dotcolour,xotask,29,0,29,629,training,negativefb,65,average,55,3.5337839999992866,['c'],1,left,['2'],5,0.3022575000004508,,,,,,,,36,19,Vrouw,Links,2,
,dotcolour,dotcolour,xotask,30,0,30,630,training,negativefb,26,average,54,0.6492360000002009,['c'],1,left,['2'],5,0.23288630000024568,,,,,,,,36,19,Vrouw,Links,2,
,dotcolour,dotcolour,xotask,31,0,31,631,training,negativefb,94,easy,61,0.40055149999989226,['c'],1,left,['2'],5,0.18344040000010864,,,,,,,,36,19,Vrouw,Links,2,
,dotcolour,dotcolour,xotask,32,0,32,632,training,negativefb,63,average,52,0.46681470000021363,['c'],1,left,['2'],5,0.18945960000019113,,,,,,,,36,19,Vrouw,Links,2,
