starttime,task,fbtask,firsttask,withinblocktrial,block,withintasktrial,trial,running,feedback,fbscore,difflevel,reddots,rt,resp,cor,cresp,conf_press,cj,RTconf,n_xes,stoptime,sub,age,gender,handedness,session,
1714638862,dotcolour,dotcolour,dotcolour,0,0,0,0,training,positivefb,1,easy,65,2.951836700000058,['n'],0,left,['2'],5,4.013625300000058,,,5,19,Vrouw,Rechts,1,
,dotcolour,dotcolour,dotcolour,1,0,1,1,training,positivefb,50,average,51,3.61756830000013,['c'],1,left,['2'],5,1.7232622999999876,,,5,19,Vrouw,Rechts,1,
,dotcolour,dotcolour,dotcolour,2,0,2,2,training,positivefb,100,easy,17,1.1667618999999831,['n'],1,right,['1'],6,4.968660499999714,,,5,19,Vrouw,Rechts,1,
,dotcolour,dotcolour,dotcolour,3,0,3,3,training,positivefb,83,easy,63,2.8668203999995967,['c'],1,left,['1'],6,1.069415900000422,,,5,19,Vrouw,Rechts,1,
,dotcolour,dotcolour,dotcolour,4,0,4,4,training,positivefb,97,easy,64,1.1826676999999108,['c'],1,left,['1'],6,1.538846000000376,,,5,19,Vrouw,Rechts,1,
,dotcolour,dotcolour,dotcolour,5,0,5,5,training,positivefb,96,hard,45,2.132545499999651,['c'],1,left,['3'],4,2.5524905000002036,,,5,19,Vrouw,Rechts,1,
,dotcolour,dotcolour,dotcolour,6,0,6,6,training,positivefb,87,average,51,1.6331508999992366,['c'],1,left,['3'],4,1.2155059000006077,,,5,19,Vrouw,Rechts,1,
,dotcolour,dotcolour,dotcolour,7,0,7,7,training,positivefb,48,hard,39,2.082968699999583,['c'],0,right,['3'],4,1.0600125000000844,,,5,19,Vrouw,Rechts,1,
,dotcolour,dotcolour,dotcolour,8,0,8,8,training,positivefb,82,hard,44,2.7840756999994483,['c'],1,left,['3'],4,1.8664049999997587,,,5,19,Vrouw,Rechts,1,
,dotcolour,dotcolour,dotcolour,9,0,9,9,training,positivefb,97,hard,36,1.4003176999995048,['n'],1,right,['3'],4,1.8152509999999893,,,5,19,Vrouw,Rechts,1,
,dotcolour,dotcolour,dotcolour,10,0,10,10,training,positivefb,97,average,52,1.016924900000049,['c'],1,left,['2'],5,0.59800819999964,,,5,19,Vrouw,Rechts,1,
,dotcolour,dotcolour,dotcolour,11,0,11,11,training,positivefb,99,easy,18,1.08345829999962,['n'],1,right,['2'],5,1.4107562999997754,,,5,19,Vrouw,Rechts,1,
,dotcolour,dotcolour,dotcolour,12,0,12,12,training,positivefb,99,average,54,1.1334256000000096,['c'],1,left,['2'],5,0.5740670999994109,,,5,19,Vrouw,Rechts,1,
,dotcolour,dotcolour,dotcolour,13,0,13,13,training,positivefb,94,easy,18,0.8341311999993195,['n'],1,right,['1'],6,0.5340248000002248,,,5,19,Vrouw,Rechts,1,
,dotcolour,dotcolour,dotcolour,14,0,14,14,training,positivefb,75,easy,61,2.1326497000000018,['c'],1,left,['1'],6,0.9945065000001705,,,5,19,Vrouw,Rechts,1,
,dotcolour,dotcolour,dotcolour,15,0,15,15,training,positivefb,97,easy,64,1.1832228000002942,['c'],1,left,['1'],6,1.9805959000004805,,,5,19,Vrouw,Rechts,1,
,dotcolour,dotcolour,dotcolour,16,0,16,16,training,positivefb,97,easy,62,1.0005745000007664,['c'],1,left,['1'],6,0.8367576999999073,,,5,19,Vrouw,Rechts,1,
,dotcolour,dotcolour,dotcolour,17,0,17,17,training,positivefb,34,hard,38,2.06733019999956,['c'],0,right,['2'],5,1.2731751000001168,,,5,19,Vrouw,Rechts,1,
,dotcolour,dotcolour,dotcolour,18,0,18,18,training,positivefb,99,average,25,0.8508781999998973,['n'],1,right,['1'],6,1.5161557000001267,,,5,19,Vrouw,Rechts,1,
,dotcolour,dotcolour,dotcolour,19,0,19,19,training,positivefb,84,hard,39,1.26673799999935,['n'],1,right,['2'],5,0.6207243999997445,,,5,19,Vrouw,Rechts,1,
,dotcolour,dotcolour,dotcolour,20,0,20,20,training,positivefb,92,easy,16,1.2671652999997605,['n'],1,right,['2'],5,0.632886000000326,,,5,19,Vrouw,Rechts,1,
,dotcolour,dotcolour,dotcolour,21,0,21,21,training,positivefb,66,easy,19,1.0670474000007744,['n'],1,right,['1'],6,1.2050423999999111,,,5,19,Vrouw,Rechts,1,
,dotcolour,dotcolour,dotcolour,22,0,22,22,training,positivefb,88,hard,35,1.2663582999994105,['n'],1,right,['2'],5,0.9146399000001111,,,5,19,Vrouw,Rechts,1,
,dotcolour,dotcolour,dotcolour,23,0,23,23,training,positivefb,84,average,29,1.2834968000006484,['n'],1,right,['2'],5,0.8183803000001717,,,5,19,Vrouw,Rechts,1,
,dotcolour,dotcolour,dotcolour,24,0,24,24,training,positivefb,89,average,25,1.4828137999993487,['n'],1,right,['2'],5,0.8067786000001433,,,5,19,Vrouw,Rechts,1,
,dotcolour,dotcolour,dotcolour,25,0,25,25,training,positivefb,99,average,52,1.850229099999524,['c'],1,left,['3'],4,1.204262000000199,,,5,19,Vrouw,Rechts,1,
,dotcolour,dotcolour,dotcolour,26,0,26,26,training,positivefb,99,easy,16,0.8005118000000948,['n'],1,right,['1'],6,0.5888628000002427,,,5,19,Vrouw,Rechts,1,
,dotcolour,dotcolour,dotcolour,27,0,27,27,training,positivefb,76,hard,44,2.6674340999998094,['c'],1,left,['2'],5,0.9062343000005058,,,5,19,Vrouw,Rechts,1,
,dotcolour,dotcolour,dotcolour,28,0,28,28,training,positivefb,65,hard,41,1.300002900000436,['n'],0,left,['2'],5,0.6105093000005581,,,5,19,Vrouw,Rechts,1,
,dotcolour,dotcolour,dotcolour,29,0,29,29,training,positivefb,93,average,29,0.7493547000003673,['n'],1,right,['2'],5,0.8611562000005506,,,5,19,Vrouw,Rechts,1,
,dotcolour,dotcolour,dotcolour,30,0,30,30,training,positivefb,98,average,29,0.9174537999997483,['n'],1,right,['1'],6,0.43786330000057205,,,5,19,Vrouw,Rechts,1,
,dotcolour,dotcolour,dotcolour,31,0,31,31,training,positivefb,96,easy,64,1.283016299999872,['c'],1,left,['1'],6,0.5053030000008221,,,5,19,Vrouw,Rechts,1,
,dotcolour,dotcolour,dotcolour,32,0,32,32,training,positivefb,98,easy,19,0.9174278000000413,['n'],1,right,['1'],6,0.79270649999944,,,5,19,Vrouw,Rechts,1,
,dotcolour,dotcolour,dotcolour,33,0,33,33,training,positivefb,94,hard,36,1.1998373000005813,['n'],1,right,['2'],5,0.6735690999994404,,,5,19,Vrouw,Rechts,1,
,dotcolour,dotcolour,dotcolour,34,0,34,34,training,positivefb,82,hard,39,1.4830919999994876,['n'],1,right,['2'],5,2.80290690000038,,,5,19,Vrouw,Rechts,1,
,dotcolour,dotcolour,dotcolour,35,0,35,35,training,positivefb,97,average,25,0.751054500000464,['n'],1,right,['1'],6,0.32474139999976614,,,5,19,Vrouw,Rechts,1,
,dotcolour,dotcolour,dotcolour,36,0,36,36,training,positivefb,85,average,54,1.7832530000005136,['c'],1,left,['2'],5,1.665077999999994,,,5,19,Vrouw,Rechts,1,
,dotcolour,dotcolour,dotcolour,37,0,37,37,training,positivefb,96,average,52,1.6666955999999118,['c'],1,left,['3'],4,0.9625891999994565,,,5,19,Vrouw,Rechts,1,
,dotcolour,dotcolour,dotcolour,38,0,38,38,training,positivefb,52,hard,45,2.4168085999999676,['n'],0,left,['2'],5,0.7719651000006706,,,5,19,Vrouw,Rechts,1,
,dotcolour,dotcolour,dotcolour,39,0,39,39,training,positivefb,57,hard,44,1.7169141000003947,['c'],1,left,['3'],4,0.9214690999997401,,,5,19,Vrouw,Rechts,1,
,dotcolour,dotcolour,dotcolour,40,0,40,40,training,positivefb,32,hard,37,1.6989535000002434,['n'],1,right,['2'],5,1.1278848000001744,,,5,19,Vrouw,Rechts,1,
,dotcolour,dotcolour,dotcolour,41,0,41,41,training,positivefb,91,average,25,1.7328170000000682,['n'],1,right,['2'],5,1.5020463999999265,,,5,19,Vrouw,Rechts,1,
,dotcolour,dotcolour,dotcolour,42,0,42,42,training,positivefb,81,hard,45,2.683405699999639,['c'],1,left,['3'],4,0.9745935999999347,,,5,19,Vrouw,Rechts,1,
,dotcolour,dotcolour,dotcolour,43,0,43,43,training,positivefb,92,easy,19,0.8167544999996608,['n'],1,right,['1'],6,0.44722970000020723,,,5,19,Vrouw,Rechts,1,
,dotcolour,dotcolour,dotcolour,44,0,44,44,training,positivefb,75,average,52,0.933840799999416,['c'],1,left,['1'],6,1.3045557999994344,,,5,19,Vrouw,Rechts,1,
,dotcolour,dotcolour,dotcolour,45,0,45,45,training,positivefb,70,hard,42,3.7502973000000566,['c'],1,left,['3'],4,0.957848500000182,,,5,19,Vrouw,Rechts,1,
,dotcolour,dotcolour,dotcolour,46,0,46,46,training,positivefb,95,easy,62,1.0672138999998424,['c'],1,left,['2'],5,0.7177478000003248,,,5,19,Vrouw,Rechts,1,
,dotcolour,dotcolour,dotcolour,47,0,47,47,training,positivefb,92,hard,41,1.3170694999998886,['n'],0,left,['2'],5,1.7328567999993538,,,5,19,Vrouw,Rechts,1,
,dotcolour,dotcolour,dotcolour,48,0,48,48,training,positivefb,94,easy,62,0.9335190000001603,['c'],1,left,['1'],6,0.5456989999993311,,,5,19,Vrouw,Rechts,1,
,dotcolour,dotcolour,dotcolour,49,0,49,49,training,positivefb,93,average,28,1.117181200000232,['n'],1,right,['1'],6,0.7270028999992064,,,5,19,Vrouw,Rechts,1,
,dotcolour,dotcolour,dotcolour,50,0,50,50,training,positivefb,99,easy,65,0.8010828000005858,['c'],1,left,['1'],6,0.5863042999999379,,,5,19,Vrouw,Rechts,1,
,dotcolour,dotcolour,dotcolour,51,0,51,51,training,positivefb,95,easy,17,0.9667158000002019,['n'],1,right,['1'],6,0.7809489999999641,,,5,19,Vrouw,Rechts,1,
,dotcolour,dotcolour,dotcolour,52,0,52,52,training,positivefb,90,average,28,1.216758900000059,['n'],1,right,['2'],5,0.37291089999962423,,,5,19,Vrouw,Rechts,1,
,dotcolour,dotcolour,dotcolour,53,0,53,53,training,positivefb,53,hard,38,2.0338088999997126,['n'],1,right,['2'],5,0.8939452000004167,,,5,19,Vrouw,Rechts,1,
,dotcolour,dotcolour,dotcolour,54,0,54,54,training,positivefb,84,average,54,1.1335181999993438,['c'],1,left,['1'],6,0.4044017000005624,,,5,19,Vrouw,Rechts,1,
,dotcolour,dotcolour,dotcolour,55,0,55,55,training,positivefb,82,average,51,1.9002653999996255,['c'],1,left,['2'],5,1.1048166999999012,,,5,19,Vrouw,Rechts,1,
,dotcolour,dotcolour,dotcolour,56,0,56,56,training,positivefb,100,hard,39,1.0173357000003307,['n'],1,right,['3'],4,1.2276100999997652,,,5,19,Vrouw,Rechts,1,
,dotcolour,dotcolour,dotcolour,57,0,57,57,training,positivefb,96,average,26,1.0664874000003692,['n'],1,right,['1'],6,1.688412700000299,,,5,19,Vrouw,Rechts,1,
,dotcolour,dotcolour,dotcolour,58,0,58,58,training,positivefb,85,easy,18,1.1167685999998866,['n'],1,right,['1'],6,0.3756014000000505,,,5,19,Vrouw,Rechts,1,
,dotcolour,dotcolour,dotcolour,59,0,59,59,training,positivefb,97,hard,45,1.1171324999995704,['c'],1,left,['1'],6,0.8606077000004007,,,5,19,Vrouw,Rechts,1,
,dotcolour,dotcolour,dotcolour,0,1,60,60,training,positivefb,54,hard,41,1.2678331000006438,['n'],0,left,['1'],6,1.2880974999998216,,,5,19,Vrouw,Rechts,1,
,dotcolour,dotcolour,dotcolour,1,1,61,61,training,positivefb,97,average,29,0.7339563000005,['n'],1,right,['1'],6,0.815677799999321,,,5,19,Vrouw,Rechts,1,
,dotcolour,dotcolour,dotcolour,2,1,62,62,training,positivefb,70,average,28,1.7174752000000808,['n'],1,right,['2'],5,0.827175299999908,,,5,19,Vrouw,Rechts,1,
,dotcolour,dotcolour,dotcolour,3,1,63,63,training,positivefb,86,easy,65,1.166559899999811,['c'],1,left,['1'],6,0.8108154999999897,,,5,19,Vrouw,Rechts,1,
,dotcolour,dotcolour,dotcolour,4,1,64,64,training,positivefb,100,average,52,1.7999706000000515,['c'],1,left,['3'],4,1.1867168999997375,,,5,19,Vrouw,Rechts,1,
,dotcolour,dotcolour,dotcolour,5,1,65,65,training,positivefb,93,average,55,1.584455899999739,['c'],1,left,['2'],5,0.700089900000421,,,5,19,Vrouw,Rechts,1,
,dotcolour,dotcolour,dotcolour,6,1,66,66,training,positivefb,90,average,28,0.9007225000004837,['n'],1,right,['2'],5,0.6527579000003243,,,5,19,Vrouw,Rechts,1,
,dotcolour,dotcolour,dotcolour,7,1,67,67,training,positivefb,98,easy,18,0.7332702000003337,['n'],1,right,['1'],6,0.32524499999999534,,,5,19,Vrouw,Rechts,1,
,dotcolour,dotcolour,dotcolour,8,1,68,68,training,positivefb,90,easy,16,0.7008132000000842,['n'],1,right,['1'],6,0.3479701999995086,,,5,19,Vrouw,Rechts,1,
,dotcolour,dotcolour,dotcolour,9,1,69,69,training,positivefb,98,easy,18,0.650634199999331,['n'],1,right,['1'],6,0.38854780000019673,,,5,19,Vrouw,Rechts,1,
,dotcolour,dotcolour,dotcolour,10,1,70,70,training,positivefb,31,hard,35,2.4661123999994743,['n'],1,right,['3'],4,0.8501448000006349,,,5,19,Vrouw,Rechts,1,
,dotcolour,dotcolour,dotcolour,11,1,71,71,training,positivefb,94,hard,36,1.5497308000003613,['n'],1,right,['2'],5,0.6023981999996977,,,5,19,Vrouw,Rechts,1,
,dotcolour,dotcolour,dotcolour,12,1,72,72,training,positivefb,94,easy,16,0.7491337999999814,['n'],1,right,['1'],6,0.4042128999999477,,,5,19,Vrouw,Rechts,1,
,dotcolour,dotcolour,dotcolour,13,1,73,73,training,positivefb,98,easy,19,0.800737499999741,['n'],1,right,['1'],6,0.3883670000004713,,,5,19,Vrouw,Rechts,1,
,dotcolour,dotcolour,dotcolour,14,1,74,74,training,positivefb,82,hard,36,1.2998156000003291,['n'],1,right,['1'],6,0.47371170000042184,,,5,19,Vrouw,Rechts,1,
,dotcolour,dotcolour,dotcolour,15,1,75,75,training,positivefb,90,average,26,0.8493637999999919,['n'],1,right,['2'],5,0.38857629999984056,,,5,19,Vrouw,Rechts,1,
,dotcolour,dotcolour,dotcolour,16,1,76,76,training,positivefb,94,average,29,0.7346267000002626,['n'],1,right,['1'],6,0.8713025000006382,,,5,19,Vrouw,Rechts,1,
,dotcolour,dotcolour,dotcolour,17,1,77,77,training,positivefb,100,easy,63,1.0830246999994415,['c'],1,left,['1'],6,0.7059734000004028,,,5,19,Vrouw,Rechts,1,
,dotcolour,dotcolour,dotcolour,18,1,78,78,training,positivefb,92,easy,18,0.7674807000003057,['n'],1,right,['1'],6,0.2947868000001108,,,5,19,Vrouw,Rechts,1,
,dotcolour,dotcolour,dotcolour,19,1,79,79,training,positivefb,97,average,53,1.117042500000025,['c'],1,left,['1'],6,1.3995247000002564,,,5,19,Vrouw,Rechts,1,
,dotcolour,dotcolour,dotcolour,20,1,80,80,training,positivefb,81,average,54,1.46720760000062,['c'],1,left,['1'],6,0.6921082999997452,,,5,19,Vrouw,Rechts,1,
,dotcolour,dotcolour,dotcolour,21,1,81,81,training,positivefb,90,average,55,1.0169354999998177,['c'],1,left,['1'],6,0.7685138000006191,,,5,19,Vrouw,Rechts,1,
,dotcolour,dotcolour,dotcolour,22,1,82,82,training,positivefb,71,hard,43,2.166673799999444,['n'],0,left,['3'],4,0.7308658000001742,,,5,19,Vrouw,Rechts,1,
,dotcolour,dotcolour,dotcolour,23,1,83,83,training,positivefb,63,hard,44,4.18376840000019,['c'],1,left,['3'],4,0.6299177999999301,,,5,19,Vrouw,Rechts,1,
,dotcolour,dotcolour,dotcolour,24,1,84,84,training,positivefb,68,hard,39,1.2653953999997611,['n'],1,right,['3'],4,0.6591945000000123,,,5,19,Vrouw,Rechts,1,
,dotcolour,dotcolour,dotcolour,25,1,85,85,training,positivefb,71,hard,44,1.9994956999998976,['n'],0,left,['2'],5,0.7688023000000612,,,5,19,Vrouw,Rechts,1,
,dotcolour,dotcolour,dotcolour,26,1,86,86,training,positivefb,100,easy,15,0.9172142000006716,['n'],1,right,['1'],6,0.80554630000006,,,5,19,Vrouw,Rechts,1,
,dotcolour,dotcolour,dotcolour,27,1,87,87,training,positivefb,21,hard,42,1.2505473000001075,['n'],0,left,['3'],4,1.1631176000000778,,,5,19,Vrouw,Rechts,1,
,dotcolour,dotcolour,dotcolour,28,1,88,88,training,positivefb,90,hard,36,1.550950699999703,['n'],1,right,['2'],5,1.639057899999898,,,5,19,Vrouw,Rechts,1,
,dotcolour,dotcolour,dotcolour,29,1,89,89,training,positivefb,99,average,51,1.066628299999138,['c'],1,left,['2'],5,0.7790519999998651,,,5,19,Vrouw,Rechts,1,
,dotcolour,dotcolour,dotcolour,30,1,90,90,training,positivefb,86,hard,35,1.7007541000002675,['n'],1,right,['2'],5,0.31189500000073167,,,5,19,Vrouw,Rechts,1,
,dotcolour,dotcolour,dotcolour,31,1,91,91,training,positivefb,92,average,26,0.9171349999996892,['n'],1,right,['2'],5,0.33537840000008146,,,5,19,Vrouw,Rechts,1,
,dotcolour,dotcolour,dotcolour,32,1,92,92,training,positivefb,81,hard,37,1.167108499999813,['n'],1,right,['2'],5,0.3314732999997432,,,5,19,Vrouw,Rechts,1,
,dotcolour,dotcolour,dotcolour,33,1,93,93,training,positivefb,73,average,54,1.2339311999994607,['c'],1,left,['2'],5,0.6449753999995664,,,5,19,Vrouw,Rechts,1,
,dotcolour,dotcolour,dotcolour,34,1,94,94,training,positivefb,97,easy,65,1.2006670000000668,['c'],1,left,['1'],6,0.3312888999998904,,,5,19,Vrouw,Rechts,1,
,dotcolour,dotcolour,dotcolour,35,1,95,95,training,positivefb,98,easy,63,0.8006468000003224,['c'],1,left,['1'],6,0.765912699999717,,,5,19,Vrouw,Rechts,1,
,dotcolour,dotcolour,dotcolour,36,1,96,96,training,positivefb,87,average,26,1.7340104999993855,['n'],1,right,['1'],6,0.41855350000059843,,,5,19,Vrouw,Rechts,1,
,dotcolour,dotcolour,dotcolour,37,1,97,97,training,positivefb,87,average,27,0.9664178000002721,['n'],1,right,['1'],6,0.4429395999995904,,,5,19,Vrouw,Rechts,1,
,dotcolour,dotcolour,dotcolour,38,1,98,98,training,positivefb,97,easy,63,0.8503903000000719,['c'],1,left,['1'],6,0.3844563000002381,,,5,19,Vrouw,Rechts,1,
,dotcolour,dotcolour,dotcolour,39,1,99,99,training,positivefb,92,hard,38,1.5165506000003006,['n'],1,right,['2'],5,0.6761821000000054,,,5,19,Vrouw,Rechts,1,
,dotcolour,dotcolour,dotcolour,40,1,100,100,training,positivefb,89,average,54,0.9330943000004481,['c'],1,left,['2'],5,0.6677446000003329,,,5,19,Vrouw,Rechts,1,
,dotcolour,dotcolour,dotcolour,41,1,101,101,training,positivefb,99,hard,45,1.0337006999998266,['c'],1,left,['1'],6,0.863473299999896,,,5,19,Vrouw,Rechts,1,
,dotcolour,dotcolour,dotcolour,42,1,102,102,training,positivefb,89,average,53,1.9665312999995876,['c'],1,left,['2'],5,0.47125079999932495,,,5,19,Vrouw,Rechts,1,
,dotcolour,dotcolour,dotcolour,43,1,103,103,training,positivefb,97,easy,65,1.0831805999996504,['c'],1,left,['1'],6,1.6814927999994325,,,5,19,Vrouw,Rechts,1,
,dotcolour,dotcolour,dotcolour,44,1,104,104,training,positivefb,88,easy,16,2.1495304000000033,['n'],1,right,['1'],6,2.0317621000003783,,,5,19,Vrouw,Rechts,1,
,dotcolour,dotcolour,dotcolour,45,1,105,105,training,positivefb,89,easy,63,0.7164388999999574,['c'],1,left,['1'],6,0.5447721000000456,,,5,19,Vrouw,Rechts,1,
,dotcolour,dotcolour,dotcolour,46,1,106,106,training,positivefb,96,hard,38,1.3159646000003704,['n'],1,right,['1'],6,0.6067337000004045,,,5,19,Vrouw,Rechts,1,
,dotcolour,dotcolour,dotcolour,47,1,107,107,training,positivefb,97,average,27,1.2672667000006186,['n'],1,right,['1'],6,0.8279646000000866,,,5,19,Vrouw,Rechts,1,
,dotcolour,dotcolour,dotcolour,48,1,108,108,training,positivefb,33,hard,43,2.2505873000000065,['n'],0,left,['3'],4,0.6972519999999349,,,5,19,Vrouw,Rechts,1,
,dotcolour,dotcolour,dotcolour,49,1,109,109,training,positivefb,96,easy,62,0.8836582000003546,['c'],1,left,['1'],6,0.39498269999967306,,,5,19,Vrouw,Rechts,1,
,dotcolour,dotcolour,dotcolour,50,1,110,110,training,positivefb,77,hard,42,2.0500342999994245,['n'],0,left,['3'],4,0.8650653999993665,,,5,19,Vrouw,Rechts,1,
,dotcolour,dotcolour,dotcolour,51,1,111,111,training,positivefb,91,easy,63,0.8664584999996805,['c'],1,left,['1'],6,0.3960229000003892,,,5,19,Vrouw,Rechts,1,
,dotcolour,dotcolour,dotcolour,52,1,112,112,training,positivefb,98,average,26,0.817251600000418,['n'],1,right,['1'],6,0.42816099999981816,,,5,19,Vrouw,Rechts,1,
,dotcolour,dotcolour,dotcolour,53,1,113,113,training,positivefb,89,easy,62,1.300643499999751,['c'],1,left,['1'],6,0.6394458000004306,,,5,19,Vrouw,Rechts,1,
,dotcolour,dotcolour,dotcolour,54,1,114,114,training,positivefb,79,hard,42,1.3660641999995278,['n'],0,left,['2'],5,0.703122899999471,,,5,19,Vrouw,Rechts,1,
,dotcolour,dotcolour,dotcolour,55,1,115,115,training,positivefb,91,easy,15,0.7339751999998043,['n'],1,right,['1'],6,0.30177569999978004,,,5,19,Vrouw,Rechts,1,
,dotcolour,dotcolour,dotcolour,56,1,116,116,training,positivefb,86,easy,16,0.7172449999998207,['n'],1,right,['1'],6,0.35777239999970334,,,5,19,Vrouw,Rechts,1,
,dotcolour,dotcolour,dotcolour,57,1,117,117,training,positivefb,66,hard,41,1.0838870999996288,['n'],0,left,['2'],5,0.7644515000001775,,,5,19,Vrouw,Rechts,1,
,dotcolour,dotcolour,dotcolour,58,1,118,118,training,positivefb,88,hard,39,1.9675545999998576,['n'],1,right,['2'],5,0.47900769999978365,,,5,19,Vrouw,Rechts,1,
,dotcolour,dotcolour,dotcolour,59,1,119,119,training,positivefb,84,average,53,0.8676291000001584,['c'],1,left,['1'],6,0.8099159000003056,,,5,19,Vrouw,Rechts,1,
,dotcolour,dotcolour,dotcolour,0,2,120,120,main,positivefb,-99,average,53,1.5007207999997263,['c'],1,left,['1'],6,1.568623000000116,,,5,19,Vrouw,Rechts,1,
,dotcolour,dotcolour,dotcolour,1,2,121,121,main,positivefb,-99,easy,16,2.934217500000159,['n'],1,right,['1'],6,1.5975923999994848,,,5,19,Vrouw,Rechts,1,
,dotcolour,dotcolour,dotcolour,2,2,122,122,main,positivefb,-99,average,55,0.9502969999994093,['c'],1,left,['1'],6,0.42422850000002654,,,5,19,Vrouw,Rechts,1,
,dotcolour,dotcolour,dotcolour,3,2,123,123,main,positivefb,-99,easy,61,0.917742100000396,['c'],1,left,['1'],6,0.4196883999993588,,,5,19,Vrouw,Rechts,1,
,dotcolour,dotcolour,dotcolour,4,2,124,124,main,positivefb,-99,easy,63,0.9848935999998503,['c'],1,left,['1'],6,0.5806798000003255,,,5,19,Vrouw,Rechts,1,
,dotcolour,dotcolour,dotcolour,5,2,125,125,main,positivefb,-99,easy,19,1.3169528999997056,['n'],1,right,['1'],6,0.6895612999996956,,,5,19,Vrouw,Rechts,1,
,dotcolour,dotcolour,dotcolour,6,2,126,126,main,positivefb,-99,average,25,0.8338199999998324,['n'],1,right,['1'],6,0.38941739999972924,,,5,19,Vrouw,Rechts,1,
,dotcolour,dotcolour,dotcolour,7,2,127,127,main,positivefb,-99,hard,41,2.134792500000003,['c'],1,left,['3'],4,0.9142143999997643,,,5,19,Vrouw,Rechts,1,
,dotcolour,dotcolour,dotcolour,8,2,128,128,main,positivefb,-99,easy,15,0.7831901000008656,['n'],1,right,['1'],6,0.4061015999996016,,,5,19,Vrouw,Rechts,1,
,dotcolour,dotcolour,dotcolour,9,2,129,129,main,positivefb,-99,easy,16,0.8343013000003339,['n'],1,right,['1'],6,0.461398299999928,,,5,19,Vrouw,Rechts,1,
,dotcolour,dotcolour,dotcolour,10,2,130,130,main,positivefb,-99,easy,15,0.7510651000002326,['n'],1,right,['1'],6,0.49453619999985676,,,5,19,Vrouw,Rechts,1,
,dotcolour,dotcolour,dotcolour,11,2,131,131,main,positivefb,-99,average,29,0.9841967000002114,['n'],1,right,['1'],6,0.3884939999998096,,,5,19,Vrouw,Rechts,1,
,dotcolour,dotcolour,dotcolour,12,2,132,132,main,positivefb,-99,average,27,0.8341417999999976,['n'],1,right,['1'],6,0.42124560000047495,,,5,19,Vrouw,Rechts,1,
,dotcolour,dotcolour,dotcolour,13,2,133,133,main,positivefb,-99,easy,63,0.9343737999997757,['c'],1,left,['1'],6,0.5518176000005042,,,5,19,Vrouw,Rechts,1,
,dotcolour,dotcolour,dotcolour,14,2,134,134,main,positivefb,-99,average,28,0.7840475000002698,['n'],1,right,['1'],6,0.37858909999977186,,,5,19,Vrouw,Rechts,1,
,dotcolour,dotcolour,dotcolour,15,2,135,135,main,positivefb,-99,hard,36,1.917321500000071,['n'],1,right,['2'],5,0.9839053999994576,,,5,19,Vrouw,Rechts,1,
,dotcolour,dotcolour,dotcolour,16,2,136,136,main,positivefb,-99,hard,39,2.0344075000002704,['n'],1,right,['3'],4,3.848144200000206,,,5,19,Vrouw,Rechts,1,
,dotcolour,dotcolour,dotcolour,17,2,137,137,main,positivefb,-99,hard,45,2.96774699999969,['c'],1,left,['3'],4,0.6808145000004515,,,5,19,Vrouw,Rechts,1,
,dotcolour,dotcolour,dotcolour,18,2,138,138,main,positivefb,-99,average,27,0.8341665999996621,['n'],1,right,['2'],5,2.7011682999991535,,,5,19,Vrouw,Rechts,1,
,dotcolour,dotcolour,dotcolour,19,2,139,139,main,positivefb,-99,hard,35,1.783834000000752,['n'],1,right,['2'],5,0.7383912999994209,,,5,19,Vrouw,Rechts,1,
,dotcolour,dotcolour,dotcolour,20,2,140,140,main,positivefb,-99,hard,36,1.4670125000002372,['n'],1,right,['2'],5,0.5953102000003128,,,5,19,Vrouw,Rechts,1,
,dotcolour,dotcolour,dotcolour,21,2,141,141,main,positivefb,-99,easy,19,0.701126299999487,['n'],1,right,['1'],6,0.3358164000001125,,,5,19,Vrouw,Rechts,1,
,dotcolour,dotcolour,dotcolour,22,2,142,142,main,positivefb,-99,hard,42,2.4175045000001774,['n'],0,left,['2'],5,0.3067905999996583,,,5,19,Vrouw,Rechts,1,
,dotcolour,dotcolour,dotcolour,23,2,143,143,main,positivefb,-99,average,25,0.9856688999998369,['n'],1,right,['1'],6,0.2642593999999008,,,5,19,Vrouw,Rechts,1,
,dotcolour,dotcolour,dotcolour,24,2,144,144,main,positivefb,-99,average,54,3.901478199999474,['n'],0,left,['3'],4,0.40344809999987774,,,5,19,Vrouw,Rechts,1,
,dotcolour,dotcolour,dotcolour,25,2,145,145,main,positivefb,-99,easy,17,0.7337935000005018,['n'],1,right,['1'],6,0.3423957999993945,,,5,19,Vrouw,Rechts,1,
,dotcolour,dotcolour,dotcolour,26,2,146,146,main,positivefb,-99,hard,45,2.3508638000002975,['c'],1,left,['3'],4,0.42723649999970803,,,5,19,Vrouw,Rechts,1,
,dotcolour,dotcolour,dotcolour,27,2,147,147,main,positivefb,-99,average,51,1.451253799999904,['c'],1,left,['2'],5,0.5941289000002143,,,5,19,Vrouw,Rechts,1,
,dotcolour,dotcolour,dotcolour,28,2,148,148,main,positivefb,-99,easy,63,0.734238600000026,['c'],1,left,['1'],6,0.46923510000033275,,,5,19,Vrouw,Rechts,1,
,dotcolour,dotcolour,dotcolour,29,2,149,149,main,positivefb,-99,hard,37,1.601190399999723,['n'],1,right,['2'],5,1.2358608000004097,,,5,19,Vrouw,Rechts,1,
,dotcolour,dotcolour,dotcolour,30,2,150,150,main,positivefb,-99,hard,44,2.9348132000004625,['c'],1,left,['2'],5,0.6932356999996045,,,5,19,Vrouw,Rechts,1,
,dotcolour,dotcolour,dotcolour,31,2,151,151,main,positivefb,-99,hard,45,1.650587899999664,['c'],1,left,['2'],5,0.4335364999997182,,,5,19,Vrouw,Rechts,1,
,dotcolour,dotcolour,dotcolour,32,2,152,152,main,positivefb,-99,easy,17,0.9175762000004397,['n'],1,right,['1'],6,0.3236756999995123,,,5,19,Vrouw,Rechts,1,
,dotcolour,dotcolour,dotcolour,33,2,153,153,main,positivefb,-99,average,27,0.9171618000000308,['n'],1,right,['2'],5,0.6429459000000861,,,5,19,Vrouw,Rechts,1,
,dotcolour,dotcolour,dotcolour,34,2,154,154,main,positivefb,-99,average,53,1.0332704000002195,['c'],1,left,['1'],6,0.31325679999918066,,,5,19,Vrouw,Rechts,1,
,dotcolour,dotcolour,dotcolour,35,2,155,155,main,positivefb,-99,easy,63,0.9515129999999772,['c'],1,left,['1'],6,0.43230189999940194,,,5,19,Vrouw,Rechts,1,
,dotcolour,dotcolour,dotcolour,36,2,156,156,main,positivefb,-99,average,26,0.8336097000001246,['n'],1,right,['1'],6,0.8298715000000811,,,5,19,Vrouw,Rechts,1,
,dotcolour,dotcolour,dotcolour,37,2,157,157,main,positivefb,-99,hard,37,1.183794200000193,['n'],1,right,['2'],5,0.3665419999997539,,,5,19,Vrouw,Rechts,1,
,dotcolour,dotcolour,dotcolour,38,2,158,158,main,positivefb,-99,average,51,1.134495500000412,['c'],1,left,['1'],6,0.5074955999998565,,,5,19,Vrouw,Rechts,1,
,dotcolour,dotcolour,dotcolour,39,2,159,159,main,positivefb,-99,average,52,2.4346043999994436,['c'],1,left,['2'],5,0.7022906000001967,,,5,19,Vrouw,Rechts,1,
,dotcolour,dotcolour,dotcolour,40,2,160,160,main,positivefb,-99,average,28,0.9005576999998084,['n'],1,right,['1'],6,0.8307513999998264,,,5,19,Vrouw,Rechts,1,
,dotcolour,dotcolour,dotcolour,41,2,161,161,main,positivefb,-99,hard,45,1.8844006999997873,['n'],0,left,['2'],5,0.3796900999996069,,,5,19,Vrouw,Rechts,1,
,dotcolour,dotcolour,dotcolour,42,2,162,162,main,positivefb,-99,easy,19,0.7518249000004289,['n'],1,right,['1'],6,0.3430046000003131,,,5,19,Vrouw,Rechts,1,
,dotcolour,dotcolour,dotcolour,43,2,163,163,main,positivefb,-99,hard,42,1.0671418000001722,['c'],1,left,['2'],5,1.3355584000000817,,,5,19,Vrouw,Rechts,1,
,dotcolour,dotcolour,dotcolour,44,2,164,164,main,positivefb,-99,easy,65,1.4340289000001576,['c'],1,left,['1'],6,0.3941309000001638,,,5,19,Vrouw,Rechts,1,
,dotcolour,dotcolour,dotcolour,45,2,165,165,main,positivefb,-99,easy,64,1.2677646000001914,['c'],1,left,['2'],5,0.3606333999996423,,,5,19,Vrouw,Rechts,1,
,dotcolour,dotcolour,dotcolour,46,2,166,166,main,positivefb,-99,average,53,0.9172439999993003,['c'],1,left,['2'],5,0.44637409999995725,,,5,19,Vrouw,Rechts,1,
,dotcolour,dotcolour,dotcolour,47,2,167,167,main,positivefb,-99,hard,44,1.9009892999993099,['c'],1,left,['2'],5,0.4255686999995305,,,5,19,Vrouw,Rechts,1,
,dotcolour,dotcolour,dotcolour,48,2,168,168,main,positivefb,-99,average,52,0.966483000000153,['c'],1,left,['2'],5,0.7871841000005588,,,5,19,Vrouw,Rechts,1,
,dotcolour,dotcolour,dotcolour,49,2,169,169,main,positivefb,-99,hard,35,1.3667178999994576,['n'],1,right,['1'],6,0.6538817000000563,,,5,19,Vrouw,Rechts,1,
,dotcolour,dotcolour,dotcolour,50,2,170,170,main,positivefb,-99,easy,16,0.9668931999995038,['n'],1,right,['1'],6,0.3975263000002087,,,5,19,Vrouw,Rechts,1,
,dotcolour,dotcolour,dotcolour,51,2,171,171,main,positivefb,-99,average,51,1.2175528999996459,['c'],1,left,['2'],5,0.389722900000379,,,5,19,Vrouw,Rechts,1,
,dotcolour,dotcolour,dotcolour,52,2,172,172,main,positivefb,-99,average,29,1.1012091000002329,['n'],1,right,['1'],6,0.6110543000004327,,,5,19,Vrouw,Rechts,1,
,dotcolour,dotcolour,dotcolour,53,2,173,173,main,positivefb,-99,hard,45,2.80101409999952,['n'],0,left,['2'],5,0.3239471999995658,,,5,19,Vrouw,Rechts,1,
,dotcolour,dotcolour,dotcolour,54,2,174,174,main,positivefb,-99,hard,38,1.3014602000002924,['n'],1,right,['2'],5,0.38016180000067834,,,5,19,Vrouw,Rechts,1,
,dotcolour,dotcolour,dotcolour,55,2,175,175,main,positivefb,-99,easy,63,0.8676474999992934,['c'],1,left,['1'],6,0.523200700000416,,,5,19,Vrouw,Rechts,1,
,dotcolour,dotcolour,dotcolour,56,2,176,176,main,positivefb,-99,easy,65,0.7844534000005297,['c'],1,left,['1'],6,0.4084145000006174,,,5,19,Vrouw,Rechts,1,
,dotcolour,dotcolour,dotcolour,57,2,177,177,main,positivefb,-99,easy,63,1.9510466000001543,['c'],1,left,['3'],4,1.0989404000001741,,,5,19,Vrouw,Rechts,1,
,dotcolour,dotcolour,dotcolour,58,2,178,178,main,positivefb,-99,hard,35,0.867187400000148,['n'],1,right,['2'],5,2.221152699999948,,,5,19,Vrouw,Rechts,1,
,dotcolour,dotcolour,dotcolour,59,2,179,179,main,positivefb,-99,hard,39,3.7836722999991252,['c'],0,right,['3'],4,0.5574935999993613,,,5,19,Vrouw,Rechts,1,
,dotcolour,dotcolour,dotcolour,0,3,180,180,main,positivefb,-99,hard,39,2.168058399999609,['n'],1,right,['2'],5,0.8002808000001096,,,5,19,Vrouw,Rechts,1,
,dotcolour,dotcolour,dotcolour,1,3,181,181,main,positivefb,-99,easy,63,0.7341837000003579,['c'],1,left,['1'],6,0.3648207000005641,,,5,19,Vrouw,Rechts,1,
,dotcolour,dotcolour,dotcolour,2,3,182,182,main,positivefb,-99,average,52,1.0176351999998587,['c'],1,left,['1'],6,0.4212635000003502,,,5,19,Vrouw,Rechts,1,
,dotcolour,dotcolour,dotcolour,3,3,183,183,main,positivefb,-99,average,28,0.8166430999999648,['n'],1,right,['1'],6,0.41278650000003836,,,5,19,Vrouw,Rechts,1,
,dotcolour,dotcolour,dotcolour,4,3,184,184,main,positivefb,-99,average,28,0.7676450999997542,['n'],1,right,['1'],6,0.5264295000006314,,,5,19,Vrouw,Rechts,1,
,dotcolour,dotcolour,dotcolour,5,3,185,185,main,positivefb,-99,average,55,1.9336248999998134,['c'],1,left,['2'],5,0.6538614999999481,,,5,19,Vrouw,Rechts,1,
,dotcolour,dotcolour,dotcolour,6,3,186,186,main,positivefb,-99,hard,41,2.068426100000579,['n'],0,left,['3'],4,0.9224981999996089,,,5,19,Vrouw,Rechts,1,
,dotcolour,dotcolour,dotcolour,7,3,187,187,main,positivefb,-99,easy,61,1.1018605999997817,['c'],1,left,['2'],5,0.8496932999996716,,,5,19,Vrouw,Rechts,1,
,dotcolour,dotcolour,dotcolour,8,3,188,188,main,positivefb,-99,easy,19,0.7185380000000805,['n'],1,right,['1'],6,0.34788860000026034,,,5,19,Vrouw,Rechts,1,
,dotcolour,dotcolour,dotcolour,9,3,189,189,main,positivefb,-99,average,25,0.7670346000004429,['n'],1,right,['1'],6,0.7999460000000909,,,5,19,Vrouw,Rechts,1,
,dotcolour,dotcolour,dotcolour,10,3,190,190,main,positivefb,-99,easy,62,1.1183475999996517,['c'],1,left,['1'],6,0.7403526000007332,,,5,19,Vrouw,Rechts,1,
,dotcolour,dotcolour,dotcolour,11,3,191,191,main,positivefb,-99,average,54,3.2842460000001665,['c'],1,left,['3'],4,0.6277583000000959,,,5,19,Vrouw,Rechts,1,
,dotcolour,dotcolour,dotcolour,12,3,192,192,main,positivefb,-99,hard,44,0.8182663999996294,['n'],0,left,['2'],5,1.5790029999998296,,,5,19,Vrouw,Rechts,1,
,dotcolour,dotcolour,dotcolour,13,3,193,193,main,positivefb,-99,average,29,0.8510839999999007,['n'],1,right,['1'],6,0.3870777000001908,,,5,19,Vrouw,Rechts,1,
,dotcolour,dotcolour,dotcolour,14,3,194,194,main,positivefb,-99,average,25,0.9005024999996749,['n'],1,right,['1'],6,0.8565824999996039,,,5,19,Vrouw,Rechts,1,
,dotcolour,dotcolour,dotcolour,15,3,195,195,main,positivefb,-99,hard,36,1.0509456999998292,['n'],1,right,['1'],6,1.9726197999998476,,,5,19,Vrouw,Rechts,1,
,dotcolour,dotcolour,dotcolour,16,3,196,196,main,positivefb,-99,hard,38,1.4835201000005327,['n'],1,right,['1'],6,1.0993579000005411,,,5,19,Vrouw,Rechts,1,
,dotcolour,dotcolour,dotcolour,17,3,197,197,main,positivefb,-99,hard,35,0.9840124000002106,['n'],1,right,['1'],6,0.4328477999997631,,,5,19,Vrouw,Rechts,1,
,dotcolour,dotcolour,dotcolour,18,3,198,198,main,positivefb,-99,easy,19,0.6837734999999157,['n'],1,right,['1'],6,0.557597099999839,,,5,19,Vrouw,Rechts,1,
,dotcolour,dotcolour,dotcolour,19,3,199,199,main,positivefb,-99,average,53,1.6500068999994255,['c'],1,left,['2'],5,0.7740686000006463,,,5,19,Vrouw,Rechts,1,
,dotcolour,dotcolour,dotcolour,20,3,200,200,main,positivefb,-99,easy,16,1.0176218000005974,['n'],1,right,['1'],6,0.33509610000055545,,,5,19,Vrouw,Rechts,1,
,dotcolour,dotcolour,dotcolour,21,3,201,201,main,positivefb,-99,easy,63,1.1504869000000326,['c'],1,left,['2'],5,0.8928652000004149,,,5,19,Vrouw,Rechts,1,
,dotcolour,dotcolour,dotcolour,22,3,202,202,main,positivefb,-99,average,53,4.434271600000102,['c'],1,left,['3'],4,0.4325885999996899,,,5,19,Vrouw,Rechts,1,
,dotcolour,dotcolour,dotcolour,23,3,203,203,main,positivefb,-99,hard,37,1.0176809000004141,['n'],1,right,['2'],5,1.3357929000003423,,,5,19,Vrouw,Rechts,1,
,dotcolour,dotcolour,dotcolour,24,3,204,204,main,positivefb,-99,hard,43,1.8846450000000914,['n'],0,left,['2'],5,1.2068826000004265,,,5,19,Vrouw,Rechts,1,
,dotcolour,dotcolour,dotcolour,25,3,205,205,main,positivefb,-99,average,52,0.9180676000005406,['c'],1,left,['1'],6,0.3955033000002004,,,5,19,Vrouw,Rechts,1,
,dotcolour,dotcolour,dotcolour,26,3,206,206,main,positivefb,-99,hard,41,2.7340217999999368,['n'],0,left,['3'],4,0.46389019999969605,,,5,19,Vrouw,Rechts,1,
,dotcolour,dotcolour,dotcolour,27,3,207,207,main,positivefb,-99,hard,42,1.017086500000005,['n'],0,left,['2'],5,0.6371053000002576,,,5,19,Vrouw,Rechts,1,
,dotcolour,dotcolour,dotcolour,28,3,208,208,main,positivefb,-99,easy,16,0.7507402000001093,['n'],1,right,['1'],6,0.3269607000001997,,,5,19,Vrouw,Rechts,1,
,dotcolour,dotcolour,dotcolour,29,3,209,209,main,positivefb,-99,easy,19,0.6178378000004159,['n'],1,right,['1'],6,0.7297287999999753,,,5,19,Vrouw,Rechts,1,
,dotcolour,dotcolour,dotcolour,30,3,210,210,main,positivefb,-99,hard,44,2.901184100000137,['n'],0,left,['3'],4,0.6103588000005402,,,5,19,Vrouw,Rechts,1,
,dotcolour,dotcolour,dotcolour,31,3,211,211,main,positivefb,-99,hard,37,0.8996938000000227,['n'],1,right,['2'],5,0.43062820000068314,,,5,19,Vrouw,Rechts,1,
,dotcolour,dotcolour,dotcolour,32,3,212,212,main,positivefb,-99,average,54,1.00008649999927,['c'],1,left,['2'],5,0.526309300000321,,,5,19,Vrouw,Rechts,1,
,dotcolour,dotcolour,dotcolour,33,3,213,213,main,positivefb,-99,hard,39,1.1502539000002798,['n'],1,right,['2'],5,0.3731956000001446,,,5,19,Vrouw,Rechts,1,
,dotcolour,dotcolour,dotcolour,34,3,214,214,main,positivefb,-99,hard,39,1.2339409000005617,['n'],1,right,['2'],5,0.4934137999998711,,,5,19,Vrouw,Rechts,1,
,dotcolour,dotcolour,dotcolour,35,3,215,215,main,positivefb,-99,easy,15,0.7171151999991707,['n'],1,right,['1'],6,0.33428790000016306,,,5,19,Vrouw,Rechts,1,
,dotcolour,dotcolour,dotcolour,36,3,216,216,main,positivefb,-99,hard,45,3.1847717999999077,['n'],0,left,['3'],4,0.42683930000021064,,,5,19,Vrouw,Rechts,1,
,dotcolour,dotcolour,dotcolour,37,3,217,217,main,positivefb,-99,average,28,0.7342251999998552,['n'],1,right,['1'],6,0.6048807000006491,,,5,19,Vrouw,Rechts,1,
,dotcolour,dotcolour,dotcolour,38,3,218,218,main,positivefb,-99,easy,61,1.1830170000002909,['c'],1,left,['1'],6,0.5829061000004003,,,5,19,Vrouw,Rechts,1,
,dotcolour,dotcolour,dotcolour,39,3,219,219,main,positivefb,-99,hard,44,2.0346332999997685,['c'],1,left,['2'],5,0.5664092000006349,,,5,19,Vrouw,Rechts,1,
,dotcolour,dotcolour,dotcolour,40,3,220,220,main,positivefb,-99,hard,43,0.9845809999997073,['n'],0,left,['2'],5,0.6886657000004561,,,5,19,Vrouw,Rechts,1,
,dotcolour,dotcolour,dotcolour,41,3,221,221,main,positivefb,-99,average,28,1.218095799999901,['n'],1,right,['2'],5,0.8776397999999972,,,5,19,Vrouw,Rechts,1,
,dotcolour,dotcolour,dotcolour,42,3,222,222,main,positivefb,-99,average,28,1.2340666000000056,['n'],1,right,['2'],5,0.690240800000538,,,5,19,Vrouw,Rechts,1,
,dotcolour,dotcolour,dotcolour,43,3,223,223,main,positivefb,-99,average,51,1.3837679999996908,['c'],1,left,['2'],5,0.3601644000000306,,,5,19,Vrouw,Rechts,1,
,dotcolour,dotcolour,dotcolour,44,3,224,224,main,positivefb,-99,hard,39,1.2677954999999201,['n'],1,right,['2'],5,0.4724837999992815,,,5,19,Vrouw,Rechts,1,
,dotcolour,dotcolour,dotcolour,45,3,225,225,main,positivefb,-99,easy,15,0.7173646000001099,['n'],1,right,['1'],6,0.3219626000000062,,,5,19,Vrouw,Rechts,1,
,dotcolour,dotcolour,dotcolour,46,3,226,226,main,positivefb,-99,easy,63,0.8843877999997858,['c'],1,left,['1'],6,0.6348307999996905,,,5,19,Vrouw,Rechts,1,
,dotcolour,dotcolour,dotcolour,47,3,227,227,main,positivefb,-99,average,27,0.9011991999996098,['n'],1,right,['1'],6,0.47820229999979347,,,5,19,Vrouw,Rechts,1,
,dotcolour,dotcolour,dotcolour,48,3,228,228,main,positivefb,-99,easy,61,0.8337974000005488,['c'],1,left,['1'],6,0.5220288000000437,,,5,19,Vrouw,Rechts,1,
,dotcolour,dotcolour,dotcolour,49,3,229,229,main,positivefb,-99,easy,18,0.8011454999996204,['n'],1,right,['1'],6,0.6545661999998629,,,5,19,Vrouw,Rechts,1,
,dotcolour,dotcolour,dotcolour,50,3,230,230,main,positivefb,-99,easy,19,1.0512793999996575,['n'],1,right,['1'],6,0.7470366999996259,,,5,19,Vrouw,Rechts,1,
,dotcolour,dotcolour,dotcolour,51,3,231,231,main,positivefb,-99,average,52,0.917185199999949,['c'],1,left,['1'],6,0.7849878999995781,,,5,19,Vrouw,Rechts,1,
,dotcolour,dotcolour,dotcolour,52,3,232,232,main,positivefb,-99,hard,41,1.0680494999996881,['c'],1,left,['2'],5,0.4719831000002159,,,5,19,Vrouw,Rechts,1,
,dotcolour,dotcolour,dotcolour,53,3,233,233,main,positivefb,-99,easy,63,0.8009194999995088,['c'],1,left,['1'],6,0.3499764000007417,,,5,19,Vrouw,Rechts,1,
,dotcolour,dotcolour,dotcolour,54,3,234,234,main,positivefb,-99,average,55,0.9851432999994358,['c'],1,left,['1'],6,0.6251621000001251,,,5,19,Vrouw,Rechts,1,
,dotcolour,dotcolour,dotcolour,55,3,235,235,main,positivefb,-99,average,26,0.8670862999997553,['n'],1,right,['1'],6,0.6949298999998064,,,5,19,Vrouw,Rechts,1,
,dotcolour,dotcolour,dotcolour,56,3,236,236,main,positivefb,-99,easy,65,0.9182626000001619,['c'],1,left,['1'],6,0.414967799999431,,,5,19,Vrouw,Rechts,1,
,dotcolour,dotcolour,dotcolour,57,3,237,237,main,positivefb,-99,easy,62,1.251150700000835,['c'],1,left,['1'],6,1.477223199999571,,,5,19,Vrouw,Rechts,1,
,dotcolour,dotcolour,dotcolour,58,3,238,238,main,positivefb,-99,easy,18,0.8008120000004055,['n'],1,right,['1'],6,0.6829427000002397,,,5,19,Vrouw,Rechts,1,
,dotcolour,dotcolour,dotcolour,59,3,239,239,main,positivefb,-99,hard,36,1.46767490000002,['n'],1,right,['2'],5,0.45355880000079196,,,5,19,Vrouw,Rechts,1,
,dotcolour,dotcolour,dotcolour,0,4,240,240,main,positivefb,-99,average,53,1.2009657999997216,['c'],1,left,['2'],5,0.5324194000004354,,,5,19,Vrouw,Rechts,1,
,dotcolour,dotcolour,dotcolour,1,4,241,241,main,positivefb,-99,easy,18,0.9167322999992393,['n'],1,right,['1'],6,2.0596606999997675,,,5,19,Vrouw,Rechts,1,
,dotcolour,dotcolour,dotcolour,2,4,242,242,main,positivefb,-99,easy,17,0.6856954000004407,['n'],1,right,['1'],6,0.5588668999998845,,,5,19,Vrouw,Rechts,1,
,dotcolour,dotcolour,dotcolour,3,4,243,243,main,positivefb,-99,average,55,0.950974700000188,['c'],1,left,['1'],6,0.587257099999988,,,5,19,Vrouw,Rechts,1,
,dotcolour,dotcolour,dotcolour,4,4,244,244,main,positivefb,-99,easy,63,0.9004897000004348,['c'],1,left,['1'],6,0.4242879000003086,,,5,19,Vrouw,Rechts,1,
,dotcolour,dotcolour,dotcolour,5,4,245,245,main,positivefb,-99,easy,65,1.0678321999994296,['c'],1,left,['1'],6,0.5096441000005143,,,5,19,Vrouw,Rechts,1,
,dotcolour,dotcolour,dotcolour,6,4,246,246,main,positivefb,-99,hard,44,1.551163600000109,['n'],0,left,['2'],5,0.3966241000007358,,,5,19,Vrouw,Rechts,1,
,dotcolour,dotcolour,dotcolour,7,4,247,247,main,positivefb,-99,average,27,1.5014610000007451,['n'],1,right,['1'],6,0.8900844999998299,,,5,19,Vrouw,Rechts,1,
,dotcolour,dotcolour,dotcolour,8,4,248,248,main,positivefb,-99,easy,64,1.0837097999992693,['c'],1,left,['1'],6,0.3884563999999955,,,5,19,Vrouw,Rechts,1,
,dotcolour,dotcolour,dotcolour,9,4,249,249,main,positivefb,-99,hard,42,1.3348559999994905,['n'],0,left,['2'],5,0.5286959000004572,,,5,19,Vrouw,Rechts,1,
,dotcolour,dotcolour,dotcolour,10,4,250,250,main,positivefb,-99,hard,43,0.9184998999999152,['n'],0,left,['2'],5,0.38380959999994957,,,5,19,Vrouw,Rechts,1,
,dotcolour,dotcolour,dotcolour,11,4,251,251,main,positivefb,-99,easy,17,0.8344310000002224,['n'],1,right,['1'],6,0.575554099999863,,,5,19,Vrouw,Rechts,1,
,dotcolour,dotcolour,dotcolour,12,4,252,252,main,positivefb,-99,average,54,0.9511320000001433,['c'],1,left,['2'],5,0.9552787000002354,,,5,19,Vrouw,Rechts,1,
,dotcolour,dotcolour,dotcolour,13,4,253,253,main,positivefb,-99,average,27,0.8665730999991865,['n'],1,right,['1'],6,0.37972420000005513,,,5,19,Vrouw,Rechts,1,
,dotcolour,dotcolour,dotcolour,14,4,254,254,main,positivefb,-99,easy,19,0.8854244000003746,['n'],1,right,['1'],6,0.3547810000000027,,,5,19,Vrouw,Rechts,1,
,dotcolour,dotcolour,dotcolour,15,4,255,255,main,positivefb,-99,easy,17,0.9846784999999727,['n'],1,right,['1'],6,0.8383626999993794,,,5,19,Vrouw,Rechts,1,
,dotcolour,dotcolour,dotcolour,16,4,256,256,main,positivefb,-99,hard,41,2.885424299999613,['n'],0,left,['3'],4,0.4737397000008059,,,5,19,Vrouw,Rechts,1,
,dotcolour,dotcolour,dotcolour,17,4,257,257,main,positivefb,-99,average,27,1.251678499999798,['n'],1,right,['2'],5,0.7173210000000836,,,5,19,Vrouw,Rechts,1,
,dotcolour,dotcolour,dotcolour,18,4,258,258,main,positivefb,-99,easy,15,0.7178979000000254,['n'],1,right,['1'],6,0.31760709999980463,,,5,19,Vrouw,Rechts,1,
,dotcolour,dotcolour,dotcolour,19,4,259,259,main,positivefb,-99,easy,65,0.9844421999996484,['c'],1,left,['1'],6,0.5060889000005773,,,5,19,Vrouw,Rechts,1,
,dotcolour,dotcolour,dotcolour,20,4,260,260,main,positivefb,-99,hard,35,2.40011720000075,['c'],0,right,['3'],4,0.6143394000000626,,,5,19,Vrouw,Rechts,1,
,dotcolour,dotcolour,dotcolour,21,4,261,261,main,positivefb,-99,easy,64,1.1333205000000817,['c'],1,left,['1'],6,0.8326836999995066,,,5,19,Vrouw,Rechts,1,
,dotcolour,dotcolour,dotcolour,22,4,262,262,main,positivefb,-99,average,52,5.784086200000274,['c'],1,left,['3'],4,0.4895953000004738,,,5,19,Vrouw,Rechts,1,
,dotcolour,dotcolour,dotcolour,23,4,263,263,main,positivefb,-99,hard,44,3.2007426999998643,['n'],0,left,['3'],4,1.0383826999996018,,,5,19,Vrouw,Rechts,1,
,dotcolour,dotcolour,dotcolour,24,4,264,264,main,positivefb,-99,hard,38,1.5510401000001366,['n'],1,right,['3'],4,0.39171600000008766,,,5,19,Vrouw,Rechts,1,
,dotcolour,dotcolour,dotcolour,25,4,265,265,main,positivefb,-99,easy,64,1.0179629999993267,['c'],1,left,['1'],6,0.3685176000008141,,,5,19,Vrouw,Rechts,1,
,dotcolour,dotcolour,dotcolour,26,4,266,266,main,positivefb,-99,hard,42,1.667972600000212,['n'],0,left,['2'],5,0.6317346999994697,,,5,19,Vrouw,Rechts,1,
,dotcolour,dotcolour,dotcolour,27,4,267,267,main,positivefb,-99,easy,16,0.8514859000006254,['n'],1,right,['2'],5,3.0051262999995743,,,5,19,Vrouw,Rechts,1,
,dotcolour,dotcolour,dotcolour,28,4,268,268,main,positivefb,-99,average,52,1.1678725000001577,['c'],1,left,['2'],5,0.6796866000004229,,,5,19,Vrouw,Rechts,1,
,dotcolour,dotcolour,dotcolour,29,4,269,269,main,positivefb,-99,average,27,0.8511092999997345,['n'],1,right,['1'],6,0.40371520000007877,,,5,19,Vrouw,Rechts,1,
,dotcolour,dotcolour,dotcolour,30,4,270,270,main,positivefb,-99,hard,42,1.08415739999964,['n'],0,left,['2'],5,1.6086278000002494,,,5,19,Vrouw,Rechts,1,
,dotcolour,dotcolour,dotcolour,31,4,271,271,main,positivefb,-99,easy,17,0.6846919999998136,['n'],1,right,['1'],6,0.36578000000008615,,,5,19,Vrouw,Rechts,1,
,dotcolour,dotcolour,dotcolour,32,4,272,272,main,positivefb,-99,easy,64,1.8009947999998985,['c'],1,left,['1'],6,0.5602497999998377,,,5,19,Vrouw,Rechts,1,
,dotcolour,dotcolour,dotcolour,33,4,273,273,main,positivefb,-99,average,54,1.1838541999995869,['c'],1,left,['2'],5,0.4590605000003052,,,5,19,Vrouw,Rechts,1,
,dotcolour,dotcolour,dotcolour,34,4,274,274,main,positivefb,-99,average,27,0.9172593000002962,['n'],1,right,['2'],5,0.4448930999997174,,,5,19,Vrouw,Rechts,1,
,dotcolour,dotcolour,dotcolour,35,4,275,275,main,positivefb,-99,average,52,2.651517100000092,['c'],1,left,['2'],5,1.4427233999995224,,,5,19,Vrouw,Rechts,1,
,dotcolour,dotcolour,dotcolour,36,4,276,276,main,positivefb,-99,hard,42,1.2836127999999007,['n'],0,left,['2'],5,1.2227082999997947,,,5,19,Vrouw,Rechts,1,
,dotcolour,dotcolour,dotcolour,37,4,277,277,main,positivefb,-99,average,28,0.8340554000005795,['n'],1,right,['2'],5,0.3252379999994446,,,5,19,Vrouw,Rechts,1,
,dotcolour,dotcolour,dotcolour,38,4,278,278,main,positivefb,-99,hard,37,1.5680819999997766,['n'],1,right,['2'],5,0.8670065999995131,,,5,19,Vrouw,Rechts,1,
,dotcolour,dotcolour,dotcolour,39,4,279,279,main,positivefb,-99,easy,16,0.7678252999994584,['n'],1,right,['1'],6,0.3940408999997089,,,5,19,Vrouw,Rechts,1,
,dotcolour,dotcolour,dotcolour,40,4,280,280,main,positivefb,-99,hard,44,1.367073800000071,['c'],1,left,['2'],5,0.70865540000068,,,5,19,Vrouw,Rechts,1,
,dotcolour,dotcolour,dotcolour,41,4,281,281,main,positivefb,-99,average,28,0.6836192000000665,['n'],1,right,['1'],6,0.35863070000050357,,,5,19,Vrouw,Rechts,1,
,dotcolour,dotcolour,dotcolour,42,4,282,282,main,positivefb,-99,average,51,0.9512021999998979,['c'],1,left,['1'],6,1.234904899999492,,,5,19,Vrouw,Rechts,1,
,dotcolour,dotcolour,dotcolour,43,4,283,283,main,positivefb,-99,hard,37,0.934266000000207,['n'],1,right,['2'],5,0.5970743999996557,,,5,19,Vrouw,Rechts,1,
,dotcolour,dotcolour,dotcolour,44,4,284,284,main,positivefb,-99,average,53,0.8682321000005686,['c'],1,left,['1'],6,0.7710845999999947,,,5,19,Vrouw,Rechts,1,
,dotcolour,dotcolour,dotcolour,45,4,285,285,main,positivefb,-99,hard,38,1.1671926999997595,['n'],1,right,['1'],6,0.36726480000015727,,,5,19,Vrouw,Rechts,1,
,dotcolour,dotcolour,dotcolour,46,4,286,286,main,positivefb,-99,average,28,0.917309600000408,['n'],1,right,['1'],6,0.4924964000001637,,,5,19,Vrouw,Rechts,1,
,dotcolour,dotcolour,dotcolour,47,4,287,287,main,positivefb,-99,average,52,1.1677806999996392,['c'],1,left,['2'],5,0.8430624000002354,,,5,19,Vrouw,Rechts,1,
,dotcolour,dotcolour,dotcolour,48,4,288,288,main,positivefb,-99,easy,62,1.3337273999995887,['c'],1,left,['1'],6,0.4764328999999634,,,5,19,Vrouw,Rechts,1,
,dotcolour,dotcolour,dotcolour,49,4,289,289,main,positivefb,-99,average,26,1.4015114999992875,['n'],1,right,['1'],6,0.5870821999997133,,,5,19,Vrouw,Rechts,1,
,dotcolour,dotcolour,dotcolour,50,4,290,290,main,positivefb,-99,hard,42,1.13479930000085,['c'],1,left,['2'],5,0.4224309000001085,,,5,19,Vrouw,Rechts,1,
,dotcolour,dotcolour,dotcolour,51,4,291,291,main,positivefb,-99,hard,38,1.9009200999998939,['n'],1,right,['2'],5,0.5710142999996606,,,5,19,Vrouw,Rechts,1,
,dotcolour,dotcolour,dotcolour,52,4,292,292,main,positivefb,-99,easy,65,0.7005349999999453,['c'],1,left,['1'],6,0.2644367000002603,,,5,19,Vrouw,Rechts,1,
,dotcolour,dotcolour,dotcolour,53,4,293,293,main,positivefb,-99,easy,65,0.8007253999994646,['c'],1,left,['1'],6,0.9268467000001692,,,5,19,Vrouw,Rechts,1,
,dotcolour,dotcolour,dotcolour,54,4,294,294,main,positivefb,-99,hard,38,0.9512947000002896,['n'],1,right,['2'],5,0.6290461999997206,,,5,19,Vrouw,Rechts,1,
,dotcolour,dotcolour,dotcolour,55,4,295,295,main,positivefb,-99,hard,37,1.334352800000488,['n'],1,right,['2'],5,0.5923492000001715,,,5,19,Vrouw,Rechts,1,
,dotcolour,dotcolour,dotcolour,56,4,296,296,main,positivefb,-99,average,25,0.7009969999999157,['n'],1,right,['2'],5,0.32489669999995385,,,5,19,Vrouw,Rechts,1,
,dotcolour,dotcolour,dotcolour,57,4,297,297,main,positivefb,-99,hard,35,1.0844704999999522,['n'],1,right,['3'],4,0.8455189999995127,,,5,19,Vrouw,Rechts,1,
,dotcolour,dotcolour,dotcolour,58,4,298,298,main,positivefb,-99,hard,36,0.9842116999998325,['n'],1,right,['2'],5,1.0536776999997528,,,5,19,Vrouw,Rechts,1,
,dotcolour,dotcolour,dotcolour,59,4,299,299,main,positivefb,-99,easy,19,0.6838599000002432,['n'],1,right,['1'],6,0.2654696999998123,,,5,19,Vrouw,Rechts,1,
,dotcolour,dotcolour,dotcolour,0,0,0,300,training,positivefb,79,hard,36,1.0345531000002666,['n'],1,right,['1'],6,0.764038199999959,,,5,19,Vrouw,Rechts,1,
,dotcolour,dotcolour,dotcolour,1,0,1,301,training,positivefb,89,hard,44,1.0001940000001923,['c'],1,left,['1'],6,0.4216225999998642,,,5,19,Vrouw,Rechts,1,
,dotcolour,dotcolour,dotcolour,2,0,2,302,training,positivefb,100,easy,64,0.766964100000223,['c'],1,left,['1'],6,0.3342471999994814,,,5,19,Vrouw,Rechts,1,
,dotcolour,dotcolour,dotcolour,3,0,3,303,training,positivefb,96,average,54,1.1159365000003163,['c'],1,left,['2'],5,0.3005119999997987,,,5,19,Vrouw,Rechts,1,
,dotcolour,dotcolour,dotcolour,4,0,4,304,training,positivefb,83,hard,41,0.8167770000000019,['c'],1,left,['2'],5,0.40753570000015316,,,5,19,Vrouw,Rechts,1,
,dotcolour,dotcolour,dotcolour,5,0,5,305,training,positivefb,95,easy,16,0.817481800000678,['n'],1,right,['1'],6,0.25522689999979775,,,5,19,Vrouw,Rechts,1,
,dotcolour,dotcolour,dotcolour,6,0,6,306,training,positivefb,57,hard,42,1.416219299999284,['n'],0,left,['2'],5,0.44469260000005306,,,5,19,Vrouw,Rechts,1,
,dotcolour,dotcolour,dotcolour,7,0,7,307,training,positivefb,17,hard,41,1.1504129000004468,['n'],0,left,['2'],5,0.8450399000003017,,,5,19,Vrouw,Rechts,1,
,dotcolour,dotcolour,dotcolour,8,0,8,308,training,positivefb,97,easy,63,0.8831516000000192,['c'],1,left,['1'],6,0.37670969999999215,,,5,19,Vrouw,Rechts,1,
,dotcolour,dotcolour,dotcolour,9,0,9,309,training,positivefb,18,average,52,0.9494813000001159,['n'],0,left,['3'],4,2.5880809000000227,,,5,19,Vrouw,Rechts,1,
,dotcolour,dotcolour,dotcolour,10,0,10,310,training,positivefb,93,hard,44,2.3003172999997332,['c'],1,left,['1'],6,1.6883018999997148,,,5,19,Vrouw,Rechts,1,
,dotcolour,dotcolour,dotcolour,11,0,11,311,training,positivefb,66,average,52,0.8993325999999797,['c'],1,left,['1'],6,0.6244237999999314,,,5,19,Vrouw,Rechts,1,
,dotcolour,dotcolour,dotcolour,12,0,12,312,training,positivefb,97,average,27,0.8156922999996823,['n'],1,right,['1'],6,0.3910430999994787,,,5,19,Vrouw,Rechts,1,
,dotcolour,dotcolour,dotcolour,13,0,13,313,training,positivefb,98,easy,18,0.7671606000003521,['n'],1,right,['1'],6,0.36861580000004324,,,5,19,Vrouw,Rechts,1,
,dotcolour,dotcolour,dotcolour,14,0,14,314,training,positivefb,82,easy,17,0.8505681999995431,['n'],1,right,['1'],6,0.4720108999999866,,,5,19,Vrouw,Rechts,1,
,dotcolour,dotcolour,dotcolour,15,0,15,315,training,positivefb,100,easy,64,0.8995668999996269,['c'],1,left,['1'],6,0.8169906000002811,,,5,19,Vrouw,Rechts,1,
,dotcolour,dotcolour,dotcolour,16,0,16,316,training,positivefb,88,hard,43,1.3506171999997605,['c'],1,left,['2'],5,0.5552070000003368,,,5,19,Vrouw,Rechts,1,
,dotcolour,dotcolour,dotcolour,17,0,17,317,training,positivefb,97,average,25,0.6665919999995822,['n'],1,right,['1'],6,0.31415409999954136,,,5,19,Vrouw,Rechts,1,
,dotcolour,dotcolour,dotcolour,18,0,18,318,training,positivefb,84,hard,41,2.433774199999789,['n'],0,left,['3'],4,0.4047405000001163,,,5,19,Vrouw,Rechts,1,
,dotcolour,dotcolour,dotcolour,19,0,19,319,training,positivefb,74,hard,37,1.6327653999996983,['n'],1,right,['2'],5,0.4116860000003726,,,5,19,Vrouw,Rechts,1,
,dotcolour,dotcolour,dotcolour,20,0,20,320,training,positivefb,70,hard,36,0.8173914999997578,['n'],1,right,['1'],6,0.8274803000003885,,,5,19,Vrouw,Rechts,1,
,dotcolour,dotcolour,dotcolour,21,0,21,321,training,positivefb,100,average,27,0.8006961999999476,['n'],1,right,['2'],5,0.9464596999996502,,,5,19,Vrouw,Rechts,1,
,dotcolour,dotcolour,dotcolour,22,0,22,322,training,positivefb,87,hard,39,1.8513334999997824,['n'],1,right,['1'],6,0.4993040999997902,,,5,19,Vrouw,Rechts,1,
,dotcolour,dotcolour,dotcolour,23,0,23,323,training,positivefb,87,easy,65,0.7001486999997724,['c'],1,left,['1'],6,0.3385869999992792,,,5,19,Vrouw,Rechts,1,
,dotcolour,dotcolour,dotcolour,24,0,24,324,training,positivefb,86,average,55,0.766411299999163,['c'],1,left,['1'],6,0.3351698000005854,,,5,19,Vrouw,Rechts,1,
,dotcolour,dotcolour,dotcolour,25,0,25,325,training,positivefb,92,easy,18,0.7341350999995484,['n'],1,right,['1'],6,0.2838467000001401,,,5,19,Vrouw,Rechts,1,
,dotcolour,dotcolour,dotcolour,26,0,26,326,training,positivefb,95,average,52,1.1514067000007344,['c'],1,left,['1'],6,0.3394929999994929,,,5,19,Vrouw,Rechts,1,
,dotcolour,dotcolour,dotcolour,27,0,27,327,training,positivefb,74,hard,38,1.317064599999867,['n'],1,right,['2'],5,0.409233100000165,,,5,19,Vrouw,Rechts,1,
,dotcolour,dotcolour,dotcolour,28,0,28,328,training,positivefb,90,easy,63,0.9160106999997879,['c'],1,left,['1'],6,0.3244687000005797,,,5,19,Vrouw,Rechts,1,
,dotcolour,dotcolour,dotcolour,29,0,29,329,training,positivefb,93,hard,35,0.9823618000000351,['n'],1,right,['2'],5,0.42469700000037847,,,5,19,Vrouw,Rechts,1,
,dotcolour,dotcolour,dotcolour,30,0,30,330,training,positivefb,97,easy,16,0.8344832000002498,['n'],1,right,['2'],5,0.4944314000003942,,,5,19,Vrouw,Rechts,1,
,dotcolour,dotcolour,dotcolour,31,0,31,331,training,positivefb,91,hard,36,1.1332219999994777,['n'],1,right,['2'],5,0.46211119999952643,,,5,19,Vrouw,Rechts,1,
,dotcolour,dotcolour,dotcolour,32,0,32,332,training,positivefb,73,hard,43,1.1007027999994534,['n'],0,left,['3'],4,0.408135200000288,,,5,19,Vrouw,Rechts,1,
,dotcolour,dotcolour,dotcolour,33,0,33,333,training,positivefb,97,average,29,0.8838997000002564,['n'],1,right,['2'],5,0.23648700000012468,,,5,19,Vrouw,Rechts,1,
,dotcolour,dotcolour,dotcolour,34,0,34,334,training,positivefb,85,average,28,0.7169451999998273,['n'],1,right,['2'],5,0.3111778000002232,,,5,19,Vrouw,Rechts,1,
,dotcolour,dotcolour,dotcolour,35,0,35,335,training,positivefb,96,easy,61,0.7341656999997213,['c'],1,left,['1'],6,0.2372016999997868,,,5,19,Vrouw,Rechts,1,
,dotcolour,dotcolour,dotcolour,36,0,36,336,training,positivefb,92,easy,61,0.7002207999994425,['c'],1,left,['1'],6,0.3116840000002412,,,5,19,Vrouw,Rechts,1,
,dotcolour,dotcolour,dotcolour,37,0,37,337,training,positivefb,91,average,26,0.6666126000000077,['n'],1,right,['1'],6,0.3290565000006609,,,5,19,Vrouw,Rechts,1,
,dotcolour,dotcolour,dotcolour,38,0,38,338,training,positivefb,85,average,53,0.6664025999998557,['c'],1,left,['1'],6,0.3454602000001614,,,5,19,Vrouw,Rechts,1,
,dotcolour,dotcolour,dotcolour,39,0,39,339,training,positivefb,99,average,51,0.6343241999993552,['c'],1,left,['1'],6,0.32293440000012197,,,5,19,Vrouw,Rechts,1,
,dotcolour,dotcolour,dotcolour,40,0,40,340,training,positivefb,87,hard,35,0.8832886999998664,['n'],1,right,['1'],6,0.2910192999997889,,,5,19,Vrouw,Rechts,1,
,dotcolour,dotcolour,dotcolour,41,0,41,341,training,positivefb,89,hard,37,1.1338100000002669,['n'],1,right,['2'],5,0.6587629999994533,,,5,19,Vrouw,Rechts,1,
,dotcolour,dotcolour,dotcolour,42,0,42,342,training,positivefb,97,easy,18,0.7330751999998029,['n'],1,right,['1'],6,0.2511534999994183,,,5,19,Vrouw,Rechts,1,
,dotcolour,dotcolour,dotcolour,43,0,43,343,training,positivefb,73,average,53,0.9335896000002322,['c'],1,left,['1'],6,0.37191749999965396,,,5,19,Vrouw,Rechts,1,
,dotcolour,dotcolour,dotcolour,44,0,44,344,training,positivefb,97,average,27,0.7341681000007156,['n'],1,right,['1'],6,0.752511499999855,,,5,19,Vrouw,Rechts,1,
,dotcolour,dotcolour,dotcolour,45,0,45,345,training,positivefb,97,easy,16,0.6342795999998998,['n'],1,right,['1'],6,0.31273890000011306,,,5,19,Vrouw,Rechts,1,
,dotcolour,dotcolour,dotcolour,46,0,46,346,training,positivefb,92,easy,64,0.8332557999992787,['c'],1,left,['1'],6,0.3950792999994519,,,5,19,Vrouw,Rechts,1,
,dotcolour,dotcolour,dotcolour,47,0,47,347,training,positivefb,95,easy,15,0.649879200000214,['n'],1,right,['1'],6,0.3227076000002853,,,5,19,Vrouw,Rechts,1,
,dotcolour,dotcolour,dotcolour,48,0,48,348,training,positivefb,92,easy,19,0.700866600000154,['n'],1,right,['1'],6,0.4255834000005052,,,5,19,Vrouw,Rechts,1,
,dotcolour,dotcolour,dotcolour,49,0,49,349,training,positivefb,98,average,28,0.6512023000004774,['n'],1,right,['1'],6,0.3186087000003681,,,5,19,Vrouw,Rechts,1,
,dotcolour,dotcolour,dotcolour,50,0,50,350,training,positivefb,85,hard,44,2.3831444999996165,['c'],1,left,['1'],6,0.35472419999950944,,,5,19,Vrouw,Rechts,1,
,dotcolour,dotcolour,dotcolour,51,0,51,351,training,positivefb,82,hard,39,1.0174127000000226,['n'],1,right,['2'],5,0.2680702999996356,,,5,19,Vrouw,Rechts,1,
,dotcolour,dotcolour,dotcolour,52,0,52,352,training,positivefb,99,average,55,1.0337817999998151,['c'],1,left,['1'],6,0.8642589999999473,,,5,19,Vrouw,Rechts,1,
,dotcolour,dotcolour,dotcolour,53,0,53,353,training,positivefb,96,easy,65,0.7674928999995245,['c'],1,left,['1'],6,0.27939430000060383,,,5,19,Vrouw,Rechts,1,
,dotcolour,dotcolour,dotcolour,54,0,54,354,training,positivefb,100,easy,64,0.7009418999996342,['c'],1,left,['1'],6,0.40926459999991494,,,5,19,Vrouw,Rechts,1,
,dotcolour,dotcolour,dotcolour,55,0,55,355,training,positivefb,84,average,54,1.784194299999399,['c'],1,left,['2'],5,0.3933316000002378,,,5,19,Vrouw,Rechts,1,
,dotcolour,dotcolour,dotcolour,56,0,56,356,training,positivefb,90,hard,43,1.099819000000025,['n'],0,left,['2'],5,0.5183855000004769,,,5,19,Vrouw,Rechts,1,
,dotcolour,dotcolour,dotcolour,57,0,57,357,training,positivefb,96,easy,18,0.7503697000001921,['n'],1,right,['2'],5,0.3716969999995854,,,5,19,Vrouw,Rechts,1,
,dotcolour,dotcolour,dotcolour,58,0,58,358,training,positivefb,86,average,26,0.816202400000293,['n'],1,right,['2'],5,0.5005978999997751,,,5,19,Vrouw,Rechts,1,
,dotcolour,dotcolour,dotcolour,59,0,59,359,training,positivefb,95,average,26,0.9342614999995931,['n'],1,right,['2'],5,0.3312759000000369,,,5,19,Vrouw,Rechts,1,
,dotcolour,dotcolour,dotcolour,0,1,60,360,training,positivefb,78,average,54,0.8507958999998664,['c'],1,left,['1'],6,0.6843007999996189,,,5,19,Vrouw,Rechts,1,
,dotcolour,dotcolour,dotcolour,1,1,61,361,training,positivefb,76,average,27,0.7665805999995428,['n'],1,right,['1'],6,0.5701726999996026,,,5,19,Vrouw,Rechts,1,
,dotcolour,dotcolour,dotcolour,2,1,62,362,training,positivefb,94,easy,15,0.8160324000000401,['n'],1,right,['1'],6,0.594867200000408,,,5,19,Vrouw,Rechts,1,
,dotcolour,dotcolour,dotcolour,3,1,63,363,training,positivefb,92,average,51,2.582766399999855,['c'],1,left,['2'],5,0.8447517999993579,,,5,19,Vrouw,Rechts,1,
,dotcolour,dotcolour,dotcolour,4,1,64,364,training,positivefb,100,easy,17,0.6499288000004526,['n'],1,right,['1'],6,0.5218880000002173,,,5,19,Vrouw,Rechts,1,
,dotcolour,dotcolour,dotcolour,5,1,65,365,training,positivefb,96,easy,64,0.7837825999995403,['c'],1,left,['1'],6,0.34921679999933986,,,5,19,Vrouw,Rechts,1,
,dotcolour,dotcolour,dotcolour,6,1,66,366,training,positivefb,78,hard,35,0.8666124000001219,['n'],1,right,['2'],5,0.5010743999991973,,,5,19,Vrouw,Rechts,1,
,dotcolour,dotcolour,dotcolour,7,1,67,367,training,positivefb,99,average,25,0.7013627999995151,['n'],1,right,['2'],5,0.6929205000005823,,,5,19,Vrouw,Rechts,1,
,dotcolour,dotcolour,dotcolour,8,1,68,368,training,positivefb,99,easy,62,1.1663269000000582,['c'],1,left,['1'],6,1.8908903999999893,,,5,19,Vrouw,Rechts,1,
,dotcolour,dotcolour,dotcolour,9,1,69,369,training,positivefb,97,average,26,0.7003996000003099,['n'],1,right,['1'],6,1.003157000000101,,,5,19,Vrouw,Rechts,1,
,dotcolour,dotcolour,dotcolour,10,1,70,370,training,positivefb,89,average,25,0.6500871999996889,['n'],1,right,['2'],5,0.5127927999992608,,,5,19,Vrouw,Rechts,1,
,dotcolour,dotcolour,dotcolour,11,1,71,371,training,positivefb,91,hard,45,1.500622100000328,['n'],0,left,['2'],5,0.22468930000013643,,,5,19,Vrouw,Rechts,1,
,dotcolour,dotcolour,dotcolour,12,1,72,372,training,positivefb,89,easy,15,0.6496545999998489,['n'],1,right,['2'],5,0.2943352000002051,,,5,19,Vrouw,Rechts,1,
,dotcolour,dotcolour,dotcolour,13,1,73,373,training,positivefb,88,hard,39,1.5674837000005937,['n'],1,right,['2'],5,0.4042948999995133,,,5,19,Vrouw,Rechts,1,
,dotcolour,dotcolour,dotcolour,14,1,74,374,training,positivefb,88,hard,44,1.2832822000000306,['c'],1,left,['2'],5,0.4803433999995832,,,5,19,Vrouw,Rechts,1,
,dotcolour,dotcolour,dotcolour,15,1,75,375,training,positivefb,81,average,55,1.7001688000000286,['n'],0,left,['2'],5,0.29852200000004814,,,5,19,Vrouw,Rechts,1,
,dotcolour,dotcolour,dotcolour,16,1,76,376,training,positivefb,51,hard,42,1.1672354000002088,['n'],0,left,['2'],5,0.6953500999998141,,,5,19,Vrouw,Rechts,1,
,dotcolour,dotcolour,dotcolour,17,1,77,377,training,positivefb,98,easy,64,0.8837872000003699,['c'],1,left,['1'],6,0.36883880000004865,,,5,19,Vrouw,Rechts,1,
,dotcolour,dotcolour,dotcolour,18,1,78,378,training,positivefb,84,hard,41,1.1501717000001008,['n'],0,left,['2'],5,0.3886275000004389,,,5,19,Vrouw,Rechts,1,
,dotcolour,dotcolour,dotcolour,19,1,79,379,training,positivefb,77,hard,41,1.7664538999997603,['c'],1,left,['2'],5,0.4860852000001614,,,5,19,Vrouw,Rechts,1,
,dotcolour,dotcolour,dotcolour,20,1,80,380,training,positivefb,97,average,53,0.8991148999994039,['c'],1,left,['2'],5,0.6146980000003168,,,5,19,Vrouw,Rechts,1,
,dotcolour,dotcolour,dotcolour,21,1,81,381,training,positivefb,90,easy,19,1.1164090000002034,['n'],1,right,['2'],5,0.25726140000006126,,,5,19,Vrouw,Rechts,1,
,dotcolour,dotcolour,dotcolour,22,1,82,382,training,positivefb,94,hard,38,1.516550699999243,['c'],0,right,['2'],5,0.4109630000002653,,,5,19,Vrouw,Rechts,1,
,dotcolour,dotcolour,dotcolour,23,1,83,383,training,positivefb,99,average,27,0.8179251999999906,['n'],1,right,['1'],6,0.3306318000004467,,,5,19,Vrouw,Rechts,1,
,dotcolour,dotcolour,dotcolour,24,1,84,384,training,positivefb,76,hard,41,0.9002922999998191,['c'],1,left,['1'],6,0.5859503000001496,,,5,19,Vrouw,Rechts,1,
,dotcolour,dotcolour,dotcolour,25,1,85,385,training,positivefb,94,easy,19,0.8332085000001825,['n'],1,right,['1'],6,0.5372013999995033,,,5,19,Vrouw,Rechts,1,
,dotcolour,dotcolour,dotcolour,26,1,86,386,training,positivefb,96,easy,61,0.8671948000001066,['c'],1,left,['1'],6,0.3125065000003815,,,5,19,Vrouw,Rechts,1,
,dotcolour,dotcolour,dotcolour,27,1,87,387,training,positivefb,76,hard,35,3.9004134999995586,['n'],1,right,['1'],6,0.5204289000002973,,,5,19,Vrouw,Rechts,1,
,dotcolour,dotcolour,dotcolour,28,1,88,388,training,positivefb,87,hard,37,0.883722100000341,['n'],1,right,['1'],6,0.47369269999944663,,,5,19,Vrouw,Rechts,1,
,dotcolour,dotcolour,dotcolour,29,1,89,389,training,positivefb,90,easy,19,0.9163356999997632,['n'],1,right,['1'],6,0.3540805000002365,,,5,19,Vrouw,Rechts,1,
,dotcolour,dotcolour,dotcolour,30,1,90,390,training,positivefb,99,average,54,0.9327157999996416,['c'],1,left,['1'],6,0.5984932999999728,,,5,19,Vrouw,Rechts,1,
,dotcolour,dotcolour,dotcolour,31,1,91,391,training,positivefb,91,average,26,0.8666497000003801,['n'],1,right,['1'],6,0.2919425999998566,,,5,19,Vrouw,Rechts,1,
,dotcolour,dotcolour,dotcolour,32,1,92,392,training,positivefb,98,easy,63,0.7678599999999278,['c'],1,left,['1'],6,0.4658439000004364,,,5,19,Vrouw,Rechts,1,
,dotcolour,dotcolour,dotcolour,33,1,93,393,training,positivefb,97,easy,18,0.601437999999689,['n'],1,right,['1'],6,0.40697759999966365,,,5,19,Vrouw,Rechts,1,
,dotcolour,dotcolour,dotcolour,34,1,94,394,training,positivefb,83,hard,43,1.3172044000002643,['n'],0,left,['2'],5,0.20263599999998405,,,5,19,Vrouw,Rechts,1,
,dotcolour,dotcolour,dotcolour,35,1,95,395,training,positivefb,76,average,53,0.9159657000000152,['c'],1,left,['2'],5,0.3659395999993649,,,5,19,Vrouw,Rechts,1,
,dotcolour,dotcolour,dotcolour,36,1,96,396,training,positivefb,95,average,52,0.8845935999997891,['c'],1,left,['1'],6,0.30812990000049467,,,5,19,Vrouw,Rechts,1,
,dotcolour,dotcolour,dotcolour,37,1,97,397,training,positivefb,87,average,52,1.333926600000268,['c'],1,left,['2'],5,0.3308238999998139,,,5,19,Vrouw,Rechts,1,
,dotcolour,dotcolour,dotcolour,38,1,98,398,training,positivefb,85,hard,42,1.2507665000002817,['n'],0,left,['2'],5,0.25948410000000877,,,5,19,Vrouw,Rechts,1,
,dotcolour,dotcolour,dotcolour,39,1,99,399,training,positivefb,97,easy,61,0.7672731999991811,['c'],1,left,['1'],6,0.36277440000048955,,,5,19,Vrouw,Rechts,1,
,dotcolour,dotcolour,dotcolour,40,1,100,400,training,positivefb,66,easy,16,1.2501498000001448,['n'],1,right,['1'],6,0.41868690000046627,,,5,19,Vrouw,Rechts,1,
,dotcolour,dotcolour,dotcolour,41,1,101,401,training,positivefb,66,hard,45,1.8835053000002517,['c'],1,left,['2'],5,0.5263489999997546,,,5,19,Vrouw,Rechts,1,
,dotcolour,dotcolour,dotcolour,42,1,102,402,training,positivefb,97,easy,19,0.7163604999996096,['n'],1,right,['1'],6,0.821436299999732,,,5,19,Vrouw,Rechts,1,
,dotcolour,dotcolour,dotcolour,43,1,103,403,training,positivefb,91,easy,63,0.9005340000003343,['c'],1,left,['1'],6,0.7366738000000623,,,5,19,Vrouw,Rechts,1,
,dotcolour,dotcolour,dotcolour,44,1,104,404,training,positivefb,84,hard,39,1.3332556000004843,['n'],1,right,['2'],5,0.30206019999968703,,,5,19,Vrouw,Rechts,1,
,dotcolour,dotcolour,dotcolour,45,1,105,405,training,positivefb,96,average,25,0.6989877000005436,['n'],1,right,['1'],6,0.4947050999999192,,,5,19,Vrouw,Rechts,1,
,dotcolour,dotcolour,dotcolour,46,1,106,406,training,positivefb,92,hard,37,0.8833967000000484,['n'],1,right,['1'],6,0.5830565999995088,,,5,19,Vrouw,Rechts,1,
,dotcolour,dotcolour,dotcolour,47,1,107,407,training,positivefb,67,hard,44,1.4010323000002245,['n'],0,left,['2'],5,0.4000894000000699,,,5,19,Vrouw,Rechts,1,
,dotcolour,dotcolour,dotcolour,48,1,108,408,training,positivefb,97,easy,19,0.65029130000039,['n'],1,right,['2'],5,0.3182667000000947,,,5,19,Vrouw,Rechts,1,
,dotcolour,dotcolour,dotcolour,49,1,109,409,training,positivefb,89,average,27,0.9172499999995125,['n'],1,right,['2'],5,0.6776679999993576,,,5,19,Vrouw,Rechts,1,
,dotcolour,dotcolour,dotcolour,50,1,110,410,training,positivefb,92,hard,37,1.184183800000028,['n'],1,right,['2'],5,0.33854389999942214,,,5,19,Vrouw,Rechts,1,
,dotcolour,dotcolour,dotcolour,51,1,111,411,training,positivefb,96,average,28,0.7172395000006873,['n'],1,right,['1'],6,0.3851539999996021,,,5,19,Vrouw,Rechts,1,
,dotcolour,dotcolour,dotcolour,52,1,112,412,training,positivefb,93,easy,62,0.5837669000002279,['c'],1,left,['1'],6,0.4183218999996825,,,5,19,Vrouw,Rechts,1,
,dotcolour,dotcolour,dotcolour,53,1,113,413,training,positivefb,80,average,53,0.766998699999931,['c'],1,left,['1'],6,0.658826500000032,,,5,19,Vrouw,Rechts,1,
,dotcolour,dotcolour,dotcolour,54,1,114,414,training,positivefb,96,easy,63,0.7668355999994674,['c'],1,left,['1'],6,0.48221359999934066,,,5,19,Vrouw,Rechts,1,
,dotcolour,dotcolour,dotcolour,55,1,115,415,training,positivefb,95,average,54,0.6838463000003685,['c'],1,left,['1'],6,0.5635876000005737,,,5,19,Vrouw,Rechts,1,
,dotcolour,dotcolour,dotcolour,56,1,116,416,training,positivefb,99,average,26,0.7669719999994413,['n'],1,right,['1'],6,0.5271636000006765,,,5,19,Vrouw,Rechts,1,
,dotcolour,dotcolour,dotcolour,57,1,117,417,training,positivefb,99,easy,64,0.7833185999998022,['c'],1,left,['1'],6,0.3550412000004144,,,5,19,Vrouw,Rechts,1,
,dotcolour,dotcolour,dotcolour,58,1,118,418,training,positivefb,89,hard,35,1.13319649999994,['n'],1,right,['1'],6,0.4158646999994744,,,5,19,Vrouw,Rechts,1,
,dotcolour,dotcolour,dotcolour,59,1,119,419,training,positivefb,93,hard,36,0.9999214999998003,['n'],1,right,['2'],5,0.29495219999989786,,,5,19,Vrouw,Rechts,1,
,xotask,dotcolour,dotcolour,0,2,120,420,main,positivefb,-99,average,,1.5017313999996986,['n'],1,right,['3'],4,1.1241454999999405,15,,5,19,Vrouw,Rechts,1,
,xotask,dotcolour,dotcolour,1,2,121,421,main,positivefb,-99,average,,1.4181373000001258,['c'],1,left,['2'],5,2.0636279000000286,64,,5,19,Vrouw,Rechts,1,
,xotask,dotcolour,dotcolour,2,2,122,422,main,positivefb,-99,hard,,1.7997656999996252,['c'],1,left,['3'],4,0.597939100000076,52,,5,19,Vrouw,Rechts,1,
,xotask,dotcolour,dotcolour,3,2,123,423,main,positivefb,-99,easy,,1.284804400000212,['c'],1,left,['2'],5,0.6669193000006999,72,,5,19,Vrouw,Rechts,1,
,xotask,dotcolour,dotcolour,4,2,124,424,main,positivefb,-99,average,,2.300344500000392,['n'],0,left,['3'],4,0.5013846000001649,60,,5,19,Vrouw,Rechts,1,
,xotask,dotcolour,dotcolour,5,2,125,425,main,positivefb,-99,hard,,3.683706699999675,['c'],1,left,['2'],5,0.5827048000001014,52,,5,19,Vrouw,Rechts,1,
,xotask,dotcolour,dotcolour,6,2,126,426,main,positivefb,-99,easy,,1.5168854000003194,['c'],1,left,['3'],4,0.4517353000001094,74,,5,19,Vrouw,Rechts,1,
,xotask,dotcolour,dotcolour,7,2,127,427,main,positivefb,-99,easy,,0.8518682000003537,['n'],1,right,['2'],5,2.640175399999862,7,,5,19,Vrouw,Rechts,1,
,xotask,dotcolour,dotcolour,8,2,128,428,main,positivefb,-99,average,,1.651477800000066,['c'],1,left,['2'],5,0.5253740999996808,61,,5,19,Vrouw,Rechts,1,
,xotask,dotcolour,dotcolour,9,2,129,429,main,positivefb,-99,hard,,1.201225499999964,['n'],0,left,['2'],5,0.7373519000002489,51,,5,19,Vrouw,Rechts,1,
,xotask,dotcolour,dotcolour,10,2,130,430,main,positivefb,-99,average,,2.317890299999817,['c'],1,left,['3'],4,0.576130500000545,61,,5,19,Vrouw,Rechts,1,
,xotask,dotcolour,dotcolour,11,2,131,431,main,positivefb,-99,average,,1.0177112000001216,['n'],1,right,['2'],5,0.6334421000001385,15,,5,19,Vrouw,Rechts,1,
,xotask,dotcolour,dotcolour,12,2,132,432,main,positivefb,-99,easy,,1.1506620999998631,['n'],1,right,['1'],6,0.4268554000000222,6,,5,19,Vrouw,Rechts,1,
,xotask,dotcolour,dotcolour,13,2,133,433,main,positivefb,-99,easy,,1.001652500000091,['n'],1,right,['2'],5,0.8985960999998497,5,,5,19,Vrouw,Rechts,1,
,xotask,dotcolour,dotcolour,14,2,134,434,main,positivefb,-99,hard,,3.067155000000639,['n'],0,left,['2'],5,1.7890422999998918,54,,5,19,Vrouw,Rechts,1,
,xotask,dotcolour,dotcolour,15,2,135,435,main,positivefb,-99,average,,1.017965400000321,['n'],1,right,['1'],6,0.3978079999997135,17,,5,19,Vrouw,Rechts,1,
,xotask,dotcolour,dotcolour,16,2,136,436,main,positivefb,-99,hard,,1.8006782000002204,['c'],1,left,['3'],4,0.9746069000002535,52,,5,19,Vrouw,Rechts,1,
,xotask,dotcolour,dotcolour,17,2,137,437,main,positivefb,-99,hard,,3.051173099999687,['n'],1,right,['3'],4,2.4625179999993634,28,,5,19,Vrouw,Rechts,1,
,xotask,dotcolour,dotcolour,18,2,138,438,main,positivefb,-99,average,,0.9178146000003835,['n'],1,right,['2'],5,0.40887629999997444,19,,5,19,Vrouw,Rechts,1,
,xotask,dotcolour,dotcolour,19,2,139,439,main,positivefb,-99,easy,,1.700544400000581,['c'],1,left,['2'],5,1.2048228000003292,72,,5,19,Vrouw,Rechts,1,
,xotask,dotcolour,dotcolour,20,2,140,440,main,positivefb,-99,hard,,2.11889550000069,['n'],0,left,['3'],4,0.5366471999996065,54,,5,19,Vrouw,Rechts,1,
,xotask,dotcolour,dotcolour,21,2,141,441,main,positivefb,-99,easy,,0.8831358999996155,['n'],1,right,['2'],5,0.4089966000001368,9,,5,19,Vrouw,Rechts,1,
,xotask,dotcolour,dotcolour,22,2,142,442,main,positivefb,-99,hard,,1.1843424999997296,['n'],1,right,['1'],6,0.44271589999971184,25,,5,19,Vrouw,Rechts,1,
,xotask,dotcolour,dotcolour,23,2,143,443,main,positivefb,-99,easy,,2.9008449000002656,['n'],1,right,['2'],5,0.6461709999994127,9,,5,19,Vrouw,Rechts,1,
,xotask,dotcolour,dotcolour,24,2,144,444,main,positivefb,-99,average,,0.9514257999999245,['n'],1,right,['1'],6,0.6392892000003485,19,,5,19,Vrouw,Rechts,1,
,xotask,dotcolour,dotcolour,25,2,145,445,main,positivefb,-99,easy,,1.8336410000001706,['c'],1,left,['2'],5,0.6931774000004225,74,,5,19,Vrouw,Rechts,1,
,xotask,dotcolour,dotcolour,26,2,146,446,main,positivefb,-99,average,,1.9345581999996284,['c'],0,right,['2'],5,0.6850736999995206,18,,5,19,Vrouw,Rechts,1,
,xotask,dotcolour,dotcolour,27,2,147,447,main,positivefb,-99,average,,1.0341811999996935,['n'],1,right,['1'],6,0.7055983000000197,15,,5,19,Vrouw,Rechts,1,
,xotask,dotcolour,dotcolour,28,2,148,448,main,positivefb,-99,easy,,1.1684203000004345,['c'],1,left,['2'],5,0.8468824000001405,72,,5,19,Vrouw,Rechts,1,
,xotask,dotcolour,dotcolour,29,2,149,449,main,positivefb,-99,easy,,0.9006407999995645,['n'],1,right,['1'],6,0.37860709999949904,9,,5,19,Vrouw,Rechts,1,
,xotask,dotcolour,dotcolour,30,2,150,450,main,positivefb,-99,easy,,0.8848657999997158,['n'],1,right,['1'],6,0.3132666000001336,9,,5,19,Vrouw,Rechts,1,
,xotask,dotcolour,dotcolour,31,2,151,451,main,positivefb,-99,hard,,3.1507526000004873,['n'],0,left,['2'],5,0.5360550999994302,52,,5,19,Vrouw,Rechts,1,
,xotask,dotcolour,dotcolour,32,2,152,452,main,positivefb,-99,average,,2.250589499999478,['n'],0,left,['3'],4,0.576884500000233,60,,5,19,Vrouw,Rechts,1,
,xotask,dotcolour,dotcolour,33,2,153,453,main,positivefb,-99,average,,0.8675302000001466,['n'],1,right,['2'],5,0.38492150000001857,17,,5,19,Vrouw,Rechts,1,
,xotask,dotcolour,dotcolour,34,2,154,454,main,positivefb,-99,hard,,1.1672551000001476,['n'],1,right,['2'],5,0.3959370000002309,29,,5,19,Vrouw,Rechts,1,
,xotask,dotcolour,dotcolour,35,2,155,455,main,positivefb,-99,hard,,0.7847841000002518,['n'],1,right,['2'],5,0.4293680000000677,29,,5,19,Vrouw,Rechts,1,
,xotask,dotcolour,dotcolour,36,2,156,456,main,positivefb,-99,easy,,2.0179447000000437,['c'],1,left,['3'],4,1.092958400000498,71,,5,19,Vrouw,Rechts,1,
,xotask,dotcolour,dotcolour,37,2,157,457,main,positivefb,-99,average,,1.5014077000005273,['c'],1,left,['2'],5,0.35879800000020623,61,,5,19,Vrouw,Rechts,1,
,xotask,dotcolour,dotcolour,38,2,158,458,main,positivefb,-99,average,,1.55083360000026,['n'],1,right,['2'],5,0.6028262999998333,19,,5,19,Vrouw,Rechts,1,
,xotask,dotcolour,dotcolour,39,2,159,459,main,positivefb,-99,average,,1.7019553999998607,['c'],1,left,['2'],5,0.44741720000001806,61,,5,19,Vrouw,Rechts,1,
,xotask,dotcolour,dotcolour,40,2,160,460,main,positivefb,-99,easy,,0.867878699999892,['n'],1,right,['1'],6,0.4362870999993902,9,,5,19,Vrouw,Rechts,1,
,xotask,dotcolour,dotcolour,41,2,161,461,main,positivefb,-99,hard,,0.9844024999993053,['n'],0,left,['2'],5,0.26849399999991874,51,,5,19,Vrouw,Rechts,1,
,xotask,dotcolour,dotcolour,42,2,162,462,main,positivefb,-99,easy,,1.317545899999459,['c'],1,left,['2'],5,0.9339264000000185,70,,5,19,Vrouw,Rechts,1,
,xotask,dotcolour,dotcolour,43,2,163,463,main,positivefb,-99,easy,,3.284841900000174,['n'],1,right,['2'],5,1.60586720000083,9,,5,19,Vrouw,Rechts,1,
,xotask,dotcolour,dotcolour,44,2,164,464,main,positivefb,-99,average,,1.9842130999995788,['c'],1,left,['3'],4,0.7507377000001725,61,,5,19,Vrouw,Rechts,1,
,xotask,dotcolour,dotcolour,45,2,165,465,main,positivefb,-99,easy,,0.7842749999999796,['n'],1,right,['2'],5,0.3306009999996604,9,,5,19,Vrouw,Rechts,1,
,xotask,dotcolour,dotcolour,46,2,166,466,main,positivefb,-99,hard,,1.1849087000000509,['c'],0,right,['2'],5,0.5429721000000427,28,,5,19,Vrouw,Rechts,1,
,xotask,dotcolour,dotcolour,47,2,167,467,main,positivefb,-99,hard,,0.8511546999998245,['n'],1,right,['3'],4,0.36014590000013413,27,,5,19,Vrouw,Rechts,1,
,xotask,dotcolour,dotcolour,48,2,168,468,main,positivefb,-99,average,,0.8017393000000084,['n'],1,right,['2'],5,0.45873110000047745,18,,5,19,Vrouw,Rechts,1,
,xotask,dotcolour,dotcolour,49,2,169,469,main,positivefb,-99,hard,,0.8177857000000586,['n'],1,right,['2'],5,0.393120299999282,26,,5,19,Vrouw,Rechts,1,
,xotask,dotcolour,dotcolour,50,2,170,470,main,positivefb,-99,hard,,1.0508560000007492,['n'],0,left,['2'],5,0.43999059999987367,53,,5,19,Vrouw,Rechts,1,
,xotask,dotcolour,dotcolour,51,2,171,471,main,positivefb,-99,hard,,1.167930200000228,['n'],1,right,['2'],5,0.34538659999998345,26,,5,19,Vrouw,Rechts,1,
,xotask,dotcolour,dotcolour,52,2,172,472,main,positivefb,-99,average,,1.9671222999995734,['n'],0,left,['2'],5,0.5897620999994615,64,,5,19,Vrouw,Rechts,1,
,xotask,dotcolour,dotcolour,53,2,173,473,main,positivefb,-99,easy,,1.3507910999996966,['c'],1,left,['2'],5,0.8566381999999066,72,,5,19,Vrouw,Rechts,1,
,xotask,dotcolour,dotcolour,54,2,174,474,main,positivefb,-99,hard,,0.9015251000000717,['n'],1,right,['2'],5,0.5720408999995925,29,,5,19,Vrouw,Rechts,1,
,xotask,dotcolour,dotcolour,55,2,175,475,main,positivefb,-99,hard,,0.7675881000004665,['n'],1,right,['2'],5,0.751106499999878,28,,5,19,Vrouw,Rechts,1,
,xotask,dotcolour,dotcolour,56,2,176,476,main,positivefb,-99,easy,,1.2677485000003799,['c'],1,left,['1'],6,0.8706445999996504,70,,5,19,Vrouw,Rechts,1,
,xotask,dotcolour,dotcolour,57,2,177,477,main,positivefb,-99,easy,,1.1506607999999687,['c'],1,left,['2'],5,0.40721430000030523,73,,5,19,Vrouw,Rechts,1,
,xotask,dotcolour,dotcolour,58,2,178,478,main,positivefb,-99,hard,,1.3178934999996272,['n'],0,left,['2'],5,0.49913680000008753,52,,5,19,Vrouw,Rechts,1,
,xotask,dotcolour,dotcolour,59,2,179,479,main,positivefb,-99,average,,1.267445399999815,['n'],0,left,['3'],4,0.9969677999997657,64,,5,19,Vrouw,Rechts,1,
,xotask,dotcolour,dotcolour,0,3,180,480,main,positivefb,-99,hard,,1.5679189000002225,['n'],1,right,['2'],5,0.9520998999996664,28,,5,19,Vrouw,Rechts,1,
,xotask,dotcolour,dotcolour,1,3,181,481,main,positivefb,-99,average,,1.0348499000001539,['n'],1,right,['2'],5,1.3773412000000462,16,,5,19,Vrouw,Rechts,1,
,xotask,dotcolour,dotcolour,2,3,182,482,main,positivefb,-99,easy,,1.0839820999999574,['c'],1,left,['2'],5,0.5281798999994862,70,,5,19,Vrouw,Rechts,1,
,xotask,dotcolour,dotcolour,3,3,183,483,main,positivefb,-99,easy,,1.3185074000002714,['c'],1,left,['2'],5,1.0632212999998956,70,,5,19,Vrouw,Rechts,1,
,xotask,dotcolour,dotcolour,4,3,184,484,main,positivefb,-99,easy,,0.951694100000168,['n'],1,right,['2'],5,0.7518808000004356,5,,5,19,Vrouw,Rechts,1,
,xotask,dotcolour,dotcolour,5,3,185,485,main,positivefb,-99,hard,,0.9677256999993915,['n'],1,right,['1'],6,0.4840783999998166,26,,5,19,Vrouw,Rechts,1,
,xotask,dotcolour,dotcolour,6,3,186,486,main,positivefb,-99,easy,,0.9008529000002454,['n'],1,right,['1'],6,1.1572659000003114,9,,5,19,Vrouw,Rechts,1,
,xotask,dotcolour,dotcolour,7,3,187,487,main,positivefb,-99,average,,1.0347072999993543,['c'],1,left,['2'],5,0.8387515999993411,64,,5,19,Vrouw,Rechts,1,
,xotask,dotcolour,dotcolour,8,3,188,488,main,positivefb,-99,easy,,1.084800799999357,['n'],1,right,['2'],5,0.7308212999996613,9,,5,19,Vrouw,Rechts,1,
,xotask,dotcolour,dotcolour,9,3,189,489,main,positivefb,-99,hard,,1.3337969000003795,['c'],1,left,['2'],5,0.4095519000002241,54,,5,19,Vrouw,Rechts,1,
,xotask,dotcolour,dotcolour,10,3,190,490,main,positivefb,-99,easy,,1.9845518000001903,['c'],1,left,['3'],4,0.7385989000003974,70,,5,19,Vrouw,Rechts,1,
,xotask,dotcolour,dotcolour,11,3,191,491,main,positivefb,-99,easy,,0.8012405999998009,['n'],1,right,['2'],5,0.3985159999992902,5,,5,19,Vrouw,Rechts,1,
,xotask,dotcolour,dotcolour,12,3,192,492,main,positivefb,-99,average,,0.9998934000004738,['c'],1,left,['2'],5,0.5183059999999386,60,,5,19,Vrouw,Rechts,1,
,xotask,dotcolour,dotcolour,13,3,193,493,main,positivefb,-99,easy,,1.2684881999994104,['c'],1,left,['2'],5,0.6164117999996961,73,,5,19,Vrouw,Rechts,1,
,xotask,dotcolour,dotcolour,14,3,194,494,main,positivefb,-99,hard,,2.2006515000002764,['n'],1,right,['2'],5,0.520021700000143,28,,5,19,Vrouw,Rechts,1,
,xotask,dotcolour,dotcolour,15,3,195,495,main,positivefb,-99,average,,1.0333465999992768,['n'],1,right,['2'],5,0.9314450000001671,16,,5,19,Vrouw,Rechts,1,
,xotask,dotcolour,dotcolour,16,3,196,496,main,positivefb,-99,hard,,1.7682731999993848,['c'],1,left,['3'],4,2.0327161000004708,50,,5,19,Vrouw,Rechts,1,
,xotask,dotcolour,dotcolour,17,3,197,497,main,positivefb,-99,average,,2.068304600000374,['n'],1,right,['3'],4,0.5485620999997991,19,,5,19,Vrouw,Rechts,1,
,xotask,dotcolour,dotcolour,18,3,198,498,main,positivefb,-99,hard,,1.2177502000004097,['c'],1,left,['2'],5,0.7184894000001805,51,,5,19,Vrouw,Rechts,1,
,xotask,dotcolour,dotcolour,19,3,199,499,main,positivefb,-99,easy,,1.2008874999992258,['c'],1,left,['2'],5,1.3072148999999627,73,,5,19,Vrouw,Rechts,1,
,xotask,dotcolour,dotcolour,20,3,200,500,main,positivefb,-99,average,,0.9675744000005579,['n'],1,right,['3'],4,0.8406021000000692,15,,5,19,Vrouw,Rechts,1,
,xotask,dotcolour,dotcolour,21,3,201,501,main,positivefb,-99,easy,,0.8183192999995299,['n'],1,right,['2'],5,0.544082200000048,8,,5,19,Vrouw,Rechts,1,
,xotask,dotcolour,dotcolour,22,3,202,502,main,positivefb,-99,average,,3.467601299999842,['c'],1,left,['3'],4,1.4958569000000352,60,,5,19,Vrouw,Rechts,1,
,xotask,dotcolour,dotcolour,23,3,203,503,main,positivefb,-99,average,,0.884386299999278,['n'],1,right,['2'],5,0.49047780000000785,18,,5,19,Vrouw,Rechts,1,
,xotask,dotcolour,dotcolour,24,3,204,504,main,positivefb,-99,easy,,0.9847119000005478,['n'],1,right,['2'],5,1.1124504999997953,6,,5,19,Vrouw,Rechts,1,
,xotask,dotcolour,dotcolour,25,3,205,505,main,positivefb,-99,average,,2.5665258999997604,['n'],0,left,['2'],5,0.43861809999998513,63,,5,19,Vrouw,Rechts,1,
,xotask,dotcolour,dotcolour,26,3,206,506,main,positivefb,-99,hard,,1.5011786000004577,['n'],0,left,['2'],5,0.46590550000018993,50,,5,19,Vrouw,Rechts,1,
,xotask,dotcolour,dotcolour,27,3,207,507,main,positivefb,-99,hard,,1.1180898000002344,['c'],1,left,['3'],4,0.7471687999995993,53,,5,19,Vrouw,Rechts,1,
,xotask,dotcolour,dotcolour,28,3,208,508,main,positivefb,-99,hard,,3.16742129999966,['n'],1,right,['2'],5,0.6163327000003846,28,,5,19,Vrouw,Rechts,1,
,xotask,dotcolour,dotcolour,29,3,209,509,main,positivefb,-99,easy,,1.0015355000005002,['c'],1,left,['3'],4,1.079871699999785,71,,5,19,Vrouw,Rechts,1,
,xotask,dotcolour,dotcolour,30,3,210,510,main,positivefb,-99,hard,,3.31712509999943,['c'],1,left,['3'],4,1.0410003000006327,51,,5,19,Vrouw,Rechts,1,
,xotask,dotcolour,dotcolour,31,3,211,511,main,positivefb,-99,easy,,0.9853055000003224,['n'],1,right,['2'],5,1.5927326000000903,7,,5,19,Vrouw,Rechts,1,
,xotask,dotcolour,dotcolour,32,3,212,512,main,positivefb,-99,average,,1.0999062000000777,['c'],1,left,['2'],5,0.4544089000000895,61,,5,19,Vrouw,Rechts,1,
,xotask,dotcolour,dotcolour,33,3,213,513,main,positivefb,-99,average,,1.3518217999999251,['n'],1,right,['1'],6,0.8150593000000299,16,,5,19,Vrouw,Rechts,1,
,xotask,dotcolour,dotcolour,34,3,214,514,main,positivefb,-99,average,,1.2501032000000123,['n'],1,right,['2'],5,0.42919290000008914,18,,5,19,Vrouw,Rechts,1,
,xotask,dotcolour,dotcolour,35,3,215,515,main,positivefb,-99,average,,3.917460200000278,['c'],1,left,['2'],5,1.1526282999993782,61,,5,19,Vrouw,Rechts,1,
,xotask,dotcolour,dotcolour,36,3,216,516,main,positivefb,-99,average,,0.9680951000000277,['n'],1,right,['2'],5,0.9089616999999635,15,,5,19,Vrouw,Rechts,1,
,xotask,dotcolour,dotcolour,37,3,217,517,main,positivefb,-99,easy,,0.9675022999999783,['c'],1,left,['2'],5,1.0190068000001702,72,,5,19,Vrouw,Rechts,1,
,xotask,dotcolour,dotcolour,38,3,218,518,main,positivefb,-99,hard,,1.051169899999877,['n'],1,right,['2'],5,0.7609454000003097,26,,5,19,Vrouw,Rechts,1,
,xotask,dotcolour,dotcolour,39,3,219,519,main,positivefb,-99,easy,,1.8844183000001067,['n'],1,right,['2'],5,1.3281223000003592,5,,5,19,Vrouw,Rechts,1,
,xotask,dotcolour,dotcolour,40,3,220,520,main,positivefb,-99,hard,,1.3333840000004784,['n'],1,right,['2'],5,0.3826496000001498,25,,5,19,Vrouw,Rechts,1,
,xotask,dotcolour,dotcolour,41,3,221,521,main,positivefb,-99,average,,1.016655599999467,['c'],1,left,['1'],6,0.559723500000473,61,,5,19,Vrouw,Rechts,1,
,xotask,dotcolour,dotcolour,42,3,222,522,main,positivefb,-99,hard,,1.0671676000001753,['n'],1,right,['1'],6,0.47130420000030426,26,,5,19,Vrouw,Rechts,1,
,xotask,dotcolour,dotcolour,43,3,223,523,main,positivefb,-99,easy,,1.1011060000000725,['n'],1,right,['1'],6,1.6260012000002462,9,,5,19,Vrouw,Rechts,1,
,xotask,dotcolour,dotcolour,44,3,224,524,main,positivefb,-99,easy,,1.0341570999999021,['c'],1,left,['1'],6,1.0483205999998972,72,,5,19,Vrouw,Rechts,1,
,xotask,dotcolour,dotcolour,45,3,225,525,main,positivefb,-99,hard,,1.2505130999998073,['c'],1,left,['2'],5,0.32492499999989377,50,,5,19,Vrouw,Rechts,1,
,xotask,dotcolour,dotcolour,46,3,226,526,main,positivefb,-99,easy,,1.0345766000000367,['n'],1,right,['1'],6,0.7430090999996537,5,,5,19,Vrouw,Rechts,1,
,xotask,dotcolour,dotcolour,47,3,227,527,main,positivefb,-99,hard,,1.200907599999482,['n'],1,right,['2'],5,0.6349904000007882,25,,5,19,Vrouw,Rechts,1,
,xotask,dotcolour,dotcolour,48,3,228,528,main,positivefb,-99,average,,1.4178678000007494,['n'],1,right,['2'],5,2.60926389999986,18,,5,19,Vrouw,Rechts,1,
,xotask,dotcolour,dotcolour,49,3,229,529,main,positivefb,-99,hard,,1.4173676000000341,['n'],0,left,['2'],5,1.553549600000224,53,,5,19,Vrouw,Rechts,1,
,xotask,dotcolour,dotcolour,50,3,230,530,main,positivefb,-99,average,,1.7174172000004546,['n'],0,left,['2'],5,0.8318000999997821,62,,5,19,Vrouw,Rechts,1,
,xotask,dotcolour,dotcolour,51,3,231,531,main,positivefb,-99,hard,,1.2516271000004053,['n'],1,right,['2'],5,0.7885369000005085,25,,5,19,Vrouw,Rechts,1,
,xotask,dotcolour,dotcolour,52,3,232,532,main,positivefb,-99,easy,,0.9681745999996565,['c'],1,left,['2'],5,1.2476698000000397,70,,5,19,Vrouw,Rechts,1,
,xotask,dotcolour,dotcolour,53,3,233,533,main,positivefb,-99,hard,,0.9177009000004546,['n'],1,right,['2'],5,0.47314540000024863,29,,5,19,Vrouw,Rechts,1,
,xotask,dotcolour,dotcolour,54,3,234,534,main,positivefb,-99,average,,1.6004478999993808,['n'],1,right,['2'],5,1.8961349999999584,15,,5,19,Vrouw,Rechts,1,
,xotask,dotcolour,dotcolour,55,3,235,535,main,positivefb,-99,average,,1.5174354000000676,['c'],1,left,['2'],5,0.9849880000001576,64,,5,19,Vrouw,Rechts,1,
,xotask,dotcolour,dotcolour,56,3,236,536,main,positivefb,-99,hard,,1.283206799999789,['c'],1,left,['2'],5,0.7826146999996126,54,,5,19,Vrouw,Rechts,1,
,xotask,dotcolour,dotcolour,57,3,237,537,main,positivefb,-99,average,,0.8837500999998156,['c'],1,left,['2'],5,0.4606036999994103,63,,5,19,Vrouw,Rechts,1,
,xotask,dotcolour,dotcolour,58,3,238,538,main,positivefb,-99,easy,,0.8671807999999146,['c'],1,left,['2'],5,1.03235659999973,70,,5,19,Vrouw,Rechts,1,
,xotask,dotcolour,dotcolour,59,3,239,539,main,positivefb,-99,hard,,1.9008759999996983,['n'],0,left,['3'],4,0.2993231000000378,54,,5,19,Vrouw,Rechts,1,
,xotask,dotcolour,dotcolour,0,4,240,540,main,positivefb,-99,easy,,1.2835973000001104,['n'],1,right,['2'],5,0.5092506000000867,6,,5,19,Vrouw,Rechts,1,
,xotask,dotcolour,dotcolour,1,4,241,541,main,positivefb,-99,easy,,1.0009642000004533,['c'],1,left,['1'],6,0.7305931000000783,73,,5,19,Vrouw,Rechts,1,
,xotask,dotcolour,dotcolour,2,4,242,542,main,positivefb,-99,average,,1.4162882999999056,['c'],1,left,['2'],5,0.4297644999996919,61,,5,19,Vrouw,Rechts,1,
,xotask,dotcolour,dotcolour,3,4,243,543,main,positivefb,-99,average,,0.9670210999993287,['n'],1,right,['1'],6,0.4398110000001907,17,,5,19,Vrouw,Rechts,1,
,xotask,dotcolour,dotcolour,4,4,244,544,main,positivefb,-99,hard,,1.0348067999993873,['n'],1,right,['2'],5,0.4129445000007763,25,,5,19,Vrouw,Rechts,1,
,xotask,dotcolour,dotcolour,5,4,245,545,main,positivefb,-99,easy,,1.0840129000007437,['n'],1,right,['2'],5,0.7308504999991783,9,,5,19,Vrouw,Rechts,1,
,xotask,dotcolour,dotcolour,6,4,246,546,main,positivefb,-99,average,,1.5509124000000156,['c'],1,left,['2'],5,0.7288984000006167,61,,5,19,Vrouw,Rechts,1,
,xotask,dotcolour,dotcolour,7,4,247,547,main,positivefb,-99,easy,,0.8179086999998617,['n'],1,right,['1'],6,0.5241516000005504,8,,5,19,Vrouw,Rechts,1,
,xotask,dotcolour,dotcolour,8,4,248,548,main,positivefb,-99,average,,1.0837400000000343,['n'],1,right,['1'],6,0.7004532999999356,19,,5,19,Vrouw,Rechts,1,
,xotask,dotcolour,dotcolour,9,4,249,549,main,positivefb,-99,easy,,1.1001952000005986,['c'],1,left,['2'],5,0.6374808000000485,73,,5,19,Vrouw,Rechts,1,
,xotask,dotcolour,dotcolour,10,4,250,550,main,positivefb,-99,easy,,1.1009321999999884,['c'],1,left,['2'],5,0.5929201999997531,71,,5,19,Vrouw,Rechts,1,
,xotask,dotcolour,dotcolour,11,4,251,551,main,positivefb,-99,average,,0.8508080000001428,['n'],1,right,['2'],5,0.36011359999974957,19,,5,19,Vrouw,Rechts,1,
,xotask,dotcolour,dotcolour,12,4,252,552,main,positivefb,-99,easy,,1.000620799999524,['n'],1,right,['2'],5,0.7229039000012563,9,,5,19,Vrouw,Rechts,1,
,xotask,dotcolour,dotcolour,13,4,253,553,main,positivefb,-99,hard,,1.2352323999984947,['n'],1,right,['2'],5,0.4697388000004139,26,,5,19,Vrouw,Rechts,1,
,xotask,dotcolour,dotcolour,14,4,254,554,main,positivefb,-99,easy,,0.8999949999997625,['c'],1,left,['2'],5,0.6076357000001735,71,,5,19,Vrouw,Rechts,1,
,xotask,dotcolour,dotcolour,15,4,255,555,main,positivefb,-99,average,,1.7506303000009211,['c'],1,left,['2'],5,0.4422435000014957,60,,5,19,Vrouw,Rechts,1,
,xotask,dotcolour,dotcolour,16,4,256,556,main,positivefb,-99,hard,,1.1177366000010807,['n'],1,right,['2'],5,0.7885880000012548,28,,5,19,Vrouw,Rechts,1,
,xotask,dotcolour,dotcolour,17,4,257,557,main,positivefb,-99,easy,,1.134175499999401,['c'],1,left,['2'],5,0.48114759999953094,71,,5,19,Vrouw,Rechts,1,
,xotask,dotcolour,dotcolour,18,4,258,558,main,positivefb,-99,easy,,0.9850844000011421,['n'],1,right,['2'],5,0.6953746999988653,9,,5,19,Vrouw,Rechts,1,
,xotask,dotcolour,dotcolour,19,4,259,559,main,positivefb,-99,easy,,1.0510501000007935,['n'],1,right,['2'],5,0.6263994000000821,7,,5,19,Vrouw,Rechts,1,
,xotask,dotcolour,dotcolour,20,4,260,560,main,positivefb,-99,hard,,1.4343861999986984,['n'],1,right,['2'],5,0.489789600000222,25,,5,19,Vrouw,Rechts,1,
,xotask,dotcolour,dotcolour,21,4,261,561,main,positivefb,-99,average,,1.0177191000002495,['n'],1,right,['1'],6,0.422449300000153,16,,5,19,Vrouw,Rechts,1,
,xotask,dotcolour,dotcolour,22,4,262,562,main,positivefb,-99,hard,,0.8336210999987088,['n'],1,right,['2'],5,0.6375571999997192,25,,5,19,Vrouw,Rechts,1,
,xotask,dotcolour,dotcolour,23,4,263,563,main,positivefb,-99,easy,,0.884546400000545,['n'],1,right,['2'],5,0.8643444999997882,9,,5,19,Vrouw,Rechts,1,
,xotask,dotcolour,dotcolour,24,4,264,564,main,positivefb,-99,hard,,0.951549100000193,['n'],1,right,['2'],5,0.8965881999993144,28,,5,19,Vrouw,Rechts,1,
,xotask,dotcolour,dotcolour,25,4,265,565,main,positivefb,-99,hard,,0.8003671999995277,['n'],1,right,['2'],5,0.5263609000012366,27,,5,19,Vrouw,Rechts,1,
,xotask,dotcolour,dotcolour,26,4,266,566,main,positivefb,-99,hard,,2.1013518999989174,['c'],1,left,['2'],5,0.6465168000013364,50,,5,19,Vrouw,Rechts,1,
,xotask,dotcolour,dotcolour,27,4,267,567,main,positivefb,-99,hard,,1.2668162999998458,['n'],0,left,['2'],5,0.3706075999998575,52,,5,19,Vrouw,Rechts,1,
,xotask,dotcolour,dotcolour,28,4,268,568,main,positivefb,-99,easy,,0.967331900001227,['n'],1,right,['2'],5,0.7745566000012332,7,,5,19,Vrouw,Rechts,1,
,xotask,dotcolour,dotcolour,29,4,269,569,main,positivefb,-99,average,,2.233591100000922,['c'],1,left,['3'],4,0.5271346999998059,62,,5,19,Vrouw,Rechts,1,
,xotask,dotcolour,dotcolour,30,4,270,570,main,positivefb,-99,average,,0.7680804999999964,['n'],1,right,['2'],5,0.6286233000009815,16,,5,19,Vrouw,Rechts,1,
,xotask,dotcolour,dotcolour,31,4,271,571,main,positivefb,-99,average,,0.7187938999995822,['n'],1,right,['2'],5,0.7674087999985204,18,,5,19,Vrouw,Rechts,1,
,xotask,dotcolour,dotcolour,32,4,272,572,main,positivefb,-99,easy,,1.0674183999999514,['n'],1,right,['2'],5,0.543054799998572,7,,5,19,Vrouw,Rechts,1,
,xotask,dotcolour,dotcolour,33,4,273,573,main,positivefb,-99,easy,,2.5341974000002665,['c'],1,left,['3'],4,0.5647284000006039,71,,5,19,Vrouw,Rechts,1,
,xotask,dotcolour,dotcolour,34,4,274,574,main,positivefb,-99,hard,,0.9504558999997244,['n'],1,right,['2'],5,0.6885053999994852,26,,5,19,Vrouw,Rechts,1,
,xotask,dotcolour,dotcolour,35,4,275,575,main,positivefb,-99,average,,0.7000298000002658,['n'],1,right,['2'],5,0.4980058999990433,15,,5,19,Vrouw,Rechts,1,
,xotask,dotcolour,dotcolour,36,4,276,576,main,positivefb,-99,average,,1.0352572000010696,['n'],0,left,['2'],5,0.685594200000196,62,,5,19,Vrouw,Rechts,1,
,xotask,dotcolour,dotcolour,37,4,277,577,main,positivefb,-99,hard,,1.1175015999997413,['n'],0,left,['2'],5,0.5182847999985825,54,,5,19,Vrouw,Rechts,1,
,xotask,dotcolour,dotcolour,38,4,278,578,main,positivefb,-99,hard,,1.5327255000011064,['c'],1,left,['2'],5,0.6059339999992517,52,,5,19,Vrouw,Rechts,1,
,xotask,dotcolour,dotcolour,39,4,279,579,main,positivefb,-99,average,,1.4011962999993557,['c'],1,left,['2'],5,0.3740271999995457,61,,5,19,Vrouw,Rechts,1,
,xotask,dotcolour,dotcolour,40,4,280,580,main,positivefb,-99,hard,,1.4512675999994826,['n'],1,right,['2'],5,0.3979694000008749,27,,5,19,Vrouw,Rechts,1,
,xotask,dotcolour,dotcolour,41,4,281,581,main,positivefb,-99,easy,,0.7012361000015517,['n'],1,right,['1'],6,0.30674330000147165,5,,5,19,Vrouw,Rechts,1,
,xotask,dotcolour,dotcolour,42,4,282,582,main,positivefb,-99,average,,1.350431099999696,['c'],1,left,['2'],5,0.33706750000055763,61,,5,19,Vrouw,Rechts,1,
,xotask,dotcolour,dotcolour,43,4,283,583,main,positivefb,-99,hard,,1.3677600999999413,['c'],0,right,['2'],5,0.31034859999999753,26,,5,19,Vrouw,Rechts,1,
,xotask,dotcolour,dotcolour,44,4,284,584,main,positivefb,-99,easy,,0.9179007000002457,['c'],1,left,['1'],6,0.638182599999709,72,,5,19,Vrouw,Rechts,1,
,xotask,dotcolour,dotcolour,45,4,285,585,main,positivefb,-99,hard,,0.7682148000003508,['n'],0,left,['2'],5,0.5667116000004171,53,,5,19,Vrouw,Rechts,1,
,xotask,dotcolour,dotcolour,46,4,286,586,main,positivefb,-99,average,,0.8006457999999839,['n'],1,right,['1'],6,0.3449199000006047,15,,5,19,Vrouw,Rechts,1,
,xotask,dotcolour,dotcolour,47,4,287,587,main,positivefb,-99,easy,,1.350623899999846,['c'],1,left,['3'],4,0.39804130000084115,72,,5,19,Vrouw,Rechts,1,
,xotask,dotcolour,dotcolour,48,4,288,588,main,positivefb,-99,average,,1.3179120000004332,['c'],1,left,['2'],5,0.7223102999996627,62,,5,19,Vrouw,Rechts,1,
,xotask,dotcolour,dotcolour,49,4,289,589,main,positivefb,-99,hard,,1.4339079999990645,['n'],0,left,['3'],4,0.37226229999942007,51,,5,19,Vrouw,Rechts,1,
,xotask,dotcolour,dotcolour,50,4,290,590,main,positivefb,-99,hard,,0.9182240000009187,['c'],1,left,['2'],5,0.4742664000004879,50,,5,19,Vrouw,Rechts,1,
,xotask,dotcolour,dotcolour,51,4,291,591,main,positivefb,-99,average,,1.0180534000010084,['c'],1,left,['2'],5,0.7916886000002705,62,,5,19,Vrouw,Rechts,1,
,xotask,dotcolour,dotcolour,52,4,292,592,main,positivefb,-99,average,,1.7513662000001204,['n'],1,right,['2'],5,0.7392982999990636,19,,5,19,Vrouw,Rechts,1,
,xotask,dotcolour,dotcolour,53,4,293,593,main,positivefb,-99,hard,,0.7670736000000034,['c'],1,left,['2'],5,0.4633193999998184,53,,5,19,Vrouw,Rechts,1,
,xotask,dotcolour,dotcolour,54,4,294,594,main,positivefb,-99,hard,,0.9347937000002275,['c'],1,left,['2'],5,0.5848866000014823,52,,5,19,Vrouw,Rechts,1,
,xotask,dotcolour,dotcolour,55,4,295,595,main,positivefb,-99,average,,1.2682540999994671,['c'],1,left,['2'],5,0.6952837000008003,64,,5,19,Vrouw,Rechts,1,
,xotask,dotcolour,dotcolour,56,4,296,596,main,positivefb,-99,hard,,1.8336156999994273,['n'],0,left,['2'],5,0.4835048999993887,50,,5,19,Vrouw,Rechts,1,
,xotask,dotcolour,dotcolour,57,4,297,597,main,positivefb,-99,average,,0.8182003000001714,['n'],1,right,['1'],6,0.3922954999998183,15,,5,19,Vrouw,Rechts,1,
,xotask,dotcolour,dotcolour,58,4,298,598,main,positivefb,-99,easy,,0.9843337000002066,['c'],1,left,['1'],6,0.47416209999937564,73,,5,19,Vrouw,Rechts,1,
,xotask,dotcolour,dotcolour,59,4,299,599,main,positivefb,-99,easy,,1.801331200000277,['c'],1,left,['2'],5,0.7201688999994076,72,,5,19,Vrouw,Rechts,1,
,dotcolour,dotcolour,dotcolour,0,0,0,600,training,positivefb,100,average,26,0.9506352999997034,['n'],1,right,['2'],5,1.3726430000006076,,,5,19,Vrouw,Rechts,1,
,dotcolour,dotcolour,dotcolour,1,0,1,601,training,positivefb,95,hard,37,1.1997899999987567,['n'],1,right,['2'],5,0.4290350999999646,,,5,19,Vrouw,Rechts,1,
,dotcolour,dotcolour,dotcolour,2,0,2,602,training,positivefb,98,average,29,0.9004289000004064,['n'],1,right,['1'],6,0.5605376999992586,,,5,19,Vrouw,Rechts,1,
,dotcolour,dotcolour,dotcolour,3,0,3,603,training,positivefb,98,average,25,0.8673340000004828,['n'],1,right,['1'],6,0.3435885999988386,,,5,19,Vrouw,Rechts,1,
,dotcolour,dotcolour,dotcolour,4,0,4,604,training,positivefb,90,hard,42,1.1007183999990957,['n'],0,left,['1'],6,0.4785473000010825,,,5,19,Vrouw,Rechts,1,
,dotcolour,dotcolour,dotcolour,5,0,5,605,training,positivefb,93,easy,64,0.7333497999989049,['c'],1,left,['1'],6,0.3980779000012262,,,5,19,Vrouw,Rechts,1,
,dotcolour,dotcolour,dotcolour,6,0,6,606,training,positivefb,76,average,52,1.6502574999994977,['c'],1,left,['2'],5,0.3803819000004296,,,5,19,Vrouw,Rechts,1,
,dotcolour,dotcolour,dotcolour,7,0,7,607,training,positivefb,98,average,53,1.1824116999996477,['c'],1,left,['2'],5,0.3108216000000539,,,5,19,Vrouw,Rechts,1,
,dotcolour,dotcolour,dotcolour,8,0,8,608,training,positivefb,71,average,26,0.7507232999996631,['n'],1,right,['1'],6,0.31633959999999206,,,5,19,Vrouw,Rechts,1,
,dotcolour,dotcolour,dotcolour,9,0,9,609,training,positivefb,72,hard,37,1.0173354999988078,['n'],1,right,['1'],6,0.3992121999999654,,,5,19,Vrouw,Rechts,1,
,dotcolour,dotcolour,dotcolour,10,0,10,610,training,positivefb,86,hard,42,0.8330046999999468,['n'],0,left,['1'],6,0.43002159999923606,,,5,19,Vrouw,Rechts,1,
,dotcolour,dotcolour,dotcolour,11,0,11,611,training,positivefb,78,easy,65,0.966320800000176,['c'],1,left,['1'],6,0.4148258999994141,,,5,19,Vrouw,Rechts,1,
,dotcolour,dotcolour,dotcolour,12,0,12,612,training,positivefb,37,hard,42,2.4667094999986148,['n'],0,left,['2'],5,0.5871323999999731,,,5,19,Vrouw,Rechts,1,
,dotcolour,dotcolour,dotcolour,13,0,13,613,training,positivefb,96,hard,37,1.1501877999999124,['n'],1,right,['2'],5,1.0937603999991552,,,5,19,Vrouw,Rechts,1,
,dotcolour,dotcolour,dotcolour,14,0,14,614,training,positivefb,79,hard,39,1.0172265000001062,['n'],1,right,['2'],5,0.5540443999998388,,,5,19,Vrouw,Rechts,1,
,dotcolour,dotcolour,dotcolour,15,0,15,615,training,positivefb,76,average,54,1.334250100000645,['c'],1,left,['2'],5,0.663308600000164,,,5,19,Vrouw,Rechts,1,
,dotcolour,dotcolour,dotcolour,16,0,16,616,training,positivefb,96,easy,61,0.7328653999993548,['c'],1,left,['1'],6,0.32735820000016247,,,5,19,Vrouw,Rechts,1,
,dotcolour,dotcolour,dotcolour,17,0,17,617,training,positivefb,97,easy,19,0.6843704000002617,['n'],1,right,['1'],6,0.6794513999993796,,,5,19,Vrouw,Rechts,1,
,dotcolour,dotcolour,dotcolour,18,0,18,618,training,positivefb,71,hard,36,2.00112210000043,['n'],1,right,['2'],5,0.24482829999942624,,,5,19,Vrouw,Rechts,1,
,dotcolour,dotcolour,dotcolour,19,0,19,619,training,positivefb,95,average,26,0.6672963000000891,['n'],1,right,['1'],6,0.37646719999975176,,,5,19,Vrouw,Rechts,1,
,dotcolour,dotcolour,dotcolour,20,0,20,620,training,positivefb,75,easy,18,0.6662956000000122,['n'],1,right,['1'],6,0.5671106999998301,,,5,19,Vrouw,Rechts,1,
,dotcolour,dotcolour,dotcolour,21,0,21,621,training,positivefb,99,average,29,0.7500522999998793,['n'],1,right,['1'],6,0.3628829000008409,,,5,19,Vrouw,Rechts,1,
,dotcolour,dotcolour,dotcolour,22,0,22,622,training,positivefb,98,easy,15,0.8498667000003479,['n'],1,right,['1'],6,0.298342699999921,,,5,19,Vrouw,Rechts,1,
,dotcolour,dotcolour,dotcolour,23,0,23,623,training,positivefb,90,hard,37,0.6999643999988621,['n'],1,right,['1'],6,0.6747577999994974,,,5,19,Vrouw,Rechts,1,
,dotcolour,dotcolour,dotcolour,24,0,24,624,training,positivefb,93,hard,35,0.6999102999998286,['n'],1,right,['1'],6,0.7166563000009774,,,5,19,Vrouw,Rechts,1,
,dotcolour,dotcolour,dotcolour,25,0,25,625,training,positivefb,97,easy,17,0.7342528000008315,['n'],1,right,['1'],6,0.6341943000006722,,,5,19,Vrouw,Rechts,1,
,dotcolour,dotcolour,dotcolour,26,0,26,626,training,positivefb,58,hard,39,1.9667407999986608,['c'],0,right,['2'],5,0.442676599999686,,,5,19,Vrouw,Rechts,1,
,dotcolour,dotcolour,dotcolour,27,0,27,627,training,positivefb,95,easy,63,0.7336626999986038,['c'],1,left,['1'],6,0.3714247999996587,,,5,19,Vrouw,Rechts,1,
,dotcolour,dotcolour,dotcolour,28,0,28,628,training,positivefb,85,hard,42,2.100679900000614,['n'],0,left,['2'],5,0.4087238000010984,,,5,19,Vrouw,Rechts,1,
,dotcolour,dotcolour,dotcolour,29,0,29,629,training,positivefb,84,hard,43,1.2998149000013655,['n'],0,left,['2'],5,0.3406590000013239,,,5,19,Vrouw,Rechts,1,
,dotcolour,dotcolour,dotcolour,30,0,30,630,training,positivefb,94,hard,36,0.7842409000004409,['n'],1,right,['1'],6,0.512217999999848,,,5,19,Vrouw,Rechts,1,
,dotcolour,dotcolour,dotcolour,31,0,31,631,training,positivefb,96,easy,15,0.6829353000011906,['n'],1,right,['1'],6,0.36950640000031854,,,5,19,Vrouw,Rechts,1,
,dotcolour,dotcolour,dotcolour,32,0,32,632,training,positivefb,99,easy,18,0.5842508999994607,['n'],1,right,['1'],6,0.33106559999941965,,,5,19,Vrouw,Rechts,1,
,dotcolour,dotcolour,dotcolour,33,0,33,633,training,positivefb,87,hard,36,1.5497137999991537,['n'],1,right,['2'],5,0.33591319999868574,,,5,19,Vrouw,Rechts,1,
,dotcolour,dotcolour,dotcolour,34,0,34,634,training,positivefb,97,average,51,0.8675155000000814,['c'],1,left,['2'],5,0.503661299999294,,,5,19,Vrouw,Rechts,1,
,dotcolour,dotcolour,dotcolour,35,0,35,635,training,positivefb,61,average,29,0.7335081000001082,['n'],1,right,['1'],6,0.822412900000927,,,5,19,Vrouw,Rechts,1,
,dotcolour,dotcolour,dotcolour,36,0,36,636,training,positivefb,99,easy,19,0.7822462999993149,['n'],1,right,['1'],6,0.4141940000008617,,,5,19,Vrouw,Rechts,1,
,dotcolour,dotcolour,dotcolour,37,0,37,637,training,positivefb,98,easy,19,0.6823938000015914,['n'],1,right,['1'],6,0.4186686000011832,,,5,19,Vrouw,Rechts,1,
,dotcolour,dotcolour,dotcolour,38,0,38,638,training,positivefb,85,easy,64,0.9839656000003743,['c'],1,left,['1'],6,0.3548375999998825,,,5,19,Vrouw,Rechts,1,
,dotcolour,dotcolour,dotcolour,39,0,39,639,training,positivefb,94,average,54,1.4834708999987924,['c'],1,left,['1'],6,0.497446299999865,,,5,19,Vrouw,Rechts,1,
,dotcolour,dotcolour,dotcolour,40,0,40,640,training,positivefb,90,easy,61,0.7171450000005279,['c'],1,left,['1'],6,0.4094528999994509,,,5,19,Vrouw,Rechts,1,
,dotcolour,dotcolour,dotcolour,41,0,41,641,training,positivefb,92,average,26,0.6503912999996828,['n'],1,right,['1'],6,0.5993816999998671,,,5,19,Vrouw,Rechts,1,
,dotcolour,dotcolour,dotcolour,42,0,42,642,training,positivefb,98,average,54,0.9012057999989338,['c'],1,left,['1'],6,0.45885769999949844,,,5,19,Vrouw,Rechts,1,
