starttime,task,fbtask,firsttask,withinblocktrial,block,withintasktrial,trial,running,feedback,fbscore,difflevel,reddots,rt,resp,cor,cresp,conf_press,cj,RTconf,n_xes,stoptime,sub,age,gender,handedness,session,
1715070683,dotcolour,dotcolour,dotcolour,0,0,0,0,training,negativefb,3,average,26,2.5496725999998944,['c'],0,right,['8'],4,3.173853599999802,,,31,19,Vrouw,Rechts,1,
,dotcolour,dotcolour,dotcolour,1,0,1,1,training,negativefb,16,average,53,1.4498571999999967,['n'],0,left,['9'],5,2.3319764000000305,,,31,19,Vrouw,Rechts,1,
,dotcolour,dotcolour,dotcolour,2,0,2,2,training,negativefb,20,average,53,1.6503061000000798,['n'],0,left,['3'],3,5.06031269999994,,,31,19,Vrouw,Rechts,1,
,dotcolour,dotcolour,dotcolour,3,0,3,3,training,negativefb,94,easy,65,0.9671415000000252,['c'],1,left,['8'],4,3.729430900000125,,,31,19,Vrouw,Rechts,1,
,dotcolour,dotcolour,dotcolour,4,0,4,4,training,negativefb,65,hard,36,2.050445800000034,['c'],0,right,['3'],3,1.7533523999998124,,,31,19,Vrouw,Rechts,1,
,dotcolour,dotcolour,dotcolour,5,0,5,5,training,negativefb,51,hard,39,0.9007814000001417,['n'],1,right,['8'],4,1.0705341000000317,,,31,19,Vrouw,Rechts,1,
,dotcolour,dotcolour,dotcolour,6,0,6,6,training,negativefb,97,easy,62,0.7993357999998807,['c'],1,left,['0'],6,2.084172800000033,,,31,19,Vrouw,Rechts,1,
,dotcolour,dotcolour,dotcolour,7,0,7,7,training,negativefb,60,hard,35,0.7494671000001745,['n'],1,right,['0'],6,1.10614610000016,,,31,19,Vrouw,Rechts,1,
,dotcolour,dotcolour,dotcolour,8,0,8,8,training,negativefb,44,hard,43,0.8828696999999011,['n'],0,left,['8'],4,0.8988889999998264,,,31,19,Vrouw,Rechts,1,
,dotcolour,dotcolour,dotcolour,9,0,9,9,training,negativefb,99,easy,19,0.5998933999999281,['n'],1,right,['0'],6,0.9348929999998745,,,31,19,Vrouw,Rechts,1,
,dotcolour,dotcolour,dotcolour,10,0,10,10,training,negativefb,28,average,53,1.0346133000000464,['n'],0,left,['8'],4,0.9524447000001146,,,31,19,Vrouw,Rechts,1,
,dotcolour,dotcolour,dotcolour,11,0,11,11,training,negativefb,67,easy,15,0.6506407999997919,['n'],1,right,['0'],6,0.680227000000059,,,31,19,Vrouw,Rechts,1,
,dotcolour,dotcolour,dotcolour,12,0,12,12,training,negativefb,28,average,26,0.6826281000001018,['n'],1,right,['0'],6,1.418243000000075,,,31,19,Vrouw,Rechts,1,
,dotcolour,dotcolour,dotcolour,13,0,13,13,training,negativefb,96,average,25,0.5171641000001728,['n'],1,right,['0'],6,0.900947300000098,,,31,19,Vrouw,Rechts,1,
,dotcolour,dotcolour,dotcolour,14,0,14,14,training,negativefb,75,hard,38,0.6666973999999755,['n'],1,right,['8'],4,0.9662323999998534,,,31,19,Vrouw,Rechts,1,
,dotcolour,dotcolour,dotcolour,15,0,15,15,training,negativefb,6,hard,42,0.5666186999999354,['n'],0,left,['8'],4,1.0170455999998467,,,31,19,Vrouw,Rechts,1,
,dotcolour,dotcolour,dotcolour,16,0,16,16,training,negativefb,99,easy,61,0.6326495999999224,['c'],1,left,['8'],4,4.471182799999951,,,31,19,Vrouw,Rechts,1,
,dotcolour,dotcolour,dotcolour,17,0,17,17,training,negativefb,90,easy,16,0.7167500000000473,['n'],1,right,['0'],6,0.7824388999999883,,,31,19,Vrouw,Rechts,1,
,dotcolour,dotcolour,dotcolour,18,0,18,18,training,negativefb,97,easy,64,0.6009701000000405,['c'],1,left,['3'],3,1.0390562000000045,,,31,19,Vrouw,Rechts,1,
,dotcolour,dotcolour,dotcolour,19,0,19,19,training,negativefb,77,hard,35,0.5673080999999911,['n'],1,right,['9'],5,0.9669274999998834,,,31,19,Vrouw,Rechts,1,
,dotcolour,dotcolour,dotcolour,20,0,20,20,training,negativefb,68,hard,36,0.80057510000006,['n'],1,right,['8'],4,1.008709600000202,,,31,19,Vrouw,Rechts,1,
,dotcolour,dotcolour,dotcolour,21,0,21,21,training,negativefb,99,easy,61,0.5172368999999435,['c'],1,left,['0'],6,2.355836599999975,,,31,19,Vrouw,Rechts,1,
,dotcolour,dotcolour,dotcolour,22,0,22,22,training,negativefb,72,hard,44,1.083577200000036,['n'],0,left,['8'],4,0.7378724999998667,,,31,19,Vrouw,Rechts,1,
,dotcolour,dotcolour,dotcolour,23,0,23,23,training,negativefb,4,hard,42,0.6500964000001659,['n'],0,left,['8'],4,0.738653099999965,,,31,19,Vrouw,Rechts,1,
,dotcolour,dotcolour,dotcolour,24,0,24,24,training,negativefb,81,average,55,0.5324017999998887,['c'],1,left,['0'],6,0.9920035000000098,,,31,19,Vrouw,Rechts,1,
,dotcolour,dotcolour,dotcolour,25,0,25,25,training,negativefb,9,hard,44,0.8170149000000038,['n'],0,left,['3'],3,1.7280362999999852,,,31,19,Vrouw,Rechts,1,
,dotcolour,dotcolour,dotcolour,26,0,26,26,training,negativefb,98,easy,61,0.8330412000000251,['c'],1,left,['0'],6,1.0254143000001932,,,31,19,Vrouw,Rechts,1,
,dotcolour,dotcolour,dotcolour,27,0,27,27,training,negativefb,7,hard,43,0.6841125999999349,['n'],0,left,['8'],4,0.7893444000001182,,,31,19,Vrouw,Rechts,1,
,dotcolour,dotcolour,dotcolour,28,0,28,28,training,negativefb,93,average,26,0.6161592999999357,['n'],1,right,['9'],5,0.7735023000000183,,,31,19,Vrouw,Rechts,1,
,dotcolour,dotcolour,dotcolour,29,0,29,29,training,negativefb,47,average,25,0.5670713999998043,['n'],1,right,['0'],6,0.6079343999999764,,,31,19,Vrouw,Rechts,1,
,dotcolour,dotcolour,dotcolour,30,0,30,30,training,negativefb,80,hard,38,0.7167998000002171,['n'],1,right,['8'],4,1.5874928999999156,,,31,19,Vrouw,Rechts,1,
,dotcolour,dotcolour,dotcolour,31,0,31,31,training,negativefb,75,average,55,1.234260200000108,['c'],1,left,['8'],4,1.9381624999998621,,,31,19,Vrouw,Rechts,1,
,dotcolour,dotcolour,dotcolour,32,0,32,32,training,negativefb,44,hard,44,0.9008814999999686,['n'],0,left,['3'],3,1.2882148999999572,,,31,19,Vrouw,Rechts,1,
,dotcolour,dotcolour,dotcolour,33,0,33,33,training,negativefb,98,hard,39,0.8342871000002106,['c'],0,right,['1'],1,1.9715738999998393,,,31,19,Vrouw,Rechts,1,
,dotcolour,dotcolour,dotcolour,34,0,34,34,training,negativefb,74,easy,15,0.5488190000000941,['n'],1,right,['0'],6,1.2542834999999286,,,31,19,Vrouw,Rechts,1,
,dotcolour,dotcolour,dotcolour,35,0,35,35,training,negativefb,95,easy,65,0.6337411999998039,['c'],1,left,['0'],6,1.0268109000001004,,,31,19,Vrouw,Rechts,1,
,dotcolour,dotcolour,dotcolour,36,0,36,36,training,negativefb,97,easy,19,1.1658176999999341,['n'],1,right,['0'],6,1.3076532999998562,,,31,19,Vrouw,Rechts,1,
,dotcolour,dotcolour,dotcolour,37,0,37,37,training,negativefb,81,easy,19,0.5176997999999458,['n'],1,right,['0'],6,0.7709945000001426,,,31,19,Vrouw,Rechts,1,
,dotcolour,dotcolour,dotcolour,38,0,38,38,training,negativefb,72,easy,19,0.5004549999998744,['n'],1,right,['0'],6,0.8482739999999467,,,31,19,Vrouw,Rechts,1,
,dotcolour,dotcolour,dotcolour,39,0,39,39,training,negativefb,90,easy,17,0.4339775999999347,['n'],1,right,['0'],6,0.5890128999999433,,,31,19,Vrouw,Rechts,1,
,dotcolour,dotcolour,dotcolour,40,0,40,40,training,negativefb,88,easy,61,0.5337248999999247,['c'],1,left,['0'],6,1.176284399999986,,,31,19,Vrouw,Rechts,1,
,dotcolour,dotcolour,dotcolour,41,0,41,41,training,negativefb,93,average,29,0.6173509000000195,['n'],1,right,['0'],6,0.5770961000000625,,,31,19,Vrouw,Rechts,1,
,dotcolour,dotcolour,dotcolour,42,0,42,42,training,negativefb,95,easy,18,0.5676843000001099,['n'],1,right,['0'],6,0.7556861000000481,,,31,19,Vrouw,Rechts,1,
,dotcolour,dotcolour,dotcolour,43,0,43,43,training,negativefb,78,hard,36,0.5668399999999565,['n'],1,right,['9'],5,0.8870676999999887,,,31,19,Vrouw,Rechts,1,
,dotcolour,dotcolour,dotcolour,44,0,44,44,training,negativefb,94,easy,15,0.46651410000004034,['n'],1,right,['0'],6,0.7050404000001436,,,31,19,Vrouw,Rechts,1,
,dotcolour,dotcolour,dotcolour,45,0,45,45,training,negativefb,78,hard,41,1.0830469999998513,['c'],1,left,['8'],4,1.4177791999998135,,,31,19,Vrouw,Rechts,1,
,dotcolour,dotcolour,dotcolour,46,0,46,46,training,negativefb,75,average,27,0.48260290000007444,['n'],1,right,['0'],6,1.8698991999999635,,,31,19,Vrouw,Rechts,1,
,dotcolour,dotcolour,dotcolour,47,0,47,47,training,negativefb,8,hard,39,0.8833985999999641,['c'],0,right,['2'],2,1.5512584999999035,,,31,19,Vrouw,Rechts,1,
,dotcolour,dotcolour,dotcolour,48,0,48,48,training,negativefb,11,average,52,0.9001969000000827,['n'],0,left,['8'],4,1.53251350000005,,,31,19,Vrouw,Rechts,1,
,dotcolour,dotcolour,dotcolour,49,0,49,49,training,negativefb,89,average,55,0.8174428999998327,['c'],1,left,['3'],3,1.0939431000001605,,,31,19,Vrouw,Rechts,1,
,dotcolour,dotcolour,dotcolour,50,0,50,50,training,negativefb,81,average,54,0.8014765000000352,['c'],1,left,['8'],4,2.610682800000177,,,31,19,Vrouw,Rechts,1,
,dotcolour,dotcolour,dotcolour,51,0,51,51,training,negativefb,63,hard,45,0.851049600000124,['n'],0,left,['8'],4,0.8961096000000452,,,31,19,Vrouw,Rechts,1,
,dotcolour,dotcolour,dotcolour,52,0,52,52,training,negativefb,76,average,53,1.0832683999999517,['c'],1,left,['8'],4,1.2813555000000179,,,31,19,Vrouw,Rechts,1,
,dotcolour,dotcolour,dotcolour,53,0,53,53,training,negativefb,70,average,25,0.5342954000000191,['n'],1,right,['0'],6,0.7053318999999192,,,31,19,Vrouw,Rechts,1,
,dotcolour,dotcolour,dotcolour,54,0,54,54,training,negativefb,82,easy,64,0.5505442999999559,['c'],1,left,['0'],6,0.9354462999999669,,,31,19,Vrouw,Rechts,1,
,dotcolour,dotcolour,dotcolour,55,0,55,55,training,negativefb,45,hard,45,1.1343105000000833,['n'],0,left,['8'],4,0.7649643999998261,,,31,19,Vrouw,Rechts,1,
,dotcolour,dotcolour,dotcolour,56,0,56,56,training,negativefb,49,easy,63,0.5504189999999198,['c'],1,left,['0'],6,0.9120562999999038,,,31,19,Vrouw,Rechts,1,
,dotcolour,dotcolour,dotcolour,57,0,57,57,training,negativefb,34,average,29,0.6673753999998553,['n'],1,right,['0'],6,1.2254777000000558,,,31,19,Vrouw,Rechts,1,
,dotcolour,dotcolour,dotcolour,58,0,58,58,training,negativefb,75,average,25,0.6666230999999243,['n'],1,right,['8'],4,0.9182905000000119,,,31,19,Vrouw,Rechts,1,
,dotcolour,dotcolour,dotcolour,59,0,59,59,training,negativefb,98,average,53,0.9493748999998388,['c'],1,left,['2'],2,1.4115917999999965,,,31,19,Vrouw,Rechts,1,
,dotcolour,dotcolour,dotcolour,0,1,60,60,training,negativefb,92,hard,37,0.6507811999999831,['n'],1,right,['8'],4,0.925422000000026,,,31,19,Vrouw,Rechts,1,
,dotcolour,dotcolour,dotcolour,1,1,61,61,training,negativefb,37,average,54,0.8159284000000753,['c'],1,left,['8'],4,0.9362115999999787,,,31,19,Vrouw,Rechts,1,
,dotcolour,dotcolour,dotcolour,2,1,62,62,training,negativefb,95,hard,39,0.6325439999998252,['n'],1,right,['3'],3,1.201921099999936,,,31,19,Vrouw,Rechts,1,
,dotcolour,dotcolour,dotcolour,3,1,63,63,training,negativefb,95,average,53,0.7831645000001117,['c'],1,left,['8'],4,1.2824499000000742,,,31,19,Vrouw,Rechts,1,
,dotcolour,dotcolour,dotcolour,4,1,64,64,training,negativefb,90,hard,37,0.8828349999998863,['n'],1,right,['8'],4,0.7475862000001143,,,31,19,Vrouw,Rechts,1,
,dotcolour,dotcolour,dotcolour,5,1,65,65,training,negativefb,91,average,55,0.7835084000000734,['c'],1,left,['9'],5,0.7832554999999957,,,31,19,Vrouw,Rechts,1,
,dotcolour,dotcolour,dotcolour,6,1,66,66,training,negativefb,61,hard,42,1.3165894000001117,['c'],1,left,['3'],3,1.1069915999999012,,,31,19,Vrouw,Rechts,1,
,dotcolour,dotcolour,dotcolour,7,1,67,67,training,negativefb,72,average,25,0.7999635999999555,['n'],1,right,['0'],6,1.9031846000000314,,,31,19,Vrouw,Rechts,1,
,dotcolour,dotcolour,dotcolour,8,1,68,68,training,negativefb,95,easy,62,0.7845786000000317,['c'],1,left,['0'],6,1.203172400000085,,,31,19,Vrouw,Rechts,1,
,dotcolour,dotcolour,dotcolour,9,1,69,69,training,negativefb,94,easy,19,0.46642799999995077,['n'],1,right,['0'],6,0.7203689999998915,,,31,19,Vrouw,Rechts,1,
,dotcolour,dotcolour,dotcolour,10,1,70,70,training,negativefb,90,hard,44,0.8669306000001598,['c'],1,left,['3'],3,1.2412060999999994,,,31,19,Vrouw,Rechts,1,
,dotcolour,dotcolour,dotcolour,11,1,71,71,training,negativefb,46,average,54,0.866780899999867,['c'],1,left,['3'],3,0.8212562000001071,,,31,19,Vrouw,Rechts,1,
,dotcolour,dotcolour,dotcolour,12,1,72,72,training,negativefb,51,hard,44,0.6505589000000782,['n'],0,left,['3'],3,1.8906293000000005,,,31,19,Vrouw,Rechts,1,
,dotcolour,dotcolour,dotcolour,13,1,73,73,training,negativefb,86,average,28,0.6160875999999007,['n'],1,right,['9'],5,1.0220087999998668,,,31,19,Vrouw,Rechts,1,
,dotcolour,dotcolour,dotcolour,14,1,74,74,training,negativefb,77,average,28,0.46689519999995355,['n'],1,right,['9'],5,0.7466623000000254,,,31,19,Vrouw,Rechts,1,
,dotcolour,dotcolour,dotcolour,15,1,75,75,training,negativefb,79,hard,39,0.6011996000002,['n'],1,right,['9'],5,1.3253634999998667,,,31,19,Vrouw,Rechts,1,
,dotcolour,dotcolour,dotcolour,16,1,76,76,training,negativefb,89,easy,15,0.6342231000000993,['n'],1,right,['0'],6,0.8392817999999806,,,31,19,Vrouw,Rechts,1,
,dotcolour,dotcolour,dotcolour,17,1,77,77,training,negativefb,76,average,53,0.9006924000000254,['c'],1,left,['3'],3,0.8501198000001295,,,31,19,Vrouw,Rechts,1,
,dotcolour,dotcolour,dotcolour,18,1,78,78,training,negativefb,37,easy,17,0.63365060000001,['n'],1,right,['0'],6,0.6466731000000436,,,31,19,Vrouw,Rechts,1,
,dotcolour,dotcolour,dotcolour,19,1,79,79,training,negativefb,89,hard,38,0.6826668999999583,['n'],1,right,['9'],5,1.6899372999998832,,,31,19,Vrouw,Rechts,1,
,dotcolour,dotcolour,dotcolour,20,1,80,80,training,negativefb,97,average,25,0.43332890000010593,['n'],1,right,['0'],6,0.8367654000001039,,,31,19,Vrouw,Rechts,1,
,dotcolour,dotcolour,dotcolour,21,1,81,81,training,negativefb,96,easy,63,0.534051399999953,['c'],1,left,['0'],6,0.8861893000000691,,,31,19,Vrouw,Rechts,1,
,dotcolour,dotcolour,dotcolour,22,1,82,82,training,negativefb,88,average,26,0.5324703000001136,['n'],1,right,['0'],6,0.645517400000017,,,31,19,Vrouw,Rechts,1,
,dotcolour,dotcolour,dotcolour,23,1,83,83,training,negativefb,93,average,54,0.7003694999998515,['c'],1,left,['8'],4,0.9522551000000021,,,31,19,Vrouw,Rechts,1,
,dotcolour,dotcolour,dotcolour,24,1,84,84,training,negativefb,16,easy,63,0.5334723999999369,['n'],0,left,['1'],1,1.6929360999999972,,,31,19,Vrouw,Rechts,1,
,dotcolour,dotcolour,dotcolour,25,1,85,85,training,negativefb,96,hard,45,0.9340577999998914,['n'],0,left,['2'],2,1.5235203000002002,,,31,19,Vrouw,Rechts,1,
,dotcolour,dotcolour,dotcolour,26,1,86,86,training,negativefb,86,average,54,0.9341462999998384,['c'],1,left,['8'],4,1.5848813999998583,,,31,19,Vrouw,Rechts,1,
,dotcolour,dotcolour,dotcolour,27,1,87,87,training,negativefb,20,hard,44,0.7843754999998964,['n'],0,left,['8'],4,0.8091544999999769,,,31,19,Vrouw,Rechts,1,
,dotcolour,dotcolour,dotcolour,28,1,88,88,training,negativefb,50,hard,38,0.8324274999999943,['c'],0,right,['2'],2,0.8153173999999126,,,31,19,Vrouw,Rechts,1,
,dotcolour,dotcolour,dotcolour,29,1,89,89,training,negativefb,94,easy,62,0.8837844999998197,['c'],1,left,['8'],4,1.419668799999954,,,31,19,Vrouw,Rechts,1,
,dotcolour,dotcolour,dotcolour,30,1,90,90,training,negativefb,45,easy,16,0.5161536000000524,['n'],1,right,['0'],6,0.7189642999999251,,,31,19,Vrouw,Rechts,1,
,dotcolour,dotcolour,dotcolour,31,1,91,91,training,negativefb,93,average,27,0.5168759999999111,['n'],1,right,['0'],6,1.0457037000001037,,,31,19,Vrouw,Rechts,1,
,dotcolour,dotcolour,dotcolour,32,1,92,92,training,negativefb,85,average,55,0.8353798999999071,['c'],1,left,['8'],4,1.3790943999999854,,,31,19,Vrouw,Rechts,1,
,dotcolour,dotcolour,dotcolour,33,1,93,93,training,negativefb,43,easy,64,0.6161254999999528,['c'],1,left,['9'],5,1.1878186999999798,,,31,19,Vrouw,Rechts,1,
,dotcolour,dotcolour,dotcolour,34,1,94,94,training,negativefb,35,easy,64,0.7346150999999281,['c'],1,left,['0'],6,1.046764800000119,,,31,19,Vrouw,Rechts,1,
,dotcolour,dotcolour,dotcolour,35,1,95,95,training,negativefb,90,average,53,0.7497510999999122,['c'],1,left,['8'],4,1.1513812000000598,,,31,19,Vrouw,Rechts,1,
,dotcolour,dotcolour,dotcolour,36,1,96,96,training,negativefb,80,average,25,0.50016770000002,['n'],1,right,['0'],6,0.685626799999909,,,31,19,Vrouw,Rechts,1,
,dotcolour,dotcolour,dotcolour,37,1,97,97,training,negativefb,44,hard,43,1.5009233000000677,['n'],0,left,['8'],4,0.7822360999998637,,,31,19,Vrouw,Rechts,1,
,dotcolour,dotcolour,dotcolour,38,1,98,98,training,negativefb,94,easy,64,0.584059600000046,['c'],1,left,['0'],6,1.1279019000000972,,,31,19,Vrouw,Rechts,1,
,dotcolour,dotcolour,dotcolour,39,1,99,99,training,negativefb,70,easy,63,0.5664231000000655,['c'],1,left,['9'],5,0.7719542999998339,,,31,19,Vrouw,Rechts,1,
,dotcolour,dotcolour,dotcolour,40,1,100,100,training,negativefb,97,hard,35,0.5336180000001605,['n'],1,right,['0'],6,0.8886076999999659,,,31,19,Vrouw,Rechts,1,
,dotcolour,dotcolour,dotcolour,41,1,101,101,training,negativefb,79,easy,63,0.5667564000000311,['c'],1,left,['9'],5,1.4466711000000032,,,31,19,Vrouw,Rechts,1,
,dotcolour,dotcolour,dotcolour,42,1,102,102,training,negativefb,88,average,28,0.5836977999999817,['n'],1,right,['0'],6,0.6302806000001056,,,31,19,Vrouw,Rechts,1,
,dotcolour,dotcolour,dotcolour,43,1,103,103,training,negativefb,53,hard,36,0.6349079999999958,['n'],1,right,['8'],4,1.0281594000000496,,,31,19,Vrouw,Rechts,1,
,dotcolour,dotcolour,dotcolour,44,1,104,104,training,negativefb,94,average,55,0.6011180999998942,['c'],1,left,['9'],5,0.7556836999999632,,,31,19,Vrouw,Rechts,1,
,dotcolour,dotcolour,dotcolour,45,1,105,105,training,negativefb,99,easy,15,0.5506603000001178,['n'],1,right,['0'],6,0.9914444000000913,,,31,19,Vrouw,Rechts,1,
,dotcolour,dotcolour,dotcolour,46,1,106,106,training,negativefb,32,hard,44,0.9160991999999624,['n'],0,left,['8'],4,0.8912179000001288,,,31,19,Vrouw,Rechts,1,
,dotcolour,dotcolour,dotcolour,47,1,107,107,training,negativefb,65,average,28,0.8017086999998355,['c'],0,right,['1'],1,1.1918906999999308,,,31,19,Vrouw,Rechts,1,
,dotcolour,dotcolour,dotcolour,48,1,108,108,training,negativefb,58,hard,44,0.8832620000000588,['c'],1,left,['1'],1,1.2605238999999528,,,31,19,Vrouw,Rechts,1,
,dotcolour,dotcolour,dotcolour,49,1,109,109,training,negativefb,13,hard,45,0.6661423999998988,['n'],0,left,['8'],4,0.8808446000000458,,,31,19,Vrouw,Rechts,1,
,dotcolour,dotcolour,dotcolour,50,1,110,110,training,negativefb,12,hard,43,1.1341358000001946,['n'],0,left,['3'],3,1.0329187000002094,,,31,19,Vrouw,Rechts,1,
,dotcolour,dotcolour,dotcolour,51,1,111,111,training,negativefb,70,easy,17,0.633402900000192,['n'],1,right,['9'],5,0.8057051000000683,,,31,19,Vrouw,Rechts,1,
,dotcolour,dotcolour,dotcolour,52,1,112,112,training,negativefb,93,easy,16,0.5997122999999647,['n'],1,right,['0'],6,1.2775890999998865,,,31,19,Vrouw,Rechts,1,
,dotcolour,dotcolour,dotcolour,53,1,113,113,training,negativefb,74,hard,35,0.7335527999998703,['n'],1,right,['8'],4,0.789284200000111,,,31,19,Vrouw,Rechts,1,
,dotcolour,dotcolour,dotcolour,54,1,114,114,training,negativefb,93,easy,17,0.45048510000015085,['n'],1,right,['0'],6,0.8523947000001044,,,31,19,Vrouw,Rechts,1,
,dotcolour,dotcolour,dotcolour,55,1,115,115,training,negativefb,97,easy,19,0.40005249999990156,['n'],1,right,['0'],6,0.7707763000000796,,,31,19,Vrouw,Rechts,1,
,dotcolour,dotcolour,dotcolour,56,1,116,116,training,negativefb,99,easy,19,0.4349743000000217,['n'],1,right,['0'],6,0.569986100000051,,,31,19,Vrouw,Rechts,1,
,dotcolour,dotcolour,dotcolour,57,1,117,117,training,negativefb,98,hard,35,0.40150610000000597,['n'],1,right,['8'],4,0.7883305000000291,,,31,19,Vrouw,Rechts,1,
,dotcolour,dotcolour,dotcolour,58,1,118,118,training,negativefb,99,easy,62,0.6341735000000881,['c'],1,left,['0'],6,1.3951028000001315,,,31,19,Vrouw,Rechts,1,
,dotcolour,dotcolour,dotcolour,59,1,119,119,training,negativefb,94,average,25,0.49964860000000044,['n'],1,right,['0'],6,0.7837059000000863,,,31,19,Vrouw,Rechts,1,
,dotcolour,dotcolour,dotcolour,0,2,120,120,main,negativefb,-99,easy,16,0.7001846000000569,['n'],1,right,['0'],6,0.8979061000000002,,,31,19,Vrouw,Rechts,1,
,dotcolour,dotcolour,dotcolour,1,2,121,121,main,negativefb,-99,hard,44,7.734449900000072,['n'],0,left,['8'],4,1.1059563000001162,,,31,19,Vrouw,Rechts,1,
,dotcolour,dotcolour,dotcolour,2,2,122,122,main,negativefb,-99,average,27,0.7510188999999627,['n'],1,right,['0'],6,0.8485212000000502,,,31,19,Vrouw,Rechts,1,
,dotcolour,dotcolour,dotcolour,3,2,123,123,main,negativefb,-99,easy,62,0.6328158999999687,['c'],1,left,['8'],4,1.3819347999999536,,,31,19,Vrouw,Rechts,1,
,dotcolour,dotcolour,dotcolour,4,2,124,124,main,negativefb,-99,hard,37,1.2674682999997913,['n'],1,right,['3'],3,1.1966450999998415,,,31,19,Vrouw,Rechts,1,
,dotcolour,dotcolour,dotcolour,5,2,125,125,main,negativefb,-99,easy,64,1.0174560000000383,['c'],1,left,['0'],6,2.373314799999889,,,31,19,Vrouw,Rechts,1,
,dotcolour,dotcolour,dotcolour,6,2,126,126,main,negativefb,-99,average,28,0.6000876000000517,['n'],1,right,['0'],6,0.6315078999998605,,,31,19,Vrouw,Rechts,1,
,dotcolour,dotcolour,dotcolour,7,2,127,127,main,negativefb,-99,hard,42,1.066506200000049,['n'],0,left,['8'],4,0.9720076999999492,,,31,19,Vrouw,Rechts,1,
,dotcolour,dotcolour,dotcolour,8,2,128,128,main,negativefb,-99,average,28,0.6176261000000522,['n'],1,right,['0'],6,0.9010089000000789,,,31,19,Vrouw,Rechts,1,
,dotcolour,dotcolour,dotcolour,9,2,129,129,main,negativefb,-99,easy,16,0.5498637000000599,['n'],1,right,['0'],6,0.6920481000001928,,,31,19,Vrouw,Rechts,1,
,dotcolour,dotcolour,dotcolour,10,2,130,130,main,negativefb,-99,average,51,0.7676565000001574,['c'],1,left,['3'],3,0.8736507999999503,,,31,19,Vrouw,Rechts,1,
,dotcolour,dotcolour,dotcolour,11,2,131,131,main,negativefb,-99,easy,64,1.2344935000000987,['c'],1,left,['0'],6,0.8147994999999355,,,31,19,Vrouw,Rechts,1,
,dotcolour,dotcolour,dotcolour,12,2,132,132,main,negativefb,-99,average,53,0.6843747000000349,['c'],1,left,['8'],4,0.9075227999999242,,,31,19,Vrouw,Rechts,1,
,dotcolour,dotcolour,dotcolour,13,2,133,133,main,negativefb,-99,easy,17,0.5350952999999663,['n'],1,right,['0'],6,0.7468247000001611,,,31,19,Vrouw,Rechts,1,
,dotcolour,dotcolour,dotcolour,14,2,134,134,main,negativefb,-99,hard,39,1.184614399999873,['n'],1,right,['8'],4,0.6946104999999534,,,31,19,Vrouw,Rechts,1,
,dotcolour,dotcolour,dotcolour,15,2,135,135,main,negativefb,-99,easy,62,0.7179744999998547,['c'],1,left,['8'],4,0.9436198000000786,,,31,19,Vrouw,Rechts,1,
,dotcolour,dotcolour,dotcolour,16,2,136,136,main,negativefb,-99,average,53,0.8677422000000661,['c'],1,left,['8'],4,0.6965543999999682,,,31,19,Vrouw,Rechts,1,
,dotcolour,dotcolour,dotcolour,17,2,137,137,main,negativefb,-99,average,52,0.8843841999998858,['n'],0,left,['8'],4,0.7063031999998657,,,31,19,Vrouw,Rechts,1,
,dotcolour,dotcolour,dotcolour,18,2,138,138,main,negativefb,-99,hard,42,0.8673925999999028,['n'],0,left,['8'],4,0.6445250000001579,,,31,19,Vrouw,Rechts,1,
,dotcolour,dotcolour,dotcolour,19,2,139,139,main,negativefb,-99,hard,35,0.7510655000000952,['n'],1,right,['8'],4,0.773826500000041,,,31,19,Vrouw,Rechts,1,
,dotcolour,dotcolour,dotcolour,20,2,140,140,main,negativefb,-99,average,53,1.1846353999999337,['c'],1,left,['8'],4,0.6729582999998911,,,31,19,Vrouw,Rechts,1,
,dotcolour,dotcolour,dotcolour,21,2,141,141,main,negativefb,-99,hard,41,0.6179700000000139,['n'],0,left,['9'],5,0.7651355000000422,,,31,19,Vrouw,Rechts,1,
,dotcolour,dotcolour,dotcolour,22,2,142,142,main,negativefb,-99,hard,44,0.5835626999999022,['n'],0,left,['8'],4,0.7685371000000032,,,31,19,Vrouw,Rechts,1,
,dotcolour,dotcolour,dotcolour,23,2,143,143,main,negativefb,-99,easy,17,0.6504826999998841,['n'],1,right,['0'],6,0.5285778999998456,,,31,19,Vrouw,Rechts,1,
,dotcolour,dotcolour,dotcolour,24,2,144,144,main,negativefb,-99,hard,42,0.5501381999999921,['n'],0,left,['8'],4,0.6229353000001083,,,31,19,Vrouw,Rechts,1,
,dotcolour,dotcolour,dotcolour,25,2,145,145,main,negativefb,-99,easy,16,0.383182399999896,['n'],1,right,['0'],6,0.8707248999999138,,,31,19,Vrouw,Rechts,1,
,dotcolour,dotcolour,dotcolour,26,2,146,146,main,negativefb,-99,easy,65,0.6677077000001646,['c'],1,left,['0'],6,0.746451800000159,,,31,19,Vrouw,Rechts,1,
,dotcolour,dotcolour,dotcolour,27,2,147,147,main,negativefb,-99,hard,43,0.7168053000000327,['c'],1,left,['8'],4,0.5524861999999757,,,31,19,Vrouw,Rechts,1,
,dotcolour,dotcolour,dotcolour,28,2,148,148,main,negativefb,-99,hard,41,0.38455659999999625,['n'],0,left,['8'],4,0.6600450999999339,,,31,19,Vrouw,Rechts,1,
,dotcolour,dotcolour,dotcolour,29,2,149,149,main,negativefb,-99,average,52,0.7344477999999981,['n'],0,left,['8'],4,0.6617271000000073,,,31,19,Vrouw,Rechts,1,
,dotcolour,dotcolour,dotcolour,30,2,150,150,main,negativefb,-99,average,53,0.7008240000000114,['c'],1,left,['9'],5,0.6321218000000499,,,31,19,Vrouw,Rechts,1,
,dotcolour,dotcolour,dotcolour,31,2,151,151,main,negativefb,-99,hard,35,0.5332436999999572,['n'],1,right,['9'],5,0.6189405000000079,,,31,19,Vrouw,Rechts,1,
,dotcolour,dotcolour,dotcolour,32,2,152,152,main,negativefb,-99,average,27,0.5174201999998331,['n'],1,right,['9'],5,0.614014700000098,,,31,19,Vrouw,Rechts,1,
,dotcolour,dotcolour,dotcolour,33,2,153,153,main,negativefb,-99,easy,61,0.6675361000000066,['n'],0,left,['2'],2,1.0677428000001328,,,31,19,Vrouw,Rechts,1,
,dotcolour,dotcolour,dotcolour,34,2,154,154,main,negativefb,-99,hard,39,0.6000520000000051,['n'],1,right,['8'],4,0.6415769999998702,,,31,19,Vrouw,Rechts,1,
,dotcolour,dotcolour,dotcolour,35,2,155,155,main,negativefb,-99,hard,35,0.5340839999998934,['n'],1,right,['8'],4,0.7398653999998714,,,31,19,Vrouw,Rechts,1,
,dotcolour,dotcolour,dotcolour,36,2,156,156,main,negativefb,-99,easy,18,0.5676292000000558,['n'],1,right,['9'],5,0.5765982000000349,,,31,19,Vrouw,Rechts,1,
,dotcolour,dotcolour,dotcolour,37,2,157,157,main,negativefb,-99,easy,62,0.5181571999999051,['c'],1,left,['9'],5,0.6778827999999066,,,31,19,Vrouw,Rechts,1,
,dotcolour,dotcolour,dotcolour,38,2,158,158,main,negativefb,-99,hard,43,0.500619400000005,['n'],0,left,['8'],4,0.704446100000041,,,31,19,Vrouw,Rechts,1,
,dotcolour,dotcolour,dotcolour,39,2,159,159,main,negativefb,-99,easy,17,0.6345314999998664,['n'],1,right,['9'],5,0.6990628000000925,,,31,19,Vrouw,Rechts,1,
,dotcolour,dotcolour,dotcolour,40,2,160,160,main,negativefb,-99,hard,37,0.5014544000000569,['n'],1,right,['9'],5,0.5796001999999589,,,31,19,Vrouw,Rechts,1,
,dotcolour,dotcolour,dotcolour,41,2,161,161,main,negativefb,-99,average,28,0.4172212999999374,['n'],1,right,['9'],5,0.5889841999999135,,,31,19,Vrouw,Rechts,1,
,dotcolour,dotcolour,dotcolour,42,2,162,162,main,negativefb,-99,hard,41,0.467456699999957,['n'],0,left,['8'],4,0.692163900000196,,,31,19,Vrouw,Rechts,1,
,dotcolour,dotcolour,dotcolour,43,2,163,163,main,negativefb,-99,easy,64,0.4997114000000238,['c'],1,left,['9'],5,0.6455696000000444,,,31,19,Vrouw,Rechts,1,
,dotcolour,dotcolour,dotcolour,44,2,164,164,main,negativefb,-99,easy,62,0.517684700000018,['c'],1,left,['9'],5,0.49621509999997215,,,31,19,Vrouw,Rechts,1,
,dotcolour,dotcolour,dotcolour,45,2,165,165,main,negativefb,-99,average,28,0.7176015999998526,['n'],1,right,['0'],6,0.7047476999998707,,,31,19,Vrouw,Rechts,1,
,dotcolour,dotcolour,dotcolour,46,2,166,166,main,negativefb,-99,hard,36,0.7670812999999725,['n'],1,right,['8'],4,0.8703275000000303,,,31,19,Vrouw,Rechts,1,
,dotcolour,dotcolour,dotcolour,47,2,167,167,main,negativefb,-99,easy,18,0.5342325999999957,['n'],1,right,['9'],5,0.5748945000000276,,,31,19,Vrouw,Rechts,1,
,dotcolour,dotcolour,dotcolour,48,2,168,168,main,negativefb,-99,easy,19,0.46702700000014374,['n'],1,right,['0'],6,0.6868796999999631,,,31,19,Vrouw,Rechts,1,
,dotcolour,dotcolour,dotcolour,49,2,169,169,main,negativefb,-99,hard,37,0.3010780000001887,['n'],1,right,['9'],5,0.9198665999999776,,,31,19,Vrouw,Rechts,1,
,dotcolour,dotcolour,dotcolour,50,2,170,170,main,negativefb,-99,average,54,0.5184603999998671,['n'],0,left,['8'],4,0.7993223000000853,,,31,19,Vrouw,Rechts,1,
,dotcolour,dotcolour,dotcolour,51,2,171,171,main,negativefb,-99,average,53,0.6178960999998253,['c'],1,left,['8'],4,0.639067999999952,,,31,19,Vrouw,Rechts,1,
,dotcolour,dotcolour,dotcolour,52,2,172,172,main,negativefb,-99,easy,63,0.5014083000000937,['c'],1,left,['8'],4,0.5947713999998996,,,31,19,Vrouw,Rechts,1,
,dotcolour,dotcolour,dotcolour,53,2,173,173,main,negativefb,-99,average,26,0.4338296999999329,['n'],1,right,['9'],5,0.9068622999998297,,,31,19,Vrouw,Rechts,1,
,dotcolour,dotcolour,dotcolour,54,2,174,174,main,negativefb,-99,average,52,0.5007433000000674,['n'],0,left,['8'],4,0.7396589999998469,,,31,19,Vrouw,Rechts,1,
,dotcolour,dotcolour,dotcolour,55,2,175,175,main,negativefb,-99,average,28,0.6348801999999978,['n'],1,right,['9'],5,0.7179783000001407,,,31,19,Vrouw,Rechts,1,
,dotcolour,dotcolour,dotcolour,56,2,176,176,main,negativefb,-99,easy,18,0.26803210000002764,['n'],1,right,['9'],5,0.5910092000001441,,,31,19,Vrouw,Rechts,1,
,dotcolour,dotcolour,dotcolour,57,2,177,177,main,negativefb,-99,hard,36,0.2329920999998194,['n'],1,right,['9'],5,0.615504699999974,,,31,19,Vrouw,Rechts,1,
,dotcolour,dotcolour,dotcolour,58,2,178,178,main,negativefb,-99,average,25,0.31755120000002535,['n'],1,right,['0'],6,0.9460041999998339,,,31,19,Vrouw,Rechts,1,
,dotcolour,dotcolour,dotcolour,59,2,179,179,main,negativefb,-99,average,26,0.30007529999988947,['n'],1,right,['0'],6,0.6894258999998328,,,31,19,Vrouw,Rechts,1,
,dotcolour,dotcolour,dotcolour,0,3,180,180,main,negativefb,-99,easy,65,0.7499281000000337,['c'],1,left,['9'],5,0.865906300000006,,,31,19,Vrouw,Rechts,1,
,dotcolour,dotcolour,dotcolour,1,3,181,181,main,negativefb,-99,easy,15,0.40071439999996983,['n'],1,right,['9'],5,0.6158424000000196,,,31,19,Vrouw,Rechts,1,
,dotcolour,dotcolour,dotcolour,2,3,182,182,main,negativefb,-99,average,53,0.2677498000000469,['n'],0,left,['8'],4,1.0533151999998154,,,31,19,Vrouw,Rechts,1,
,dotcolour,dotcolour,dotcolour,3,3,183,183,main,negativefb,-99,average,52,0.5837298999999803,['c'],1,left,['8'],4,0.9168025999999827,,,31,19,Vrouw,Rechts,1,
,dotcolour,dotcolour,dotcolour,4,3,184,184,main,negativefb,-99,easy,64,0.5673404000001483,['c'],1,left,['9'],5,0.6269724999999653,,,31,19,Vrouw,Rechts,1,
,dotcolour,dotcolour,dotcolour,5,3,185,185,main,negativefb,-99,hard,37,0.48397799999997915,['n'],1,right,['9'],5,0.5670347999998739,,,31,19,Vrouw,Rechts,1,
,dotcolour,dotcolour,dotcolour,6,3,186,186,main,negativefb,-99,easy,63,0.5509378000001561,['c'],1,left,['0'],6,0.8112946000001102,,,31,19,Vrouw,Rechts,1,
,dotcolour,dotcolour,dotcolour,7,3,187,187,main,negativefb,-99,average,26,0.4171238999999787,['n'],1,right,['0'],6,0.6585935999999037,,,31,19,Vrouw,Rechts,1,
,dotcolour,dotcolour,dotcolour,8,3,188,188,main,negativefb,-99,average,27,0.6840205999999398,['c'],0,right,['1'],1,1.246489800000063,,,31,19,Vrouw,Rechts,1,
,dotcolour,dotcolour,dotcolour,9,3,189,189,main,negativefb,-99,hard,36,0.38401490000001104,['n'],1,right,['9'],5,0.9109461000000465,,,31,19,Vrouw,Rechts,1,
,dotcolour,dotcolour,dotcolour,10,3,190,190,main,negativefb,-99,easy,16,0.36695719999988796,['n'],1,right,['9'],5,0.5969096000001173,,,31,19,Vrouw,Rechts,1,
,dotcolour,dotcolour,dotcolour,11,3,191,191,main,negativefb,-99,average,29,0.3677155999998831,['n'],1,right,['9'],5,0.7429106000001866,,,31,19,Vrouw,Rechts,1,
,dotcolour,dotcolour,dotcolour,12,3,192,192,main,negativefb,-99,average,28,0.45088590000000295,['n'],1,right,['0'],6,0.5682437000000391,,,31,19,Vrouw,Rechts,1,
,dotcolour,dotcolour,dotcolour,13,3,193,193,main,negativefb,-99,average,54,0.8343328999999358,['c'],1,left,['9'],5,0.6089518000001135,,,31,19,Vrouw,Rechts,1,
,dotcolour,dotcolour,dotcolour,14,3,194,194,main,negativefb,-99,hard,41,0.5180009999999129,['n'],0,left,['9'],5,0.805504400000018,,,31,19,Vrouw,Rechts,1,
,dotcolour,dotcolour,dotcolour,15,3,195,195,main,negativefb,-99,easy,65,0.5672184000000016,['c'],1,left,['0'],6,0.7190994999998566,,,31,19,Vrouw,Rechts,1,
,dotcolour,dotcolour,dotcolour,16,3,196,196,main,negativefb,-99,easy,17,0.384486600000173,['n'],1,right,['0'],6,0.6037802000000738,,,31,19,Vrouw,Rechts,1,
,dotcolour,dotcolour,dotcolour,17,3,197,197,main,negativefb,-99,easy,61,0.4680739000000358,['n'],0,left,['1'],1,1.449753299999884,,,31,19,Vrouw,Rechts,1,
,dotcolour,dotcolour,dotcolour,18,3,198,198,main,negativefb,-99,hard,39,0.6496047000000544,['n'],1,right,['8'],4,0.5505545000000893,,,31,19,Vrouw,Rechts,1,
,dotcolour,dotcolour,dotcolour,19,3,199,199,main,negativefb,-99,hard,35,0.48322319999988395,['n'],1,right,['8'],4,0.5732854999998835,,,31,19,Vrouw,Rechts,1,
,dotcolour,dotcolour,dotcolour,20,3,200,200,main,negativefb,-99,hard,45,0.8172689000000446,['n'],0,left,['3'],3,1.1832540000000336,,,31,19,Vrouw,Rechts,1,
,dotcolour,dotcolour,dotcolour,21,3,201,201,main,negativefb,-99,hard,39,0.5677166999998917,['n'],1,right,['9'],5,0.6418645000001106,,,31,19,Vrouw,Rechts,1,
,dotcolour,dotcolour,dotcolour,22,3,202,202,main,negativefb,-99,easy,61,0.8511461999999028,['n'],0,left,['1'],1,0.7671924999999646,,,31,19,Vrouw,Rechts,1,
,dotcolour,dotcolour,dotcolour,23,3,203,203,main,negativefb,-99,average,25,0.4342091999999411,['n'],1,right,['9'],5,0.688159399999904,,,31,19,Vrouw,Rechts,1,
,dotcolour,dotcolour,dotcolour,24,3,204,204,main,negativefb,-99,easy,61,0.6007880999998179,['c'],1,left,['0'],6,0.749493799999982,,,31,19,Vrouw,Rechts,1,
,dotcolour,dotcolour,dotcolour,25,3,205,205,main,negativefb,-99,easy,64,0.4838325000000623,['c'],1,left,['9'],5,0.42911199999980454,,,31,19,Vrouw,Rechts,1,
,dotcolour,dotcolour,dotcolour,26,3,206,206,main,negativefb,-99,easy,62,0.533489099999997,['c'],1,left,['9'],5,0.5917955999998412,,,31,19,Vrouw,Rechts,1,
,dotcolour,dotcolour,dotcolour,27,3,207,207,main,negativefb,-99,average,51,0.7670944999999847,['c'],1,left,['8'],4,0.42641200000002755,,,31,19,Vrouw,Rechts,1,
,dotcolour,dotcolour,dotcolour,28,3,208,208,main,negativefb,-99,easy,16,0.5340995000001385,['n'],1,right,['0'],6,0.5569593000000168,,,31,19,Vrouw,Rechts,1,
,dotcolour,dotcolour,dotcolour,29,3,209,209,main,negativefb,-99,average,29,0.41697320000002946,['n'],1,right,['0'],6,0.6312261999999009,,,31,19,Vrouw,Rechts,1,
,dotcolour,dotcolour,dotcolour,30,3,210,210,main,negativefb,-99,easy,17,0.551683599999933,['n'],1,right,['0'],6,0.5764951999999539,,,31,19,Vrouw,Rechts,1,
,dotcolour,dotcolour,dotcolour,31,3,211,211,main,negativefb,-99,hard,35,0.8683023999999477,['n'],1,right,['8'],4,0.31189500000004955,,,31,19,Vrouw,Rechts,1,
,dotcolour,dotcolour,dotcolour,32,3,212,212,main,negativefb,-99,easy,19,0.5502761000000191,['n'],1,right,['9'],5,1.1985420999999405,,,31,19,Vrouw,Rechts,1,
,dotcolour,dotcolour,dotcolour,33,3,213,213,main,negativefb,-99,hard,38,0.6332314000001134,['n'],1,right,['8'],4,0.5180425000000923,,,31,19,Vrouw,Rechts,1,
,dotcolour,dotcolour,dotcolour,34,3,214,214,main,negativefb,-99,hard,45,0.8019655999999031,['c'],1,left,['8'],4,0.658000599999923,,,31,19,Vrouw,Rechts,1,
,dotcolour,dotcolour,dotcolour,35,3,215,215,main,negativefb,-99,hard,39,0.6500461000000541,['n'],1,right,['9'],5,0.510931699999901,,,31,19,Vrouw,Rechts,1,
,dotcolour,dotcolour,dotcolour,36,3,216,216,main,negativefb,-99,easy,19,1.68321990000004,['n'],1,right,['8'],4,0.8001475999999457,,,31,19,Vrouw,Rechts,1,
,dotcolour,dotcolour,dotcolour,37,3,217,217,main,negativefb,-99,easy,15,0.8346387999999934,['n'],1,right,['0'],6,0.7030773999999838,,,31,19,Vrouw,Rechts,1,
,dotcolour,dotcolour,dotcolour,38,3,218,218,main,negativefb,-99,hard,44,0.6516426999999112,['n'],0,left,['9'],5,0.8266097999999147,,,31,19,Vrouw,Rechts,1,
,dotcolour,dotcolour,dotcolour,39,3,219,219,main,negativefb,-99,easy,18,0.5517401000001882,['n'],1,right,['9'],5,0.6277445999999145,,,31,19,Vrouw,Rechts,1,
,dotcolour,dotcolour,dotcolour,40,3,220,220,main,negativefb,-99,hard,45,0.7506587000000309,['n'],0,left,['8'],4,0.47007189999999355,,,31,19,Vrouw,Rechts,1,
,dotcolour,dotcolour,dotcolour,41,3,221,221,main,negativefb,-99,hard,35,0.5837953999998717,['n'],1,right,['9'],5,0.5010603999999148,,,31,19,Vrouw,Rechts,1,
,dotcolour,dotcolour,dotcolour,42,3,222,222,main,negativefb,-99,average,55,0.6840334999999413,['c'],1,left,['8'],4,0.6066316999999799,,,31,19,Vrouw,Rechts,1,
,dotcolour,dotcolour,dotcolour,43,3,223,223,main,negativefb,-99,hard,45,0.6497749999998632,['n'],0,left,['3'],3,1.3253958999998758,,,31,19,Vrouw,Rechts,1,
,dotcolour,dotcolour,dotcolour,44,3,224,224,main,negativefb,-99,hard,42,0.9839577000002464,['n'],0,left,['8'],4,0.6170750000001135,,,31,19,Vrouw,Rechts,1,
,dotcolour,dotcolour,dotcolour,45,3,225,225,main,negativefb,-99,average,55,1.0513312999996742,['c'],1,left,['9'],5,0.6479631999995945,,,31,19,Vrouw,Rechts,1,
,dotcolour,dotcolour,dotcolour,46,3,226,226,main,negativefb,-99,average,25,0.5339579999999842,['n'],1,right,['9'],5,0.4977241999999933,,,31,19,Vrouw,Rechts,1,
,dotcolour,dotcolour,dotcolour,47,3,227,227,main,negativefb,-99,average,27,1.2670588999999381,['n'],1,right,['9'],5,0.7322140999999647,,,31,19,Vrouw,Rechts,1,
,dotcolour,dotcolour,dotcolour,48,3,228,228,main,negativefb,-99,average,55,0.6353675999998813,['c'],1,left,['8'],4,0.5984910000001946,,,31,19,Vrouw,Rechts,1,
,dotcolour,dotcolour,dotcolour,49,3,229,229,main,negativefb,-99,average,29,0.5341748999999254,['n'],1,right,['9'],5,0.6893405999999231,,,31,19,Vrouw,Rechts,1,
,dotcolour,dotcolour,dotcolour,50,3,230,230,main,negativefb,-99,average,51,0.8011016999998901,['n'],0,left,['3'],3,1.6386459999998806,,,31,19,Vrouw,Rechts,1,
,dotcolour,dotcolour,dotcolour,51,3,231,231,main,negativefb,-99,easy,15,0.5663644999999633,['n'],1,right,['0'],6,0.6632217999999739,,,31,19,Vrouw,Rechts,1,
,dotcolour,dotcolour,dotcolour,52,3,232,232,main,negativefb,-99,average,52,0.6348072999999204,['n'],0,left,['1'],1,1.2526687999998103,,,31,19,Vrouw,Rechts,1,
,dotcolour,dotcolour,dotcolour,53,3,233,233,main,negativefb,-99,hard,38,0.5846645999999964,['n'],1,right,['9'],5,1.044520200000079,,,31,19,Vrouw,Rechts,1,
,dotcolour,dotcolour,dotcolour,54,3,234,234,main,negativefb,-99,average,52,0.8177774999999201,['c'],1,left,['8'],4,0.6512816999997995,,,31,19,Vrouw,Rechts,1,
,dotcolour,dotcolour,dotcolour,55,3,235,235,main,negativefb,-99,hard,41,0.45006770000009055,['n'],0,left,['8'],4,0.7916202000001249,,,31,19,Vrouw,Rechts,1,
,dotcolour,dotcolour,dotcolour,56,3,236,236,main,negativefb,-99,average,27,0.41801529999975173,['n'],1,right,['9'],5,0.9530935000002501,,,31,19,Vrouw,Rechts,1,
,dotcolour,dotcolour,dotcolour,57,3,237,237,main,negativefb,-99,easy,63,0.6522347999998601,['c'],1,left,['9'],5,0.9210656000000199,,,31,19,Vrouw,Rechts,1,
,dotcolour,dotcolour,dotcolour,58,3,238,238,main,negativefb,-99,hard,41,0.5669773999998142,['n'],0,left,['9'],5,0.9020901000003505,,,31,19,Vrouw,Rechts,1,
,dotcolour,dotcolour,dotcolour,59,3,239,239,main,negativefb,-99,hard,45,0.4339817000000039,['n'],0,left,['8'],4,1.0181382999999187,,,31,19,Vrouw,Rechts,1,
,dotcolour,dotcolour,dotcolour,0,4,240,240,main,negativefb,-99,average,52,0.7511074000003646,['n'],0,left,['8'],4,0.8548522999999477,,,31,19,Vrouw,Rechts,1,
,dotcolour,dotcolour,dotcolour,1,4,241,241,main,negativefb,-99,hard,37,0.5833588999998938,['n'],1,right,['9'],5,0.6775633999995989,,,31,19,Vrouw,Rechts,1,
,dotcolour,dotcolour,dotcolour,2,4,242,242,main,negativefb,-99,hard,41,1.2518165000001318,['n'],0,left,['9'],5,1.217775900000106,,,31,19,Vrouw,Rechts,1,
,dotcolour,dotcolour,dotcolour,3,4,243,243,main,negativefb,-99,easy,15,0.4672205000001668,['n'],1,right,['0'],6,0.607027300000027,,,31,19,Vrouw,Rechts,1,
,dotcolour,dotcolour,dotcolour,4,4,244,244,main,negativefb,-99,easy,64,0.784758299999794,['c'],1,left,['0'],6,0.5601919999999154,,,31,19,Vrouw,Rechts,1,
,dotcolour,dotcolour,dotcolour,5,4,245,245,main,negativefb,-99,hard,39,0.6183203999999023,['n'],1,right,['8'],4,2.0504056999998284,,,31,19,Vrouw,Rechts,1,
,dotcolour,dotcolour,dotcolour,6,4,246,246,main,negativefb,-99,average,54,0.451880600000095,['n'],0,left,['3'],3,1.1029766999999993,,,31,19,Vrouw,Rechts,1,
,dotcolour,dotcolour,dotcolour,7,4,247,247,main,negativefb,-99,hard,38,0.8180967000002966,['n'],1,right,['8'],4,0.6435363000000507,,,31,19,Vrouw,Rechts,1,
,dotcolour,dotcolour,dotcolour,8,4,248,248,main,negativefb,-99,hard,39,0.5845383000000766,['n'],1,right,['8'],4,0.5870273999998972,,,31,19,Vrouw,Rechts,1,
,dotcolour,dotcolour,dotcolour,9,4,249,249,main,negativefb,-99,average,55,0.9344272000003002,['c'],1,left,['8'],4,0.8392551000001731,,,31,19,Vrouw,Rechts,1,
,dotcolour,dotcolour,dotcolour,10,4,250,250,main,negativefb,-99,easy,18,0.5508573000001888,['n'],1,right,['9'],5,0.5447110000000066,,,31,19,Vrouw,Rechts,1,
,dotcolour,dotcolour,dotcolour,11,4,251,251,main,negativefb,-99,average,53,0.6681902000000264,['n'],0,left,['3'],3,1.913484299999709,,,31,19,Vrouw,Rechts,1,
,dotcolour,dotcolour,dotcolour,12,4,252,252,main,negativefb,-99,hard,38,0.5515175000000454,['n'],1,right,['8'],4,0.6882574999999633,,,31,19,Vrouw,Rechts,1,
,dotcolour,dotcolour,dotcolour,13,4,253,253,main,negativefb,-99,average,26,0.5335587999998097,['n'],1,right,['8'],4,0.9600877000002583,,,31,19,Vrouw,Rechts,1,
,dotcolour,dotcolour,dotcolour,14,4,254,254,main,negativefb,-99,easy,65,0.7848777999997765,['c'],1,left,['9'],5,0.5148252999997567,,,31,19,Vrouw,Rechts,1,
,dotcolour,dotcolour,dotcolour,15,4,255,255,main,negativefb,-99,average,55,0.7839475999999195,['n'],0,left,['8'],4,0.719526699999733,,,31,19,Vrouw,Rechts,1,
,dotcolour,dotcolour,dotcolour,16,4,256,256,main,negativefb,-99,easy,18,0.5836072000001877,['n'],1,right,['0'],6,0.5966872999997577,,,31,19,Vrouw,Rechts,1,
,dotcolour,dotcolour,dotcolour,17,4,257,257,main,negativefb,-99,hard,38,0.8012179000002106,['n'],1,right,['9'],5,0.9345035999999709,,,31,19,Vrouw,Rechts,1,
,dotcolour,dotcolour,dotcolour,18,4,258,258,main,negativefb,-99,easy,17,0.43416590000015276,['n'],1,right,['0'],6,0.7842665000002853,,,31,19,Vrouw,Rechts,1,
,dotcolour,dotcolour,dotcolour,19,4,259,259,main,negativefb,-99,hard,35,0.3341913999997814,['n'],1,right,['9'],5,0.7479167999999845,,,31,19,Vrouw,Rechts,1,
,dotcolour,dotcolour,dotcolour,20,4,260,260,main,negativefb,-99,hard,35,0.3676740000000791,['n'],1,right,['8'],4,0.5760104000000865,,,31,19,Vrouw,Rechts,1,
,dotcolour,dotcolour,dotcolour,21,4,261,261,main,negativefb,-99,average,28,0.4671275999999125,['n'],1,right,['8'],4,0.39933780000001207,,,31,19,Vrouw,Rechts,1,
,dotcolour,dotcolour,dotcolour,22,4,262,262,main,negativefb,-99,easy,62,0.8506987000000663,['c'],1,left,['9'],5,0.5026895999999397,,,31,19,Vrouw,Rechts,1,
,dotcolour,dotcolour,dotcolour,23,4,263,263,main,negativefb,-99,average,26,0.40133330000026035,['n'],1,right,['9'],5,0.6105942999997751,,,31,19,Vrouw,Rechts,1,
,dotcolour,dotcolour,dotcolour,24,4,264,264,main,negativefb,-99,average,29,0.6342648999998346,['n'],1,right,['9'],5,0.5536892999998599,,,31,19,Vrouw,Rechts,1,
,dotcolour,dotcolour,dotcolour,25,4,265,265,main,negativefb,-99,average,29,0.3345976000000519,['n'],1,right,['9'],5,0.7115887999998449,,,31,19,Vrouw,Rechts,1,
,dotcolour,dotcolour,dotcolour,26,4,266,266,main,negativefb,-99,easy,62,0.43357849999983955,['c'],1,left,['9'],5,0.6433369000001221,,,31,19,Vrouw,Rechts,1,
,dotcolour,dotcolour,dotcolour,27,4,267,267,main,negativefb,-99,hard,42,0.5510660999998436,['n'],0,left,['8'],4,0.6040169000002606,,,31,19,Vrouw,Rechts,1,
,dotcolour,dotcolour,dotcolour,28,4,268,268,main,negativefb,-99,easy,19,0.6008632000002763,['n'],1,right,['9'],5,0.6449244999998882,,,31,19,Vrouw,Rechts,1,
,dotcolour,dotcolour,dotcolour,29,4,269,269,main,negativefb,-99,average,55,0.4014686000000438,['c'],1,left,['8'],4,0.6841061000000082,,,31,19,Vrouw,Rechts,1,
,dotcolour,dotcolour,dotcolour,30,4,270,270,main,negativefb,-99,hard,42,0.3839716000002227,['n'],0,left,['8'],4,0.826361000000361,,,31,19,Vrouw,Rechts,1,
,dotcolour,dotcolour,dotcolour,31,4,271,271,main,negativefb,-99,average,28,0.4674448000000666,['n'],1,right,['8'],4,0.5110365000000456,,,31,19,Vrouw,Rechts,1,
,dotcolour,dotcolour,dotcolour,32,4,272,272,main,negativefb,-99,average,51,0.5510514999996303,['n'],0,left,['8'],4,0.5664326000000983,,,31,19,Vrouw,Rechts,1,
,dotcolour,dotcolour,dotcolour,33,4,273,273,main,negativefb,-99,hard,44,0.5844507000001613,['n'],0,left,['8'],4,0.5849356999997326,,,31,19,Vrouw,Rechts,1,
,dotcolour,dotcolour,dotcolour,34,4,274,274,main,negativefb,-99,easy,61,0.5676137000000381,['c'],1,left,['8'],4,0.667685800000072,,,31,19,Vrouw,Rechts,1,
,dotcolour,dotcolour,dotcolour,35,4,275,275,main,negativefb,-99,hard,39,0.5514392000000043,['n'],1,right,['8'],4,0.5717832999998791,,,31,19,Vrouw,Rechts,1,
,dotcolour,dotcolour,dotcolour,36,4,276,276,main,negativefb,-99,easy,62,0.6846486999997978,['n'],0,left,['3'],3,1.3864926999999625,,,31,19,Vrouw,Rechts,1,
,dotcolour,dotcolour,dotcolour,37,4,277,277,main,negativefb,-99,easy,63,0.5683313999998063,['c'],1,left,['8'],4,0.5973410000001422,,,31,19,Vrouw,Rechts,1,
,dotcolour,dotcolour,dotcolour,38,4,278,278,main,negativefb,-99,average,27,0.6006400999999641,['n'],1,right,['9'],5,0.7337532000001374,,,31,19,Vrouw,Rechts,1,
,dotcolour,dotcolour,dotcolour,39,4,279,279,main,negativefb,-99,average,55,0.7011913999999706,['c'],1,left,['9'],5,0.5971865999999864,,,31,19,Vrouw,Rechts,1,
,dotcolour,dotcolour,dotcolour,40,4,280,280,main,negativefb,-99,hard,44,0.6839538999997785,['n'],0,left,['8'],4,1.1237942999996449,,,31,19,Vrouw,Rechts,1,
,dotcolour,dotcolour,dotcolour,41,4,281,281,main,negativefb,-99,average,28,0.6170439999996233,['n'],1,right,['9'],5,0.6708708000001025,,,31,19,Vrouw,Rechts,1,
,dotcolour,dotcolour,dotcolour,42,4,282,282,main,negativefb,-99,easy,18,0.3675723999999718,['n'],1,right,['9'],5,0.6781292000000576,,,31,19,Vrouw,Rechts,1,
,dotcolour,dotcolour,dotcolour,43,4,283,283,main,negativefb,-99,easy,61,0.6682321000002958,['c'],1,left,['9'],5,0.4899088000001939,,,31,19,Vrouw,Rechts,1,
,dotcolour,dotcolour,dotcolour,44,4,284,284,main,negativefb,-99,hard,44,1.9842028000002756,['c'],1,left,['3'],3,4.327660399999786,,,31,19,Vrouw,Rechts,1,
,dotcolour,dotcolour,dotcolour,45,4,285,285,main,negativefb,-99,hard,44,0.7182450999998764,['n'],0,left,['8'],4,0.6390618000000359,,,31,19,Vrouw,Rechts,1,
,dotcolour,dotcolour,dotcolour,46,4,286,286,main,negativefb,-99,easy,16,0.5847513999997318,['n'],1,right,['9'],5,0.6625400000002628,,,31,19,Vrouw,Rechts,1,
,dotcolour,dotcolour,dotcolour,47,4,287,287,main,negativefb,-99,easy,65,0.7012354000003143,['c'],1,left,['9'],5,0.5301344999998037,,,31,19,Vrouw,Rechts,1,
,dotcolour,dotcolour,dotcolour,48,4,288,288,main,negativefb,-99,easy,15,0.5506295999998656,['n'],1,right,['0'],6,0.8398394000000735,,,31,19,Vrouw,Rechts,1,
,dotcolour,dotcolour,dotcolour,49,4,289,289,main,negativefb,-99,average,28,0.567795500000102,['n'],1,right,['9'],5,0.5765065999999024,,,31,19,Vrouw,Rechts,1,
,dotcolour,dotcolour,dotcolour,50,4,290,290,main,negativefb,-99,hard,42,0.4180245000002287,['n'],0,left,['8'],4,0.5215716999996403,,,31,19,Vrouw,Rechts,1,
,dotcolour,dotcolour,dotcolour,51,4,291,291,main,negativefb,-99,easy,17,0.41819600000007995,['n'],1,right,['9'],5,0.4529899000003752,,,31,19,Vrouw,Rechts,1,
,dotcolour,dotcolour,dotcolour,52,4,292,292,main,negativefb,-99,easy,15,0.38415260000010676,['n'],1,right,['9'],5,0.8370558999999957,,,31,19,Vrouw,Rechts,1,
,dotcolour,dotcolour,dotcolour,53,4,293,293,main,negativefb,-99,average,27,0.4174606000001404,['n'],1,right,['9'],5,0.5386170000001584,,,31,19,Vrouw,Rechts,1,
,dotcolour,dotcolour,dotcolour,54,4,294,294,main,negativefb,-99,hard,44,0.7007250999999997,['c'],1,left,['8'],4,0.5064849000000322,,,31,19,Vrouw,Rechts,1,
,dotcolour,dotcolour,dotcolour,55,4,295,295,main,negativefb,-99,hard,44,0.8339811999999256,['n'],0,left,['8'],4,0.5022887999998602,,,31,19,Vrouw,Rechts,1,
,dotcolour,dotcolour,dotcolour,56,4,296,296,main,negativefb,-99,easy,65,0.5506261999998969,['c'],1,left,['8'],4,0.6123182000001179,,,31,19,Vrouw,Rechts,1,
,dotcolour,dotcolour,dotcolour,57,4,297,297,main,negativefb,-99,average,51,0.6333280999997442,['n'],0,left,['8'],4,0.5721717999999782,,,31,19,Vrouw,Rechts,1,
,dotcolour,dotcolour,dotcolour,58,4,298,298,main,negativefb,-99,average,52,0.7510444999998072,['c'],1,left,['8'],4,0.6640628000000106,,,31,19,Vrouw,Rechts,1,
,dotcolour,dotcolour,dotcolour,59,4,299,299,main,negativefb,-99,hard,39,0.6842296999998325,['n'],1,right,['8'],4,0.6346431000001758,,,31,19,Vrouw,Rechts,1,
,dotcolour,dotcolour,dotcolour,0,0,0,300,training,negativefb,62,average,28,0.617192299999715,['n'],1,right,['9'],5,0.6991520999999921,,,31,19,Vrouw,Rechts,1,
,dotcolour,dotcolour,dotcolour,1,0,1,301,training,negativefb,50,average,25,0.4996479999999792,['n'],1,right,['9'],5,0.5626257999997506,,,31,19,Vrouw,Rechts,1,
,dotcolour,dotcolour,dotcolour,2,0,2,302,training,negativefb,70,average,55,0.5497433999998975,['c'],1,left,['9'],5,0.583083699999861,,,31,19,Vrouw,Rechts,1,
,dotcolour,dotcolour,dotcolour,3,0,3,303,training,negativefb,83,hard,39,0.566495500000201,['n'],1,right,['9'],5,0.6411717999999382,,,31,19,Vrouw,Rechts,1,
,dotcolour,dotcolour,dotcolour,4,0,4,304,training,negativefb,97,hard,35,0.9661468999997851,['n'],1,right,['8'],4,0.45672130000002653,,,31,19,Vrouw,Rechts,1,
,dotcolour,dotcolour,dotcolour,5,0,5,305,training,negativefb,80,average,55,0.6502436000000671,['c'],1,left,['8'],4,0.5411822999999458,,,31,19,Vrouw,Rechts,1,
,dotcolour,dotcolour,dotcolour,6,0,6,306,training,negativefb,74,hard,38,0.5831702000000405,['n'],1,right,['8'],4,0.655923399999665,,,31,19,Vrouw,Rechts,1,
,dotcolour,dotcolour,dotcolour,7,0,7,307,training,negativefb,91,easy,15,0.5170123999996576,['n'],1,right,['9'],5,0.5859181999999237,,,31,19,Vrouw,Rechts,1,
,dotcolour,dotcolour,dotcolour,8,0,8,308,training,negativefb,95,average,28,0.5512261000003491,['n'],1,right,['0'],6,0.6202465000001212,,,31,19,Vrouw,Rechts,1,
,dotcolour,dotcolour,dotcolour,9,0,9,309,training,negativefb,57,hard,39,0.3831758000001173,['n'],1,right,['8'],4,0.8129309000000831,,,31,19,Vrouw,Rechts,1,
,dotcolour,dotcolour,dotcolour,10,0,10,310,training,negativefb,56,average,55,0.5001257999997506,['c'],1,left,['8'],4,0.5366254000000481,,,31,19,Vrouw,Rechts,1,
,dotcolour,dotcolour,dotcolour,11,0,11,311,training,negativefb,93,easy,15,0.49961280000025,['n'],1,right,['9'],5,0.6150749000003088,,,31,19,Vrouw,Rechts,1,
,dotcolour,dotcolour,dotcolour,12,0,12,312,training,negativefb,95,easy,64,0.5843601000001399,['c'],1,left,['9'],5,0.5274033999999119,,,31,19,Vrouw,Rechts,1,
,dotcolour,dotcolour,dotcolour,13,0,13,313,training,negativefb,70,hard,45,0.7161943000000974,['c'],1,left,['8'],4,0.5180266000002121,,,31,19,Vrouw,Rechts,1,
,dotcolour,dotcolour,dotcolour,14,0,14,314,training,negativefb,31,hard,38,0.5502240000000711,['n'],1,right,['9'],5,0.8430256999999983,,,31,19,Vrouw,Rechts,1,
,dotcolour,dotcolour,dotcolour,15,0,15,315,training,negativefb,97,easy,19,0.46662140000034924,['n'],1,right,['9'],5,0.5827491999998529,,,31,19,Vrouw,Rechts,1,
,dotcolour,dotcolour,dotcolour,16,0,16,316,training,negativefb,92,easy,15,0.4000778999998147,['n'],1,right,['0'],6,0.5040622000001349,,,31,19,Vrouw,Rechts,1,
,dotcolour,dotcolour,dotcolour,17,0,17,317,training,negativefb,8,average,29,0.48393209999994724,['n'],1,right,['9'],5,0.512304000000313,,,31,19,Vrouw,Rechts,1,
,dotcolour,dotcolour,dotcolour,18,0,18,318,training,negativefb,88,average,51,0.5507293999999092,['c'],1,left,['8'],4,0.4863365999999587,,,31,19,Vrouw,Rechts,1,
,dotcolour,dotcolour,dotcolour,19,0,19,319,training,negativefb,95,average,25,0.5494585999999799,['n'],1,right,['8'],4,0.4925502000000961,,,31,19,Vrouw,Rechts,1,
,dotcolour,dotcolour,dotcolour,20,0,20,320,training,negativefb,48,easy,65,0.6011752999997952,['c'],1,left,['8'],4,0.4812277000000904,,,31,19,Vrouw,Rechts,1,
,dotcolour,dotcolour,dotcolour,21,0,21,321,training,negativefb,78,easy,17,0.4824434000001929,['n'],1,right,['9'],5,0.4750534999998308,,,31,19,Vrouw,Rechts,1,
,dotcolour,dotcolour,dotcolour,22,0,22,322,training,negativefb,89,easy,17,0.4823823000001539,['n'],1,right,['0'],6,0.5813291999998,,,31,19,Vrouw,Rechts,1,
,dotcolour,dotcolour,dotcolour,23,0,23,323,training,negativefb,14,hard,42,0.41653039999982866,['n'],0,left,['8'],4,0.5812186000002839,,,31,19,Vrouw,Rechts,1,
,dotcolour,dotcolour,dotcolour,24,0,24,324,training,negativefb,73,hard,36,0.4837582999998631,['n'],1,right,['9'],5,0.5306353999999374,,,31,19,Vrouw,Rechts,1,
,dotcolour,dotcolour,dotcolour,25,0,25,325,training,negativefb,80,hard,41,0.5338200999999572,['n'],0,left,['8'],4,0.46474140000009356,,,31,19,Vrouw,Rechts,1,
,dotcolour,dotcolour,dotcolour,26,0,26,326,training,negativefb,30,easy,19,0.516904600000089,['n'],1,right,['0'],6,0.5375168999999005,,,31,19,Vrouw,Rechts,1,
,dotcolour,dotcolour,dotcolour,27,0,27,327,training,negativefb,92,average,55,0.6675485999999182,['c'],1,left,['9'],5,0.5213281000001189,,,31,19,Vrouw,Rechts,1,
,dotcolour,dotcolour,dotcolour,28,0,28,328,training,negativefb,80,easy,63,0.5834987999996883,['c'],1,left,['9'],5,0.9167633000001842,,,31,19,Vrouw,Rechts,1,
,dotcolour,dotcolour,dotcolour,29,0,29,329,training,negativefb,37,hard,41,0.5499445999998898,['n'],0,left,['8'],4,0.6025761000000784,,,31,19,Vrouw,Rechts,1,
,dotcolour,dotcolour,dotcolour,30,0,30,330,training,negativefb,80,easy,18,0.400051799999801,['n'],1,right,['9'],5,0.5384057999999641,,,31,19,Vrouw,Rechts,1,
,dotcolour,dotcolour,dotcolour,31,0,31,331,training,negativefb,98,average,27,0.3839012999997067,['n'],1,right,['9'],5,0.5255167000000256,,,31,19,Vrouw,Rechts,1,
,dotcolour,dotcolour,dotcolour,32,0,32,332,training,negativefb,77,average,52,0.5662483999999495,['c'],1,left,['9'],5,0.47422610000012355,,,31,19,Vrouw,Rechts,1,
,dotcolour,dotcolour,dotcolour,33,0,33,333,training,negativefb,19,hard,43,0.4836503999999877,['n'],0,left,['8'],4,0.5091996000001018,,,31,19,Vrouw,Rechts,1,
,dotcolour,dotcolour,dotcolour,34,0,34,334,training,negativefb,62,average,52,0.5833416000000398,['c'],1,left,['9'],5,0.5535131000001456,,,31,19,Vrouw,Rechts,1,
,dotcolour,dotcolour,dotcolour,35,0,35,335,training,negativefb,84,easy,63,0.5160206000000471,['c'],1,left,['9'],5,0.4947642000001906,,,31,19,Vrouw,Rechts,1,
,dotcolour,dotcolour,dotcolour,36,0,36,336,training,negativefb,44,hard,41,0.5827360999996927,['n'],0,left,['9'],5,0.9404799999997522,,,31,19,Vrouw,Rechts,1,
,dotcolour,dotcolour,dotcolour,37,0,37,337,training,negativefb,15,hard,35,0.6321296999999504,['c'],0,right,['9'],5,0.5812411000001703,,,31,19,Vrouw,Rechts,1,
,dotcolour,dotcolour,dotcolour,38,0,38,338,training,negativefb,52,average,55,0.5330382999995891,['c'],1,left,['8'],4,0.48856389999991734,,,31,19,Vrouw,Rechts,1,
,dotcolour,dotcolour,dotcolour,39,0,39,339,training,negativefb,83,hard,41,0.6672045999998772,['n'],0,left,['9'],5,0.5307499999998981,,,31,19,Vrouw,Rechts,1,
,dotcolour,dotcolour,dotcolour,40,0,40,340,training,negativefb,94,hard,35,0.5330057999999553,['n'],1,right,['8'],4,0.45666459999984,,,31,19,Vrouw,Rechts,1,
,dotcolour,dotcolour,dotcolour,41,0,41,341,training,negativefb,59,average,54,0.6335157000003164,['c'],1,left,['8'],4,0.4372145000002092,,,31,19,Vrouw,Rechts,1,
,dotcolour,dotcolour,dotcolour,42,0,42,342,training,negativefb,99,easy,65,0.5340863999999783,['c'],1,left,['0'],6,0.7102985999999873,,,31,19,Vrouw,Rechts,1,
,dotcolour,dotcolour,dotcolour,43,0,43,343,training,negativefb,94,average,28,0.6675015000000712,['n'],1,right,['0'],6,0.5521396999997705,,,31,19,Vrouw,Rechts,1,
,dotcolour,dotcolour,dotcolour,44,0,44,344,training,negativefb,80,average,54,0.6336114999999154,['c'],1,left,['9'],5,0.7047255000002224,,,31,19,Vrouw,Rechts,1,
,dotcolour,dotcolour,dotcolour,45,0,45,345,training,negativefb,97,easy,65,0.48391920000040045,['c'],1,left,['0'],6,0.5613213999999971,,,31,19,Vrouw,Rechts,1,
,dotcolour,dotcolour,dotcolour,46,0,46,346,training,negativefb,25,hard,44,0.8174632000000202,['n'],0,left,['9'],5,0.6347885000000133,,,31,19,Vrouw,Rechts,1,
,dotcolour,dotcolour,dotcolour,47,0,47,347,training,negativefb,68,easy,64,0.7336827999997695,['c'],1,left,['9'],5,0.7242172000001119,,,31,19,Vrouw,Rechts,1,
,dotcolour,dotcolour,dotcolour,48,0,48,348,training,negativefb,94,easy,18,0.5000672999999551,['n'],1,right,['0'],6,0.4993632000000616,,,31,19,Vrouw,Rechts,1,
,dotcolour,dotcolour,dotcolour,49,0,49,349,training,negativefb,87,hard,39,0.6666952000000492,['n'],1,right,['9'],5,0.5568213000001379,,,31,19,Vrouw,Rechts,1,
,dotcolour,dotcolour,dotcolour,50,0,50,350,training,negativefb,42,easy,16,0.5345477000000756,['n'],1,right,['0'],6,0.5693142999998599,,,31,19,Vrouw,Rechts,1,
,dotcolour,dotcolour,dotcolour,51,0,51,351,training,negativefb,82,easy,64,0.5505067999997664,['c'],1,left,['9'],5,0.6047590000002856,,,31,19,Vrouw,Rechts,1,
,dotcolour,dotcolour,dotcolour,52,0,52,352,training,negativefb,30,hard,44,0.6006571000002623,['n'],0,left,['9'],5,0.5571635000001152,,,31,19,Vrouw,Rechts,1,
,dotcolour,dotcolour,dotcolour,53,0,53,353,training,negativefb,63,average,26,0.5989932000002227,['n'],1,right,['9'],5,0.7989637000000585,,,31,19,Vrouw,Rechts,1,
,dotcolour,dotcolour,dotcolour,54,0,54,354,training,negativefb,93,easy,64,0.58283369999981,['c'],1,left,['8'],4,0.6798055999997814,,,31,19,Vrouw,Rechts,1,
,dotcolour,dotcolour,dotcolour,55,0,55,355,training,negativefb,70,hard,44,0.6335642999997617,['n'],0,left,['8'],4,0.5712133000001813,,,31,19,Vrouw,Rechts,1,
,dotcolour,dotcolour,dotcolour,56,0,56,356,training,negativefb,87,average,25,0.5501867000002676,['n'],1,right,['9'],5,0.45462369999995644,,,31,19,Vrouw,Rechts,1,
,dotcolour,dotcolour,dotcolour,57,0,57,357,training,negativefb,94,easy,65,0.7172705000002679,['c'],1,left,['9'],5,0.5928248000000167,,,31,19,Vrouw,Rechts,1,
,dotcolour,dotcolour,dotcolour,58,0,58,358,training,negativefb,66,hard,36,0.8168578999998317,['n'],1,right,['8'],4,0.6162890000000516,,,31,19,Vrouw,Rechts,1,
,dotcolour,dotcolour,dotcolour,59,0,59,359,training,negativefb,91,average,25,0.5506931999998415,['n'],1,right,['9'],5,0.545628399999714,,,31,19,Vrouw,Rechts,1,
,dotcolour,dotcolour,dotcolour,0,1,60,360,training,negativefb,97,average,26,0.5509039999997185,['n'],1,right,['9'],5,0.6450261999998474,,,31,19,Vrouw,Rechts,1,
,dotcolour,dotcolour,dotcolour,1,1,61,361,training,negativefb,62,hard,39,0.665653999999904,['n'],1,right,['8'],4,0.4495151999999507,,,31,19,Vrouw,Rechts,1,
,dotcolour,dotcolour,dotcolour,2,1,62,362,training,negativefb,41,easy,18,1.8509561000000758,['n'],1,right,['0'],6,0.8939998999999261,,,31,19,Vrouw,Rechts,1,
,dotcolour,dotcolour,dotcolour,3,1,63,363,training,negativefb,5,average,51,0.6168594000000667,['n'],0,left,['8'],4,0.5220036000000619,,,31,19,Vrouw,Rechts,1,
,dotcolour,dotcolour,dotcolour,4,1,64,364,training,negativefb,92,average,54,0.7653166000000056,['n'],0,left,['8'],4,0.49486350000006496,,,31,19,Vrouw,Rechts,1,
,dotcolour,dotcolour,dotcolour,5,1,65,365,training,negativefb,92,easy,64,0.5989721000000827,['c'],1,left,['9'],5,0.5390698999999586,,,31,19,Vrouw,Rechts,1,
,dotcolour,dotcolour,dotcolour,6,1,66,366,training,negativefb,29,hard,43,0.6008440999999038,['n'],0,left,['8'],4,0.6137456999999813,,,31,19,Vrouw,Rechts,1,
,dotcolour,dotcolour,dotcolour,7,1,67,367,training,negativefb,49,hard,37,0.6171494000000166,['n'],1,right,['9'],5,0.700885400000061,,,31,19,Vrouw,Rechts,1,
,dotcolour,dotcolour,dotcolour,8,1,68,368,training,negativefb,66,hard,41,0.49957139999969513,['n'],0,left,['9'],5,0.5812817999999425,,,31,19,Vrouw,Rechts,1,
,dotcolour,dotcolour,dotcolour,9,1,69,369,training,negativefb,96,average,25,0.40003070000011576,['n'],1,right,['0'],6,0.7580443000001651,,,31,19,Vrouw,Rechts,1,
,dotcolour,dotcolour,dotcolour,10,1,70,370,training,negativefb,33,average,27,0.4513811000001624,['n'],1,right,['9'],5,0.6059443000003739,,,31,19,Vrouw,Rechts,1,
,dotcolour,dotcolour,dotcolour,11,1,71,371,training,negativefb,93,average,52,0.76624320000019,['c'],1,left,['8'],4,0.5508988999999929,,,31,19,Vrouw,Rechts,1,
,dotcolour,dotcolour,dotcolour,12,1,72,372,training,negativefb,25,hard,37,0.5997671999998602,['n'],1,right,['9'],5,0.5378848000000289,,,31,19,Vrouw,Rechts,1,
,dotcolour,dotcolour,dotcolour,13,1,73,373,training,negativefb,68,easy,16,0.4333812999998372,['n'],1,right,['0'],6,0.523231399999986,,,31,19,Vrouw,Rechts,1,
,dotcolour,dotcolour,dotcolour,14,1,74,374,training,negativefb,63,hard,38,0.5680675000003248,['n'],1,right,['3'],3,1.1440620000003037,,,31,19,Vrouw,Rechts,1,
,dotcolour,dotcolour,dotcolour,15,1,75,375,training,negativefb,57,easy,65,0.6170686999998907,['c'],1,left,['9'],5,0.6736836999998559,,,31,19,Vrouw,Rechts,1,
,dotcolour,dotcolour,dotcolour,16,1,76,376,training,negativefb,69,hard,38,0.5504888999998911,['n'],1,right,['8'],4,0.6084781999998086,,,31,19,Vrouw,Rechts,1,
,dotcolour,dotcolour,dotcolour,17,1,77,377,training,negativefb,91,average,28,0.7337787999999819,['n'],1,right,['9'],5,0.5950444999998581,,,31,19,Vrouw,Rechts,1,
,dotcolour,dotcolour,dotcolour,18,1,78,378,training,negativefb,46,easy,61,0.5338678999996773,['c'],1,left,['9'],5,0.6387233000000379,,,31,19,Vrouw,Rechts,1,
,dotcolour,dotcolour,dotcolour,19,1,79,379,training,negativefb,32,hard,42,0.533380699999725,['n'],0,left,['8'],4,0.7757040999999845,,,31,19,Vrouw,Rechts,1,
,dotcolour,dotcolour,dotcolour,20,1,80,380,training,negativefb,69,hard,43,0.750109799999791,['c'],1,left,['8'],4,0.6112872999997307,,,31,19,Vrouw,Rechts,1,
,dotcolour,dotcolour,dotcolour,21,1,81,381,training,negativefb,69,easy,15,0.4510934999998426,['n'],1,right,['0'],6,0.561905200000183,,,31,19,Vrouw,Rechts,1,
,dotcolour,dotcolour,dotcolour,22,1,82,382,training,negativefb,86,easy,62,0.549390200000289,['c'],1,left,['8'],4,0.43735319999996136,,,31,19,Vrouw,Rechts,1,
,dotcolour,dotcolour,dotcolour,23,1,83,383,training,negativefb,90,easy,16,0.46779449999985445,['n'],1,right,['9'],5,0.7294827999999143,,,31,19,Vrouw,Rechts,1,
,dotcolour,dotcolour,dotcolour,24,1,84,384,training,negativefb,79,average,27,0.5347904000000199,['n'],1,right,['9'],5,0.4797291999998379,,,31,19,Vrouw,Rechts,1,
,dotcolour,dotcolour,dotcolour,25,1,85,385,training,negativefb,96,easy,17,0.38323140000011335,['n'],1,right,['9'],5,0.47747009999966394,,,31,19,Vrouw,Rechts,1,
,dotcolour,dotcolour,dotcolour,26,1,86,386,training,negativefb,44,average,54,0.6667132000002312,['c'],1,left,['3'],3,1.1199602000001505,,,31,19,Vrouw,Rechts,1,
,dotcolour,dotcolour,dotcolour,27,1,87,387,training,negativefb,71,hard,39,0.6171392999999625,['n'],1,right,['8'],4,0.4578725999999733,,,31,19,Vrouw,Rechts,1,
,dotcolour,dotcolour,dotcolour,28,1,88,388,training,negativefb,47,average,53,0.5668378000000303,['n'],0,left,['8'],4,0.5774864000004527,,,31,19,Vrouw,Rechts,1,
,dotcolour,dotcolour,dotcolour,29,1,89,389,training,negativefb,80,average,54,0.6166762000002564,['n'],0,left,['3'],3,1.0817666000002646,,,31,19,Vrouw,Rechts,1,
,dotcolour,dotcolour,dotcolour,30,1,90,390,training,negativefb,83,hard,36,0.7834907999999814,['n'],1,right,['8'],4,0.40719239999998535,,,31,19,Vrouw,Rechts,1,
,dotcolour,dotcolour,dotcolour,31,1,91,391,training,negativefb,12,average,29,0.6154504000000998,['n'],1,right,['9'],5,0.44728889999987587,,,31,19,Vrouw,Rechts,1,
,dotcolour,dotcolour,dotcolour,32,1,92,392,training,negativefb,16,average,29,0.3505824999997458,['n'],1,right,['8'],4,0.4318670000002385,,,31,19,Vrouw,Rechts,1,
,dotcolour,dotcolour,dotcolour,33,1,93,393,training,negativefb,73,easy,64,0.5339697999997952,['c'],1,left,['9'],5,0.4010024999997768,,,31,19,Vrouw,Rechts,1,
,dotcolour,dotcolour,dotcolour,34,1,94,394,training,negativefb,91,easy,61,0.5502526999998736,['c'],1,left,['8'],4,0.35522579999997106,,,31,19,Vrouw,Rechts,1,
,dotcolour,dotcolour,dotcolour,35,1,95,395,training,negativefb,88,average,53,0.6499984000001859,['c'],1,left,['8'],4,0.3473930999998629,,,31,19,Vrouw,Rechts,1,
,dotcolour,dotcolour,dotcolour,36,1,96,396,training,negativefb,91,easy,63,0.5011666000000332,['c'],1,left,['9'],5,0.3937166000000616,,,31,19,Vrouw,Rechts,1,
,dotcolour,dotcolour,dotcolour,37,1,97,397,training,negativefb,77,easy,18,0.5513670000000275,['n'],1,right,['0'],6,0.42048979999981384,,,31,19,Vrouw,Rechts,1,
,dotcolour,dotcolour,dotcolour,38,1,98,398,training,negativefb,83,easy,62,0.6007678000000851,['c'],1,left,['9'],5,0.3875674999999319,,,31,19,Vrouw,Rechts,1,
,dotcolour,dotcolour,dotcolour,39,1,99,399,training,negativefb,12,hard,41,0.6001003000001219,['n'],0,left,['8'],4,0.4765816999997696,,,31,19,Vrouw,Rechts,1,
,dotcolour,dotcolour,dotcolour,40,1,100,400,training,negativefb,64,hard,43,0.8500263000000814,['c'],1,left,['8'],4,0.40760220000038316,,,31,19,Vrouw,Rechts,1,
,dotcolour,dotcolour,dotcolour,41,1,101,401,training,negativefb,33,average,51,0.49977539999963483,['n'],0,left,['9'],5,0.6355803999999807,,,31,19,Vrouw,Rechts,1,
,dotcolour,dotcolour,dotcolour,42,1,102,402,training,negativefb,58,easy,16,0.6333754000002045,['n'],1,right,['8'],4,0.3930927999999767,,,31,19,Vrouw,Rechts,1,
,dotcolour,dotcolour,dotcolour,43,1,103,403,training,negativefb,37,hard,37,0.601133000000118,['n'],1,right,['8'],4,0.3701542000003428,,,31,19,Vrouw,Rechts,1,
,dotcolour,dotcolour,dotcolour,44,1,104,404,training,negativefb,82,hard,45,0.6167642000000342,['c'],1,left,['8'],4,0.35476680000010674,,,31,19,Vrouw,Rechts,1,
,dotcolour,dotcolour,dotcolour,45,1,105,405,training,negativefb,35,hard,43,0.5174307000002045,['n'],0,left,['8'],4,0.48803899999984424,,,31,19,Vrouw,Rechts,1,
,dotcolour,dotcolour,dotcolour,46,1,106,406,training,negativefb,75,easy,63,0.7846622000001844,['c'],1,left,['9'],5,0.3415012000000388,,,31,19,Vrouw,Rechts,1,
,dotcolour,dotcolour,dotcolour,47,1,107,407,training,negativefb,75,average,26,0.44970809999995254,['n'],1,right,['9'],5,0.4297372000000905,,,31,19,Vrouw,Rechts,1,
,dotcolour,dotcolour,dotcolour,48,1,108,408,training,negativefb,84,average,55,0.7172527000002447,['c'],1,left,['8'],4,0.35991280000007464,,,31,19,Vrouw,Rechts,1,
,dotcolour,dotcolour,dotcolour,49,1,109,409,training,negativefb,55,hard,39,0.5501834000001509,['n'],1,right,['8'],4,0.40498410000009244,,,31,19,Vrouw,Rechts,1,
,dotcolour,dotcolour,dotcolour,50,1,110,410,training,negativefb,67,easy,18,0.5335211999999956,['n'],1,right,['9'],5,0.3833007000002908,,,31,19,Vrouw,Rechts,1,
,dotcolour,dotcolour,dotcolour,51,1,111,411,training,negativefb,59,easy,15,0.9668797999997878,['n'],1,right,['0'],6,0.8649646000003486,,,31,19,Vrouw,Rechts,1,
,dotcolour,dotcolour,dotcolour,52,1,112,412,training,negativefb,78,easy,19,0.43279759999995804,['n'],1,right,['0'],6,0.7096575000000485,,,31,19,Vrouw,Rechts,1,
,dotcolour,dotcolour,dotcolour,53,1,113,413,training,negativefb,96,average,29,0.38315170000032595,['n'],1,right,['0'],6,1.1696102000000792,,,31,19,Vrouw,Rechts,1,
,dotcolour,dotcolour,dotcolour,54,1,114,414,training,negativefb,80,easy,63,0.8003154999996696,['c'],1,left,['8'],4,0.38719700000001467,,,31,19,Vrouw,Rechts,1,
,dotcolour,dotcolour,dotcolour,55,1,115,415,training,negativefb,50,hard,45,0.532906500000081,['n'],0,left,['8'],4,0.39071729999977833,,,31,19,Vrouw,Rechts,1,
,dotcolour,dotcolour,dotcolour,56,1,116,416,training,negativefb,39,hard,42,0.45037730000012743,['n'],0,left,['3'],3,1.0373933000000761,,,31,19,Vrouw,Rechts,1,
,dotcolour,dotcolour,dotcolour,57,1,117,417,training,negativefb,61,average,52,0.8502266000000418,['c'],1,left,['8'],4,0.33073330000024725,,,31,19,Vrouw,Rechts,1,
,dotcolour,dotcolour,dotcolour,58,1,118,418,training,negativefb,98,average,25,0.650343199999952,['n'],1,right,['8'],4,0.395875100000012,,,31,19,Vrouw,Rechts,1,
,dotcolour,dotcolour,dotcolour,59,1,119,419,training,negativefb,12,hard,39,0.5165333999998438,['n'],1,right,['9'],5,0.41546969999990324,,,31,19,Vrouw,Rechts,1,
,xotask,dotcolour,dotcolour,0,2,120,420,main,negativefb,-99,average,,0.9002106000002641,['c'],1,left,['3'],3,2.9111422999999377,64,,31,19,Vrouw,Rechts,1,
,xotask,dotcolour,dotcolour,1,2,121,421,main,negativefb,-99,hard,,1.2836704000001191,['n'],1,right,['3'],3,2.1682637999997496,27,,31,19,Vrouw,Rechts,1,
,xotask,dotcolour,dotcolour,2,2,122,422,main,negativefb,-99,easy,,0.5511231000000407,['n'],0,left,['8'],4,0.4996107000001757,71,,31,19,Vrouw,Rechts,1,
,xotask,dotcolour,dotcolour,3,2,123,423,main,negativefb,-99,easy,,0.4343298000003415,['n'],0,left,['9'],5,0.7440763999998126,74,,31,19,Vrouw,Rechts,1,
,xotask,dotcolour,dotcolour,4,2,124,424,main,negativefb,-99,hard,,0.9181503999998313,['c'],0,right,['3'],3,0.4381098999997448,27,,31,19,Vrouw,Rechts,1,
,xotask,dotcolour,dotcolour,5,2,125,425,main,negativefb,-99,hard,,2.901547599999958,['c'],0,right,['1'],1,0.7781405000000632,27,,31,19,Vrouw,Rechts,1,
,xotask,dotcolour,dotcolour,6,2,126,426,main,negativefb,-99,hard,,0.9845091000001958,['c'],1,left,['8'],4,1.6526467000003322,52,,31,19,Vrouw,Rechts,1,
,xotask,dotcolour,dotcolour,7,2,127,427,main,negativefb,-99,average,,0.8338788999999451,['c'],1,left,['8'],4,0.641853699999956,64,,31,19,Vrouw,Rechts,1,
,xotask,dotcolour,dotcolour,8,2,128,428,main,negativefb,-99,hard,,1.017717299999731,['c'],1,left,['3'],3,0.5519377000000532,52,,31,19,Vrouw,Rechts,1,
,xotask,dotcolour,dotcolour,9,2,129,429,main,negativefb,-99,hard,,0.9175467000000026,['c'],1,left,['8'],4,1.102402400000301,52,,31,19,Vrouw,Rechts,1,
,xotask,dotcolour,dotcolour,10,2,130,430,main,negativefb,-99,average,,0.58432860000039,['n'],0,left,['8'],4,0.8279901999999311,61,,31,19,Vrouw,Rechts,1,
,xotask,dotcolour,dotcolour,11,2,131,431,main,negativefb,-99,average,,0.5848445000001448,['n'],1,right,['8'],4,0.7563896999999997,18,,31,19,Vrouw,Rechts,1,
,xotask,dotcolour,dotcolour,12,2,132,432,main,negativefb,-99,easy,,0.4011163000000124,['n'],1,right,['8'],4,0.7670481000000109,6,,31,19,Vrouw,Rechts,1,
,xotask,dotcolour,dotcolour,13,2,133,433,main,negativefb,-99,easy,,0.6175246999996489,['c'],1,left,['8'],4,1.0563654999996288,74,,31,19,Vrouw,Rechts,1,
,xotask,dotcolour,dotcolour,14,2,134,434,main,negativefb,-99,average,,0.7343378000000484,['n'],1,right,['8'],4,1.4014403999999558,15,,31,19,Vrouw,Rechts,1,
,xotask,dotcolour,dotcolour,15,2,135,435,main,negativefb,-99,hard,,0.9008318999999574,['n'],1,right,['3'],3,1.070147200000065,28,,31,19,Vrouw,Rechts,1,
,xotask,dotcolour,dotcolour,16,2,136,436,main,negativefb,-99,average,,0.8840653000002021,['n'],0,left,['3'],3,1.2573661999999786,64,,31,19,Vrouw,Rechts,1,
,xotask,dotcolour,dotcolour,17,2,137,437,main,negativefb,-99,average,,0.6019252000000961,['n'],1,right,['8'],4,1.2160690999999133,18,,31,19,Vrouw,Rechts,1,
,xotask,dotcolour,dotcolour,18,2,138,438,main,negativefb,-99,easy,,0.4677904000000126,['c'],1,left,['8'],4,1.3251908000002004,70,,31,19,Vrouw,Rechts,1,
,xotask,dotcolour,dotcolour,19,2,139,439,main,negativefb,-99,average,,0.5496039999998175,['n'],1,right,['8'],4,1.4997496999999385,18,,31,19,Vrouw,Rechts,1,
,xotask,dotcolour,dotcolour,20,2,140,440,main,negativefb,-99,easy,,0.5344926000002488,['n'],1,right,['8'],4,1.1064647000002878,9,,31,19,Vrouw,Rechts,1,
,xotask,dotcolour,dotcolour,21,2,141,441,main,negativefb,-99,average,,0.6016543999999158,['n'],1,right,['8'],4,0.7513294999998834,16,,31,19,Vrouw,Rechts,1,
,xotask,dotcolour,dotcolour,22,2,142,442,main,negativefb,-99,easy,,0.567718700000114,['c'],1,left,['8'],4,1.0678808999996363,71,,31,19,Vrouw,Rechts,1,
,xotask,dotcolour,dotcolour,23,2,143,443,main,negativefb,-99,hard,,0.7505756000000474,['c'],0,right,['8'],4,0.8831135999998878,26,,31,19,Vrouw,Rechts,1,
,xotask,dotcolour,dotcolour,24,2,144,444,main,negativefb,-99,hard,,1.0835518000003503,['n'],1,right,['8'],4,0.700782700000218,29,,31,19,Vrouw,Rechts,1,
,xotask,dotcolour,dotcolour,25,2,145,445,main,negativefb,-99,hard,,1.6679120999997394,['n'],0,left,['2'],2,0.6557391999999709,54,,31,19,Vrouw,Rechts,1,
,xotask,dotcolour,dotcolour,26,2,146,446,main,negativefb,-99,hard,,0.7342686000001777,['n'],0,left,['2'],2,2.6648331999999755,50,,31,19,Vrouw,Rechts,1,
,xotask,dotcolour,dotcolour,27,2,147,447,main,negativefb,-99,hard,,0.6175531999997474,['n'],0,left,['2'],2,1.4376197999999931,51,,31,19,Vrouw,Rechts,1,
,xotask,dotcolour,dotcolour,28,2,148,448,main,negativefb,-99,average,,0.5840893000004144,['n'],1,right,['8'],4,1.2781764999999723,15,,31,19,Vrouw,Rechts,1,
,xotask,dotcolour,dotcolour,29,2,149,449,main,negativefb,-99,average,,0.7335063000000446,['c'],1,left,['8'],4,0.671009199999844,63,,31,19,Vrouw,Rechts,1,
,xotask,dotcolour,dotcolour,30,2,150,450,main,negativefb,-99,average,,0.6496443999999428,['c'],1,left,['8'],4,0.5301568999998381,60,,31,19,Vrouw,Rechts,1,
,xotask,dotcolour,dotcolour,31,2,151,451,main,negativefb,-99,easy,,0.6843847000000096,['c'],1,left,['8'],4,0.5789823999998589,71,,31,19,Vrouw,Rechts,1,
,xotask,dotcolour,dotcolour,32,2,152,452,main,negativefb,-99,easy,,0.5174079000003076,['n'],1,right,['9'],5,0.5292073999999047,8,,31,19,Vrouw,Rechts,1,
,xotask,dotcolour,dotcolour,33,2,153,453,main,negativefb,-99,hard,,0.7680313999999271,['n'],0,left,['8'],4,0.8387322000003223,54,,31,19,Vrouw,Rechts,1,
,xotask,dotcolour,dotcolour,34,2,154,454,main,negativefb,-99,easy,,0.5012265000000298,['n'],1,right,['9'],5,1.8739134000002196,8,,31,19,Vrouw,Rechts,1,
,xotask,dotcolour,dotcolour,35,2,155,455,main,negativefb,-99,average,,0.5518277999999555,['c'],1,left,['8'],4,0.6652647000000798,61,,31,19,Vrouw,Rechts,1,
,xotask,dotcolour,dotcolour,36,2,156,456,main,negativefb,-99,easy,,0.5171784999997726,['n'],1,right,['9'],5,0.7548843999998098,5,,31,19,Vrouw,Rechts,1,
,xotask,dotcolour,dotcolour,37,2,157,457,main,negativefb,-99,hard,,0.7341698999998698,['c'],1,left,['8'],4,0.7757659999997486,50,,31,19,Vrouw,Rechts,1,
,xotask,dotcolour,dotcolour,38,2,158,458,main,negativefb,-99,easy,,0.550868399999672,['c'],1,left,['8'],4,0.5964121000001796,71,,31,19,Vrouw,Rechts,1,
,xotask,dotcolour,dotcolour,39,2,159,459,main,negativefb,-99,easy,,0.567139600000246,['n'],1,right,['9'],5,0.534512100000029,9,,31,19,Vrouw,Rechts,1,
,xotask,dotcolour,dotcolour,40,2,160,460,main,negativefb,-99,easy,,0.41774820000000545,['n'],1,right,['9'],5,0.49693669999987833,5,,31,19,Vrouw,Rechts,1,
,xotask,dotcolour,dotcolour,41,2,161,461,main,negativefb,-99,average,,0.4831523999996534,['n'],1,right,['9'],5,0.5559921999997641,18,,31,19,Vrouw,Rechts,1,
,xotask,dotcolour,dotcolour,42,2,162,462,main,negativefb,-99,easy,,0.6003577999999834,['c'],1,left,['8'],4,0.5658201999999619,73,,31,19,Vrouw,Rechts,1,
,xotask,dotcolour,dotcolour,43,2,163,463,main,negativefb,-99,hard,,0.7671887999999853,['n'],1,right,['8'],4,0.897819800000434,28,,31,19,Vrouw,Rechts,1,
,xotask,dotcolour,dotcolour,44,2,164,464,main,negativefb,-99,average,,0.5179925000002186,['n'],0,left,['8'],4,0.8022523999998157,62,,31,19,Vrouw,Rechts,1,
,xotask,dotcolour,dotcolour,45,2,165,465,main,negativefb,-99,easy,,0.6351786000000175,['n'],0,left,['2'],2,2.369365000000016,72,,31,19,Vrouw,Rechts,1,
,xotask,dotcolour,dotcolour,46,2,166,466,main,negativefb,-99,average,,1.1174762000000555,['c'],0,right,['2'],2,1.2066829000000325,15,,31,19,Vrouw,Rechts,1,
,xotask,dotcolour,dotcolour,47,2,167,467,main,negativefb,-99,easy,,0.5678885000002083,['n'],1,right,['9'],5,0.7696501000000353,8,,31,19,Vrouw,Rechts,1,
,xotask,dotcolour,dotcolour,48,2,168,468,main,negativefb,-99,hard,,1.4670562999999675,['c'],1,left,['8'],4,0.9765017999998236,53,,31,19,Vrouw,Rechts,1,
,xotask,dotcolour,dotcolour,49,2,169,469,main,negativefb,-99,easy,,0.599584699999923,['c'],1,left,['9'],5,0.45091480000019146,72,,31,19,Vrouw,Rechts,1,
,xotask,dotcolour,dotcolour,50,2,170,470,main,negativefb,-99,easy,,0.550688700000137,['n'],1,right,['9'],5,0.4672278000002734,6,,31,19,Vrouw,Rechts,1,
,xotask,dotcolour,dotcolour,51,2,171,471,main,negativefb,-99,average,,0.5669964999997319,['n'],1,right,['9'],5,0.42594850000023143,19,,31,19,Vrouw,Rechts,1,
,xotask,dotcolour,dotcolour,52,2,172,472,main,negativefb,-99,hard,,0.6009739000000991,['n'],1,right,['9'],5,0.4665029999996477,25,,31,19,Vrouw,Rechts,1,
,xotask,dotcolour,dotcolour,53,2,173,473,main,negativefb,-99,hard,,0.5679192999996303,['c'],1,left,['2'],2,1.0492355000001226,51,,31,19,Vrouw,Rechts,1,
,xotask,dotcolour,dotcolour,54,2,174,474,main,negativefb,-99,average,,0.5844615000000886,['n'],0,left,['3'],3,1.0890839000003325,64,,31,19,Vrouw,Rechts,1,
,xotask,dotcolour,dotcolour,55,2,175,475,main,negativefb,-99,average,,0.6509676999999101,['n'],0,left,['1'],1,1.4686636999999791,61,,31,19,Vrouw,Rechts,1,
,xotask,dotcolour,dotcolour,56,2,176,476,main,negativefb,-99,hard,,0.6518902000002527,['n'],1,right,['8'],4,2.320561600000019,26,,31,19,Vrouw,Rechts,1,
,xotask,dotcolour,dotcolour,57,2,177,477,main,negativefb,-99,easy,,0.7181132000000616,['n'],1,right,['9'],5,1.0793397000002187,5,,31,19,Vrouw,Rechts,1,
,xotask,dotcolour,dotcolour,58,2,178,478,main,negativefb,-99,hard,,0.5343073999997614,['n'],1,right,['8'],4,0.5519991999999547,29,,31,19,Vrouw,Rechts,1,
,xotask,dotcolour,dotcolour,59,2,179,479,main,negativefb,-99,average,,0.5340954999996939,['n'],1,right,['8'],4,0.4779774999997244,17,,31,19,Vrouw,Rechts,1,
,xotask,dotcolour,dotcolour,0,3,180,480,main,negativefb,-99,hard,,0.8169926000000487,['n'],1,right,['8'],4,0.510312200000044,26,,31,19,Vrouw,Rechts,1,
,xotask,dotcolour,dotcolour,1,3,181,481,main,negativefb,-99,easy,,1.6179610000003777,['c'],1,left,['2'],2,0.8019659000001411,73,,31,19,Vrouw,Rechts,1,
,xotask,dotcolour,dotcolour,2,3,182,482,main,negativefb,-99,easy,,0.6181883000003836,['n'],1,right,['9'],5,0.8975145999997949,9,,31,19,Vrouw,Rechts,1,
,xotask,dotcolour,dotcolour,3,3,183,483,main,negativefb,-99,easy,,0.7342985999998746,['c'],1,left,['8'],4,0.49693619999970906,70,,31,19,Vrouw,Rechts,1,
,xotask,dotcolour,dotcolour,4,3,184,484,main,negativefb,-99,average,,0.7344968000002154,['c'],1,left,['8'],4,0.5286539999997331,63,,31,19,Vrouw,Rechts,1,
,xotask,dotcolour,dotcolour,5,3,185,485,main,negativefb,-99,hard,,0.5833382000000711,['c'],1,left,['9'],5,0.4773749000000862,50,,31,19,Vrouw,Rechts,1,
,xotask,dotcolour,dotcolour,6,3,186,486,main,negativefb,-99,average,,0.7508920000000217,['n'],0,left,['9'],5,0.46116559999973106,61,,31,19,Vrouw,Rechts,1,
,xotask,dotcolour,dotcolour,7,3,187,487,main,negativefb,-99,average,,0.6342759000003753,['n'],1,right,['9'],5,0.42660769999974946,18,,31,19,Vrouw,Rechts,1,
,xotask,dotcolour,dotcolour,8,3,188,488,main,negativefb,-99,easy,,0.700370699999894,['n'],0,left,['9'],5,0.5108463999999913,73,,31,19,Vrouw,Rechts,1,
,xotask,dotcolour,dotcolour,9,3,189,489,main,negativefb,-99,hard,,0.566146099999969,['n'],0,left,['9'],5,0.860491699999784,52,,31,19,Vrouw,Rechts,1,
,xotask,dotcolour,dotcolour,10,3,190,490,main,negativefb,-99,hard,,0.4513201000004301,['n'],1,right,['9'],5,0.5133292000000438,27,,31,19,Vrouw,Rechts,1,
,xotask,dotcolour,dotcolour,11,3,191,491,main,negativefb,-99,easy,,0.40084410000008575,['n'],1,right,['0'],6,0.6854435000000194,5,,31,19,Vrouw,Rechts,1,
,xotask,dotcolour,dotcolour,12,3,192,492,main,negativefb,-99,average,,0.6503143999998429,['c'],1,left,['8'],4,1.0967993999997816,64,,31,19,Vrouw,Rechts,1,
,xotask,dotcolour,dotcolour,13,3,193,493,main,negativefb,-99,hard,,0.6346111000002566,['n'],1,right,['9'],5,0.5175529000002825,26,,31,19,Vrouw,Rechts,1,
,xotask,dotcolour,dotcolour,14,3,194,494,main,negativefb,-99,easy,,0.4181266999999025,['n'],1,right,['9'],5,0.9686565000001792,7,,31,19,Vrouw,Rechts,1,
,xotask,dotcolour,dotcolour,15,3,195,495,main,negativefb,-99,average,,0.6670091999999386,['n'],1,right,['8'],4,0.4165822999998454,16,,31,19,Vrouw,Rechts,1,
,xotask,dotcolour,dotcolour,16,3,196,496,main,negativefb,-99,average,,0.833932200000163,['c'],1,left,['8'],4,0.5746388000002298,60,,31,19,Vrouw,Rechts,1,
,xotask,dotcolour,dotcolour,17,3,197,497,main,negativefb,-99,easy,,0.45181430000002365,['n'],1,right,['0'],6,0.5589113000000907,6,,31,19,Vrouw,Rechts,1,
,xotask,dotcolour,dotcolour,18,3,198,498,main,negativefb,-99,hard,,0.41703119999965566,['n'],1,right,['9'],5,0.5290875000000597,29,,31,19,Vrouw,Rechts,1,
,xotask,dotcolour,dotcolour,19,3,199,499,main,negativefb,-99,average,,0.4668496999997842,['n'],1,right,['0'],6,0.5145666000003075,16,,31,19,Vrouw,Rechts,1,
,xotask,dotcolour,dotcolour,20,3,200,500,main,negativefb,-99,easy,,0.5003997999997409,['n'],1,right,['0'],6,0.5630239999995865,8,,31,19,Vrouw,Rechts,1,
,xotask,dotcolour,dotcolour,21,3,201,501,main,negativefb,-99,hard,,0.7006688999999824,['n'],1,right,['8'],4,0.6252689000002647,27,,31,19,Vrouw,Rechts,1,
,xotask,dotcolour,dotcolour,22,3,202,502,main,negativefb,-99,easy,,0.500429300000178,['c'],1,left,['9'],5,0.7571987999999692,71,,31,19,Vrouw,Rechts,1,
,xotask,dotcolour,dotcolour,23,3,203,503,main,negativefb,-99,hard,,0.5349734000001263,['n'],0,left,['8'],4,0.5710988000000725,51,,31,19,Vrouw,Rechts,1,
,xotask,dotcolour,dotcolour,24,3,204,504,main,negativefb,-99,hard,,0.5672085000001061,['c'],1,left,['9'],5,0.597610899999836,54,,31,19,Vrouw,Rechts,1,
,xotask,dotcolour,dotcolour,25,3,205,505,main,negativefb,-99,hard,,0.684519000000364,['n'],1,right,['9'],5,0.48329000000012456,29,,31,19,Vrouw,Rechts,1,
,xotask,dotcolour,dotcolour,26,3,206,506,main,negativefb,-99,hard,,0.8347940000003291,['c'],1,left,['8'],4,0.519653500000004,52,,31,19,Vrouw,Rechts,1,
,xotask,dotcolour,dotcolour,27,3,207,507,main,negativefb,-99,hard,,0.5349173999998129,['n'],1,right,['8'],4,1.1018198000001576,25,,31,19,Vrouw,Rechts,1,
,xotask,dotcolour,dotcolour,28,3,208,508,main,negativefb,-99,average,,0.634400800000094,['n'],1,right,['8'],4,0.5937674000001607,17,,31,19,Vrouw,Rechts,1,
,xotask,dotcolour,dotcolour,29,3,209,509,main,negativefb,-99,hard,,0.6502563999997619,['c'],1,left,['8'],4,0.488756100000046,54,,31,19,Vrouw,Rechts,1,
,xotask,dotcolour,dotcolour,30,3,210,510,main,negativefb,-99,hard,,0.8007963999998537,['n'],0,left,['8'],4,0.4941635000000133,50,,31,19,Vrouw,Rechts,1,
,xotask,dotcolour,dotcolour,31,3,211,511,main,negativefb,-99,easy,,0.601501499999813,['n'],1,right,['0'],6,0.563177099999848,7,,31,19,Vrouw,Rechts,1,
,xotask,dotcolour,dotcolour,32,3,212,512,main,negativefb,-99,average,,0.850746000000072,['n'],0,left,['8'],4,0.38823329999968337,63,,31,19,Vrouw,Rechts,1,
,xotask,dotcolour,dotcolour,33,3,213,513,main,negativefb,-99,average,,0.534631200000149,['n'],1,right,['9'],5,0.6637515000002168,18,,31,19,Vrouw,Rechts,1,
,xotask,dotcolour,dotcolour,34,3,214,514,main,negativefb,-99,hard,,0.7186297000002924,['c'],1,left,['9'],5,0.41053450000026714,53,,31,19,Vrouw,Rechts,1,
,xotask,dotcolour,dotcolour,35,3,215,515,main,negativefb,-99,easy,,0.48466389999975945,['n'],1,right,['0'],6,0.5911850000002232,6,,31,19,Vrouw,Rechts,1,
,xotask,dotcolour,dotcolour,36,3,216,516,main,negativefb,-99,average,,0.8686009000002741,['c'],1,left,['8'],4,0.5103417999998783,62,,31,19,Vrouw,Rechts,1,
,xotask,dotcolour,dotcolour,37,3,217,517,main,negativefb,-99,average,,1.001544400000057,['c'],1,left,['8'],4,0.5068151000000398,60,,31,19,Vrouw,Rechts,1,
,xotask,dotcolour,dotcolour,38,3,218,518,main,negativefb,-99,average,,0.6175779999998667,['n'],1,right,['9'],5,0.6388492999999471,17,,31,19,Vrouw,Rechts,1,
,xotask,dotcolour,dotcolour,39,3,219,519,main,negativefb,-99,average,,0.7838942000003044,['n'],1,right,['0'],6,0.8870007000000442,15,,31,19,Vrouw,Rechts,1,
,xotask,dotcolour,dotcolour,40,3,220,520,main,negativefb,-99,hard,,0.43504319999965446,['n'],1,right,['9'],5,0.5151065000000017,25,,31,19,Vrouw,Rechts,1,
,xotask,dotcolour,dotcolour,41,3,221,521,main,negativefb,-99,hard,,0.4681977000000188,['n'],1,right,['9'],5,0.5324433999999201,25,,31,19,Vrouw,Rechts,1,
,xotask,dotcolour,dotcolour,42,3,222,522,main,negativefb,-99,easy,,0.6848275999996076,['n'],1,right,['9'],5,0.5800693999999567,5,,31,19,Vrouw,Rechts,1,
,xotask,dotcolour,dotcolour,43,3,223,523,main,negativefb,-99,average,,0.6176039000001765,['c'],1,left,['8'],4,0.4943539000000783,62,,31,19,Vrouw,Rechts,1,
,xotask,dotcolour,dotcolour,44,3,224,524,main,negativefb,-99,average,,0.5670026000002508,['n'],1,right,['9'],5,0.4121377000001303,19,,31,19,Vrouw,Rechts,1,
,xotask,dotcolour,dotcolour,45,3,225,525,main,negativefb,-99,easy,,0.5672300999999607,['c'],1,left,['9'],5,0.4781724999998005,70,,31,19,Vrouw,Rechts,1,
,xotask,dotcolour,dotcolour,46,3,226,526,main,negativefb,-99,easy,,0.5342421999998805,['n'],1,right,['9'],5,0.3829258000000664,6,,31,19,Vrouw,Rechts,1,
,xotask,dotcolour,dotcolour,47,3,227,527,main,negativefb,-99,hard,,0.6002545999999711,['n'],0,left,['9'],5,0.40035360000001674,52,,31,19,Vrouw,Rechts,1,
,xotask,dotcolour,dotcolour,48,3,228,528,main,negativefb,-99,average,,0.6672607999998945,['c'],1,left,['8'],4,0.39090580000038244,62,,31,19,Vrouw,Rechts,1,
,xotask,dotcolour,dotcolour,49,3,229,529,main,negativefb,-99,easy,,0.6505088999997497,['n'],0,left,['1'],1,1.0850939000001745,72,,31,19,Vrouw,Rechts,1,
,xotask,dotcolour,dotcolour,50,3,230,530,main,negativefb,-99,average,,0.7174752999999328,['n'],1,right,['0'],6,0.5190718000003471,16,,31,19,Vrouw,Rechts,1,
,xotask,dotcolour,dotcolour,51,3,231,531,main,negativefb,-99,easy,,0.46709180000016204,['n'],1,right,['0'],6,0.5595365999997739,6,,31,19,Vrouw,Rechts,1,
,xotask,dotcolour,dotcolour,52,3,232,532,main,negativefb,-99,hard,,0.5669445000003179,['n'],1,right,['9'],5,0.396152599999823,26,,31,19,Vrouw,Rechts,1,
,xotask,dotcolour,dotcolour,53,3,233,533,main,negativefb,-99,easy,,0.6503546000003553,['c'],1,left,['8'],4,0.4037948000000142,72,,31,19,Vrouw,Rechts,1,
,xotask,dotcolour,dotcolour,54,3,234,534,main,negativefb,-99,easy,,0.6497948999999608,['c'],1,left,['9'],5,0.3054055000002336,74,,31,19,Vrouw,Rechts,1,
,xotask,dotcolour,dotcolour,55,3,235,535,main,negativefb,-99,average,,0.7670164000001023,['c'],1,left,['9'],5,0.34372050000001764,64,,31,19,Vrouw,Rechts,1,
,xotask,dotcolour,dotcolour,56,3,236,536,main,negativefb,-99,easy,,0.6001830999998674,['c'],1,left,['9'],5,0.4028238999999303,72,,31,19,Vrouw,Rechts,1,
,xotask,dotcolour,dotcolour,57,3,237,537,main,negativefb,-99,easy,,0.6169892000002619,['c'],1,left,['9'],5,0.3474909999999909,70,,31,19,Vrouw,Rechts,1,
,xotask,dotcolour,dotcolour,58,3,238,538,main,negativefb,-99,hard,,0.5837948999997025,['c'],1,left,['8'],4,0.2943782000002102,53,,31,19,Vrouw,Rechts,1,
,xotask,dotcolour,dotcolour,59,3,239,539,main,negativefb,-99,average,,0.6006490999998277,['c'],0,right,['1'],1,0.867439000000104,16,,31,19,Vrouw,Rechts,1,
,xotask,dotcolour,dotcolour,0,4,240,540,main,negativefb,-99,easy,,1.6346291999998357,['n'],1,right,['8'],4,1.8682637000001705,6,,31,19,Vrouw,Rechts,1,
,xotask,dotcolour,dotcolour,1,4,241,541,main,negativefb,-99,easy,,0.6180039000000761,['c'],1,left,['9'],5,0.4177575000003344,72,,31,19,Vrouw,Rechts,1,
,xotask,dotcolour,dotcolour,2,4,242,542,main,negativefb,-99,hard,,0.6676714999998694,['c'],0,right,['1'],1,1.5512691000003542,29,,31,19,Vrouw,Rechts,1,
,xotask,dotcolour,dotcolour,3,4,243,543,main,negativefb,-99,easy,,0.6346045999998751,['n'],0,left,['1'],1,0.9127588999999716,74,,31,19,Vrouw,Rechts,1,
,xotask,dotcolour,dotcolour,4,4,244,544,main,negativefb,-99,hard,,0.7506459000001087,['c'],1,left,['8'],4,0.3437795999998343,54,,31,19,Vrouw,Rechts,1,
,xotask,dotcolour,dotcolour,5,4,245,545,main,negativefb,-99,average,,0.9171445000001768,['c'],1,left,['8'],4,0.8297732000000906,63,,31,19,Vrouw,Rechts,1,
,xotask,dotcolour,dotcolour,6,4,246,546,main,negativefb,-99,easy,,0.48430969999981244,['n'],1,right,['9'],5,0.41075039999986984,9,,31,19,Vrouw,Rechts,1,
,xotask,dotcolour,dotcolour,7,4,247,547,main,negativefb,-99,easy,,0.7178997000000891,['c'],1,left,['9'],5,0.39092680000021574,70,,31,19,Vrouw,Rechts,1,
,xotask,dotcolour,dotcolour,8,4,248,548,main,negativefb,-99,average,,0.9675274000001082,['n'],1,right,['9'],5,0.6094496000000618,18,,31,19,Vrouw,Rechts,1,
,xotask,dotcolour,dotcolour,9,4,249,549,main,negativefb,-99,hard,,0.7678587999998854,['n'],0,left,['8'],4,0.39541849999977785,50,,31,19,Vrouw,Rechts,1,
,xotask,dotcolour,dotcolour,10,4,250,550,main,negativefb,-99,average,,0.6340955000000577,['n'],1,right,['8'],4,0.5716116999997212,19,,31,19,Vrouw,Rechts,1,
,xotask,dotcolour,dotcolour,11,4,251,551,main,negativefb,-99,average,,0.5005291000002217,['n'],1,right,['9'],5,0.4012582000000293,18,,31,19,Vrouw,Rechts,1,
,xotask,dotcolour,dotcolour,12,4,252,552,main,negativefb,-99,easy,,0.534123400000226,['c'],1,left,['9'],5,0.5330208999998831,72,,31,19,Vrouw,Rechts,1,
,xotask,dotcolour,dotcolour,13,4,253,553,main,negativefb,-99,average,,0.6347313999999642,['c'],1,left,['8'],4,0.4945236000003206,64,,31,19,Vrouw,Rechts,1,
,xotask,dotcolour,dotcolour,14,4,254,554,main,negativefb,-99,average,,0.9352600000001985,['c'],0,right,['8'],4,0.35056170000007114,18,,31,19,Vrouw,Rechts,1,
,xotask,dotcolour,dotcolour,15,4,255,555,main,negativefb,-99,hard,,0.6008615999999165,['n'],0,left,['9'],5,0.40948019999996177,52,,31,19,Vrouw,Rechts,1,
,xotask,dotcolour,dotcolour,16,4,256,556,main,negativefb,-99,easy,,0.6673596999999063,['c'],1,left,['8'],4,0.29574619999993956,72,,31,19,Vrouw,Rechts,1,
,xotask,dotcolour,dotcolour,17,4,257,557,main,negativefb,-99,easy,,0.6168754000000263,['c'],1,left,['8'],4,0.32383340000023964,70,,31,19,Vrouw,Rechts,1,
,xotask,dotcolour,dotcolour,18,4,258,558,main,negativefb,-99,easy,,0.7346431999999368,['n'],1,right,['9'],5,0.3785843999999088,6,,31,19,Vrouw,Rechts,1,
,xotask,dotcolour,dotcolour,19,4,259,559,main,negativefb,-99,average,,0.6342839999997523,['c'],1,left,['8'],4,0.38726320000023406,61,,31,19,Vrouw,Rechts,1,
,xotask,dotcolour,dotcolour,20,4,260,560,main,negativefb,-99,hard,,1.5507751999998618,['n'],1,right,['9'],5,0.7189522000003308,27,,31,19,Vrouw,Rechts,1,
,xotask,dotcolour,dotcolour,21,4,261,561,main,negativefb,-99,average,,0.9007778999998663,['c'],1,left,['9'],5,0.9263747999998486,60,,31,19,Vrouw,Rechts,1,
,xotask,dotcolour,dotcolour,22,4,262,562,main,negativefb,-99,easy,,0.4505039000000579,['n'],1,right,['0'],6,0.5130877999999939,8,,31,19,Vrouw,Rechts,1,
,xotask,dotcolour,dotcolour,23,4,263,563,main,negativefb,-99,average,,1.1171058999998422,['n'],1,right,['0'],6,0.4171806999997898,16,,31,19,Vrouw,Rechts,1,
,xotask,dotcolour,dotcolour,24,4,264,564,main,negativefb,-99,hard,,0.784269900000254,['n'],0,left,['3'],3,1.8177881999999954,51,,31,19,Vrouw,Rechts,1,
,xotask,dotcolour,dotcolour,25,4,265,565,main,negativefb,-99,average,,0.5518412999999782,['n'],1,right,['9'],5,0.5239455999999336,19,,31,19,Vrouw,Rechts,1,
,xotask,dotcolour,dotcolour,26,4,266,566,main,negativefb,-99,hard,,0.5012886999998045,['n'],1,right,['8'],4,0.4433356999998068,27,,31,19,Vrouw,Rechts,1,
,xotask,dotcolour,dotcolour,27,4,267,567,main,negativefb,-99,average,,0.6343179000000418,['c'],1,left,['8'],4,0.3693739000000278,63,,31,19,Vrouw,Rechts,1,
,xotask,dotcolour,dotcolour,28,4,268,568,main,negativefb,-99,average,,1.6845414999997956,['c'],1,left,['8'],4,0.3923493000002054,64,,31,19,Vrouw,Rechts,1,
,xotask,dotcolour,dotcolour,29,4,269,569,main,negativefb,-99,hard,,0.9844131999998353,['c'],1,left,['8'],4,0.45042670000020735,50,,31,19,Vrouw,Rechts,1,
,xotask,dotcolour,dotcolour,30,4,270,570,main,negativefb,-99,average,,0.7496264000001247,['c'],1,left,['9'],5,0.36263259999986985,63,,31,19,Vrouw,Rechts,1,
,xotask,dotcolour,dotcolour,31,4,271,571,main,negativefb,-99,easy,,0.5847316999997929,['c'],1,left,['9'],5,0.38238629999978,74,,31,19,Vrouw,Rechts,1,
,xotask,dotcolour,dotcolour,32,4,272,572,main,negativefb,-99,easy,,0.5844139999999243,['n'],1,right,['9'],5,0.368192800000088,9,,31,19,Vrouw,Rechts,1,
,xotask,dotcolour,dotcolour,33,4,273,573,main,negativefb,-99,hard,,1.0673117000001184,['n'],1,right,['9'],5,0.359212800000023,29,,31,19,Vrouw,Rechts,1,
,xotask,dotcolour,dotcolour,34,4,274,574,main,negativefb,-99,average,,0.5343707000001814,['c'],1,left,['9'],5,0.4207323999999062,60,,31,19,Vrouw,Rechts,1,
,xotask,dotcolour,dotcolour,35,4,275,575,main,negativefb,-99,average,,0.583403200000248,['n'],0,left,['1'],1,1.189198199999737,60,,31,19,Vrouw,Rechts,1,
,xotask,dotcolour,dotcolour,36,4,276,576,main,negativefb,-99,hard,,1.9678970999998455,['c'],0,right,['8'],4,0.7759172999999464,25,,31,19,Vrouw,Rechts,1,
,xotask,dotcolour,dotcolour,37,4,277,577,main,negativefb,-99,average,,0.8174269000001004,['c'],1,left,['8'],4,0.5859755999999834,60,,31,19,Vrouw,Rechts,1,
,xotask,dotcolour,dotcolour,38,4,278,578,main,negativefb,-99,easy,,0.5668413999997028,['n'],1,right,['9'],5,0.4363933999998153,7,,31,19,Vrouw,Rechts,1,
,xotask,dotcolour,dotcolour,39,4,279,579,main,negativefb,-99,hard,,0.5341935999999805,['n'],1,right,['9'],5,0.3984645999998975,25,,31,19,Vrouw,Rechts,1,
,xotask,dotcolour,dotcolour,40,4,280,580,main,negativefb,-99,hard,,0.5677851000000373,['c'],1,left,['9'],5,0.735827099999824,53,,31,19,Vrouw,Rechts,1,
,xotask,dotcolour,dotcolour,41,4,281,581,main,negativefb,-99,hard,,0.7181491000001188,['c'],1,left,['8'],4,0.3830244999999195,52,,31,19,Vrouw,Rechts,1,
,xotask,dotcolour,dotcolour,42,4,282,582,main,negativefb,-99,hard,,0.5676782000000458,['c'],1,left,['8'],4,0.36962229999971896,52,,31,19,Vrouw,Rechts,1,
,xotask,dotcolour,dotcolour,43,4,283,583,main,negativefb,-99,easy,,0.7843503999997665,['c'],1,left,['9'],5,0.7324629999998251,72,,31,19,Vrouw,Rechts,1,
,xotask,dotcolour,dotcolour,44,4,284,584,main,negativefb,-99,average,,0.6514795000002778,['n'],1,right,['9'],5,0.45354600000018763,17,,31,19,Vrouw,Rechts,1,
,xotask,dotcolour,dotcolour,45,4,285,585,main,negativefb,-99,average,,0.43471599999975297,['n'],1,right,['9'],5,0.49098770000000513,17,,31,19,Vrouw,Rechts,1,
,xotask,dotcolour,dotcolour,46,4,286,586,main,negativefb,-99,easy,,0.7173057999998491,['n'],1,right,['9'],5,0.37153710000029605,8,,31,19,Vrouw,Rechts,1,
,xotask,dotcolour,dotcolour,47,4,287,587,main,negativefb,-99,hard,,0.8673316999997951,['n'],1,right,['9'],5,0.33923509999976886,25,,31,19,Vrouw,Rechts,1,
,xotask,dotcolour,dotcolour,48,4,288,588,main,negativefb,-99,easy,,0.7678740000001198,['c'],1,left,['8'],4,0.4878881999998157,74,,31,19,Vrouw,Rechts,1,
,xotask,dotcolour,dotcolour,49,4,289,589,main,negativefb,-99,easy,,0.8833801000000676,['n'],1,right,['9'],5,0.36150980000002164,9,,31,19,Vrouw,Rechts,1,
,xotask,dotcolour,dotcolour,50,4,290,590,main,negativefb,-99,hard,,0.8346083999999792,['n'],1,right,['9'],5,0.3552251000000979,29,,31,19,Vrouw,Rechts,1,
,xotask,dotcolour,dotcolour,51,4,291,591,main,negativefb,-99,average,,0.5517420999999558,['n'],1,right,['8'],4,0.4960792000001675,15,,31,19,Vrouw,Rechts,1,
,xotask,dotcolour,dotcolour,52,4,292,592,main,negativefb,-99,average,,0.46821540000019013,['n'],1,right,['8'],4,0.37893279999980223,19,,31,19,Vrouw,Rechts,1,
,xotask,dotcolour,dotcolour,53,4,293,593,main,negativefb,-99,easy,,0.5187301999999363,['n'],1,right,['8'],4,0.32831720000012865,6,,31,19,Vrouw,Rechts,1,
,xotask,dotcolour,dotcolour,54,4,294,594,main,negativefb,-99,hard,,0.5844653000003746,['n'],0,left,['8'],4,0.3729478999998719,51,,31,19,Vrouw,Rechts,1,
,xotask,dotcolour,dotcolour,55,4,295,595,main,negativefb,-99,easy,,0.6333650000001398,['n'],1,right,['9'],5,0.4689797000000908,6,,31,19,Vrouw,Rechts,1,
,xotask,dotcolour,dotcolour,56,4,296,596,main,negativefb,-99,easy,,0.5839670000000297,['c'],1,left,['9'],5,0.4438814000000093,72,,31,19,Vrouw,Rechts,1,
,xotask,dotcolour,dotcolour,57,4,297,597,main,negativefb,-99,hard,,0.8509523000002446,['n'],0,left,['9'],5,0.4419660000003205,52,,31,19,Vrouw,Rechts,1,
,xotask,dotcolour,dotcolour,58,4,298,598,main,negativefb,-99,hard,,0.6844381999999314,['n'],1,right,['8'],4,0.4214277000000948,27,,31,19,Vrouw,Rechts,1,
,xotask,dotcolour,dotcolour,59,4,299,599,main,negativefb,-99,hard,,0.5346423000000868,['n'],1,right,['8'],4,0.3675640999999814,27,,31,19,Vrouw,Rechts,1,
,dotcolour,dotcolour,dotcolour,0,0,0,600,training,negativefb,61,average,26,0.46775990000014644,['n'],1,right,['9'],5,0.6356980999998996,,,31,19,Vrouw,Rechts,1,
,dotcolour,dotcolour,dotcolour,1,0,1,601,training,negativefb,77,hard,44,0.6004821999999876,['c'],1,left,['8'],4,0.4027539000003344,,,31,19,Vrouw,Rechts,1,
,dotcolour,dotcolour,dotcolour,2,0,2,602,training,negativefb,86,easy,61,0.5172717999998895,['c'],1,left,['9'],5,0.4136048000000301,,,31,19,Vrouw,Rechts,1,
,dotcolour,dotcolour,dotcolour,3,0,3,603,training,negativefb,65,easy,64,0.5828507000001082,['c'],1,left,['0'],6,0.37508600000001024,,,31,19,Vrouw,Rechts,1,
,dotcolour,dotcolour,dotcolour,4,0,4,604,training,negativefb,94,average,51,0.5840084000001298,['c'],1,left,['8'],4,0.44910360000039873,,,31,19,Vrouw,Rechts,1,
,dotcolour,dotcolour,dotcolour,5,0,5,605,training,negativefb,49,average,52,0.6506067000000257,['n'],0,left,['8'],4,0.5887665999998717,,,31,19,Vrouw,Rechts,1,
,dotcolour,dotcolour,dotcolour,6,0,6,606,training,negativefb,23,average,52,0.7494542999997975,['n'],0,left,['8'],4,0.48796390000006795,,,31,19,Vrouw,Rechts,1,
,dotcolour,dotcolour,dotcolour,7,0,7,607,training,negativefb,76,average,27,0.6340312000002086,['n'],1,right,['9'],5,0.44257629999992787,,,31,19,Vrouw,Rechts,1,
,dotcolour,dotcolour,dotcolour,8,0,8,608,training,negativefb,85,average,54,0.5170850999998038,['c'],1,left,['9'],5,0.4048393000002761,,,31,19,Vrouw,Rechts,1,
,dotcolour,dotcolour,dotcolour,9,0,9,609,training,negativefb,33,average,25,0.5336081999998896,['n'],1,right,['9'],5,0.5194836000000578,,,31,19,Vrouw,Rechts,1,
,dotcolour,dotcolour,dotcolour,10,0,10,610,training,negativefb,67,hard,37,0.715964200000144,['n'],1,right,['9'],5,0.4299593000000641,,,31,19,Vrouw,Rechts,1,
,dotcolour,dotcolour,dotcolour,11,0,11,611,training,negativefb,62,hard,41,0.6160780999998678,['n'],0,left,['9'],5,0.52441140000019,,,31,19,Vrouw,Rechts,1,
,dotcolour,dotcolour,dotcolour,12,0,12,612,training,negativefb,53,easy,63,0.5841605999999047,['c'],1,left,['9'],5,0.49737420000019483,,,31,19,Vrouw,Rechts,1,
,dotcolour,dotcolour,dotcolour,13,0,13,613,training,negativefb,7,hard,42,0.5001599000001988,['n'],0,left,['8'],4,0.5059501000000637,,,31,19,Vrouw,Rechts,1,
,dotcolour,dotcolour,dotcolour,14,0,14,614,training,negativefb,86,average,53,0.5504261999999471,['c'],1,left,['9'],5,0.55166059999965,,,31,19,Vrouw,Rechts,1,
,dotcolour,dotcolour,dotcolour,15,0,15,615,training,negativefb,17,hard,44,0.6167199999999866,['n'],0,left,['8'],4,0.5292476999998144,,,31,19,Vrouw,Rechts,1,
,dotcolour,dotcolour,dotcolour,16,0,16,616,training,negativefb,77,easy,17,0.5504687000002377,['n'],1,right,['8'],4,0.5185351999998602,,,31,19,Vrouw,Rechts,1,
,dotcolour,dotcolour,dotcolour,17,0,17,617,training,negativefb,47,average,52,0.6168513000002349,['c'],1,left,['8'],4,0.4493929999998727,,,31,19,Vrouw,Rechts,1,
,dotcolour,dotcolour,dotcolour,18,0,18,618,training,negativefb,52,average,27,0.5835821999999098,['n'],1,right,['8'],4,0.424424899999849,,,31,19,Vrouw,Rechts,1,
,dotcolour,dotcolour,dotcolour,19,0,19,619,training,negativefb,74,easy,61,0.4836596999998619,['c'],1,left,['9'],5,0.46830229999977746,,,31,19,Vrouw,Rechts,1,
,dotcolour,dotcolour,dotcolour,20,0,20,620,training,negativefb,94,hard,39,0.4996054000002914,['c'],0,right,['1'],1,1.3330688000000919,,,31,19,Vrouw,Rechts,1,
,dotcolour,dotcolour,dotcolour,21,0,21,621,training,negativefb,67,hard,36,0.6347498999998606,['n'],1,right,['8'],4,0.5022994999999355,,,31,19,Vrouw,Rechts,1,
,dotcolour,dotcolour,dotcolour,22,0,22,622,training,negativefb,88,easy,65,0.5834178999998585,['c'],1,left,['9'],5,0.6427447000000939,,,31,19,Vrouw,Rechts,1,
,dotcolour,dotcolour,dotcolour,23,0,23,623,training,negativefb,56,easy,17,0.484165700000176,['n'],1,right,['0'],6,0.5261018999999578,,,31,19,Vrouw,Rechts,1,
,dotcolour,dotcolour,dotcolour,24,0,24,624,training,negativefb,51,hard,37,0.5500965000001088,['n'],1,right,['8'],4,0.4680677999999716,,,31,19,Vrouw,Rechts,1,
,dotcolour,dotcolour,dotcolour,25,0,25,625,training,negativefb,80,easy,63,0.44991110000000845,['c'],1,left,['9'],5,0.3991950999998153,,,31,19,Vrouw,Rechts,1,
,dotcolour,dotcolour,dotcolour,26,0,26,626,training,negativefb,83,easy,62,0.5842554999999265,['c'],1,left,['9'],5,0.4398527999996986,,,31,19,Vrouw,Rechts,1,
,dotcolour,dotcolour,dotcolour,27,0,27,627,training,negativefb,89,easy,18,0.41657600000007733,['n'],1,right,['0'],6,0.4781235000000379,,,31,19,Vrouw,Rechts,1,
,dotcolour,dotcolour,dotcolour,28,0,28,628,training,negativefb,88,average,28,0.5161033999997926,['n'],1,right,['0'],6,0.5020638999999392,,,31,19,Vrouw,Rechts,1,
,dotcolour,dotcolour,dotcolour,29,0,29,629,training,negativefb,66,easy,15,0.4334484999999404,['n'],1,right,['0'],6,0.46515190000036455,,,31,19,Vrouw,Rechts,1,
,dotcolour,dotcolour,dotcolour,30,0,30,630,training,negativefb,75,hard,38,0.5328583000000435,['n'],1,right,['8'],4,0.4974880000004305,,,31,19,Vrouw,Rechts,1,
,dotcolour,dotcolour,dotcolour,31,0,31,631,training,negativefb,67,hard,35,0.4159586999999192,['n'],1,right,['8'],4,0.49389800000017203,,,31,19,Vrouw,Rechts,1,
,dotcolour,dotcolour,dotcolour,32,0,32,632,training,negativefb,51,average,27,0.4335633999999118,['n'],1,right,['9'],5,0.4648101000002498,,,31,19,Vrouw,Rechts,1,
,dotcolour,dotcolour,dotcolour,33,0,33,633,training,negativefb,63,easy,65,0.5499296999996659,['c'],1,left,['9'],5,0.31241129999989425,,,31,19,Vrouw,Rechts,1,
,dotcolour,dotcolour,dotcolour,34,0,34,634,training,negativefb,51,hard,41,0.6335391000002346,['c'],1,left,['3'],3,0.7863382999998976,,,31,19,Vrouw,Rechts,1,
,dotcolour,dotcolour,dotcolour,35,0,35,635,training,negativefb,32,hard,42,0.6505748000004132,['n'],0,left,['3'],3,1.0971209999997882,,,31,19,Vrouw,Rechts,1,
,dotcolour,dotcolour,dotcolour,36,0,36,636,training,negativefb,83,easy,64,1.2511475000001155,['c'],1,left,['9'],5,0.5003336999998282,,,31,19,Vrouw,Rechts,1,
,dotcolour,dotcolour,dotcolour,37,0,37,637,training,negativefb,80,easy,17,0.6175096000001759,['n'],1,right,['9'],5,0.439338200000293,,,31,19,Vrouw,Rechts,1,
,dotcolour,dotcolour,dotcolour,38,0,38,638,training,negativefb,37,hard,44,0.5345396000002438,['c'],1,left,['3'],3,0.8807464000001346,,,31,19,Vrouw,Rechts,1,
