starttime,task,fbtask,firsttask,withinblocktrial,block,withintasktrial,trial,running,feedback,fbscore,difflevel,reddots,rt,resp,cor,cresp,conf_press,cj,RTconf,n_xes,post1,post2,post3,post4,post5,stoptime,sub,age,gender,handedness,session,
1715335051,dotcolour,dotcolour,dotcolour,0,0,0,0,training,positivefb,34,average,51,1.5666858000000161,['c'],1,left,['2'],5,1.9008850000000166,,,,,,,,7,18,Vrouw,Links,2,
,dotcolour,dotcolour,dotcolour,1,0,1,1,training,positivefb,91,average,26,0.8170592999999826,['n'],1,right,['2'],5,0.8954299000000105,,,,,,,,7,18,Vrouw,Links,2,
,dotcolour,dotcolour,dotcolour,2,0,2,2,training,positivefb,72,hard,45,0.9171669000000406,['c'],1,left,['1'],6,0.5594303000000309,,,,,,,,7,18,Vrouw,Links,2,
,dotcolour,dotcolour,dotcolour,3,0,3,3,training,positivefb,97,average,29,0.7836947000000691,['n'],1,right,['2'],5,1.0580790999999863,,,,,,,,7,18,Vrouw,Links,2,
,dotcolour,dotcolour,dotcolour,4,0,4,4,training,positivefb,99,average,29,0.833820199999991,['n'],1,right,['3'],4,1.0869136000000026,,,,,,,,7,18,Vrouw,Links,2,
,dotcolour,dotcolour,dotcolour,5,0,5,5,training,positivefb,97,easy,17,0.8331147000000101,['n'],1,right,['1'],6,0.5458704999999782,,,,,,,,7,18,Vrouw,Links,2,
,dotcolour,dotcolour,dotcolour,6,0,6,6,training,positivefb,83,average,51,0.8169687999999269,['c'],1,left,['2'],5,0.78014840000003,,,,,,,,7,18,Vrouw,Links,2,
,dotcolour,dotcolour,dotcolour,7,0,7,7,training,positivefb,98,easy,62,0.8007048000000623,['c'],1,left,['1'],6,0.5414400999999316,,,,,,,,7,18,Vrouw,Links,2,
,dotcolour,dotcolour,dotcolour,8,0,8,8,training,positivefb,96,average,54,0.900353999999993,['c'],1,left,['1'],6,0.4840881000000081,,,,,,,,7,18,Vrouw,Links,2,
,dotcolour,dotcolour,dotcolour,9,0,9,9,training,positivefb,90,hard,36,0.7666641000000709,['n'],1,right,['1'],6,0.8341553000000204,,,,,,,,7,18,Vrouw,Links,2,
,dotcolour,dotcolour,dotcolour,10,0,10,10,training,positivefb,84,easy,15,0.5177510999999413,['n'],1,right,['1'],6,0.44398739999996906,,,,,,,,7,18,Vrouw,Links,2,
,dotcolour,dotcolour,dotcolour,11,0,11,11,training,positivefb,97,easy,62,0.650317599999994,['c'],1,left,['1'],6,0.5927861000000121,,,,,,,,7,18,Vrouw,Links,2,
,dotcolour,dotcolour,dotcolour,12,0,12,12,training,positivefb,96,average,26,0.6836005000000114,['n'],1,right,['1'],6,0.4302179000000024,,,,,,,,7,18,Vrouw,Links,2,
,dotcolour,dotcolour,dotcolour,13,0,13,13,training,positivefb,71,hard,35,1.5508697999999868,['c'],0,right,['3'],4,0.9755705000000034,,,,,,,,7,18,Vrouw,Links,2,
,dotcolour,dotcolour,dotcolour,14,0,14,14,training,positivefb,93,easy,64,0.6828890000000456,['c'],1,left,['1'],6,0.41333669999994527,,,,,,,,7,18,Vrouw,Links,2,
,dotcolour,dotcolour,dotcolour,15,0,15,15,training,positivefb,99,easy,62,0.5000191000000314,['c'],1,left,['1'],6,0.513375099999962,,,,,,,,7,18,Vrouw,Links,2,
,dotcolour,dotcolour,dotcolour,16,0,16,16,training,positivefb,99,average,55,0.5177609999999504,['c'],1,left,['1'],6,0.5687679999999773,,,,,,,,7,18,Vrouw,Links,2,
,dotcolour,dotcolour,dotcolour,17,0,17,17,training,positivefb,96,easy,63,0.616913600000089,['c'],1,left,['1'],6,0.32141089999993255,,,,,,,,7,18,Vrouw,Links,2,
,dotcolour,dotcolour,dotcolour,18,0,18,18,training,positivefb,91,easy,19,0.6509287000000086,['n'],1,right,['1'],6,0.3865500999999085,,,,,,,,7,18,Vrouw,Links,2,
,dotcolour,dotcolour,dotcolour,19,0,19,19,training,positivefb,92,hard,43,2.0837618999998995,['n'],0,left,['3'],4,0.4481203999999934,,,,,,,,7,18,Vrouw,Links,2,
,dotcolour,dotcolour,dotcolour,20,0,20,20,training,positivefb,99,easy,18,0.683487600000035,['n'],1,right,['1'],6,0.37927270000000135,,,,,,,,7,18,Vrouw,Links,2,
,dotcolour,dotcolour,dotcolour,21,0,21,21,training,positivefb,49,average,53,1.366595699999948,['c'],1,left,['2'],5,0.654043999999999,,,,,,,,7,18,Vrouw,Links,2,
,dotcolour,dotcolour,dotcolour,22,0,22,22,training,positivefb,99,average,55,0.7510055000000193,['c'],1,left,['2'],5,0.5898816000000124,,,,,,,,7,18,Vrouw,Links,2,
,dotcolour,dotcolour,dotcolour,23,0,23,23,training,positivefb,96,easy,17,0.6494238000000223,['n'],1,right,['1'],6,0.3008524999999054,,,,,,,,7,18,Vrouw,Links,2,
,dotcolour,dotcolour,dotcolour,24,0,24,24,training,positivefb,98,average,55,0.7005015000000867,['c'],1,left,['1'],6,0.42876779999994596,,,,,,,,7,18,Vrouw,Links,2,
,dotcolour,dotcolour,dotcolour,25,0,25,25,training,positivefb,91,easy,61,0.7500654000000395,['c'],1,left,['1'],6,0.42204960000003666,,,,,,,,7,18,Vrouw,Links,2,
,dotcolour,dotcolour,dotcolour,26,0,26,26,training,positivefb,97,hard,35,0.6008864000000358,['n'],1,right,['1'],6,0.3254730999999538,,,,,,,,7,18,Vrouw,Links,2,
,dotcolour,dotcolour,dotcolour,27,0,27,27,training,positivefb,81,average,25,0.6664778999999044,['n'],1,right,['1'],6,0.3500738000000183,,,,,,,,7,18,Vrouw,Links,2,
,dotcolour,dotcolour,dotcolour,28,0,28,28,training,positivefb,99,hard,44,0.6503790000000436,['c'],1,left,['2'],5,0.5260577000000239,,,,,,,,7,18,Vrouw,Links,2,
,dotcolour,dotcolour,dotcolour,29,0,29,29,training,positivefb,92,hard,43,1.1179473000000826,['c'],1,left,['2'],5,0.5641127999999753,,,,,,,,7,18,Vrouw,Links,2,
,dotcolour,dotcolour,dotcolour,30,0,30,30,training,positivefb,88,average,54,0.6338091999999733,['c'],1,left,['2'],5,0.6282820999999785,,,,,,,,7,18,Vrouw,Links,2,
,dotcolour,dotcolour,dotcolour,31,0,31,31,training,positivefb,99,average,53,0.6838725000000068,['c'],1,left,['1'],6,0.3200388999999859,,,,,,,,7,18,Vrouw,Links,2,
,dotcolour,dotcolour,dotcolour,32,0,32,32,training,positivefb,100,hard,37,0.7506078000000116,['n'],1,right,['1'],6,0.6107657999999674,,,,,,,,7,18,Vrouw,Links,2,
,dotcolour,dotcolour,dotcolour,33,0,33,33,training,positivefb,97,hard,41,1.1310961000000361,['n'],0,left,['3'],4,0.5161325000000261,,,,,,,,7,18,Vrouw,Links,2,
,dotcolour,dotcolour,dotcolour,34,0,34,34,training,positivefb,35,easy,19,0.6337492000000111,['c'],0,right,['1'],6,0.5815892000000531,,,,,,,,7,18,Vrouw,Links,2,
,dotcolour,dotcolour,dotcolour,35,0,35,35,training,positivefb,95,hard,39,1.616924299999937,['n'],1,right,['3'],4,0.6294718999999986,,,,,,,,7,18,Vrouw,Links,2,
,dotcolour,dotcolour,dotcolour,36,0,36,36,training,positivefb,71,average,28,1.0674890000000232,['n'],1,right,['2'],5,0.3942474000000402,,,,,,,,7,18,Vrouw,Links,2,
,dotcolour,dotcolour,dotcolour,37,0,37,37,training,positivefb,92,hard,36,1.06747079999991,['n'],1,right,['2'],5,0.3442156999999497,,,,,,,,7,18,Vrouw,Links,2,
,dotcolour,dotcolour,dotcolour,38,0,38,38,training,positivefb,83,hard,45,1.8343481999999085,['c'],1,left,['2'],5,0.7135842999999795,,,,,,,,7,18,Vrouw,Links,2,
,dotcolour,dotcolour,dotcolour,39,0,39,39,training,positivefb,98,average,26,0.7177083999999923,['n'],1,right,['1'],6,0.4640763000001016,,,,,,,,7,18,Vrouw,Links,2,
,dotcolour,dotcolour,dotcolour,40,0,40,40,training,positivefb,28,hard,41,1.0006993000000648,['n'],0,left,['2'],5,0.5297614999999496,,,,,,,,7,18,Vrouw,Links,2,
,dotcolour,dotcolour,dotcolour,41,0,41,41,training,positivefb,78,hard,38,1.3332396999999219,['n'],1,right,['3'],4,0.4846731999999747,,,,,,,,7,18,Vrouw,Links,2,
,dotcolour,dotcolour,dotcolour,42,0,42,42,training,positivefb,68,average,28,0.645212000000015,['n'],1,right,['2'],5,0.46140649999995276,,,,,,,,7,18,Vrouw,Links,2,
,dotcolour,dotcolour,dotcolour,43,0,43,43,training,positivefb,88,easy,61,1.0833830999999918,['c'],1,left,['1'],6,0.3915354999999181,,,,,,,,7,18,Vrouw,Links,2,
,dotcolour,dotcolour,dotcolour,44,0,44,44,training,positivefb,90,easy,15,0.6839876999999888,['n'],1,right,['1'],6,0.2768419000000222,,,,,,,,7,18,Vrouw,Links,2,
,dotcolour,dotcolour,dotcolour,45,0,45,45,training,positivefb,98,easy,19,0.5996429000000489,['n'],1,right,['1'],6,0.3140379999999823,,,,,,,,7,18,Vrouw,Links,2,
,dotcolour,dotcolour,dotcolour,46,0,46,46,training,positivefb,90,easy,65,0.7331840000000511,['c'],1,left,['1'],6,0.848953100000017,,,,,,,,7,18,Vrouw,Links,2,
,dotcolour,dotcolour,dotcolour,47,0,47,47,training,positivefb,67,hard,41,0.7835868000000801,['n'],0,left,['3'],4,0.5755584999999428,,,,,,,,7,18,Vrouw,Links,2,
,dotcolour,dotcolour,dotcolour,48,0,48,48,training,positivefb,78,hard,39,1.7826683000000685,['c'],0,right,['2'],5,0.9054393000000118,,,,,,,,7,18,Vrouw,Links,2,
,dotcolour,dotcolour,dotcolour,49,0,49,49,training,positivefb,94,easy,17,0.6842838000000029,['n'],1,right,['1'],6,0.21005899999988742,,,,,,,,7,18,Vrouw,Links,2,
,dotcolour,dotcolour,dotcolour,50,0,50,50,training,positivefb,93,hard,43,1.316928300000086,['c'],1,left,['3'],4,0.5174753999999666,,,,,,,,7,18,Vrouw,Links,2,
,dotcolour,dotcolour,dotcolour,51,0,51,51,training,positivefb,93,average,52,1.633527000000072,['c'],1,left,['2'],5,0.7675559000000476,,,,,,,,7,18,Vrouw,Links,2,
,dotcolour,dotcolour,dotcolour,52,0,52,52,training,positivefb,95,average,27,0.6002783999999792,['n'],1,right,['1'],6,0.2884189000000106,,,,,,,,7,18,Vrouw,Links,2,
,dotcolour,dotcolour,dotcolour,53,0,53,53,training,positivefb,98,easy,18,0.5324046000000635,['n'],1,right,['1'],6,0.18405719999998382,,,,,,,,7,18,Vrouw,Links,2,
,dotcolour,dotcolour,dotcolour,54,0,54,54,training,positivefb,86,hard,45,0.8168102000000772,['n'],0,left,['1'],6,1.2161551000000372,,,,,,,,7,18,Vrouw,Links,2,
,dotcolour,dotcolour,dotcolour,55,0,55,55,training,positivefb,91,hard,38,1.100691999999981,['n'],1,right,['1'],6,0.29943180000009306,,,,,,,,7,18,Vrouw,Links,2,
,dotcolour,dotcolour,dotcolour,56,0,56,56,training,positivefb,98,easy,62,1.1000362999999425,['c'],1,left,['2'],5,0.4354690000000119,,,,,,,,7,18,Vrouw,Links,2,
,dotcolour,dotcolour,dotcolour,57,0,57,57,training,positivefb,96,average,29,0.6501668000000791,['n'],1,right,['1'],6,0.24818779999998242,,,,,,,,7,18,Vrouw,Links,2,
,dotcolour,dotcolour,dotcolour,58,0,58,58,training,positivefb,95,easy,63,0.8345281999999088,['c'],1,left,['1'],6,0.3327368000000206,,,,,,,,7,18,Vrouw,Links,2,
,dotcolour,dotcolour,dotcolour,59,0,59,59,training,positivefb,88,hard,37,0.8340530000000399,['n'],1,right,['1'],6,0.43018480000000636,,,,,,,,7,18,Vrouw,Links,2,
,dotcolour,dotcolour,dotcolour,0,1,60,60,training,positivefb,98,average,53,1.1999425999999858,['c'],1,left,['3'],4,0.633829799999944,,,,,,,,7,18,Vrouw,Links,2,
,dotcolour,dotcolour,dotcolour,1,1,61,61,training,positivefb,98,average,27,0.750328300000092,['n'],1,right,['1'],6,0.3789792000000034,,,,,,,,7,18,Vrouw,Links,2,
,dotcolour,dotcolour,dotcolour,2,1,62,62,training,positivefb,94,hard,45,0.9167376999999988,['c'],1,left,['2'],5,0.5434516999999914,,,,,,,,7,18,Vrouw,Links,2,
,dotcolour,dotcolour,dotcolour,3,1,63,63,training,positivefb,93,hard,45,0.9678972000000385,['c'],1,left,['1'],6,0.4353718999999501,,,,,,,,7,18,Vrouw,Links,2,
,dotcolour,dotcolour,dotcolour,4,1,64,64,training,positivefb,92,hard,36,0.6336611000000403,['n'],1,right,['1'],6,0.27284500000007483,,,,,,,,7,18,Vrouw,Links,2,
,dotcolour,dotcolour,dotcolour,5,1,65,65,training,positivefb,92,average,26,0.5169675999999299,['n'],1,right,['1'],6,0.16953479999995125,,,,,,,,7,18,Vrouw,Links,2,
,dotcolour,dotcolour,dotcolour,6,1,66,66,training,positivefb,93,easy,19,0.46673440000006394,['n'],1,right,['1'],6,0.1521864999999707,,,,,,,,7,18,Vrouw,Links,2,
,dotcolour,dotcolour,dotcolour,7,1,67,67,training,positivefb,92,average,51,0.9838979999999538,['c'],1,left,['2'],5,0.7231731000000536,,,,,,,,7,18,Vrouw,Links,2,
,dotcolour,dotcolour,dotcolour,8,1,68,68,training,positivefb,96,easy,61,0.600897400000008,['c'],1,left,['1'],6,0.238379000000009,,,,,,,,7,18,Vrouw,Links,2,
,dotcolour,dotcolour,dotcolour,9,1,69,69,training,positivefb,95,average,25,0.5327558000000181,['n'],1,right,['1'],6,0.17565160000003743,,,,,,,,7,18,Vrouw,Links,2,
,dotcolour,dotcolour,dotcolour,10,1,70,70,training,positivefb,98,hard,43,1.1669706000000133,['c'],1,left,['1'],6,0.17024539999999888,,,,,,,,7,18,Vrouw,Links,2,
,dotcolour,dotcolour,dotcolour,11,1,71,71,training,positivefb,96,average,55,0.5169081999999889,['c'],1,left,['1'],6,0.22277669999994032,,,,,,,,7,18,Vrouw,Links,2,
,dotcolour,dotcolour,dotcolour,12,1,72,72,training,positivefb,89,hard,42,1.2507636999999932,['c'],1,left,['2'],5,0.3082081999999673,,,,,,,,7,18,Vrouw,Links,2,
,dotcolour,dotcolour,dotcolour,13,1,73,73,training,positivefb,92,average,52,0.7159659999999803,['c'],1,left,['1'],6,0.16333819999999832,,,,,,,,7,18,Vrouw,Links,2,
,dotcolour,dotcolour,dotcolour,14,1,74,74,training,positivefb,95,hard,36,0.5165706999999884,['n'],1,right,['1'],6,0.13653569999996762,,,,,,,,7,18,Vrouw,Links,2,
,dotcolour,dotcolour,dotcolour,15,1,75,75,training,positivefb,95,easy,15,0.4844590000000153,['n'],1,right,['1'],6,0.1280838999999787,,,,,,,,7,18,Vrouw,Links,2,
,dotcolour,dotcolour,dotcolour,16,1,76,76,training,positivefb,94,average,26,0.4513246999999865,['n'],1,right,['1'],6,0.12059740000006514,,,,,,,,7,18,Vrouw,Links,2,
,dotcolour,dotcolour,dotcolour,17,1,77,77,training,positivefb,95,average,54,0.7669590000000426,['c'],1,left,['1'],6,0.11813899999992827,,,,,,,,7,18,Vrouw,Links,2,
,dotcolour,dotcolour,dotcolour,18,1,78,78,training,positivefb,87,average,25,0.7173592000000326,['n'],1,right,['1'],6,0.10074980000001688,,,,,,,,7,18,Vrouw,Links,2,
,dotcolour,dotcolour,dotcolour,19,1,79,79,training,positivefb,82,easy,64,0.6327932000000374,['c'],1,left,['1'],6,0.11150820000000294,,,,,,,,7,18,Vrouw,Links,2,
,dotcolour,dotcolour,dotcolour,20,1,80,80,training,positivefb,88,easy,63,0.7332681999999977,['c'],1,left,['1'],6,0.08613800000000538,,,,,,,,7,18,Vrouw,Links,2,
,dotcolour,dotcolour,dotcolour,21,1,81,81,training,positivefb,96,easy,65,0.45002230000000054,['c'],1,left,['1'],6,0.07271260000004531,,,,,,,,7,18,Vrouw,Links,2,
,dotcolour,dotcolour,dotcolour,22,1,82,82,training,positivefb,95,easy,65,0.4667748000000529,['c'],1,left,['1'],6,0.09939109999993434,,,,,,,,7,18,Vrouw,Links,2,
,dotcolour,dotcolour,dotcolour,23,1,83,83,training,positivefb,94,hard,43,1.384544099999971,['n'],0,left,['2'],5,0.11178769999992255,,,,,,,,7,18,Vrouw,Links,2,
,dotcolour,dotcolour,dotcolour,24,1,84,84,training,positivefb,95,average,51,0.5833446999999978,['c'],1,left,['1'],6,0.10068360000002485,,,,,,,,7,18,Vrouw,Links,2,
,dotcolour,dotcolour,dotcolour,25,1,85,85,training,positivefb,92,easy,18,0.5994018000000096,['n'],1,right,['1'],6,0.07274180000001707,,,,,,,,7,18,Vrouw,Links,2,
,dotcolour,dotcolour,dotcolour,26,1,86,86,training,positivefb,92,average,55,0.9177908000000343,['c'],1,left,['1'],6,0.07344820000002983,,,,,,,,7,18,Vrouw,Links,2,
,dotcolour,dotcolour,dotcolour,27,1,87,87,training,positivefb,90,hard,35,1.1172661000000517,['n'],1,right,['1'],6,0.04990399999996953,,,,,,,,7,18,Vrouw,Links,2,
,dotcolour,dotcolour,dotcolour,28,1,88,88,training,positivefb,97,easy,15,0.5659999000000653,['n'],1,right,['1'],6,0.06545280000000275,,,,,,,,7,18,Vrouw,Links,2,
,dotcolour,dotcolour,dotcolour,29,1,89,89,training,positivefb,90,hard,42,1.2175343000000112,['n'],0,left,['2'],5,0.1900353000000905,,,,,,,,7,18,Vrouw,Links,2,
,dotcolour,dotcolour,dotcolour,30,1,90,90,training,positivefb,85,hard,43,1.2342225999999528,['n'],0,left,['2'],5,0.3411879999999883,,,,,,,,7,18,Vrouw,Links,2,
,dotcolour,dotcolour,dotcolour,31,1,91,91,training,positivefb,82,hard,39,1.5655607999999575,['n'],1,right,['2'],5,0.1287132999999585,,,,,,,,7,18,Vrouw,Links,2,
,dotcolour,dotcolour,dotcolour,32,1,92,92,training,positivefb,91,average,25,0.5326464000000897,['n'],1,right,['1'],6,0.07822650000002795,,,,,,,,7,18,Vrouw,Links,2,
,dotcolour,dotcolour,dotcolour,33,1,93,93,training,positivefb,92,easy,16,0.43287949999989905,['n'],1,right,['1'],6,0.12357750000001033,,,,,,,,7,18,Vrouw,Links,2,
,dotcolour,dotcolour,dotcolour,34,1,94,94,training,positivefb,92,average,26,0.41613859999995384,['n'],1,right,['1'],6,0.15796199999999772,,,,,,,,7,18,Vrouw,Links,2,
,dotcolour,dotcolour,dotcolour,35,1,95,95,training,positivefb,75,hard,45,1.1513074999999162,['n'],0,left,['3'],4,0.20214789999999994,,,,,,,,7,18,Vrouw,Links,2,
,dotcolour,dotcolour,dotcolour,36,1,96,96,training,positivefb,98,easy,17,0.4494990000000598,['n'],1,right,['1'],6,0.08014769999999771,,,,,,,,7,18,Vrouw,Links,2,
,dotcolour,dotcolour,dotcolour,37,1,97,97,training,positivefb,97,average,26,0.4004175000000032,['n'],1,right,['1'],6,0.013429800000039904,,,,,,,,7,18,Vrouw,Links,2,
,dotcolour,dotcolour,dotcolour,38,1,98,98,training,positivefb,91,easy,62,0.9822973999999931,['c'],1,left,['1'],6,0.08556399999997666,,,,,,,,7,18,Vrouw,Links,2,
,dotcolour,dotcolour,dotcolour,39,1,99,99,training,positivefb,93,average,29,0.6998006000000032,['n'],1,right,['1'],6,0.03872420000004695,,,,,,,,7,18,Vrouw,Links,2,
,dotcolour,dotcolour,dotcolour,40,1,100,100,training,positivefb,93,hard,35,0.6158680999999433,['n'],1,right,['1'],6,0.01270780000004379,,,,,,,,7,18,Vrouw,Links,2,
,dotcolour,dotcolour,dotcolour,41,1,101,101,training,positivefb,85,average,52,0.6509466999999631,['c'],1,left,['1'],6,0.09020220000002155,,,,,,,,7,18,Vrouw,Links,2,
,dotcolour,dotcolour,dotcolour,42,1,102,102,training,positivefb,91,hard,37,1.933147100000042,['n'],1,right,['1'],6,0.0892514999999321,,,,,,,,7,18,Vrouw,Links,2,
,dotcolour,dotcolour,dotcolour,43,1,103,103,training,positivefb,94,easy,61,0.6000434999999698,['c'],1,left,['1'],6,0.006570799999963128,,,,,,,,7,18,Vrouw,Links,2,
,dotcolour,dotcolour,dotcolour,44,1,104,104,training,positivefb,95,easy,17,0.5670166999999537,['n'],1,right,['1'],6,0.007573699999966266,,,,,,,,7,18,Vrouw,Links,2,
,dotcolour,dotcolour,dotcolour,45,1,105,105,training,positivefb,91,hard,36,0.8329416999999921,['n'],1,right,['1'],6,0.06301640000003772,,,,,,,,7,18,Vrouw,Links,2,
,dotcolour,dotcolour,dotcolour,46,1,106,106,training,positivefb,96,easy,15,0.501463000000058,['n'],1,right,['1'],6,0.0727031999999781,,,,,,,,7,18,Vrouw,Links,2,
,dotcolour,dotcolour,dotcolour,47,1,107,107,training,positivefb,94,easy,65,0.6169564000000491,['c'],1,left,['1'],6,0.0693913000000066,,,,,,,,7,18,Vrouw,Links,2,
,dotcolour,dotcolour,dotcolour,48,1,108,108,training,positivefb,100,average,55,0.6839075000000321,['c'],1,left,['1'],6,1.086905999999999,,,,,,,,7,18,Vrouw,Links,2,
,dotcolour,dotcolour,dotcolour,49,1,109,109,training,positivefb,91,hard,42,1.7671467999999777,['c'],1,left,['2'],5,0.7969527999999855,,,,,,,,7,18,Vrouw,Links,2,
,dotcolour,dotcolour,dotcolour,50,1,110,110,training,positivefb,94,easy,15,0.6328504000000521,['n'],1,right,['1'],6,0.06861860000003617,,,,,,,,7,18,Vrouw,Links,2,
,dotcolour,dotcolour,dotcolour,51,1,111,111,training,positivefb,96,easy,62,0.6004533000000265,['c'],1,left,['1'],6,0.02591029999996408,,,,,,,,7,18,Vrouw,Links,2,
,dotcolour,dotcolour,dotcolour,52,1,112,112,training,positivefb,94,hard,41,0.71676350000007,['n'],0,left,['1'],6,0.060509499999966465,,,,,,,,7,18,Vrouw,Links,2,
,dotcolour,dotcolour,dotcolour,53,1,113,113,training,positivefb,97,easy,64,0.5495030000000725,['c'],1,left,['1'],6,0.07682859999999891,,,,,,,,7,18,Vrouw,Links,2,
,dotcolour,dotcolour,dotcolour,54,1,114,114,training,positivefb,91,hard,35,1.0675044000000753,['n'],1,right,['1'],6,0.02247039999997469,,,,,,,,7,18,Vrouw,Links,2,
,dotcolour,dotcolour,dotcolour,55,1,115,115,training,positivefb,96,hard,37,0.566584300000045,['n'],1,right,['1'],6,0.023031899999978123,,,,,,,,7,18,Vrouw,Links,2,
,dotcolour,dotcolour,dotcolour,56,1,116,116,training,positivefb,95,average,55,0.782991700000025,['c'],1,left,['1'],6,0.04016809999995985,,,,,,,,7,18,Vrouw,Links,2,
,dotcolour,dotcolour,dotcolour,57,1,117,117,training,positivefb,94,hard,38,0.833705000000009,['n'],1,right,['1'],6,0.05331339999997908,,,,,,,,7,18,Vrouw,Links,2,
,dotcolour,dotcolour,dotcolour,58,1,118,118,training,positivefb,96,average,29,0.5179454999999962,['n'],1,right,['1'],6,0.03873409999994237,,,,,,,,7,18,Vrouw,Links,2,
,dotcolour,dotcolour,dotcolour,59,1,119,119,training,positivefb,98,easy,16,0.4837243000000626,['n'],1,right,['1'],6,0.05755409999994754,,,,,,,,7,18,Vrouw,Links,2,
,dotcolour,dotcolour,dotcolour,0,2,120,120,main,positivefb,-99,easy,65,0.7676032000000532,['n'],0,left,['1'],6,0.02995900000007623,,,,,,,,7,18,Vrouw,Links,2,
,dotcolour,dotcolour,dotcolour,1,2,121,121,main,positivefb,-99,easy,18,0.6670685999999932,['n'],1,right,['1'],6,0.01976280000008046,,,,,,,,7,18,Vrouw,Links,2,
,dotcolour,dotcolour,dotcolour,2,2,122,122,main,positivefb,-99,hard,39,1.2838504000000057,['c'],0,right,['1'],6,0.06366969999999128,,,,,,,,7,18,Vrouw,Links,2,
,dotcolour,dotcolour,dotcolour,3,2,123,123,main,positivefb,-99,easy,65,0.9841055000000551,['c'],1,left,['1'],6,0.014242400000057387,,,,,,,,7,18,Vrouw,Links,2,
,dotcolour,dotcolour,dotcolour,4,2,124,124,main,positivefb,-99,hard,37,0.6506485999999541,['n'],1,right,['1'],6,0.09348340000008193,,,,,,,,7,18,Vrouw,Links,2,
,dotcolour,dotcolour,dotcolour,5,2,125,125,main,positivefb,-99,hard,41,1.1164831999999478,['n'],0,left,['1'],6,0.013982499999997344,,,,,,,,7,18,Vrouw,Links,2,
,dotcolour,dotcolour,dotcolour,6,2,126,126,main,positivefb,-99,average,26,0.7333284000000049,['n'],1,right,['1'],6,0.10468269999989843,,,,,,,,7,18,Vrouw,Links,2,
,dotcolour,dotcolour,dotcolour,7,2,127,127,main,positivefb,-99,easy,61,0.9840765999999803,['c'],1,left,['1'],6,0.8308716999999888,,,,,,,,7,18,Vrouw,Links,2,
,dotcolour,dotcolour,dotcolour,8,2,128,128,main,positivefb,-99,hard,42,1.617311099999938,['c'],1,left,['1'],6,0.053590399999961846,,,,,,,,7,18,Vrouw,Links,2,
,dotcolour,dotcolour,dotcolour,9,2,129,129,main,positivefb,-99,easy,15,0.5834310999999843,['n'],1,right,['1'],6,0.04413320000003296,,,,,,,,7,18,Vrouw,Links,2,
,dotcolour,dotcolour,dotcolour,10,2,130,130,main,positivefb,-99,easy,19,0.5662765000000718,['n'],1,right,['1'],6,0.06195049999996627,,,,,,,,7,18,Vrouw,Links,2,
,dotcolour,dotcolour,dotcolour,11,2,131,131,main,positivefb,-99,hard,44,1.9839191999999457,['n'],0,left,['1'],6,0.1252726000000166,,,,,,,,7,18,Vrouw,Links,2,
,dotcolour,dotcolour,dotcolour,12,2,132,132,main,positivefb,-99,easy,61,0.8837429000000157,['c'],1,left,['1'],6,0.054118000000016764,,,,,,,,7,18,Vrouw,Links,2,
,dotcolour,dotcolour,dotcolour,13,2,133,133,main,positivefb,-99,average,53,0.9174857000000429,['c'],1,left,['1'],6,0.055595400000015616,,,,,,,,7,18,Vrouw,Links,2,
,dotcolour,dotcolour,dotcolour,14,2,134,134,main,positivefb,-99,hard,35,0.8001163000000133,['n'],1,right,['1'],6,0.006227999999964595,,,,,,,,7,18,Vrouw,Links,2,
,dotcolour,dotcolour,dotcolour,15,2,135,135,main,positivefb,-99,average,25,0.6997511999999233,['n'],1,right,['1'],6,0.09934280000004492,,,,,,,,7,18,Vrouw,Links,2,
,dotcolour,dotcolour,dotcolour,16,2,136,136,main,positivefb,-99,average,26,0.5001786999999922,['n'],1,right,['1'],6,0.1236761000000115,,,,,,,,7,18,Vrouw,Links,2,
,dotcolour,dotcolour,dotcolour,17,2,137,137,main,positivefb,-99,easy,65,0.7496251000000029,['c'],1,left,['1'],6,0.19410419999996975,,,,,,,,7,18,Vrouw,Links,2,
,dotcolour,dotcolour,dotcolour,18,2,138,138,main,positivefb,-99,average,52,1.5505988000001025,['c'],1,left,['1'],6,0.09353820000001178,,,,,,,,7,18,Vrouw,Links,2,
,dotcolour,dotcolour,dotcolour,19,2,139,139,main,positivefb,-99,hard,42,1.1010018000000628,['c'],1,left,['1'],6,0.1027596999999787,,,,,,,,7,18,Vrouw,Links,2,
,dotcolour,dotcolour,dotcolour,20,2,140,140,main,positivefb,-99,average,52,0.7170204999999896,['c'],1,left,['1'],6,0.13469609999992826,,,,,,,,7,18,Vrouw,Links,2,
,dotcolour,dotcolour,dotcolour,21,2,141,141,main,positivefb,-99,hard,43,2.0172725000001037,['c'],1,left,['2'],5,0.6326814999999897,,,,,,,,7,18,Vrouw,Links,2,
,dotcolour,dotcolour,dotcolour,22,2,142,142,main,positivefb,-99,average,51,0.7668160000000626,['c'],1,left,['1'],6,0.06557290000000648,,,,,,,,7,18,Vrouw,Links,2,
,dotcolour,dotcolour,dotcolour,23,2,143,143,main,positivefb,-99,average,25,0.6500298999999359,['n'],1,right,['1'],6,0.021396800000047733,,,,,,,,7,18,Vrouw,Links,2,
,dotcolour,dotcolour,dotcolour,24,2,144,144,main,positivefb,-99,hard,38,1.249674999999911,['c'],0,right,['1'],6,0.01978740000004109,,,,,,,,7,18,Vrouw,Links,2,
,dotcolour,dotcolour,dotcolour,25,2,145,145,main,positivefb,-99,easy,17,0.6664504000000306,['n'],1,right,['1'],6,0.0652341999999635,,,,,,,,7,18,Vrouw,Links,2,
,dotcolour,dotcolour,dotcolour,26,2,146,146,main,positivefb,-99,average,28,0.7336997999999539,['n'],1,right,['1'],6,0.10599569999999403,,,,,,,,7,18,Vrouw,Links,2,
,dotcolour,dotcolour,dotcolour,27,2,147,147,main,positivefb,-99,hard,38,0.7009084999999686,['n'],1,right,['1'],6,0.0343007999999827,,,,,,,,7,18,Vrouw,Links,2,
,dotcolour,dotcolour,dotcolour,28,2,148,148,main,positivefb,-99,easy,17,0.6680883000000222,['n'],1,right,['1'],6,0.06341919999999845,,,,,,,,7,18,Vrouw,Links,2,
,dotcolour,dotcolour,dotcolour,29,2,149,149,main,positivefb,-99,average,28,0.7343478000000232,['n'],1,right,['1'],6,0.11986839999997301,,,,,,,,7,18,Vrouw,Links,2,
,dotcolour,dotcolour,dotcolour,30,2,150,150,main,positivefb,-99,easy,18,0.48417219999998906,['n'],1,right,['1'],6,0.07238910000000942,,,,,,,,7,18,Vrouw,Links,2,
,dotcolour,dotcolour,dotcolour,31,2,151,151,main,positivefb,-99,easy,15,0.7001223999999411,['n'],1,right,['1'],6,0.13095339999995304,,,,,,,,7,18,Vrouw,Links,2,
,dotcolour,dotcolour,dotcolour,32,2,152,152,main,positivefb,-99,hard,43,2.3020276999999396,['c'],1,left,['2'],5,0.10669570000004569,,,,,,,,7,18,Vrouw,Links,2,
,dotcolour,dotcolour,dotcolour,33,2,153,153,main,positivefb,-99,average,51,1.4844069999999192,['c'],1,left,['2'],5,0.16439279999997325,,,,,,,,7,18,Vrouw,Links,2,
,dotcolour,dotcolour,dotcolour,34,2,154,154,main,positivefb,-99,easy,61,0.9014509999999518,['c'],1,left,['1'],6,0.13922070000000986,,,,,,,,7,18,Vrouw,Links,2,
,dotcolour,dotcolour,dotcolour,35,2,155,155,main,positivefb,-99,hard,42,0.8158407000000807,['n'],0,left,['1'],6,0.08597450000002027,,,,,,,,7,18,Vrouw,Links,2,
,dotcolour,dotcolour,dotcolour,36,2,156,156,main,positivefb,-99,average,25,0.6677108000000089,['n'],1,right,['1'],6,0.07167409999999563,,,,,,,,7,18,Vrouw,Links,2,
,dotcolour,dotcolour,dotcolour,37,2,157,157,main,positivefb,-99,average,27,0.4839400000000751,['n'],1,right,['1'],6,0.10683719999997265,,,,,,,,7,18,Vrouw,Links,2,
,dotcolour,dotcolour,dotcolour,38,2,158,158,main,positivefb,-99,easy,64,0.8004808000000594,['c'],1,left,['1'],6,0.11910090000003493,,,,,,,,7,18,Vrouw,Links,2,
,dotcolour,dotcolour,dotcolour,39,2,159,159,main,positivefb,-99,average,53,0.48456820000001244,['c'],1,left,['1'],6,0.14378720000001977,,,,,,,,7,18,Vrouw,Links,2,
,dotcolour,dotcolour,dotcolour,40,2,160,160,main,positivefb,-99,easy,16,0.5663359999999784,['n'],1,right,['1'],6,0.0451900000000478,,,,,,,,7,18,Vrouw,Links,2,
,dotcolour,dotcolour,dotcolour,41,2,161,161,main,positivefb,-99,average,53,1.4682934999999588,['c'],1,left,['2'],5,0.5133167999999841,,,,,,,,7,18,Vrouw,Links,2,
,dotcolour,dotcolour,dotcolour,42,2,162,162,main,positivefb,-99,hard,36,1.0341028000000279,['n'],1,right,['1'],6,0.07734770000001845,,,,,,,,7,18,Vrouw,Links,2,
,dotcolour,dotcolour,dotcolour,43,2,163,163,main,positivefb,-99,average,25,0.8668119999999817,['c'],0,right,['2'],5,0.14448349999997845,,,,,,,,7,18,Vrouw,Links,2,
,dotcolour,dotcolour,dotcolour,44,2,164,164,main,positivefb,-99,hard,39,0.7838844000000336,['c'],0,right,['2'],5,0.11683730000004289,,,,,,,,7,18,Vrouw,Links,2,
,dotcolour,dotcolour,dotcolour,45,2,165,165,main,positivefb,-99,average,53,1.1167242999999871,['c'],1,left,['1'],6,0.4522739000000229,,,,,,,,7,18,Vrouw,Links,2,
,dotcolour,dotcolour,dotcolour,46,2,166,166,main,positivefb,-99,average,29,0.7171796000000086,['n'],1,right,['1'],6,0.11786710000001221,,,,,,,,7,18,Vrouw,Links,2,
,dotcolour,dotcolour,dotcolour,47,2,167,167,main,positivefb,-99,average,52,0.6502502000000732,['c'],1,left,['2'],5,0.1920729000000847,,,,,,,,7,18,Vrouw,Links,2,
,dotcolour,dotcolour,dotcolour,48,2,168,168,main,positivefb,-99,easy,61,0.8175151000000369,['c'],1,left,['1'],6,0.11156989999994948,,,,,,,,7,18,Vrouw,Links,2,
,dotcolour,dotcolour,dotcolour,49,2,169,169,main,positivefb,-99,hard,41,0.3501771999999619,['c'],1,left,['1'],6,0.6074370999999701,,,,,,,,7,18,Vrouw,Links,2,
,dotcolour,dotcolour,dotcolour,50,2,170,170,main,positivefb,-99,hard,37,0.9837840000000142,['n'],1,right,['1'],6,0.10445710000010422,,,,,,,,7,18,Vrouw,Links,2,
,dotcolour,dotcolour,dotcolour,51,2,171,171,main,positivefb,-99,hard,42,2.1502557000000024,['n'],0,left,['2'],5,0.08713460000001305,,,,,,,,7,18,Vrouw,Links,2,
,dotcolour,dotcolour,dotcolour,52,2,172,172,main,positivefb,-99,easy,19,0.4660367999999835,['n'],1,right,['2'],5,0.12177589999998872,,,,,,,,7,18,Vrouw,Links,2,
,dotcolour,dotcolour,dotcolour,53,2,173,173,main,positivefb,-99,easy,64,0.717861599999992,['c'],1,left,['1'],6,0.9930069999999205,,,,,,,,7,18,Vrouw,Links,2,
,dotcolour,dotcolour,dotcolour,54,2,174,174,main,positivefb,-99,hard,41,1.566899899999953,['n'],0,left,['1'],6,0.9638307999999824,,,,,,,,7,18,Vrouw,Links,2,
,dotcolour,dotcolour,dotcolour,55,2,175,175,main,positivefb,-99,easy,15,0.8000400000000809,['n'],1,right,['1'],6,0.078505600000085,,,,,,,,7,18,Vrouw,Links,2,
,dotcolour,dotcolour,dotcolour,56,2,176,176,main,positivefb,-99,easy,65,1.3837039000000004,['c'],1,left,['1'],6,0.10915520000003198,,,,,,,,7,18,Vrouw,Links,2,
,dotcolour,dotcolour,dotcolour,57,2,177,177,main,positivefb,-99,average,53,2.617712400000073,['c'],1,left,['1'],6,0.16941739999992933,,,,,,,,7,18,Vrouw,Links,2,
,dotcolour,dotcolour,dotcolour,58,2,178,178,main,positivefb,-99,hard,38,1.0348588000000518,['n'],1,right,['1'],6,0.08986330000004727,,,,,,,,7,18,Vrouw,Links,2,
,dotcolour,dotcolour,dotcolour,59,2,179,179,main,positivefb,-99,hard,35,1.5673819999999523,['n'],1,right,['3'],4,0.35248169999999845,,,,,,,,7,18,Vrouw,Links,2,
,dotcolour,dotcolour,dotcolour,0,3,180,180,main,positivefb,-99,hard,36,1.0836592000000564,['n'],1,right,['1'],6,0.18960230000004685,,,,,,,,7,18,Vrouw,Links,2,
,dotcolour,dotcolour,dotcolour,1,3,181,181,main,positivefb,-99,average,53,0.8168771000000561,['c'],1,left,['1'],6,0.5986874999999827,,,,,,,,7,18,Vrouw,Links,2,
,dotcolour,dotcolour,dotcolour,2,3,182,182,main,positivefb,-99,average,54,0.7513968000000659,['c'],1,left,['1'],6,0.07379460000004201,,,,,,,,7,18,Vrouw,Links,2,
,dotcolour,dotcolour,dotcolour,3,3,183,183,main,positivefb,-99,easy,15,0.6836409000000003,['n'],1,right,['1'],6,0.02762119999999868,,,,,,,,7,18,Vrouw,Links,2,
,dotcolour,dotcolour,dotcolour,4,3,184,184,main,positivefb,-99,hard,41,1.017590900000073,['n'],0,left,['1'],6,0.035886799999957475,,,,,,,,7,18,Vrouw,Links,2,
,dotcolour,dotcolour,dotcolour,5,3,185,185,main,positivefb,-99,average,28,0.9165360999999166,['n'],1,right,['1'],6,0.12658429999999044,,,,,,,,7,18,Vrouw,Links,2,
,dotcolour,dotcolour,dotcolour,6,3,186,186,main,positivefb,-99,easy,17,0.6676113999999416,['n'],1,right,['1'],6,0.1111266999999998,,,,,,,,7,18,Vrouw,Links,2,
,dotcolour,dotcolour,dotcolour,7,3,187,187,main,positivefb,-99,easy,61,1.13405489999991,['c'],1,left,['1'],6,0.11021089999997002,,,,,,,,7,18,Vrouw,Links,2,
,dotcolour,dotcolour,dotcolour,8,3,188,188,main,positivefb,-99,average,51,1.3506201000000146,['c'],1,left,['1'],6,0.10963489999994636,,,,,,,,7,18,Vrouw,Links,2,
,dotcolour,dotcolour,dotcolour,9,3,189,189,main,positivefb,-99,easy,64,0.48401669999998376,['c'],1,left,['1'],6,0.1510564999999815,,,,,,,,7,18,Vrouw,Links,2,
,dotcolour,dotcolour,dotcolour,10,3,190,190,main,positivefb,-99,easy,17,0.6171525999999403,['n'],1,right,['1'],6,0.0729314999999815,,,,,,,,7,18,Vrouw,Links,2,
,dotcolour,dotcolour,dotcolour,11,3,191,191,main,positivefb,-99,hard,39,3.783587699999998,['n'],1,right,['1'],6,0.07192259999999351,,,,,,,,7,18,Vrouw,Links,2,
,dotcolour,dotcolour,dotcolour,12,3,192,192,main,positivefb,-99,hard,36,0.5340849000000389,['n'],1,right,['1'],6,0.11257089999992331,,,,,,,,7,18,Vrouw,Links,2,
,dotcolour,dotcolour,dotcolour,13,3,193,193,main,positivefb,-99,average,25,0.4833596999999372,['n'],1,right,['1'],6,0.11316520000002583,,,,,,,,7,18,Vrouw,Links,2,
,dotcolour,dotcolour,dotcolour,14,3,194,194,main,positivefb,-99,average,51,1.267307399999936,['c'],1,left,['2'],5,0.23621969999999237,,,,,,,,7,18,Vrouw,Links,2,
,dotcolour,dotcolour,dotcolour,15,3,195,195,main,positivefb,-99,easy,62,0.6838175999999976,['c'],1,left,['1'],6,0.21578439999996135,,,,,,,,7,18,Vrouw,Links,2,
,dotcolour,dotcolour,dotcolour,16,3,196,196,main,positivefb,-99,average,53,0.4501140000000987,['c'],1,left,['1'],6,0.1490191999999979,,,,,,,,7,18,Vrouw,Links,2,
,dotcolour,dotcolour,dotcolour,17,3,197,197,main,positivefb,-99,average,53,0.5175338999999894,['c'],1,left,['1'],6,0.16395639999996092,,,,,,,,7,18,Vrouw,Links,2,
,dotcolour,dotcolour,dotcolour,18,3,198,198,main,positivefb,-99,average,55,0.48370470000008936,['c'],1,left,['1'],6,0.13137639999990824,,,,,,,,7,18,Vrouw,Links,2,
,dotcolour,dotcolour,dotcolour,19,3,199,199,main,positivefb,-99,average,25,0.5837652000000162,['n'],1,right,['1'],6,0.1112046000000646,,,,,,,,7,18,Vrouw,Links,2,
,dotcolour,dotcolour,dotcolour,20,3,200,200,main,positivefb,-99,hard,37,1.1350989000000027,['c'],0,right,['1'],6,0.08618870000009338,,,,,,,,7,18,Vrouw,Links,2,
,dotcolour,dotcolour,dotcolour,21,3,201,201,main,positivefb,-99,average,55,0.7010751000000255,['c'],1,left,['1'],6,0.12060740000003989,,,,,,,,7,18,Vrouw,Links,2,
,dotcolour,dotcolour,dotcolour,22,3,202,202,main,positivefb,-99,easy,65,0.8171450000000959,['c'],1,left,['1'],6,0.08387740000000576,,,,,,,,7,18,Vrouw,Links,2,
,dotcolour,dotcolour,dotcolour,23,3,203,203,main,positivefb,-99,average,54,0.8004647999999861,['c'],1,left,['1'],6,0.10542420000001584,,,,,,,,7,18,Vrouw,Links,2,
,dotcolour,dotcolour,dotcolour,24,3,204,204,main,positivefb,-99,hard,36,0.6673670999999786,['n'],1,right,['1'],6,0.09852490000002945,,,,,,,,7,18,Vrouw,Links,2,
,dotcolour,dotcolour,dotcolour,25,3,205,205,main,positivefb,-99,hard,35,0.7677899000000252,['n'],1,right,['1'],6,0.14477420000002894,,,,,,,,7,18,Vrouw,Links,2,
,dotcolour,dotcolour,dotcolour,26,3,206,206,main,positivefb,-99,hard,42,0.5834339000000455,['n'],0,left,['1'],6,0.08442630000001827,,,,,,,,7,18,Vrouw,Links,2,
,dotcolour,dotcolour,dotcolour,27,3,207,207,main,positivefb,-99,easy,15,0.6509114000000409,['n'],1,right,['1'],6,0.1605230999999776,,,,,,,,7,18,Vrouw,Links,2,
,dotcolour,dotcolour,dotcolour,28,3,208,208,main,positivefb,-99,average,29,0.7005364000000327,['n'],1,right,['1'],6,0.0950179000000162,,,,,,,,7,18,Vrouw,Links,2,
,dotcolour,dotcolour,dotcolour,29,3,209,209,main,positivefb,-99,easy,18,0.5836766999999554,['n'],1,right,['1'],6,0.14908019999995759,,,,,,,,7,18,Vrouw,Links,2,
,dotcolour,dotcolour,dotcolour,30,3,210,210,main,positivefb,-99,easy,64,0.9848277000000962,['c'],1,left,['1'],6,0.264178099999981,,,,,,,,7,18,Vrouw,Links,2,
,dotcolour,dotcolour,dotcolour,31,3,211,211,main,positivefb,-99,hard,42,1.0668069000000742,['c'],1,left,['1'],6,0.11664649999988796,,,,,,,,7,18,Vrouw,Links,2,
,dotcolour,dotcolour,dotcolour,32,3,212,212,main,positivefb,-99,hard,45,0.9338213999999425,['c'],1,left,['1'],6,0.09822839999992539,,,,,,,,7,18,Vrouw,Links,2,
,dotcolour,dotcolour,dotcolour,33,3,213,213,main,positivefb,-99,easy,65,0.6837615000001733,['c'],1,left,['1'],6,0.060501599999952305,,,,,,,,7,18,Vrouw,Links,2,
,dotcolour,dotcolour,dotcolour,34,3,214,214,main,positivefb,-99,average,54,0.6173813999998856,['c'],1,left,['1'],6,0.1377447999998367,,,,,,,,7,18,Vrouw,Links,2,
,dotcolour,dotcolour,dotcolour,35,3,215,215,main,positivefb,-99,hard,39,1.151759299999867,['c'],0,right,['2'],5,0.12778290000005654,,,,,,,,7,18,Vrouw,Links,2,
,dotcolour,dotcolour,dotcolour,36,3,216,216,main,positivefb,-99,hard,39,1.2840243999999075,['c'],0,right,['1'],6,0.16078250000009575,,,,,,,,7,18,Vrouw,Links,2,
,dotcolour,dotcolour,dotcolour,37,3,217,217,main,positivefb,-99,easy,61,0.7173390000000381,['c'],1,left,['1'],6,1.0065427000001819,,,,,,,,7,18,Vrouw,Links,2,
,dotcolour,dotcolour,dotcolour,38,3,218,218,main,positivefb,-99,easy,16,0.5178479000001062,['n'],1,right,['1'],6,0.13792429999989508,,,,,,,,7,18,Vrouw,Links,2,
,dotcolour,dotcolour,dotcolour,39,3,219,219,main,positivefb,-99,hard,45,1.2176735999998982,['c'],1,left,['2'],5,0.30107169999996586,,,,,,,,7,18,Vrouw,Links,2,
,dotcolour,dotcolour,dotcolour,40,3,220,220,main,positivefb,-99,easy,17,0.7165288999999575,['n'],1,right,['1'],6,0.07728379999980461,,,,,,,,7,18,Vrouw,Links,2,
,dotcolour,dotcolour,dotcolour,41,3,221,221,main,positivefb,-99,hard,45,1.2339575999999397,['n'],0,left,['1'],6,0.10472230000004856,,,,,,,,7,18,Vrouw,Links,2,
,dotcolour,dotcolour,dotcolour,42,3,222,222,main,positivefb,-99,hard,44,2.5671124999998938,['c'],1,left,['2'],5,0.3198735000000852,,,,,,,,7,18,Vrouw,Links,2,
,dotcolour,dotcolour,dotcolour,43,3,223,223,main,positivefb,-99,average,25,0.5501911000001201,['n'],1,right,['1'],6,0.09393240000008518,,,,,,,,7,18,Vrouw,Links,2,
,dotcolour,dotcolour,dotcolour,44,3,224,224,main,positivefb,-99,hard,39,1.3504098999999314,['n'],1,right,['2'],5,0.20488539999996647,,,,,,,,7,18,Vrouw,Links,2,
,dotcolour,dotcolour,dotcolour,45,3,225,225,main,positivefb,-99,hard,44,1.9012532000001556,['c'],1,left,['2'],5,0.2096913999998833,,,,,,,,7,18,Vrouw,Links,2,
,dotcolour,dotcolour,dotcolour,46,3,226,226,main,positivefb,-99,average,25,0.7674556999998003,['n'],1,right,['1'],6,0.16381830000000264,,,,,,,,7,18,Vrouw,Links,2,
,dotcolour,dotcolour,dotcolour,47,3,227,227,main,positivefb,-99,average,26,0.5179373000000851,['n'],1,right,['1'],6,0.1206405000000359,,,,,,,,7,18,Vrouw,Links,2,
,dotcolour,dotcolour,dotcolour,48,3,228,228,main,positivefb,-99,easy,17,0.484549399999878,['n'],1,right,['1'],6,0.17787940000016533,,,,,,,,7,18,Vrouw,Links,2,
,dotcolour,dotcolour,dotcolour,49,3,229,229,main,positivefb,-99,average,29,0.6837952000000769,['n'],1,right,['1'],6,0.13644259999978203,,,,,,,,7,18,Vrouw,Links,2,
,dotcolour,dotcolour,dotcolour,50,3,230,230,main,positivefb,-99,average,26,0.7663283000001684,['n'],1,right,['1'],6,0.18174449999992248,,,,,,,,7,18,Vrouw,Links,2,
,dotcolour,dotcolour,dotcolour,51,3,231,231,main,positivefb,-99,hard,41,0.6837142999997923,['n'],0,left,['1'],6,0.12341200000014396,,,,,,,,7,18,Vrouw,Links,2,
,dotcolour,dotcolour,dotcolour,52,3,232,232,main,positivefb,-99,easy,61,1.1826600999997936,['c'],1,left,['1'],6,0.4008089999999811,,,,,,,,7,18,Vrouw,Links,2,
,dotcolour,dotcolour,dotcolour,53,3,233,233,main,positivefb,-99,hard,36,0.6349006999998892,['n'],1,right,['1'],6,0.09584010000003218,,,,,,,,7,18,Vrouw,Links,2,
,dotcolour,dotcolour,dotcolour,54,3,234,234,main,positivefb,-99,easy,15,0.4507670999998936,['n'],1,right,['1'],6,0.06708700000012868,,,,,,,,7,18,Vrouw,Links,2,
,dotcolour,dotcolour,dotcolour,55,3,235,235,main,positivefb,-99,hard,43,1.2506521000000248,['n'],0,left,['1'],6,0.07115999999996347,,,,,,,,7,18,Vrouw,Links,2,
,dotcolour,dotcolour,dotcolour,56,3,236,236,main,positivefb,-99,average,29,0.6675196000001051,['n'],1,right,['1'],6,0.10543660000007549,,,,,,,,7,18,Vrouw,Links,2,
,dotcolour,dotcolour,dotcolour,57,3,237,237,main,positivefb,-99,easy,19,0.5519874999999956,['n'],1,right,['1'],6,0.08909910000011223,,,,,,,,7,18,Vrouw,Links,2,
,dotcolour,dotcolour,dotcolour,58,3,238,238,main,positivefb,-99,easy,64,0.7510601999999835,['c'],1,left,['1'],6,0.1199759000000995,,,,,,,,7,18,Vrouw,Links,2,
,dotcolour,dotcolour,dotcolour,59,3,239,239,main,positivefb,-99,easy,61,0.8506779000001643,['c'],1,left,['1'],6,0.1304726999999275,,,,,,,,7,18,Vrouw,Links,2,
,dotcolour,dotcolour,dotcolour,0,4,240,240,main,positivefb,-99,hard,38,0.8839651000000686,['n'],1,right,['1'],6,0.07772910000016964,,,,,,,,7,18,Vrouw,Links,2,
,dotcolour,dotcolour,dotcolour,1,4,241,241,main,positivefb,-99,average,52,1.6672283999998854,['n'],0,left,['3'],4,0.6097159999999349,,,,,,,,7,18,Vrouw,Links,2,
,dotcolour,dotcolour,dotcolour,2,4,242,242,main,positivefb,-99,easy,61,0.7679820000000745,['c'],1,left,['1'],6,0.3317379999998593,,,,,,,,7,18,Vrouw,Links,2,
,dotcolour,dotcolour,dotcolour,3,4,243,243,main,positivefb,-99,average,53,0.6503175999998803,['c'],1,left,['1'],6,0.1485711000000265,,,,,,,,7,18,Vrouw,Links,2,
,dotcolour,dotcolour,dotcolour,4,4,244,244,main,positivefb,-99,average,29,0.983621100000164,['n'],1,right,['1'],6,0.6804732000000513,,,,,,,,7,18,Vrouw,Links,2,
,dotcolour,dotcolour,dotcolour,5,4,245,245,main,positivefb,-99,hard,45,0.9177048999999897,['n'],0,left,['2'],5,0.12151259999996,,,,,,,,7,18,Vrouw,Links,2,
,dotcolour,dotcolour,dotcolour,6,4,246,246,main,positivefb,-99,easy,64,0.8171738000000914,['c'],1,left,['1'],6,0.08511679999992339,,,,,,,,7,18,Vrouw,Links,2,
,dotcolour,dotcolour,dotcolour,7,4,247,247,main,positivefb,-99,hard,36,1.0347360000000663,['n'],1,right,['2'],5,0.11228090000008706,,,,,,,,7,18,Vrouw,Links,2,
,dotcolour,dotcolour,dotcolour,8,4,248,248,main,positivefb,-99,average,29,0.8520132000001013,['c'],0,right,['1'],6,0.10671219999994719,,,,,,,,7,18,Vrouw,Links,2,
,dotcolour,dotcolour,dotcolour,9,4,249,249,main,positivefb,-99,average,26,1.2836511000000428,['n'],1,right,['1'],6,0.28515059999995174,,,,,,,,7,18,Vrouw,Links,2,
,dotcolour,dotcolour,dotcolour,10,4,250,250,main,positivefb,-99,easy,63,0.6839495000001534,['c'],1,left,['1'],6,0.046530899999879693,,,,,,,,7,18,Vrouw,Links,2,
,dotcolour,dotcolour,dotcolour,11,4,251,251,main,positivefb,-99,average,53,0.9834900000000744,['c'],1,left,['1'],6,0.03806439999993927,,,,,,,,7,18,Vrouw,Links,2,
,dotcolour,dotcolour,dotcolour,12,4,252,252,main,positivefb,-99,easy,15,0.5829423000000133,['n'],1,right,['1'],6,0.08686920000013743,,,,,,,,7,18,Vrouw,Links,2,
,dotcolour,dotcolour,dotcolour,13,4,253,253,main,positivefb,-99,hard,44,1.8347387000001163,['n'],0,left,['1'],6,0.13898229999995237,,,,,,,,7,18,Vrouw,Links,2,
,dotcolour,dotcolour,dotcolour,14,4,254,254,main,positivefb,-99,easy,61,0.6340425999999297,['c'],1,left,['1'],6,0.06897640000011052,,,,,,,,7,18,Vrouw,Links,2,
,dotcolour,dotcolour,dotcolour,15,4,255,255,main,positivefb,-99,easy,64,0.567437499999869,['c'],1,left,['1'],6,0.1000523999998677,,,,,,,,7,18,Vrouw,Links,2,
,dotcolour,dotcolour,dotcolour,16,4,256,256,main,positivefb,-99,average,51,0.6831824999999299,['c'],1,left,['1'],6,0.09259329999986221,,,,,,,,7,18,Vrouw,Links,2,
,dotcolour,dotcolour,dotcolour,17,4,257,257,main,positivefb,-99,hard,39,1.1674686999999722,['n'],1,right,['1'],6,0.07628879999992932,,,,,,,,7,18,Vrouw,Links,2,
,dotcolour,dotcolour,dotcolour,18,4,258,258,main,positivefb,-99,hard,41,1.1835542999999689,['n'],0,left,['1'],6,0.051075200000013865,,,,,,,,7,18,Vrouw,Links,2,
,dotcolour,dotcolour,dotcolour,19,4,259,259,main,positivefb,-99,average,51,1.1502990999999838,['n'],0,left,['1'],6,0.11543950000009318,,,,,,,,7,18,Vrouw,Links,2,
,dotcolour,dotcolour,dotcolour,20,4,260,260,main,positivefb,-99,hard,35,0.8837257000000136,['n'],1,right,['1'],6,0.14041090000000622,,,,,,,,7,18,Vrouw,Links,2,
,dotcolour,dotcolour,dotcolour,21,4,261,261,main,positivefb,-99,average,26,0.7327358999998523,['n'],1,right,['1'],6,0.12231940000015129,,,,,,,,7,18,Vrouw,Links,2,
,dotcolour,dotcolour,dotcolour,22,4,262,262,main,positivefb,-99,hard,39,0.8512329000000136,['n'],1,right,['1'],6,0.10819480000009207,,,,,,,,7,18,Vrouw,Links,2,
,dotcolour,dotcolour,dotcolour,23,4,263,263,main,positivefb,-99,easy,62,0.7004236000000219,['c'],1,left,['1'],6,0.23687780000000203,,,,,,,,7,18,Vrouw,Links,2,
,dotcolour,dotcolour,dotcolour,24,4,264,264,main,positivefb,-99,hard,36,0.7339602000001832,['n'],1,right,['1'],6,0.12686069999995198,,,,,,,,7,18,Vrouw,Links,2,
,dotcolour,dotcolour,dotcolour,25,4,265,265,main,positivefb,-99,hard,39,1.1161956999999347,['n'],1,right,['1'],6,0.15770450000013625,,,,,,,,7,18,Vrouw,Links,2,
,dotcolour,dotcolour,dotcolour,26,4,266,266,main,positivefb,-99,average,51,0.6829990000001089,['c'],1,left,['1'],6,0.15750549999984287,,,,,,,,7,18,Vrouw,Links,2,
,dotcolour,dotcolour,dotcolour,27,4,267,267,main,positivefb,-99,hard,38,1.3517233000000033,['c'],0,right,['2'],5,0.11389600000006794,,,,,,,,7,18,Vrouw,Links,2,
,dotcolour,dotcolour,dotcolour,28,4,268,268,main,positivefb,-99,average,25,0.9837245000001076,['n'],1,right,['1'],6,0.0955661999998938,,,,,,,,7,18,Vrouw,Links,2,
,dotcolour,dotcolour,dotcolour,29,4,269,269,main,positivefb,-99,average,54,1.4518105000001924,['c'],1,left,['2'],5,0.7389550999998846,,,,,,,,7,18,Vrouw,Links,2,
,dotcolour,dotcolour,dotcolour,30,4,270,270,main,positivefb,-99,easy,15,0.6334535999999389,['n'],1,right,['1'],6,0.1168795000000955,,,,,,,,7,18,Vrouw,Links,2,
,dotcolour,dotcolour,dotcolour,31,4,271,271,main,positivefb,-99,hard,42,0.9510083000000122,['n'],0,left,['2'],5,0.1868833999999424,,,,,,,,7,18,Vrouw,Links,2,
,dotcolour,dotcolour,dotcolour,32,4,272,272,main,positivefb,-99,easy,16,0.4671765000000505,['n'],1,right,['1'],6,0.521574899999905,,,,,,,,7,18,Vrouw,Links,2,
,dotcolour,dotcolour,dotcolour,33,4,273,273,main,positivefb,-99,easy,65,0.700543499999867,['c'],1,left,['1'],6,0.0896563999999671,,,,,,,,7,18,Vrouw,Links,2,
,dotcolour,dotcolour,dotcolour,34,4,274,274,main,positivefb,-99,hard,41,0.7678330000001097,['n'],0,left,['2'],5,0.19230729999981122,,,,,,,,7,18,Vrouw,Links,2,
,dotcolour,dotcolour,dotcolour,35,4,275,275,main,positivefb,-99,average,28,0.6838572000001477,['n'],1,right,['1'],6,0.11034040000004097,,,,,,,,7,18,Vrouw,Links,2,
,dotcolour,dotcolour,dotcolour,36,4,276,276,main,positivefb,-99,easy,19,0.583584399999836,['n'],1,right,['1'],6,0.09174860000007357,,,,,,,,7,18,Vrouw,Links,2,
,dotcolour,dotcolour,dotcolour,37,4,277,277,main,positivefb,-99,easy,19,0.516443800000161,['n'],1,right,['1'],6,0.0683601999999155,,,,,,,,7,18,Vrouw,Links,2,
,dotcolour,dotcolour,dotcolour,38,4,278,278,main,positivefb,-99,average,29,1.4338192000000163,['n'],1,right,['2'],5,0.12091450000002624,,,,,,,,7,18,Vrouw,Links,2,
,dotcolour,dotcolour,dotcolour,39,4,279,279,main,positivefb,-99,easy,62,0.6342203000001518,['c'],1,left,['1'],6,0.12369889999990846,,,,,,,,7,18,Vrouw,Links,2,
,dotcolour,dotcolour,dotcolour,40,4,280,280,main,positivefb,-99,average,52,0.43340760000000955,['c'],1,left,['1'],6,0.13418350000006285,,,,,,,,7,18,Vrouw,Links,2,
,dotcolour,dotcolour,dotcolour,41,4,281,281,main,positivefb,-99,average,28,0.6844978999999967,['n'],1,right,['1'],6,0.04621939999992719,,,,,,,,7,18,Vrouw,Links,2,
,dotcolour,dotcolour,dotcolour,42,4,282,282,main,positivefb,-99,average,28,0.5669550999998592,['n'],1,right,['1'],6,0.11106459999996332,,,,,,,,7,18,Vrouw,Links,2,
,dotcolour,dotcolour,dotcolour,43,4,283,283,main,positivefb,-99,easy,17,0.4842711999999665,['n'],1,right,['1'],6,0.13521700000001147,,,,,,,,7,18,Vrouw,Links,2,
,dotcolour,dotcolour,dotcolour,44,4,284,284,main,positivefb,-99,easy,15,0.518646600000011,['n'],1,right,['1'],6,0.15881070000000364,,,,,,,,7,18,Vrouw,Links,2,
,dotcolour,dotcolour,dotcolour,45,4,285,285,main,positivefb,-99,hard,43,0.7677183999999215,['n'],0,left,['1'],6,0.1390211000000363,,,,,,,,7,18,Vrouw,Links,2,
,dotcolour,dotcolour,dotcolour,46,4,286,286,main,positivefb,-99,easy,61,0.7014242000000195,['c'],1,left,['1'],6,0.29832599999986087,,,,,,,,7,18,Vrouw,Links,2,
,dotcolour,dotcolour,dotcolour,47,4,287,287,main,positivefb,-99,average,54,0.9171307999999954,['c'],1,left,['1'],6,0.2658794999999827,,,,,,,,7,18,Vrouw,Links,2,
,dotcolour,dotcolour,dotcolour,48,4,288,288,main,positivefb,-99,hard,36,0.7509328000001005,['n'],1,right,['1'],6,0.1539615000001504,,,,,,,,7,18,Vrouw,Links,2,
,dotcolour,dotcolour,dotcolour,49,4,289,289,main,positivefb,-99,hard,45,1.2329279999999017,['n'],0,left,['1'],6,0.16348969999990004,,,,,,,,7,18,Vrouw,Links,2,
,dotcolour,dotcolour,dotcolour,50,4,290,290,main,positivefb,-99,hard,41,1.550193199999967,['c'],1,left,['2'],5,0.2324244000001272,,,,,,,,7,18,Vrouw,Links,2,
,dotcolour,dotcolour,dotcolour,51,4,291,291,main,positivefb,-99,average,27,0.601969100000133,['n'],1,right,['2'],5,0.35084170000004633,,,,,,,,7,18,Vrouw,Links,2,
,dotcolour,dotcolour,dotcolour,52,4,292,292,main,positivefb,-99,easy,15,0.6675571999999192,['n'],1,right,['1'],6,0.12776310000003832,,,,,,,,7,18,Vrouw,Links,2,
,dotcolour,dotcolour,dotcolour,53,4,293,293,main,positivefb,-99,hard,44,1.8505294999999933,['c'],1,left,['2'],5,0.321543100000099,,,,,,,,7,18,Vrouw,Links,2,
,dotcolour,dotcolour,dotcolour,54,4,294,294,main,positivefb,-99,hard,41,1.3686892000000626,['c'],1,left,['2'],5,0.2628780000000006,,,,,,,,7,18,Vrouw,Links,2,
,dotcolour,dotcolour,dotcolour,55,4,295,295,main,positivefb,-99,easy,16,0.5682420000000548,['n'],1,right,['1'],6,0.11791390000007596,,,,,,,,7,18,Vrouw,Links,2,
,dotcolour,dotcolour,dotcolour,56,4,296,296,main,positivefb,-99,average,52,1.4843231000002106,['n'],0,left,['2'],5,0.4710261000000173,,,,,,,,7,18,Vrouw,Links,2,
,dotcolour,dotcolour,dotcolour,57,4,297,297,main,positivefb,-99,hard,37,1.234036900000092,['n'],1,right,['2'],5,0.17968900000005306,,,,,,,,7,18,Vrouw,Links,2,
,dotcolour,dotcolour,dotcolour,58,4,298,298,main,positivefb,-99,easy,61,0.7186905000000934,['c'],1,left,['1'],6,0.31333870000003117,,,,,,,,7,18,Vrouw,Links,2,
,dotcolour,dotcolour,dotcolour,59,4,299,299,main,positivefb,-99,easy,18,0.7167151999999533,['n'],1,right,['1'],6,0.12163299999997434,,,,,,,,7,18,Vrouw,Links,2,
,dotcolour,dotcolour,dotcolour,0,0,0,300,training,positivefb,92,average,29,0.6000638000000436,['n'],1,right,['2'],5,0.32226220000006833,,,,,,,,7,18,Vrouw,Links,2,
,dotcolour,dotcolour,dotcolour,1,0,1,301,training,positivefb,75,hard,43,0.7678209999999126,['n'],0,left,['2'],5,0.21534710000014456,,,,,,,,7,18,Vrouw,Links,2,
,dotcolour,dotcolour,dotcolour,2,0,2,302,training,positivefb,75,average,29,0.4821984000000157,['n'],1,right,['1'],6,0.34761550000007446,,,,,,,,7,18,Vrouw,Links,2,
,dotcolour,dotcolour,dotcolour,3,0,3,303,training,positivefb,93,easy,17,0.465844000000061,['n'],1,right,['1'],6,0.10780629999999292,,,,,,,,7,18,Vrouw,Links,2,
,dotcolour,dotcolour,dotcolour,4,0,4,304,training,positivefb,93,average,54,0.8007869999999002,['c'],1,left,['2'],5,0.2392587999997886,,,,,,,,7,18,Vrouw,Links,2,
,dotcolour,dotcolour,dotcolour,5,0,5,305,training,positivefb,89,average,54,0.8656210999999985,['c'],1,left,['2'],5,0.03528779999987819,,,,,,,,7,18,Vrouw,Links,2,
,dotcolour,dotcolour,dotcolour,6,0,6,306,training,positivefb,86,easy,63,0.566059100000075,['c'],1,left,['1'],6,1.15519200000017,,,,,,,,7,18,Vrouw,Links,2,
,dotcolour,dotcolour,dotcolour,7,0,7,307,training,positivefb,79,hard,41,0.7668222999998306,['n'],0,left,['3'],4,0.7183775000000878,,,,,,,,7,18,Vrouw,Links,2,
,dotcolour,dotcolour,dotcolour,8,0,8,308,training,positivefb,96,average,25,0.7507333000000926,['n'],1,right,['1'],6,0.1073718000000099,,,,,,,,7,18,Vrouw,Links,2,
,dotcolour,dotcolour,dotcolour,9,0,9,309,training,positivefb,91,average,53,0.7003262000000632,['c'],1,left,['1'],6,0.0996692000001076,,,,,,,,7,18,Vrouw,Links,2,
,dotcolour,dotcolour,dotcolour,10,0,10,310,training,positivefb,82,hard,36,0.6496846000000005,['n'],1,right,['1'],6,0.13407949999987068,,,,,,,,7,18,Vrouw,Links,2,
,dotcolour,dotcolour,dotcolour,11,0,11,311,training,positivefb,90,average,53,0.7839151999999103,['c'],1,left,['1'],6,0.11283350000007886,,,,,,,,7,18,Vrouw,Links,2,
,dotcolour,dotcolour,dotcolour,12,0,12,312,training,positivefb,42,average,55,0.8001690999999482,['n'],0,left,['8'],3,1.8609645999999884,,,,,,,,7,18,Vrouw,Links,2,
,dotcolour,dotcolour,dotcolour,13,0,13,313,training,positivefb,90,average,51,1.433086000000003,['n'],0,left,['2'],5,0.40870399999994333,,,,,,,,7,18,Vrouw,Links,2,
,dotcolour,dotcolour,dotcolour,14,0,14,314,training,positivefb,91,easy,65,0.7164995999999064,['c'],1,left,['1'],6,0.06786630000010518,,,,,,,,7,18,Vrouw,Links,2,
,dotcolour,dotcolour,dotcolour,15,0,15,315,training,positivefb,78,hard,43,0.8508240999999543,['n'],0,left,['2'],5,0.3115947999999662,,,,,,,,7,18,Vrouw,Links,2,
,dotcolour,dotcolour,dotcolour,16,0,16,316,training,positivefb,98,hard,39,0.8014662000000499,['n'],1,right,['2'],5,0.15608629999996992,,,,,,,,7,18,Vrouw,Links,2,
,dotcolour,dotcolour,dotcolour,17,0,17,317,training,positivefb,92,hard,41,0.949321399999917,['n'],0,left,['2'],5,0.7671987999999601,,,,,,,,7,18,Vrouw,Links,2,
,dotcolour,dotcolour,dotcolour,18,0,18,318,training,positivefb,96,average,25,0.6829907000001185,['c'],0,right,['1'],6,0.14964329999997972,,,,,,,,7,18,Vrouw,Links,2,
,dotcolour,dotcolour,dotcolour,19,0,19,319,training,positivefb,51,hard,41,0.74966859999995,['n'],0,left,['1'],6,0.8016689999999471,,,,,,,,7,18,Vrouw,Links,2,
,dotcolour,dotcolour,dotcolour,20,0,20,320,training,positivefb,97,easy,16,0.5495431000001645,['n'],1,right,['1'],6,0.12406670000018494,,,,,,,,7,18,Vrouw,Links,2,
,dotcolour,dotcolour,dotcolour,21,0,21,321,training,positivefb,95,hard,42,0.9329941000000872,['n'],0,left,['1'],6,0.10608339999998861,,,,,,,,7,18,Vrouw,Links,2,
,dotcolour,dotcolour,dotcolour,22,0,22,322,training,positivefb,97,average,27,0.5678089999998974,['n'],1,right,['1'],6,0.08651479999980438,,,,,,,,7,18,Vrouw,Links,2,
,dotcolour,dotcolour,dotcolour,23,0,23,323,training,positivefb,98,average,27,0.6329857000000629,['n'],1,right,['1'],6,0.05781159999992269,,,,,,,,7,18,Vrouw,Links,2,
,dotcolour,dotcolour,dotcolour,24,0,24,324,training,positivefb,95,average,53,0.8502902000000176,['c'],1,left,['1'],6,0.04646900000011556,,,,,,,,7,18,Vrouw,Links,2,
,dotcolour,dotcolour,dotcolour,25,0,25,325,training,positivefb,94,easy,64,0.8166798000002018,['c'],1,left,['1'],6,0.09954740000011952,,,,,,,,7,18,Vrouw,Links,2,
,dotcolour,dotcolour,dotcolour,26,0,26,326,training,positivefb,99,hard,39,0.6182718000000023,['n'],1,right,['2'],5,0.31110069999999723,,,,,,,,7,18,Vrouw,Links,2,
,dotcolour,dotcolour,dotcolour,27,0,27,327,training,positivefb,65,hard,42,1.5505041999999776,['c'],1,left,['2'],5,0.34100969999985864,,,,,,,,7,18,Vrouw,Links,2,
,dotcolour,dotcolour,dotcolour,28,0,28,328,training,positivefb,93,easy,61,0.7341844000000037,['c'],1,left,['2'],5,0.07492179999985638,,,,,,,,7,18,Vrouw,Links,2,
,dotcolour,dotcolour,dotcolour,29,0,29,329,training,positivefb,96,easy,16,0.7334167000001344,['n'],1,right,['1'],6,0.05917120000003706,,,,,,,,7,18,Vrouw,Links,2,
,dotcolour,dotcolour,dotcolour,30,0,30,330,training,positivefb,96,average,52,1.1342387000001963,['c'],1,left,['2'],5,0.1558813999999984,,,,,,,,7,18,Vrouw,Links,2,
,dotcolour,dotcolour,dotcolour,31,0,31,331,training,positivefb,94,hard,36,0.8508420000000569,['n'],1,right,['2'],5,0.3154385000000275,,,,,,,,7,18,Vrouw,Links,2,
,dotcolour,dotcolour,dotcolour,32,0,32,332,training,positivefb,96,hard,36,0.5833276000000751,['n'],1,right,['2'],5,0.10412719999999354,,,,,,,,7,18,Vrouw,Links,2,
,dotcolour,dotcolour,dotcolour,33,0,33,333,training,positivefb,79,hard,41,1.3166880999999648,['c'],1,left,['3'],4,1.4074809999999616,,,,,,,,7,18,Vrouw,Links,2,
,dotcolour,dotcolour,dotcolour,34,0,34,334,training,positivefb,96,average,27,0.7162554000001364,['n'],1,right,['1'],6,0.09069300000010116,,,,,,,,7,18,Vrouw,Links,2,
,dotcolour,dotcolour,dotcolour,35,0,35,335,training,positivefb,97,easy,64,0.567530700000134,['c'],1,left,['1'],6,0.08082429999990381,,,,,,,,7,18,Vrouw,Links,2,
,dotcolour,dotcolour,dotcolour,36,0,36,336,training,positivefb,90,hard,38,1.2002106999998432,['n'],1,right,['1'],6,0.14098650000005364,,,,,,,,7,18,Vrouw,Links,2,
,dotcolour,dotcolour,dotcolour,37,0,37,337,training,positivefb,95,easy,61,1.150062299999945,['c'],1,left,['2'],5,0.2667515000000549,,,,,,,,7,18,Vrouw,Links,2,
,dotcolour,dotcolour,dotcolour,38,0,38,338,training,positivefb,96,easy,17,0.582504100000051,['n'],1,right,['1'],6,0.11169969999991736,,,,,,,,7,18,Vrouw,Links,2,
,dotcolour,dotcolour,dotcolour,39,0,39,339,training,positivefb,95,easy,65,0.733116900000141,['c'],1,left,['1'],6,0.0788079999999809,,,,,,,,7,18,Vrouw,Links,2,
,dotcolour,dotcolour,dotcolour,40,0,40,340,training,positivefb,95,average,53,0.48372679999988577,['c'],1,left,['1'],6,0.056386100000054284,,,,,,,,7,18,Vrouw,Links,2,
,dotcolour,dotcolour,dotcolour,41,0,41,341,training,positivefb,94,easy,15,0.79983900000002,['n'],1,right,['1'],6,0.039498800000046685,,,,,,,,7,18,Vrouw,Links,2,
,dotcolour,dotcolour,dotcolour,42,0,42,342,training,positivefb,96,easy,19,0.6006586999999399,['n'],1,right,['1'],6,0.013969500000030166,,,,,,,,7,18,Vrouw,Links,2,
,dotcolour,dotcolour,dotcolour,43,0,43,343,training,positivefb,98,easy,65,0.4514524999999594,['c'],1,left,['1'],6,0.059393099999851984,,,,,,,,7,18,Vrouw,Links,2,
,dotcolour,dotcolour,dotcolour,44,0,44,344,training,positivefb,90,hard,42,1.1987655999998879,['c'],1,left,['1'],6,0.04905349999989994,,,,,,,,7,18,Vrouw,Links,2,
,dotcolour,dotcolour,dotcolour,45,0,45,345,training,positivefb,96,average,26,0.6499175999999807,['n'],1,right,['1'],6,0.04540270000006785,,,,,,,,7,18,Vrouw,Links,2,
,dotcolour,dotcolour,dotcolour,46,0,46,346,training,positivefb,97,easy,16,0.43312520000017685,['n'],1,right,['1'],6,0.06680699999992612,,,,,,,,7,18,Vrouw,Links,2,
,dotcolour,dotcolour,dotcolour,47,0,47,347,training,positivefb,93,hard,37,0.6847223999998278,['n'],1,right,['1'],6,0.11691480000013144,,,,,,,,7,18,Vrouw,Links,2,
,dotcolour,dotcolour,dotcolour,48,0,48,348,training,positivefb,98,easy,18,0.41668269999991026,['n'],1,right,['1'],6,0.09576029999993807,,,,,,,,7,18,Vrouw,Links,2,
,dotcolour,dotcolour,dotcolour,49,0,49,349,training,positivefb,94,hard,38,0.6667768999998316,['n'],1,right,['1'],6,0.017306400000052236,,,,,,,,7,18,Vrouw,Links,2,
,dotcolour,dotcolour,dotcolour,50,0,50,350,training,positivefb,92,hard,44,0.7326146000000335,['n'],0,left,['1'],6,0.10777230000007876,,,,,,,,7,18,Vrouw,Links,2,
,dotcolour,dotcolour,dotcolour,51,0,51,351,training,positivefb,98,hard,37,0.5162743000000773,['n'],1,right,['1'],6,0.04325319999998101,,,,,,,,7,18,Vrouw,Links,2,
,dotcolour,dotcolour,dotcolour,52,0,52,352,training,positivefb,91,hard,36,0.6004517999999734,['n'],1,right,['1'],6,0.05701709999993909,,,,,,,,7,18,Vrouw,Links,2,
,dotcolour,dotcolour,dotcolour,53,0,53,353,training,positivefb,97,average,28,0.5844122999999399,['n'],1,right,['1'],6,0.07228780000014012,,,,,,,,7,18,Vrouw,Links,2,
,dotcolour,dotcolour,dotcolour,54,0,54,354,training,positivefb,91,easy,65,0.7334263000000192,['c'],1,left,['1'],6,0.06477450000011231,,,,,,,,7,18,Vrouw,Links,2,
,dotcolour,dotcolour,dotcolour,55,0,55,355,training,positivefb,97,easy,61,0.6334650999999667,['c'],1,left,['1'],6,0.04515949999995428,,,,,,,,7,18,Vrouw,Links,2,
,dotcolour,dotcolour,dotcolour,56,0,56,356,training,positivefb,97,easy,16,0.6003617999999733,['n'],1,right,['1'],6,0.11604309999984252,,,,,,,,7,18,Vrouw,Links,2,
,dotcolour,dotcolour,dotcolour,57,0,57,357,training,positivefb,81,average,51,1.0668395000000146,['n'],0,left,['1'],6,0.06862239999986741,,,,,,,,7,18,Vrouw,Links,2,
,dotcolour,dotcolour,dotcolour,58,0,58,358,training,positivefb,97,easy,18,0.5170198999999229,['n'],1,right,['1'],6,0.044211700000005294,,,,,,,,7,18,Vrouw,Links,2,
,dotcolour,dotcolour,dotcolour,59,0,59,359,training,positivefb,97,average,27,0.3842405999998846,['n'],1,right,['1'],6,0.07593930000007276,,,,,,,,7,18,Vrouw,Links,2,
,dotcolour,dotcolour,dotcolour,0,1,60,360,training,positivefb,97,easy,17,0.5831768000000466,['n'],1,right,['1'],6,0.09427350000009938,,,,,,,,7,18,Vrouw,Links,2,
,dotcolour,dotcolour,dotcolour,1,1,61,361,training,positivefb,92,average,27,0.5003670000000966,['n'],1,right,['1'],6,0.039214399999991656,,,,,,,,7,18,Vrouw,Links,2,
,dotcolour,dotcolour,dotcolour,2,1,62,362,training,positivefb,86,average,55,0.6840592999999444,['n'],0,left,['1'],6,0.10685680000005959,,,,,,,,7,18,Vrouw,Links,2,
,dotcolour,dotcolour,dotcolour,3,1,63,363,training,positivefb,95,easy,64,0.4173880000000736,['c'],1,left,['1'],6,0.09336889999985942,,,,,,,,7,18,Vrouw,Links,2,
,dotcolour,dotcolour,dotcolour,4,1,64,364,training,positivefb,82,hard,41,1.9823734999999942,['n'],0,left,['2'],5,0.06683449999991353,,,,,,,,7,18,Vrouw,Links,2,
,dotcolour,dotcolour,dotcolour,5,1,65,365,training,positivefb,97,easy,15,0.9340336000000207,['n'],1,right,['1'],6,0.08299130000000332,,,,,,,,7,18,Vrouw,Links,2,
,dotcolour,dotcolour,dotcolour,6,1,66,366,training,positivefb,96,easy,15,0.44933190000006107,['n'],1,right,['1'],6,0.08582400000000234,,,,,,,,7,18,Vrouw,Links,2,
,dotcolour,dotcolour,dotcolour,7,1,67,367,training,positivefb,96,easy,18,0.4510603000001083,['n'],1,right,['1'],6,0.056634500000200205,,,,,,,,7,18,Vrouw,Links,2,
,dotcolour,dotcolour,dotcolour,8,1,68,368,training,positivefb,99,easy,15,0.43414899999993395,['n'],1,right,['1'],6,0.028412499999831198,,,,,,,,7,18,Vrouw,Links,2,
,dotcolour,dotcolour,dotcolour,9,1,69,369,training,positivefb,94,easy,64,0.599508200000173,['c'],1,left,['1'],6,0.04456879999997909,,,,,,,,7,18,Vrouw,Links,2,
,dotcolour,dotcolour,dotcolour,10,1,70,370,training,positivefb,93,hard,45,0.7333538000000317,['n'],0,left,['1'],6,0.10987729999988005,,,,,,,,7,18,Vrouw,Links,2,
,dotcolour,dotcolour,dotcolour,11,1,71,371,training,positivefb,93,easy,64,0.5834594000000379,['c'],1,left,['1'],6,0.04202789999999368,,,,,,,,7,18,Vrouw,Links,2,
,dotcolour,dotcolour,dotcolour,12,1,72,372,training,positivefb,94,average,55,0.6502261999999064,['c'],1,left,['1'],6,0.06228910000004362,,,,,,,,7,18,Vrouw,Links,2,
,dotcolour,dotcolour,dotcolour,13,1,73,373,training,positivefb,96,hard,44,0.8168034999998781,['n'],0,left,['1'],6,0.10869199999979173,,,,,,,,7,18,Vrouw,Links,2,
,dotcolour,dotcolour,dotcolour,14,1,74,374,training,positivefb,94,average,54,0.6998503000002074,['c'],1,left,['1'],6,0.0363887999999406,,,,,,,,7,18,Vrouw,Links,2,
,dotcolour,dotcolour,dotcolour,15,1,75,375,training,positivefb,85,hard,36,0.6827972999999474,['n'],1,right,['1'],6,0.13582930000006854,,,,,,,,7,18,Vrouw,Links,2,
,dotcolour,dotcolour,dotcolour,16,1,76,376,training,positivefb,98,average,28,0.899169000000029,['n'],1,right,['2'],5,0.26281779999999344,,,,,,,,7,18,Vrouw,Links,2,
,dotcolour,dotcolour,dotcolour,17,1,77,377,training,positivefb,95,hard,35,0.7345530000000053,['c'],0,right,['1'],6,0.08685149999996611,,,,,,,,7,18,Vrouw,Links,2,
,dotcolour,dotcolour,dotcolour,18,1,78,378,training,positivefb,93,average,54,0.5833207999999104,['n'],0,left,['1'],6,0.04387930000007145,,,,,,,,7,18,Vrouw,Links,2,
,dotcolour,dotcolour,dotcolour,19,1,79,379,training,positivefb,94,average,28,0.7670065000002069,['n'],1,right,['1'],6,0.13993009999990136,,,,,,,,7,18,Vrouw,Links,2,
,dotcolour,dotcolour,dotcolour,20,1,80,380,training,positivefb,94,easy,63,0.5327968999999939,['c'],1,left,['1'],6,0.03387879999991128,,,,,,,,7,18,Vrouw,Links,2,
,dotcolour,dotcolour,dotcolour,21,1,81,381,training,positivefb,93,average,28,0.7012492999999722,['c'],0,right,['1'],6,0.10049069999990934,,,,,,,,7,18,Vrouw,Links,2,
,dotcolour,dotcolour,dotcolour,22,1,82,382,training,positivefb,84,average,53,1.115856200000053,['c'],1,left,['1'],6,0.5318136999999297,,,,,,,,7,18,Vrouw,Links,2,
,dotcolour,dotcolour,dotcolour,23,1,83,383,training,positivefb,94,average,28,0.833820600000081,['n'],1,right,['1'],6,0.11622079999983725,,,,,,,,7,18,Vrouw,Links,2,
,dotcolour,dotcolour,dotcolour,24,1,84,384,training,positivefb,97,hard,44,1.349594199999956,['c'],1,left,['2'],5,0.24994459999993524,,,,,,,,7,18,Vrouw,Links,2,
,dotcolour,dotcolour,dotcolour,25,1,85,385,training,positivefb,95,easy,18,0.7162905000000137,['n'],1,right,['1'],6,0.17929199999980483,,,,,,,,7,18,Vrouw,Links,2,
,dotcolour,dotcolour,dotcolour,26,1,86,386,training,positivefb,98,average,27,0.6161706000000322,['n'],1,right,['1'],6,0.14849890000004962,,,,,,,,7,18,Vrouw,Links,2,
,dotcolour,dotcolour,dotcolour,27,1,87,387,training,positivefb,91,hard,36,0.5169104999999945,['n'],1,right,['1'],6,0.05804030000012972,,,,,,,,7,18,Vrouw,Links,2,
,dotcolour,dotcolour,dotcolour,28,1,88,388,training,positivefb,95,hard,45,0.8330894000000626,['c'],1,left,['1'],6,0.10256110000000263,,,,,,,,7,18,Vrouw,Links,2,
,dotcolour,dotcolour,dotcolour,29,1,89,389,training,positivefb,83,hard,45,0.9842963000000964,['n'],0,left,['1'],6,0.13798879999990277,,,,,,,,7,18,Vrouw,Links,2,
,dotcolour,dotcolour,dotcolour,30,1,90,390,training,positivefb,92,average,54,0.5832731999998941,['c'],1,left,['1'],6,0.09440089999998236,,,,,,,,7,18,Vrouw,Links,2,
,dotcolour,dotcolour,dotcolour,31,1,91,391,training,positivefb,95,easy,63,0.6162128000000848,['c'],1,left,['1'],6,0.09856639999998151,,,,,,,,7,18,Vrouw,Links,2,
,dotcolour,dotcolour,dotcolour,32,1,92,392,training,positivefb,85,hard,37,1.3510625999999775,['n'],1,right,['1'],6,0.06338289999985136,,,,,,,,7,18,Vrouw,Links,2,
,dotcolour,dotcolour,dotcolour,33,1,93,393,training,positivefb,96,average,55,0.5833721999999852,['c'],1,left,['1'],6,0.07910199999992074,,,,,,,,7,18,Vrouw,Links,2,
,dotcolour,dotcolour,dotcolour,34,1,94,394,training,positivefb,91,hard,43,0.885018700000046,['n'],0,left,['1'],6,0.06483539999999266,,,,,,,,7,18,Vrouw,Links,2,
,dotcolour,dotcolour,dotcolour,35,1,95,395,training,positivefb,92,easy,63,1.1000053999998727,['c'],1,left,['1'],6,0.09839919999990343,,,,,,,,7,18,Vrouw,Links,2,
,dotcolour,dotcolour,dotcolour,36,1,96,396,training,positivefb,96,average,27,0.6016456000002108,['n'],1,right,['1'],6,0.05343589999984033,,,,,,,,7,18,Vrouw,Links,2,
,dotcolour,dotcolour,dotcolour,37,1,97,397,training,positivefb,98,easy,61,0.5319414000000506,['c'],1,left,['1'],6,0.014568899999858331,,,,,,,,7,18,Vrouw,Links,2,
,dotcolour,dotcolour,dotcolour,38,1,98,398,training,positivefb,77,hard,44,0.7666822000001048,['n'],0,left,['1'],6,0.1358940000000075,,,,,,,,7,18,Vrouw,Links,2,
,dotcolour,dotcolour,dotcolour,39,1,99,399,training,positivefb,82,hard,42,1.7172184000000925,['n'],0,left,['1'],6,0.773207100000036,,,,,,,,7,18,Vrouw,Links,2,
,dotcolour,dotcolour,dotcolour,40,1,100,400,training,positivefb,94,easy,16,0.832394400000112,['n'],1,right,['1'],6,0.08584210000003623,,,,,,,,7,18,Vrouw,Links,2,
,dotcolour,dotcolour,dotcolour,41,1,101,401,training,positivefb,94,average,28,0.5175234999999248,['n'],1,right,['1'],6,0.10981870000000526,,,,,,,,7,18,Vrouw,Links,2,
,dotcolour,dotcolour,dotcolour,42,1,102,402,training,positivefb,93,hard,41,1.0507724000001417,['n'],0,left,['1'],6,0.023838800000021365,,,,,,,,7,18,Vrouw,Links,2,
,dotcolour,dotcolour,dotcolour,43,1,103,403,training,positivefb,97,easy,15,0.5830711999999494,['n'],1,right,['1'],6,0.007152599999926679,,,,,,,,7,18,Vrouw,Links,2,
,dotcolour,dotcolour,dotcolour,44,1,104,404,training,positivefb,95,easy,64,0.6324647999999797,['c'],1,left,['1'],6,0.013540700000021388,,,,,,,,7,18,Vrouw,Links,2,
,dotcolour,dotcolour,dotcolour,45,1,105,405,training,positivefb,92,average,53,1.1339513999998871,['c'],1,left,['1'],6,0.03248310000003585,,,,,,,,7,18,Vrouw,Links,2,
,dotcolour,dotcolour,dotcolour,46,1,106,406,training,positivefb,91,hard,37,1.0994057999998859,['n'],1,right,['1'],6,0.0276373000001513,,,,,,,,7,18,Vrouw,Links,2,
,dotcolour,dotcolour,dotcolour,47,1,107,407,training,positivefb,91,hard,38,0.7497310000001107,['n'],1,right,['1'],6,0.05199979999997595,,,,,,,,7,18,Vrouw,Links,2,
,dotcolour,dotcolour,dotcolour,48,1,108,408,training,positivefb,93,easy,62,0.6671649999998408,['c'],1,left,['1'],6,0.008313799999996263,,,,,,,,7,18,Vrouw,Links,2,
,dotcolour,dotcolour,dotcolour,49,1,109,409,training,positivefb,95,easy,19,0.6169060999998237,['n'],1,right,['1'],6,0.007557099999985439,,,,,,,,7,18,Vrouw,Links,2,
,dotcolour,dotcolour,dotcolour,50,1,110,410,training,positivefb,94,hard,36,0.6334517000000233,['n'],1,right,['1'],6,0.07023909999998068,,,,,,,,7,18,Vrouw,Links,2,
,dotcolour,dotcolour,dotcolour,51,1,111,411,training,positivefb,91,easy,63,0.7513065000000552,['c'],1,left,['1'],6,0.021405000000186192,,,,,,,,7,18,Vrouw,Links,2,
,dotcolour,dotcolour,dotcolour,52,1,112,412,training,positivefb,91,hard,35,1.1504105999999865,['n'],1,right,['1'],6,0.07110659999989366,,,,,,,,7,18,Vrouw,Links,2,
,dotcolour,dotcolour,dotcolour,53,1,113,413,training,positivefb,95,hard,38,0.7515066000000843,['n'],1,right,['1'],6,0.06216349999999693,,,,,,,,7,18,Vrouw,Links,2,
,dotcolour,dotcolour,dotcolour,54,1,114,414,training,positivefb,96,average,26,0.5508284000000003,['n'],1,right,['1'],6,0.0533543000001373,,,,,,,,7,18,Vrouw,Links,2,
,dotcolour,dotcolour,dotcolour,55,1,115,415,training,positivefb,89,average,54,0.8166769999997996,['c'],1,left,['1'],6,0.0587554999999611,,,,,,,,7,18,Vrouw,Links,2,
,dotcolour,dotcolour,dotcolour,56,1,116,416,training,positivefb,26,easy,19,0.48304540000003726,['c'],0,right,['0'],1,2.509766099999979,,,,,,,,7,18,Vrouw,Links,2,
,dotcolour,dotcolour,dotcolour,57,1,117,417,training,positivefb,81,hard,39,1.7830840999999964,['n'],1,right,['3'],4,0.08255900000017391,,,,,,,,7,18,Vrouw,Links,2,
,dotcolour,dotcolour,dotcolour,58,1,118,418,training,positivefb,89,average,25,0.5171434000001227,['n'],1,right,['1'],6,0.17837710000003426,,,,,,,,7,18,Vrouw,Links,2,
,dotcolour,dotcolour,dotcolour,59,1,119,419,training,positivefb,91,average,55,0.7000370000000657,['c'],1,left,['1'],6,0.08725679999997737,,,,,,,,7,18,Vrouw,Links,2,
,xotask,dotcolour,dotcolour,0,2,120,420,main,positivefb,-99,average,,0.9512513000001945,['c'],1,left,['2'],5,0.9350246999999854,61,,,,,,,7,18,Vrouw,Links,2,
,xotask,dotcolour,dotcolour,1,2,121,421,main,positivefb,-99,easy,,0.8667376999999306,['n'],1,right,['1'],6,0.9670770999998695,8,,,,,,,7,18,Vrouw,Links,2,
,xotask,dotcolour,dotcolour,2,2,122,422,main,positivefb,-99,easy,,0.8995711000000028,['c'],1,left,['2'],5,0.16544260000000577,70,,,,,,,7,18,Vrouw,Links,2,
,xotask,dotcolour,dotcolour,3,2,123,423,main,positivefb,-99,hard,,1.0004585000001498,['c'],1,left,['2'],5,0.17552569999998013,53,,,,,,,7,18,Vrouw,Links,2,
,xotask,dotcolour,dotcolour,4,2,124,424,main,positivefb,-99,easy,,0.6672899000000143,['n'],1,right,['2'],5,0.20686419999992722,7,,,,,,,7,18,Vrouw,Links,2,
,xotask,dotcolour,dotcolour,5,2,125,425,main,positivefb,-99,hard,,1.0001357999999527,['c'],1,left,['1'],6,0.14358709999987695,51,,,,,,,7,18,Vrouw,Links,2,
,xotask,dotcolour,dotcolour,6,2,126,426,main,positivefb,-99,average,,0.6177838999999494,['n'],1,right,['1'],6,0.10612240000000384,18,,,,,,,7,18,Vrouw,Links,2,
,xotask,dotcolour,dotcolour,7,2,127,427,main,positivefb,-99,easy,,0.7180093000001762,['n'],1,right,['1'],6,0.13710530000003018,6,,,,,,,7,18,Vrouw,Links,2,
,xotask,dotcolour,dotcolour,8,2,128,428,main,positivefb,-99,easy,,0.45108879999997953,['n'],1,right,['1'],6,0.10754709999991974,9,,,,,,,7,18,Vrouw,Links,2,
,xotask,dotcolour,dotcolour,9,2,129,429,main,positivefb,-99,easy,,0.8170333999999002,['c'],1,left,['1'],6,0.21463000000017018,71,,,,,,,7,18,Vrouw,Links,2,
,xotask,dotcolour,dotcolour,10,2,130,430,main,positivefb,-99,average,,0.5678958000000875,['n'],1,right,['1'],6,0.12081039999998211,18,,,,,,,7,18,Vrouw,Links,2,
,xotask,dotcolour,dotcolour,11,2,131,431,main,positivefb,-99,average,,0.599978000000192,['c'],1,left,['1'],6,0.1251902000001337,64,,,,,,,7,18,Vrouw,Links,2,
,xotask,dotcolour,dotcolour,12,2,132,432,main,positivefb,-99,hard,,0.9510195999998814,['n'],1,right,['1'],6,0.17831599999999526,26,,,,,,,7,18,Vrouw,Links,2,
,xotask,dotcolour,dotcolour,13,2,133,433,main,positivefb,-99,average,,1.5505263000000014,['n'],1,right,['2'],5,0.12690410000004704,18,,,,,,,7,18,Vrouw,Links,2,
,xotask,dotcolour,dotcolour,14,2,134,434,main,positivefb,-99,average,,1.0847440000000006,['c'],1,left,['1'],6,0.07985669999993661,63,,,,,,,7,18,Vrouw,Links,2,
,xotask,dotcolour,dotcolour,15,2,135,435,main,positivefb,-99,average,,0.5998458999999912,['c'],1,left,['1'],6,0.1011250999999902,61,,,,,,,7,18,Vrouw,Links,2,
,xotask,dotcolour,dotcolour,16,2,136,436,main,positivefb,-99,hard,,0.8170701000001372,['n'],1,right,['1'],6,0.12965859999985696,27,,,,,,,7,18,Vrouw,Links,2,
,xotask,dotcolour,dotcolour,17,2,137,437,main,positivefb,-99,easy,,0.5340051999999105,['n'],1,right,['1'],6,0.1355842999998913,6,,,,,,,7,18,Vrouw,Links,2,
,xotask,dotcolour,dotcolour,18,2,138,438,main,positivefb,-99,hard,,0.8003244999999879,['c'],0,right,['1'],6,0.1307517000000189,29,,,,,,,7,18,Vrouw,Links,2,
,xotask,dotcolour,dotcolour,19,2,139,439,main,positivefb,-99,average,,0.6504600999999184,['c'],1,left,['1'],6,0.3724961999998868,62,,,,,,,7,18,Vrouw,Links,2,
,xotask,dotcolour,dotcolour,20,2,140,440,main,positivefb,-99,easy,,0.5830289000000448,['c'],1,left,['1'],6,0.12023339999996097,73,,,,,,,7,18,Vrouw,Links,2,
,xotask,dotcolour,dotcolour,21,2,141,441,main,positivefb,-99,hard,,0.7171837999999298,['c'],1,left,['1'],6,0.11180100000001403,50,,,,,,,7,18,Vrouw,Links,2,
,xotask,dotcolour,dotcolour,22,2,142,442,main,positivefb,-99,easy,,0.48346700000001874,['n'],1,right,['1'],6,0.08877189999998336,7,,,,,,,7,18,Vrouw,Links,2,
,xotask,dotcolour,dotcolour,23,2,143,443,main,positivefb,-99,average,,0.667795599999863,['c'],1,left,['1'],6,0.2355929999998807,61,,,,,,,7,18,Vrouw,Links,2,
,xotask,dotcolour,dotcolour,24,2,144,444,main,positivefb,-99,hard,,0.7669594999999845,['c'],0,right,['1'],6,0.15623550000009345,29,,,,,,,7,18,Vrouw,Links,2,
,xotask,dotcolour,dotcolour,25,2,145,445,main,positivefb,-99,easy,,0.5349740000001475,['n'],0,left,['1'],6,0.16128780000008192,73,,,,,,,7,18,Vrouw,Links,2,
,xotask,dotcolour,dotcolour,26,2,146,446,main,positivefb,-99,hard,,0.6672997999999097,['c'],1,left,['1'],6,0.06557109999994282,52,,,,,,,7,18,Vrouw,Links,2,
,xotask,dotcolour,dotcolour,27,2,147,447,main,positivefb,-99,easy,,0.5990767999999207,['c'],1,left,['1'],6,0.12778389999994033,70,,,,,,,7,18,Vrouw,Links,2,
,xotask,dotcolour,dotcolour,28,2,148,448,main,positivefb,-99,average,,1.1331027000001086,['n'],1,right,['1'],6,0.17392339999992146,18,,,,,,,7,18,Vrouw,Links,2,
,xotask,dotcolour,dotcolour,29,2,149,449,main,positivefb,-99,easy,,0.5333441000000221,['c'],1,left,['1'],6,0.1710478999998486,74,,,,,,,7,18,Vrouw,Links,2,
,xotask,dotcolour,dotcolour,30,2,150,450,main,positivefb,-99,hard,,0.6173906000001352,['c'],1,left,['1'],6,0.11632950000011988,52,,,,,,,7,18,Vrouw,Links,2,
,xotask,dotcolour,dotcolour,31,2,151,451,main,positivefb,-99,hard,,0.5835495000001174,['c'],1,left,['1'],6,0.12891599999989012,53,,,,,,,7,18,Vrouw,Links,2,
,xotask,dotcolour,dotcolour,32,2,152,452,main,positivefb,-99,hard,,0.701189099999965,['c'],1,left,['1'],6,0.0724937999998474,52,,,,,,,7,18,Vrouw,Links,2,
,xotask,dotcolour,dotcolour,33,2,153,453,main,positivefb,-99,easy,,0.8338034999999309,['n'],1,right,['1'],6,0.3175839000000451,6,,,,,,,7,18,Vrouw,Links,2,
,xotask,dotcolour,dotcolour,34,2,154,454,main,positivefb,-99,average,,1.133876999999984,['n'],1,right,['1'],6,0.1962333999999828,15,,,,,,,7,18,Vrouw,Links,2,
,xotask,dotcolour,dotcolour,35,2,155,455,main,positivefb,-99,easy,,0.5668904999999995,['c'],1,left,['1'],6,0.030834799999865936,72,,,,,,,7,18,Vrouw,Links,2,
,xotask,dotcolour,dotcolour,36,2,156,456,main,positivefb,-99,hard,,0.6343752999998742,['c'],0,right,['1'],6,0.08452919999990627,25,,,,,,,7,18,Vrouw,Links,2,
,xotask,dotcolour,dotcolour,37,2,157,457,main,positivefb,-99,hard,,1.8335148000001027,['c'],1,left,['1'],6,0.07378659999994852,51,,,,,,,7,18,Vrouw,Links,2,
,xotask,dotcolour,dotcolour,38,2,158,458,main,positivefb,-99,easy,,0.6497846000002028,['n'],1,right,['1'],6,0.19750559999988582,6,,,,,,,7,18,Vrouw,Links,2,
,xotask,dotcolour,dotcolour,39,2,159,459,main,positivefb,-99,average,,0.750287900000103,['n'],1,right,['1'],6,0.2322434999998677,17,,,,,,,7,18,Vrouw,Links,2,
,xotask,dotcolour,dotcolour,40,2,160,460,main,positivefb,-99,average,,1.5170329000000038,['c'],1,left,['1'],6,0.12341130000004341,60,,,,,,,7,18,Vrouw,Links,2,
,xotask,dotcolour,dotcolour,41,2,161,461,main,positivefb,-99,average,,1.083216499999935,['c'],1,left,['1'],6,0.11592190000010305,64,,,,,,,7,18,Vrouw,Links,2,
,xotask,dotcolour,dotcolour,42,2,162,462,main,positivefb,-99,hard,,0.85084710000001,['c'],1,left,['1'],6,0.11012720000007903,53,,,,,,,7,18,Vrouw,Links,2,
,xotask,dotcolour,dotcolour,43,2,163,463,main,positivefb,-99,easy,,0.717687099999921,['c'],1,left,['1'],6,0.13412959999982377,72,,,,,,,7,18,Vrouw,Links,2,
,xotask,dotcolour,dotcolour,44,2,164,464,main,positivefb,-99,hard,,1.1495926000000054,['c'],1,left,['1'],6,0.19538999999986117,54,,,,,,,7,18,Vrouw,Links,2,
,xotask,dotcolour,dotcolour,45,2,165,465,main,positivefb,-99,hard,,1.0179924000001392,['c'],0,right,['1'],6,0.13219690000005357,28,,,,,,,7,18,Vrouw,Links,2,
,xotask,dotcolour,dotcolour,46,2,166,466,main,positivefb,-99,easy,,0.650617800000191,['c'],1,left,['1'],6,0.10143030000017461,71,,,,,,,7,18,Vrouw,Links,2,
,xotask,dotcolour,dotcolour,47,2,167,467,main,positivefb,-99,hard,,0.7679653999998663,['n'],1,right,['1'],6,0.18733920000022408,27,,,,,,,7,18,Vrouw,Links,2,
,xotask,dotcolour,dotcolour,48,2,168,468,main,positivefb,-99,average,,0.9170427999999902,['n'],1,right,['1'],6,0.1040766999999505,17,,,,,,,7,18,Vrouw,Links,2,
,xotask,dotcolour,dotcolour,49,2,169,469,main,positivefb,-99,average,,1.0006837000000814,['n'],1,right,['1'],6,0.15685229999985495,18,,,,,,,7,18,Vrouw,Links,2,
,xotask,dotcolour,dotcolour,50,2,170,470,main,positivefb,-99,average,,1.0015072000001055,['n'],1,right,['1'],6,0.1835504000000583,19,,,,,,,7,18,Vrouw,Links,2,
,xotask,dotcolour,dotcolour,51,2,171,471,main,positivefb,-99,easy,,0.4507858000001761,['n'],1,right,['1'],6,0.14264670000011392,7,,,,,,,7,18,Vrouw,Links,2,
,xotask,dotcolour,dotcolour,52,2,172,472,main,positivefb,-99,average,,1.683600800000022,['c'],1,left,['1'],6,0.18289470000013353,61,,,,,,,7,18,Vrouw,Links,2,
,xotask,dotcolour,dotcolour,53,2,173,473,main,positivefb,-99,hard,,1.2842702000000372,['n'],1,right,['1'],6,0.1324337999999443,28,,,,,,,7,18,Vrouw,Links,2,
,xotask,dotcolour,dotcolour,54,2,174,474,main,positivefb,-99,hard,,0.4662241000000904,['n'],1,right,['1'],6,0.14925349999998616,28,,,,,,,7,18,Vrouw,Links,2,
,xotask,dotcolour,dotcolour,55,2,175,475,main,positivefb,-99,hard,,0.6507364999999936,['n'],1,right,['1'],6,0.23016099999995276,29,,,,,,,7,18,Vrouw,Links,2,
,xotask,dotcolour,dotcolour,56,2,176,476,main,positivefb,-99,easy,,0.6507983999999851,['c'],1,left,['1'],6,0.3162287000000106,70,,,,,,,7,18,Vrouw,Links,2,
,xotask,dotcolour,dotcolour,57,2,177,477,main,positivefb,-99,easy,,0.8999452999998994,['n'],1,right,['1'],6,0.18004739999992125,7,,,,,,,7,18,Vrouw,Links,2,
,xotask,dotcolour,dotcolour,58,2,178,478,main,positivefb,-99,average,,0.5332957000000533,['c'],1,left,['1'],6,0.22481820000007247,60,,,,,,,7,18,Vrouw,Links,2,
,xotask,dotcolour,dotcolour,59,2,179,479,main,positivefb,-99,average,,0.8494877000000542,['c'],0,right,['0'],1,1.7107558999998673,16,,,,,,,7,18,Vrouw,Links,2,
,xotask,dotcolour,dotcolour,0,3,180,480,main,positivefb,-99,average,,1.217048499999919,['n'],0,left,['1'],6,0.2728250999998636,60,,,,,,,7,18,Vrouw,Links,2,
,xotask,dotcolour,dotcolour,1,3,181,481,main,positivefb,-99,easy,,0.5667759000000387,['n'],1,right,['1'],6,0.24008170000001883,9,,,,,,,7,18,Vrouw,Links,2,
,xotask,dotcolour,dotcolour,2,3,182,482,main,positivefb,-99,average,,0.8173515000000862,['n'],1,right,['1'],6,0.1987759000001006,18,,,,,,,7,18,Vrouw,Links,2,
,xotask,dotcolour,dotcolour,3,3,183,483,main,positivefb,-99,hard,,0.5836439000001974,['n'],0,left,['1'],6,0.6560517000000345,54,,,,,,,7,18,Vrouw,Links,2,
,xotask,dotcolour,dotcolour,4,3,184,484,main,positivefb,-99,hard,,1.3175605999999789,['n'],1,right,['1'],6,0.23420820000001186,25,,,,,,,7,18,Vrouw,Links,2,
,xotask,dotcolour,dotcolour,5,3,185,485,main,positivefb,-99,average,,1.0005696000000626,['c'],1,left,['1'],6,0.30430729999989126,62,,,,,,,7,18,Vrouw,Links,2,
,xotask,dotcolour,dotcolour,6,3,186,486,main,positivefb,-99,average,,0.7169281999999839,['c'],1,left,['2'],5,0.28156669999998485,64,,,,,,,7,18,Vrouw,Links,2,
,xotask,dotcolour,dotcolour,7,3,187,487,main,positivefb,-99,hard,,0.8185799999998835,['n'],1,right,['1'],6,0.5577054000000317,27,,,,,,,7,18,Vrouw,Links,2,
,xotask,dotcolour,dotcolour,8,3,188,488,main,positivefb,-99,easy,,0.4667035999998461,['n'],1,right,['1'],6,0.1498529000000417,9,,,,,,,7,18,Vrouw,Links,2,
,xotask,dotcolour,dotcolour,9,3,189,489,main,positivefb,-99,average,,0.7659086999999545,['n'],1,right,['1'],6,0.17811889999984487,15,,,,,,,7,18,Vrouw,Links,2,
,xotask,dotcolour,dotcolour,10,3,190,490,main,positivefb,-99,average,,1.4004277999999886,['n'],0,left,['1'],6,0.1559661999999662,64,,,,,,,7,18,Vrouw,Links,2,
,xotask,dotcolour,dotcolour,11,3,191,491,main,positivefb,-99,hard,,0.6670967000000019,['n'],1,right,['1'],6,0.3477831000000151,29,,,,,,,7,18,Vrouw,Links,2,
,xotask,dotcolour,dotcolour,12,3,192,492,main,positivefb,-99,hard,,0.7170820999999705,['n'],0,left,['3'],4,1.442771399999856,51,,,,,,,7,18,Vrouw,Links,2,
,xotask,dotcolour,dotcolour,13,3,193,493,main,positivefb,-99,easy,,0.900599800000009,['c'],1,left,['2'],5,0.470010099999854,71,,,,,,,7,18,Vrouw,Links,2,
,xotask,dotcolour,dotcolour,14,3,194,494,main,positivefb,-99,average,,1.617774499999996,['n'],1,right,['2'],5,0.45082460000003266,19,,,,,,,7,18,Vrouw,Links,2,
,xotask,dotcolour,dotcolour,15,3,195,495,main,positivefb,-99,easy,,0.7178435999999238,['c'],1,left,['1'],6,0.43740939999997863,71,,,,,,,7,18,Vrouw,Links,2,
,xotask,dotcolour,dotcolour,16,3,196,496,main,positivefb,-99,hard,,0.7010807000001478,['c'],1,left,['1'],6,0.1440471000000798,52,,,,,,,7,18,Vrouw,Links,2,
,xotask,dotcolour,dotcolour,17,3,197,497,main,positivefb,-99,easy,,0.8666998000001058,['c'],1,left,['1'],6,0.4094865999998092,70,,,,,,,7,18,Vrouw,Links,2,
,xotask,dotcolour,dotcolour,18,3,198,498,main,positivefb,-99,easy,,0.8001544999999624,['n'],1,right,['1'],6,0.2574811999998019,9,,,,,,,7,18,Vrouw,Links,2,
,xotask,dotcolour,dotcolour,19,3,199,499,main,positivefb,-99,hard,,2.268051900000046,['c'],1,left,['1'],6,0.15801780000015242,53,,,,,,,7,18,Vrouw,Links,2,
,xotask,dotcolour,dotcolour,20,3,200,500,main,positivefb,-99,hard,,1.2008997000000363,['n'],0,left,['2'],5,0.3196794000000409,51,,,,,,,7,18,Vrouw,Links,2,
,xotask,dotcolour,dotcolour,21,3,201,501,main,positivefb,-99,hard,,2.217204000000038,['c'],0,right,['3'],4,0.48357739999983096,28,,,,,,,7,18,Vrouw,Links,2,
,xotask,dotcolour,dotcolour,22,3,202,502,main,positivefb,-99,easy,,0.9179604000000836,['c'],1,left,['1'],6,0.2835712000000967,73,,,,,,,7,18,Vrouw,Links,2,
,xotask,dotcolour,dotcolour,23,3,203,503,main,positivefb,-99,hard,,1.067625800000087,['c'],1,left,['1'],6,0.3273204999998143,53,,,,,,,7,18,Vrouw,Links,2,
,xotask,dotcolour,dotcolour,24,3,204,504,main,positivefb,-99,hard,,0.5825924000000668,['c'],1,left,['1'],6,0.32420520000005126,53,,,,,,,7,18,Vrouw,Links,2,
,xotask,dotcolour,dotcolour,25,3,205,505,main,positivefb,-99,average,,0.6838604000001851,['c'],1,left,['1'],6,0.33239979999984826,61,,,,,,,7,18,Vrouw,Links,2,
,xotask,dotcolour,dotcolour,26,3,206,506,main,positivefb,-99,average,,0.6508742000000893,['c'],1,left,['1'],6,0.3502684000000045,60,,,,,,,7,18,Vrouw,Links,2,
,xotask,dotcolour,dotcolour,27,3,207,507,main,positivefb,-99,hard,,0.6002837999999429,['c'],1,left,['1'],6,0.3370365999999194,54,,,,,,,7,18,Vrouw,Links,2,
,xotask,dotcolour,dotcolour,28,3,208,508,main,positivefb,-99,easy,,1.4178618000000824,['n'],1,right,['2'],5,0.6671174999999039,9,,,,,,,7,18,Vrouw,Links,2,
,xotask,dotcolour,dotcolour,29,3,209,509,main,positivefb,-99,hard,,1.2844471999999314,['n'],0,left,['1'],6,0.3490810999999212,51,,,,,,,7,18,Vrouw,Links,2,
,xotask,dotcolour,dotcolour,30,3,210,510,main,positivefb,-99,easy,,0.9170524000001024,['n'],1,right,['1'],6,0.23608209999997598,9,,,,,,,7,18,Vrouw,Links,2,
,xotask,dotcolour,dotcolour,31,3,211,511,main,positivefb,-99,average,,0.850910100000192,['c'],1,left,['1'],6,0.16032100000006722,62,,,,,,,7,18,Vrouw,Links,2,
,xotask,dotcolour,dotcolour,32,3,212,512,main,positivefb,-99,easy,,0.6336263999999119,['n'],1,right,['1'],6,0.09878240000011829,8,,,,,,,7,18,Vrouw,Links,2,
,xotask,dotcolour,dotcolour,33,3,213,513,main,positivefb,-99,average,,1.3165255999999772,['c'],1,left,['1'],6,0.07420810000007805,61,,,,,,,7,18,Vrouw,Links,2,
,xotask,dotcolour,dotcolour,34,3,214,514,main,positivefb,-99,easy,,0.7168265000000247,['c'],1,left,['1'],6,0.10008029999994505,70,,,,,,,7,18,Vrouw,Links,2,
,xotask,dotcolour,dotcolour,35,3,215,515,main,positivefb,-99,average,,0.6335569999998825,['n'],1,right,['2'],5,0.6633546000000479,16,,,,,,,7,18,Vrouw,Links,2,
,xotask,dotcolour,dotcolour,36,3,216,516,main,positivefb,-99,hard,,0.7511564999999791,['n'],1,right,['2'],5,0.36748099999999795,28,,,,,,,7,18,Vrouw,Links,2,
,xotask,dotcolour,dotcolour,37,3,217,517,main,positivefb,-99,hard,,1.0164147999998931,['n'],1,right,['2'],5,0.4967779999999493,25,,,,,,,7,18,Vrouw,Links,2,
,xotask,dotcolour,dotcolour,38,3,218,518,main,positivefb,-99,average,,1.4012767000001531,['c'],1,left,['2'],5,0.4222895000000335,60,,,,,,,7,18,Vrouw,Links,2,
,xotask,dotcolour,dotcolour,39,3,219,519,main,positivefb,-99,average,,0.9513804999999138,['n'],1,right,['2'],5,0.3040502999999717,17,,,,,,,7,18,Vrouw,Links,2,
,xotask,dotcolour,dotcolour,40,3,220,520,main,positivefb,-99,average,,1.401119699999981,['c'],1,left,['1'],6,0.31643020000001343,63,,,,,,,7,18,Vrouw,Links,2,
,xotask,dotcolour,dotcolour,41,3,221,521,main,positivefb,-99,hard,,0.8505437999999685,['n'],1,right,['1'],6,0.23161129999994046,29,,,,,,,7,18,Vrouw,Links,2,
,xotask,dotcolour,dotcolour,42,3,222,522,main,positivefb,-99,hard,,1.2676324999999906,['n'],1,right,['1'],6,0.5554768999998032,28,,,,,,,7,18,Vrouw,Links,2,
,xotask,dotcolour,dotcolour,43,3,223,523,main,positivefb,-99,easy,,1.3016781999999694,['c'],1,left,['2'],5,0.3306759999998121,70,,,,,,,7,18,Vrouw,Links,2,
,xotask,dotcolour,dotcolour,44,3,224,524,main,positivefb,-99,average,,0.58383230000004,['n'],1,right,['1'],6,0.26278270000011617,16,,,,,,,7,18,Vrouw,Links,2,
,xotask,dotcolour,dotcolour,45,3,225,525,main,positivefb,-99,easy,,0.6507297999999082,['n'],1,right,['1'],6,0.17158660000018244,7,,,,,,,7,18,Vrouw,Links,2,
,xotask,dotcolour,dotcolour,46,3,226,526,main,positivefb,-99,average,,0.8006405000000996,['n'],1,right,['1'],6,0.19774099999995087,15,,,,,,,7,18,Vrouw,Links,2,
,xotask,dotcolour,dotcolour,47,3,227,527,main,positivefb,-99,average,,0.6332345999999234,['n'],1,right,['1'],6,0.16537960000005114,15,,,,,,,7,18,Vrouw,Links,2,
,xotask,dotcolour,dotcolour,48,3,228,528,main,positivefb,-99,hard,,0.7164882999998099,['n'],1,right,['1'],6,0.1954541000000063,26,,,,,,,7,18,Vrouw,Links,2,
,xotask,dotcolour,dotcolour,49,3,229,529,main,positivefb,-99,average,,0.6183389999998781,['n'],1,right,['1'],6,0.16311580000001413,18,,,,,,,7,18,Vrouw,Links,2,
,xotask,dotcolour,dotcolour,50,3,230,530,main,positivefb,-99,easy,,0.8333648999998786,['c'],1,left,['2'],5,0.2846022000001085,71,,,,,,,7,18,Vrouw,Links,2,
,xotask,dotcolour,dotcolour,51,3,231,531,main,positivefb,-99,average,,0.6504923999998482,['n'],1,right,['1'],6,0.3197565000000395,16,,,,,,,7,18,Vrouw,Links,2,
,xotask,dotcolour,dotcolour,52,3,232,532,main,positivefb,-99,easy,,0.8000953999999183,['n'],1,right,['1'],6,0.26867620000007264,6,,,,,,,7,18,Vrouw,Links,2,
,xotask,dotcolour,dotcolour,53,3,233,533,main,positivefb,-99,easy,,0.6342682999998033,['c'],1,left,['1'],6,0.20884369999998853,72,,,,,,,7,18,Vrouw,Links,2,
,xotask,dotcolour,dotcolour,54,3,234,534,main,positivefb,-99,hard,,0.900865400000157,['n'],0,left,['1'],6,0.061764900000071066,53,,,,,,,7,18,Vrouw,Links,2,
,xotask,dotcolour,dotcolour,55,3,235,535,main,positivefb,-99,easy,,0.5004724000000351,['c'],1,left,['1'],6,0.05613240000002406,74,,,,,,,7,18,Vrouw,Links,2,
,xotask,dotcolour,dotcolour,56,3,236,536,main,positivefb,-99,easy,,0.5841113999999834,['c'],1,left,['1'],6,0.06348630000002231,74,,,,,,,7,18,Vrouw,Links,2,
,xotask,dotcolour,dotcolour,57,3,237,537,main,positivefb,-99,easy,,0.7330820999998195,['n'],1,right,['1'],6,0.11326030000009268,8,,,,,,,7,18,Vrouw,Links,2,
,xotask,dotcolour,dotcolour,58,3,238,538,main,positivefb,-99,easy,,0.6679195000001528,['n'],1,right,['1'],6,0.026647899999943547,9,,,,,,,7,18,Vrouw,Links,2,
,xotask,dotcolour,dotcolour,59,3,239,539,main,positivefb,-99,hard,,1.0497940000000199,['n'],1,right,['2'],5,0.201095099999975,28,,,,,,,7,18,Vrouw,Links,2,
,xotask,dotcolour,dotcolour,0,4,240,540,main,positivefb,-99,hard,,2.7016344999999546,['c'],0,right,['2'],5,0.7423415000000659,27,,,,,,,7,18,Vrouw,Links,2,
,xotask,dotcolour,dotcolour,1,4,241,541,main,positivefb,-99,hard,,0.7677324000001136,['n'],1,right,['2'],5,0.13808429999994587,29,,,,,,,7,18,Vrouw,Links,2,
,xotask,dotcolour,dotcolour,2,4,242,542,main,positivefb,-99,average,,0.783737199999905,['c'],1,left,['1'],6,0.08663090000004559,62,,,,,,,7,18,Vrouw,Links,2,
,xotask,dotcolour,dotcolour,3,4,243,543,main,positivefb,-99,hard,,0.7509204999998929,['c'],0,right,['1'],6,0.05379219999986162,28,,,,,,,7,18,Vrouw,Links,2,
,xotask,dotcolour,dotcolour,4,4,244,544,main,positivefb,-99,average,,0.7344775000001391,['c'],0,right,['9'],2,1.4309311000001799,19,,,,,,,7,18,Vrouw,Links,2,
,xotask,dotcolour,dotcolour,5,4,245,545,main,positivefb,-99,easy,,1.234633600000052,['c'],1,left,['1'],6,0.12554739999995945,70,,,,,,,7,18,Vrouw,Links,2,
,xotask,dotcolour,dotcolour,6,4,246,546,main,positivefb,-99,easy,,0.7007894000000761,['c'],1,left,['1'],6,0.926046400000132,72,,,,,,,7,18,Vrouw,Links,2,
,xotask,dotcolour,dotcolour,7,4,247,547,main,positivefb,-99,easy,,2.268710199999987,['n'],1,right,['2'],5,0.2151602000001276,7,,,,,,,7,18,Vrouw,Links,2,
,xotask,dotcolour,dotcolour,8,4,248,548,main,positivefb,-99,easy,,3.08348019999994,['n'],1,right,['2'],5,0.20400219999987712,9,,,,,,,7,18,Vrouw,Links,2,
,xotask,dotcolour,dotcolour,9,4,249,549,main,positivefb,-99,easy,,1.3675398999998833,['c'],1,left,['1'],6,0.22086659999990843,74,,,,,,,7,18,Vrouw,Links,2,
,xotask,dotcolour,dotcolour,10,4,250,550,main,positivefb,-99,average,,0.6669102000000748,['c'],1,left,['1'],6,0.09915419999992992,60,,,,,,,7,18,Vrouw,Links,2,
,xotask,dotcolour,dotcolour,11,4,251,551,main,positivefb,-99,hard,,5.800877199999832,['c'],0,right,['0'],1,0.4948506000000634,26,,,,,,,7,18,Vrouw,Links,2,
,xotask,dotcolour,dotcolour,12,4,252,552,main,positivefb,-99,hard,,2.084560799999963,['c'],1,left,['2'],5,0.9776641000000836,50,,,,,,,7,18,Vrouw,Links,2,
,xotask,dotcolour,dotcolour,13,4,253,553,main,positivefb,-99,average,,1.0005427999999483,['c'],1,left,['2'],5,0.10785710000004656,61,,,,,,,7,18,Vrouw,Links,2,
,xotask,dotcolour,dotcolour,14,4,254,554,main,positivefb,-99,hard,,0.5504100999999082,['c'],1,left,['1'],6,0.07467590000010205,54,,,,,,,7,18,Vrouw,Links,2,
,xotask,dotcolour,dotcolour,15,4,255,555,main,positivefb,-99,easy,,0.6672232000000804,['n'],1,right,['1'],6,0.34112389999995685,6,,,,,,,7,18,Vrouw,Links,2,
,xotask,dotcolour,dotcolour,16,4,256,556,main,positivefb,-99,average,,1.1997744999998758,['c'],1,left,['2'],5,0.0331452000000354,61,,,,,,,7,18,Vrouw,Links,2,
,xotask,dotcolour,dotcolour,17,4,257,557,main,positivefb,-99,average,,0.9000688000000991,['n'],1,right,['2'],5,0.948595800000021,18,,,,,,,7,18,Vrouw,Links,2,
,xotask,dotcolour,dotcolour,18,4,258,558,main,positivefb,-99,hard,,0.8177393000000848,['c'],0,right,['2'],5,0.08645789999991393,29,,,,,,,7,18,Vrouw,Links,2,
,xotask,dotcolour,dotcolour,19,4,259,559,main,positivefb,-99,easy,,0.5174345000000358,['c'],1,left,['1'],6,0.10231450000014775,71,,,,,,,7,18,Vrouw,Links,2,
,xotask,dotcolour,dotcolour,20,4,260,560,main,positivefb,-99,hard,,0.7835062999999991,['c'],1,left,['1'],6,0.100450599999931,53,,,,,,,7,18,Vrouw,Links,2,
,xotask,dotcolour,dotcolour,21,4,261,561,main,positivefb,-99,average,,0.6334911999999804,['n'],1,right,['1'],6,0.08727399999997942,18,,,,,,,7,18,Vrouw,Links,2,
,xotask,dotcolour,dotcolour,22,4,262,562,main,positivefb,-99,easy,,0.600330299999996,['n'],1,right,['1'],6,0.06118960000003426,8,,,,,,,7,18,Vrouw,Links,2,
,xotask,dotcolour,dotcolour,23,4,263,563,main,positivefb,-99,easy,,0.6515896000000794,['c'],1,left,['1'],6,0.06511590000013712,74,,,,,,,7,18,Vrouw,Links,2,
,xotask,dotcolour,dotcolour,24,4,264,564,main,positivefb,-99,hard,,1.0654732999998942,['n'],0,left,['1'],6,0.13314520000017183,53,,,,,,,7,18,Vrouw,Links,2,
,xotask,dotcolour,dotcolour,25,4,265,565,main,positivefb,-99,easy,,1.1341530000001967,['c'],1,left,['2'],5,0.14711340000008022,72,,,,,,,7,18,Vrouw,Links,2,
,xotask,dotcolour,dotcolour,26,4,266,566,main,positivefb,-99,hard,,0.8175731999999698,['c'],1,left,['2'],5,0.1339795999999751,50,,,,,,,7,18,Vrouw,Links,2,
,xotask,dotcolour,dotcolour,27,4,267,567,main,positivefb,-99,hard,,0.6831815000000461,['c'],0,right,['2'],5,0.10100519999991775,27,,,,,,,7,18,Vrouw,Links,2,
,xotask,dotcolour,dotcolour,28,4,268,568,main,positivefb,-99,average,,1.1502832999999555,['n'],1,right,['2'],5,0.28477609999981723,16,,,,,,,7,18,Vrouw,Links,2,
,xotask,dotcolour,dotcolour,29,4,269,569,main,positivefb,-99,easy,,0.8330387000000883,['n'],1,right,['1'],6,0.16881690000013805,6,,,,,,,7,18,Vrouw,Links,2,
,xotask,dotcolour,dotcolour,30,4,270,570,main,positivefb,-99,hard,,1.2665924999998879,['c'],1,left,['2'],5,0.2798897999998644,50,,,,,,,7,18,Vrouw,Links,2,
,xotask,dotcolour,dotcolour,31,4,271,571,main,positivefb,-99,hard,,0.9013281000000006,['n'],1,right,['2'],5,0.1935363000000052,29,,,,,,,7,18,Vrouw,Links,2,
,xotask,dotcolour,dotcolour,32,4,272,572,main,positivefb,-99,hard,,0.7502624000001106,['c'],1,left,['2'],5,0.08509309999999459,53,,,,,,,7,18,Vrouw,Links,2,
,xotask,dotcolour,dotcolour,33,4,273,573,main,positivefb,-99,average,,1.2677128000000266,['c'],1,left,['1'],6,0.11083929999995235,62,,,,,,,7,18,Vrouw,Links,2,
,xotask,dotcolour,dotcolour,34,4,274,574,main,positivefb,-99,hard,,0.6669518000001062,['c'],0,right,['1'],6,0.09769370000003619,28,,,,,,,7,18,Vrouw,Links,2,
,xotask,dotcolour,dotcolour,35,4,275,575,main,positivefb,-99,easy,,0.8164121999998315,['n'],1,right,['2'],5,0.33453129999998055,9,,,,,,,7,18,Vrouw,Links,2,
,xotask,dotcolour,dotcolour,36,4,276,576,main,positivefb,-99,hard,,0.7003366999999798,['n'],0,left,['2'],5,0.4217940000000908,53,,,,,,,7,18,Vrouw,Links,2,
,xotask,dotcolour,dotcolour,37,4,277,577,main,positivefb,-99,average,,0.9168085999999676,['n'],1,right,['2'],5,0.248633400000017,18,,,,,,,7,18,Vrouw,Links,2,
,xotask,dotcolour,dotcolour,38,4,278,578,main,positivefb,-99,average,,0.46751910000011776,['n'],1,right,['1'],6,0.165134099999932,18,,,,,,,7,18,Vrouw,Links,2,
,xotask,dotcolour,dotcolour,39,4,279,579,main,positivefb,-99,average,,1.0510438999999678,['c'],1,left,['1'],6,0.18116980000013427,62,,,,,,,7,18,Vrouw,Links,2,
,xotask,dotcolour,dotcolour,40,4,280,580,main,positivefb,-99,average,,0.8179749999999331,['c'],1,left,['1'],6,0.1984236000000692,62,,,,,,,7,18,Vrouw,Links,2,
,xotask,dotcolour,dotcolour,41,4,281,581,main,positivefb,-99,average,,0.5498257000001558,['n'],1,right,['1'],6,0.16926439999997456,19,,,,,,,7,18,Vrouw,Links,2,
,xotask,dotcolour,dotcolour,42,4,282,582,main,positivefb,-99,easy,,0.6340511999999308,['n'],1,right,['1'],6,0.18541750000008506,8,,,,,,,7,18,Vrouw,Links,2,
,xotask,dotcolour,dotcolour,43,4,283,583,main,positivefb,-99,easy,,0.8674602999999479,['c'],1,left,['1'],6,0.2644032000000607,72,,,,,,,7,18,Vrouw,Links,2,
,xotask,dotcolour,dotcolour,44,4,284,584,main,positivefb,-99,hard,,0.8169613000000027,['n'],1,right,['2'],5,0.2624247999999625,26,,,,,,,7,18,Vrouw,Links,2,
,xotask,dotcolour,dotcolour,45,4,285,585,main,positivefb,-99,easy,,0.700719799999888,['c'],1,left,['1'],6,0.14510329999984606,71,,,,,,,7,18,Vrouw,Links,2,
,xotask,dotcolour,dotcolour,46,4,286,586,main,positivefb,-99,hard,,0.5507823999998891,['c'],1,left,['1'],6,0.07752270000014505,51,,,,,,,7,18,Vrouw,Links,2,
,xotask,dotcolour,dotcolour,47,4,287,587,main,positivefb,-99,average,,0.6667812999999114,['n'],1,right,['1'],6,0.1061514000000443,15,,,,,,,7,18,Vrouw,Links,2,
,xotask,dotcolour,dotcolour,48,4,288,588,main,positivefb,-99,easy,,0.5845864999998867,['n'],1,right,['1'],6,0.13486919999991187,9,,,,,,,7,18,Vrouw,Links,2,
,xotask,dotcolour,dotcolour,49,4,289,589,main,positivefb,-99,average,,0.6496817000002011,['c'],1,left,['2'],5,0.10447320000002946,60,,,,,,,7,18,Vrouw,Links,2,
,xotask,dotcolour,dotcolour,50,4,290,590,main,positivefb,-99,average,,0.8844695999998748,['c'],1,left,['1'],6,0.13672730000007505,64,,,,,,,7,18,Vrouw,Links,2,
,xotask,dotcolour,dotcolour,51,4,291,591,main,positivefb,-99,hard,,0.6675261000000319,['c'],1,left,['1'],6,0.10637729999984913,51,,,,,,,7,18,Vrouw,Links,2,
,xotask,dotcolour,dotcolour,52,4,292,592,main,positivefb,-99,average,,0.7520764000000781,['c'],0,right,['1'],6,0.06417069999997693,17,,,,,,,7,18,Vrouw,Links,2,
,xotask,dotcolour,dotcolour,53,4,293,593,main,positivefb,-99,easy,,0.6342881000000489,['c'],1,left,['1'],6,0.10986280000020088,74,,,,,,,7,18,Vrouw,Links,2,
,xotask,dotcolour,dotcolour,54,4,294,594,main,positivefb,-99,average,,0.716775699999971,['n'],1,right,['1'],6,0.1572636999999304,19,,,,,,,7,18,Vrouw,Links,2,
,xotask,dotcolour,dotcolour,55,4,295,595,main,positivefb,-99,easy,,0.7493729000000258,['n'],1,right,['1'],6,0.14651690000005146,5,,,,,,,7,18,Vrouw,Links,2,
,xotask,dotcolour,dotcolour,56,4,296,596,main,positivefb,-99,easy,,0.717072299999927,['n'],1,right,['1'],6,0.1770259999998416,6,,,,,,,7,18,Vrouw,Links,2,
,xotask,dotcolour,dotcolour,57,4,297,597,main,positivefb,-99,average,,0.8502484999999069,['c'],1,left,['2'],5,0.03311379999991004,64,,,,,,,7,18,Vrouw,Links,2,
,xotask,dotcolour,dotcolour,58,4,298,598,main,positivefb,-99,hard,,0.8828172000000905,['n'],1,right,['1'],6,0.13314020000007076,25,,,,,,,7,18,Vrouw,Links,2,
,xotask,dotcolour,dotcolour,59,4,299,599,main,positivefb,-99,easy,,0.5672250000000076,['c'],1,left,['1'],6,0.08149939999998423,73,,,,,,,7,18,Vrouw,Links,2,
,dotcolour,dotcolour,dotcolour,0,0,0,600,training,positivefb,98,easy,19,0.5497798999999759,['n'],1,right,['1'],6,0.23318159999985255,,,,,,,,7,18,Vrouw,Links,2,
,dotcolour,dotcolour,dotcolour,1,0,1,601,training,positivefb,97,easy,64,0.533359899999823,['c'],1,left,['1'],6,0.0664208000000599,,,,,,,,7,18,Vrouw,Links,2,
,dotcolour,dotcolour,dotcolour,2,0,2,602,training,positivefb,91,hard,44,0.6499871000000894,['n'],0,left,['1'],6,0.045836000000008426,,,,,,,,7,18,Vrouw,Links,2,
,dotcolour,dotcolour,dotcolour,3,0,3,603,training,positivefb,96,average,25,0.5504473999999391,['n'],1,right,['1'],6,0.0540777999999591,,,,,,,,7,18,Vrouw,Links,2,
,dotcolour,dotcolour,dotcolour,4,0,4,604,training,positivefb,96,average,54,0.582872499999894,['c'],1,left,['1'],6,0.012410600000066552,,,,,,,,7,18,Vrouw,Links,2,
,dotcolour,dotcolour,dotcolour,5,0,5,605,training,positivefb,98,easy,15,0.4835719000000154,['n'],1,right,['1'],6,0.09770560000015394,,,,,,,,7,18,Vrouw,Links,2,
,dotcolour,dotcolour,dotcolour,6,0,6,606,training,positivefb,99,average,29,0.40168579999999565,['n'],1,right,['1'],6,0.08543350000013561,,,,,,,,7,18,Vrouw,Links,2,
,dotcolour,dotcolour,dotcolour,7,0,7,607,training,positivefb,95,hard,43,0.7004460000000563,['n'],0,left,['1'],6,0.08701560000008612,,,,,,,,7,18,Vrouw,Links,2,
,dotcolour,dotcolour,dotcolour,8,0,8,608,training,positivefb,97,easy,64,0.5512535000000298,['c'],1,left,['1'],6,0.05302540000002409,,,,,,,,7,18,Vrouw,Links,2,
,dotcolour,dotcolour,dotcolour,9,0,9,609,training,positivefb,94,easy,64,0.5335383999999976,['c'],1,left,['1'],6,0.0693636000000879,,,,,,,,7,18,Vrouw,Links,2,
,dotcolour,dotcolour,dotcolour,10,0,10,610,training,positivefb,96,hard,37,0.6338690999998562,['c'],0,right,['1'],6,0.07327199999986078,,,,,,,,7,18,Vrouw,Links,2,
,dotcolour,dotcolour,dotcolour,11,0,11,611,training,positivefb,96,average,51,0.4656918000000587,['c'],1,left,['1'],6,0.013000599999941187,,,,,,,,7,18,Vrouw,Links,2,
,dotcolour,dotcolour,dotcolour,12,0,12,612,training,positivefb,89,average,26,0.5484765999999581,['n'],1,right,['1'],6,0.02250359999993634,,,,,,,,7,18,Vrouw,Links,2,
,dotcolour,dotcolour,dotcolour,13,0,13,613,training,positivefb,94,hard,36,0.6679106999999931,['n'],1,right,['1'],6,0.09959469999989778,,,,,,,,7,18,Vrouw,Links,2,
,dotcolour,dotcolour,dotcolour,14,0,14,614,training,positivefb,95,easy,65,0.5332716000000346,['n'],0,left,['1'],6,0.09840490000010504,,,,,,,,7,18,Vrouw,Links,2,
,dotcolour,dotcolour,dotcolour,15,0,15,615,training,positivefb,93,hard,39,0.6163367999999991,['n'],1,right,['1'],6,0.05348379999986719,,,,,,,,7,18,Vrouw,Links,2,
,dotcolour,dotcolour,dotcolour,16,0,16,616,training,positivefb,98,average,26,0.5330208000000312,['n'],1,right,['1'],6,0.054497300000093674,,,,,,,,7,18,Vrouw,Links,2,
,dotcolour,dotcolour,dotcolour,17,0,17,617,training,positivefb,98,hard,39,0.6011015999999927,['n'],1,right,['1'],6,0.6756565999999111,,,,,,,,7,18,Vrouw,Links,2,
,dotcolour,dotcolour,dotcolour,18,0,18,618,training,positivefb,82,hard,43,1.0007164999999532,['n'],0,left,['1'],6,0.06450440000003255,,,,,,,,7,18,Vrouw,Links,2,
,dotcolour,dotcolour,dotcolour,19,0,19,619,training,positivefb,97,easy,62,0.4673366000001806,['c'],1,left,['1'],6,0.07539740000015627,,,,,,,,7,18,Vrouw,Links,2,
,dotcolour,dotcolour,dotcolour,20,0,20,620,training,positivefb,97,average,29,0.7160615000000234,['n'],1,right,['1'],6,0.06910259999995105,,,,,,,,7,18,Vrouw,Links,2,
,dotcolour,dotcolour,dotcolour,21,0,21,621,training,positivefb,95,easy,16,0.6166168999998263,['n'],1,right,['1'],6,0.01706190000004426,,,,,,,,7,18,Vrouw,Links,2,
,dotcolour,dotcolour,dotcolour,22,0,22,622,training,positivefb,93,easy,64,0.7001123000000007,['c'],1,left,['1'],6,0.029098900000008143,,,,,,,,7,18,Vrouw,Links,2,
,dotcolour,dotcolour,dotcolour,23,0,23,623,training,positivefb,99,average,53,0.5834767999999713,['c'],1,left,['1'],6,0.7005727999999181,,,,,,,,7,18,Vrouw,Links,2,
