starttime,task,fbtask,firsttask,withinblocktrial,block,withintasktrial,trial,running,feedback,fbscore,difflevel,reddots,rt,resp,cor,cresp,conf_press,cj,RTconf,n_xes,stoptime,sub,age,gender,handedness,session,
1716448998,dotcolour,dotcolour,dotcolour,0,0,0,0,training,negativefb,43,hard,37,3.1677365999998983,['c'],0,right,['8'],3,2.9153196000002026,,,39,31,Vrouw,Links,1,
,dotcolour,dotcolour,dotcolour,1,0,1,1,training,negativefb,86,average,27,4.217109400000027,['n'],1,right,['8'],3,2.4043381999999838,,,39,31,Vrouw,Links,1,
,dotcolour,dotcolour,dotcolour,2,0,2,2,training,negativefb,97,easy,16,2.7667123999999603,['n'],1,right,['1'],6,1.8936874999999418,,,39,31,Vrouw,Links,1,
,dotcolour,dotcolour,dotcolour,3,0,3,3,training,negativefb,85,average,27,3.2660697999999684,['n'],1,right,['9'],2,1.7747533000001567,,,39,31,Vrouw,Links,1,
,dotcolour,dotcolour,dotcolour,4,0,4,4,training,negativefb,97,easy,62,2.2671782000002167,['c'],1,left,['2'],5,1.236651400000028,,,39,31,Vrouw,Links,1,
,dotcolour,dotcolour,dotcolour,5,0,5,5,training,negativefb,74,easy,16,1.5841196999999738,['n'],1,right,['1'],6,1.4680363000002217,,,39,31,Vrouw,Links,1,
,dotcolour,dotcolour,dotcolour,6,0,6,6,training,negativefb,78,hard,35,2.6672559999997247,['c'],0,right,['8'],3,1.030260399999861,,,39,31,Vrouw,Links,1,
,dotcolour,dotcolour,dotcolour,7,0,7,7,training,negativefb,98,average,52,1.9011227999999392,['c'],1,left,['3'],4,3.849162299999989,,,39,31,Vrouw,Links,1,
,dotcolour,dotcolour,dotcolour,8,0,8,8,training,negativefb,93,average,26,1.4341651999998248,['n'],1,right,['2'],5,1.5248767000002772,,,39,31,Vrouw,Links,1,
,dotcolour,dotcolour,dotcolour,9,0,9,9,training,negativefb,89,easy,18,1.3336836999997104,['n'],1,right,['1'],6,0.88979049999989,,,39,31,Vrouw,Links,1,
,dotcolour,dotcolour,dotcolour,10,0,10,10,training,negativefb,97,hard,37,1.9177076999999372,['n'],1,right,['9'],2,1.241117900000063,,,39,31,Vrouw,Links,1,
,dotcolour,dotcolour,dotcolour,11,0,11,11,training,negativefb,97,average,25,1.1665603000001283,['n'],1,right,['2'],5,0.8892996999998104,,,39,31,Vrouw,Links,1,
,dotcolour,dotcolour,dotcolour,12,0,12,12,training,negativefb,55,average,28,2.249321599999803,['n'],1,right,['2'],5,0.9485704000003352,,,39,31,Vrouw,Links,1,
,dotcolour,dotcolour,dotcolour,13,0,13,13,training,negativefb,68,easy,61,1.5334923999998864,['c'],1,left,['1'],6,0.9215527999999722,,,39,31,Vrouw,Links,1,
,dotcolour,dotcolour,dotcolour,14,0,14,14,training,negativefb,87,easy,64,1.55010429999993,['c'],1,left,['1'],6,0.5342353000000912,,,39,31,Vrouw,Links,1,
,dotcolour,dotcolour,dotcolour,15,0,15,15,training,negativefb,80,easy,15,1.099489000000176,['n'],1,right,['1'],6,1.1654138999997485,,,39,31,Vrouw,Links,1,
,dotcolour,dotcolour,dotcolour,16,0,16,16,training,negativefb,80,easy,65,1.2837149000001773,['c'],1,left,['1'],6,0.79472799999985,,,39,31,Vrouw,Links,1,
,dotcolour,dotcolour,dotcolour,17,0,17,17,training,negativefb,52,average,53,2.033150100000057,['c'],1,left,['3'],4,0.8346173999998427,,,39,31,Vrouw,Links,1,
,dotcolour,dotcolour,dotcolour,18,0,18,18,training,negativefb,37,hard,43,1.049585599999773,['n'],0,left,['3'],4,1.359056100000089,,,39,31,Vrouw,Links,1,
,dotcolour,dotcolour,dotcolour,19,0,19,19,training,negativefb,27,hard,41,1.4002737000000707,['n'],0,left,['8'],3,0.9214707999999519,,,39,31,Vrouw,Links,1,
,dotcolour,dotcolour,dotcolour,20,0,20,20,training,negativefb,88,easy,65,1.1669873999999254,['c'],1,left,['1'],6,1.061881699999958,,,39,31,Vrouw,Links,1,
,dotcolour,dotcolour,dotcolour,21,0,21,21,training,negativefb,96,easy,15,1.0836659999999938,['n'],1,right,['3'],4,1.6564920000000711,,,39,31,Vrouw,Links,1,
,dotcolour,dotcolour,dotcolour,22,0,22,22,training,negativefb,40,hard,44,2.2329922999997507,['n'],0,left,['8'],3,1.0204098999997768,,,39,31,Vrouw,Links,1,
,dotcolour,dotcolour,dotcolour,23,0,23,23,training,negativefb,64,hard,38,2.2008405999999923,['c'],0,right,['3'],4,1.036001199999646,,,39,31,Vrouw,Links,1,
,dotcolour,dotcolour,dotcolour,24,0,24,24,training,negativefb,54,easy,62,1.2502579000001788,['c'],1,left,['1'],6,0.3924931999999899,,,39,31,Vrouw,Links,1,
,dotcolour,dotcolour,dotcolour,25,0,25,25,training,negativefb,61,average,26,0.9497188999998798,['n'],1,right,['1'],6,0.6588630000001103,,,39,31,Vrouw,Links,1,
,dotcolour,dotcolour,dotcolour,26,0,26,26,training,negativefb,71,easy,64,1.3165027999998529,['c'],1,left,['1'],6,0.284796599999936,,,39,31,Vrouw,Links,1,
,dotcolour,dotcolour,dotcolour,27,0,27,27,training,negativefb,33,average,51,1.4839883999998165,['n'],0,left,['8'],3,0.7664005999999972,,,39,31,Vrouw,Links,1,
,dotcolour,dotcolour,dotcolour,28,0,28,28,training,negativefb,96,average,52,1.184274799999912,['c'],1,left,['3'],4,0.9438915999999153,,,39,31,Vrouw,Links,1,
,dotcolour,dotcolour,dotcolour,29,0,29,29,training,negativefb,89,average,52,1.3341095000000678,['c'],1,left,['1'],6,0.5648957000003065,,,39,31,Vrouw,Links,1,
,dotcolour,dotcolour,dotcolour,30,0,30,30,training,negativefb,75,average,28,1.0490724999999657,['n'],1,right,['1'],6,0.8602419000003465,,,39,31,Vrouw,Links,1,
,dotcolour,dotcolour,dotcolour,31,0,31,31,training,negativefb,66,easy,18,0.9840186999999787,['n'],1,right,['1'],6,0.3872074999999313,,,39,31,Vrouw,Links,1,
,dotcolour,dotcolour,dotcolour,32,0,32,32,training,negativefb,54,easy,64,1.6171628000001874,['c'],1,left,['1'],6,0.3952193999998599,,,39,31,Vrouw,Links,1,
,dotcolour,dotcolour,dotcolour,33,0,33,33,training,negativefb,47,hard,43,1.1182678999998643,['n'],0,left,['9'],2,1.0238807000000634,,,39,31,Vrouw,Links,1,
,dotcolour,dotcolour,dotcolour,34,0,34,34,training,negativefb,88,average,54,2.0005089000001135,['c'],1,left,['8'],3,1.207008699999733,,,39,31,Vrouw,Links,1,
,dotcolour,dotcolour,dotcolour,35,0,35,35,training,negativefb,54,average,28,1.050407599999744,['n'],1,right,['1'],6,0.39649629999985336,,,39,31,Vrouw,Links,1,
,dotcolour,dotcolour,dotcolour,36,0,36,36,training,negativefb,96,average,27,0.9664275999998608,['n'],1,right,['2'],5,1.2711902000000919,,,39,31,Vrouw,Links,1,
,dotcolour,dotcolour,dotcolour,37,0,37,37,training,negativefb,85,hard,37,1.2849128999996537,['n'],1,right,['2'],5,0.6328388000001723,,,39,31,Vrouw,Links,1,
,dotcolour,dotcolour,dotcolour,38,0,38,38,training,negativefb,41,average,52,2.1017046000001756,['c'],1,left,['2'],5,0.898805700000139,,,39,31,Vrouw,Links,1,
,dotcolour,dotcolour,dotcolour,39,0,39,39,training,negativefb,62,hard,38,0.8984083999998802,['n'],1,right,['3'],4,1.5959035999999287,,,39,31,Vrouw,Links,1,
,dotcolour,dotcolour,dotcolour,40,0,40,40,training,negativefb,54,hard,39,1.484126699999706,['n'],1,right,['2'],5,1.6806598999996822,,,39,31,Vrouw,Links,1,
,dotcolour,dotcolour,dotcolour,41,0,41,41,training,negativefb,32,hard,45,4.483750500000042,['n'],0,left,['9'],2,1.2499355999998443,,,39,31,Vrouw,Links,1,
,dotcolour,dotcolour,dotcolour,42,0,42,42,training,negativefb,11,hard,44,1.2994539999999688,['n'],0,left,['3'],4,1.0038465000002361,,,39,31,Vrouw,Links,1,
,dotcolour,dotcolour,dotcolour,43,0,43,43,training,negativefb,60,hard,45,2.7494896999996854,['c'],1,left,['1'],6,0.47784850000016377,,,39,31,Vrouw,Links,1,
,dotcolour,dotcolour,dotcolour,44,0,44,44,training,negativefb,68,average,51,1.3841282000003048,['c'],1,left,['2'],5,1.2119292999996105,,,39,31,Vrouw,Links,1,
,dotcolour,dotcolour,dotcolour,45,0,45,45,training,negativefb,83,average,29,1.1173616999999467,['n'],1,right,['3'],4,0.8713406000001669,,,39,31,Vrouw,Links,1,
,dotcolour,dotcolour,dotcolour,46,0,46,46,training,negativefb,68,easy,61,1.3844558000000688,['c'],1,left,['2'],5,0.9011548000003131,,,39,31,Vrouw,Links,1,
,dotcolour,dotcolour,dotcolour,47,0,47,47,training,negativefb,73,easy,61,1.266337300000032,['c'],1,left,['1'],6,0.33451930000001084,,,39,31,Vrouw,Links,1,
,dotcolour,dotcolour,dotcolour,48,0,48,48,training,negativefb,84,hard,35,0.8496353999998973,['n'],1,right,['3'],4,0.9030796000001828,,,39,31,Vrouw,Links,1,
,dotcolour,dotcolour,dotcolour,49,0,49,49,training,negativefb,56,hard,45,1.399557900000218,['n'],0,left,['8'],3,1.2513159000000087,,,39,31,Vrouw,Links,1,
,dotcolour,dotcolour,dotcolour,50,0,50,50,training,negativefb,22,hard,45,1.216602899999998,['n'],0,left,['2'],5,0.4166212000000087,,,39,31,Vrouw,Links,1,
,dotcolour,dotcolour,dotcolour,51,0,51,51,training,negativefb,62,hard,41,0.9494140000001607,['n'],0,left,['2'],5,0.6899553000002925,,,39,31,Vrouw,Links,1,
,dotcolour,dotcolour,dotcolour,52,0,52,52,training,negativefb,88,easy,15,0.8833444000001691,['n'],1,right,['1'],6,0.4511978000000454,,,39,31,Vrouw,Links,1,
,dotcolour,dotcolour,dotcolour,53,0,53,53,training,negativefb,81,average,53,1.400833700000021,['c'],1,left,['8'],3,0.8653517999996438,,,39,31,Vrouw,Links,1,
,dotcolour,dotcolour,dotcolour,54,0,54,54,training,negativefb,78,hard,35,1.4829396000000088,['n'],1,right,['3'],4,1.451238199999807,,,39,31,Vrouw,Links,1,
,dotcolour,dotcolour,dotcolour,55,0,55,55,training,negativefb,31,average,53,1.61668839999993,['n'],0,left,['8'],3,0.8239694999997482,,,39,31,Vrouw,Links,1,
,dotcolour,dotcolour,dotcolour,56,0,56,56,training,negativefb,66,easy,15,0.8829028999998627,['n'],1,right,['1'],6,0.36374360000036177,,,39,31,Vrouw,Links,1,
,dotcolour,dotcolour,dotcolour,57,0,57,57,training,negativefb,81,easy,17,0.867749300000014,['n'],1,right,['1'],6,0.259203399999933,,,39,31,Vrouw,Links,1,
,dotcolour,dotcolour,dotcolour,58,0,58,58,training,negativefb,55,hard,35,0.9330653000001803,['n'],1,right,['2'],5,0.532077500000014,,,39,31,Vrouw,Links,1,
,dotcolour,dotcolour,dotcolour,59,0,59,59,training,negativefb,65,easy,17,0.7495371999998497,['n'],1,right,['1'],6,0.2646128999999746,,,39,31,Vrouw,Links,1,
,dotcolour,dotcolour,dotcolour,0,1,60,60,training,negativefb,60,average,27,0.9331644999997479,['n'],1,right,['2'],5,0.7359759999999369,,,39,31,Vrouw,Links,1,
,dotcolour,dotcolour,dotcolour,1,1,61,61,training,negativefb,44,easy,16,0.8002393000001575,['n'],1,right,['1'],6,0.24292229999991832,,,39,31,Vrouw,Links,1,
,dotcolour,dotcolour,dotcolour,2,1,62,62,training,negativefb,96,hard,35,0.7331923000001552,['n'],1,right,['2'],5,0.6599962000000232,,,39,31,Vrouw,Links,1,
,dotcolour,dotcolour,dotcolour,3,1,63,63,training,negativefb,79,easy,18,0.8326713000001291,['n'],1,right,['1'],6,0.3047219000000041,,,39,31,Vrouw,Links,1,
,dotcolour,dotcolour,dotcolour,4,1,64,64,training,negativefb,46,hard,38,0.9001027999997859,['n'],1,right,['3'],4,0.7607646999999815,,,39,31,Vrouw,Links,1,
,dotcolour,dotcolour,dotcolour,5,1,65,65,training,negativefb,75,average,26,0.7502425000002404,['n'],1,right,['2'],5,0.65275580000025,,,39,31,Vrouw,Links,1,
,dotcolour,dotcolour,dotcolour,6,1,66,66,training,negativefb,53,average,27,0.8335577999996531,['n'],1,right,['1'],6,0.28936009999961243,,,39,31,Vrouw,Links,1,
,dotcolour,dotcolour,dotcolour,7,1,67,67,training,negativefb,88,average,55,1.216735499999686,['c'],1,left,['2'],5,0.685443899999882,,,39,31,Vrouw,Links,1,
,dotcolour,dotcolour,dotcolour,8,1,68,68,training,negativefb,71,easy,65,1.766850599999998,['c'],1,left,['1'],6,1.0593651000003774,,,39,31,Vrouw,Links,1,
,dotcolour,dotcolour,dotcolour,9,1,69,69,training,negativefb,87,easy,19,0.7342432000000372,['n'],1,right,['1'],6,1.1880533000003197,,,39,31,Vrouw,Links,1,
,dotcolour,dotcolour,dotcolour,10,1,70,70,training,negativefb,82,easy,64,1.2849011999996947,['c'],1,left,['1'],6,0.36904309999999896,,,39,31,Vrouw,Links,1,
,dotcolour,dotcolour,dotcolour,11,1,71,71,training,negativefb,58,average,51,1.0832312999996248,['c'],1,left,['1'],6,0.46314810000012585,,,39,31,Vrouw,Links,1,
,dotcolour,dotcolour,dotcolour,12,1,72,72,training,negativefb,68,hard,44,2.1506664999997156,['c'],1,left,['3'],4,0.5034596999998939,,,39,31,Vrouw,Links,1,
,dotcolour,dotcolour,dotcolour,13,1,73,73,training,negativefb,85,easy,15,1.2172974000000067,['n'],1,right,['1'],6,0.850466200000028,,,39,31,Vrouw,Links,1,
,dotcolour,dotcolour,dotcolour,14,1,74,74,training,negativefb,70,average,53,1.3672985000002882,['c'],1,left,['1'],6,0.3773833000000195,,,39,31,Vrouw,Links,1,
,dotcolour,dotcolour,dotcolour,15,1,75,75,training,negativefb,54,average,54,1.132417499999974,['c'],1,left,['2'],5,0.6300750000000335,,,39,31,Vrouw,Links,1,
,dotcolour,dotcolour,dotcolour,16,1,76,76,training,negativefb,83,easy,64,1.6831271999999444,['c'],1,left,['1'],6,0.8098841000000903,,,39,31,Vrouw,Links,1,
,dotcolour,dotcolour,dotcolour,17,1,77,77,training,negativefb,47,hard,45,2.5004932000001645,['n'],0,left,['8'],3,0.69328059999998,,,39,31,Vrouw,Links,1,
,dotcolour,dotcolour,dotcolour,18,1,78,78,training,negativefb,83,average,53,1.7001969000002646,['c'],1,left,['1'],6,0.3664341000003333,,,39,31,Vrouw,Links,1,
,dotcolour,dotcolour,dotcolour,19,1,79,79,training,negativefb,72,easy,63,0.8501863000001322,['c'],1,left,['1'],6,0.33377810000001773,,,39,31,Vrouw,Links,1,
,dotcolour,dotcolour,dotcolour,20,1,80,80,training,negativefb,86,hard,35,1.133423700000094,['n'],1,right,['1'],6,1.2906370000000607,,,39,31,Vrouw,Links,1,
,dotcolour,dotcolour,dotcolour,21,1,81,81,training,negativefb,78,average,29,0.9336253999999826,['n'],1,right,['2'],5,0.7541237000000365,,,39,31,Vrouw,Links,1,
,dotcolour,dotcolour,dotcolour,22,1,82,82,training,negativefb,36,hard,35,1.0835104000002502,['n'],1,right,['2'],5,1.2973038999998607,,,39,31,Vrouw,Links,1,
,dotcolour,dotcolour,dotcolour,23,1,83,83,training,negativefb,60,hard,38,1.482997499999783,['n'],1,right,['2'],5,0.47438259999989896,,,39,31,Vrouw,Links,1,
,dotcolour,dotcolour,dotcolour,24,1,84,84,training,negativefb,10,hard,41,0.8658854999998766,['n'],0,left,['2'],5,0.7168424999999843,,,39,31,Vrouw,Links,1,
,dotcolour,dotcolour,dotcolour,25,1,85,85,training,negativefb,57,hard,42,1.549976699999661,['c'],1,left,['2'],5,0.4343418999997084,,,39,31,Vrouw,Links,1,
,dotcolour,dotcolour,dotcolour,26,1,86,86,training,negativefb,76,average,26,1.0180500000001302,['n'],1,right,['1'],6,0.9046011000000362,,,39,31,Vrouw,Links,1,
,dotcolour,dotcolour,dotcolour,27,1,87,87,training,negativefb,38,average,26,1.2327150999999503,['c'],0,right,['1'],6,0.5308201000002555,,,39,31,Vrouw,Links,1,
,dotcolour,dotcolour,dotcolour,28,1,88,88,training,negativefb,79,average,26,1.433972199999971,['n'],1,right,['1'],6,0.33242280000013125,,,39,31,Vrouw,Links,1,
,dotcolour,dotcolour,dotcolour,29,1,89,89,training,negativefb,63,easy,17,0.8828361000000768,['n'],1,right,['1'],6,0.26828230000000985,,,39,31,Vrouw,Links,1,
,dotcolour,dotcolour,dotcolour,30,1,90,90,training,negativefb,81,easy,19,0.7662624999998116,['n'],1,right,['1'],6,0.24334099999987302,,,39,31,Vrouw,Links,1,
,dotcolour,dotcolour,dotcolour,31,1,91,91,training,negativefb,47,easy,18,0.934171900000365,['n'],1,right,['1'],6,0.21273340000016105,,,39,31,Vrouw,Links,1,
,dotcolour,dotcolour,dotcolour,32,1,92,92,training,negativefb,63,average,51,1.1501972000000933,['c'],1,left,['2'],5,0.41430910000008225,,,39,31,Vrouw,Links,1,
,dotcolour,dotcolour,dotcolour,33,1,93,93,training,negativefb,80,hard,42,1.751420500000222,['c'],1,left,['3'],4,0.32809180000003835,,,39,31,Vrouw,Links,1,
,dotcolour,dotcolour,dotcolour,34,1,94,94,training,negativefb,77,hard,38,0.8672351999998682,['n'],1,right,['2'],5,0.38432719999991605,,,39,31,Vrouw,Links,1,
,dotcolour,dotcolour,dotcolour,35,1,95,95,training,negativefb,78,hard,43,0.8669362000000547,['n'],0,left,['8'],3,0.5345456000000013,,,39,31,Vrouw,Links,1,
,dotcolour,dotcolour,dotcolour,36,1,96,96,training,negativefb,55,hard,45,1.6004284000000553,['n'],0,left,['3'],4,0.41750320000028296,,,39,31,Vrouw,Links,1,
,dotcolour,dotcolour,dotcolour,37,1,97,97,training,negativefb,41,hard,44,0.9680927999997948,['n'],0,left,['1'],6,0.305677199999991,,,39,31,Vrouw,Links,1,
,dotcolour,dotcolour,dotcolour,38,1,98,98,training,negativefb,77,average,26,0.9495268999999098,['n'],1,right,['1'],6,0.26396180000028835,,,39,31,Vrouw,Links,1,
,dotcolour,dotcolour,dotcolour,39,1,99,99,training,negativefb,86,average,26,1.866271500000039,['n'],1,right,['1'],6,0.6193897000002835,,,39,31,Vrouw,Links,1,
,dotcolour,dotcolour,dotcolour,40,1,100,100,training,negativefb,55,hard,37,1.8500190999998267,['c'],0,right,['3'],4,0.8403441000000385,,,39,31,Vrouw,Links,1,
,dotcolour,dotcolour,dotcolour,41,1,101,101,training,negativefb,28,hard,35,2.4675352999997813,['n'],1,right,['3'],4,1.0122246999999334,,,39,31,Vrouw,Links,1,
,dotcolour,dotcolour,dotcolour,42,1,102,102,training,negativefb,83,easy,64,1.0346597999996447,['c'],1,left,['1'],6,0.2997110999999677,,,39,31,Vrouw,Links,1,
,dotcolour,dotcolour,dotcolour,43,1,103,103,training,negativefb,81,easy,16,0.8328209999999672,['n'],1,right,['1'],6,0.5260017000000516,,,39,31,Vrouw,Links,1,
,dotcolour,dotcolour,dotcolour,44,1,104,104,training,negativefb,53,hard,44,2.1332744000001185,['n'],0,left,['3'],4,0.6115428000002794,,,39,31,Vrouw,Links,1,
,dotcolour,dotcolour,dotcolour,45,1,105,105,training,negativefb,64,easy,18,2.1166416000000936,['n'],1,right,['1'],6,0.5510319999998501,,,39,31,Vrouw,Links,1,
,dotcolour,dotcolour,dotcolour,46,1,106,106,training,negativefb,67,hard,39,2.735032499999761,['n'],1,right,['3'],4,0.9157141000000593,,,39,31,Vrouw,Links,1,
,dotcolour,dotcolour,dotcolour,47,1,107,107,training,negativefb,44,average,53,1.683469900000091,['c'],1,left,['1'],6,0.2836287000000084,,,39,31,Vrouw,Links,1,
,dotcolour,dotcolour,dotcolour,48,1,108,108,training,negativefb,91,easy,61,1.0680876000001263,['c'],1,left,['1'],6,0.3093576999999641,,,39,31,Vrouw,Links,1,
,dotcolour,dotcolour,dotcolour,49,1,109,109,training,negativefb,91,easy,63,0.7500672999999551,['c'],1,left,['1'],6,0.2683231999999407,,,39,31,Vrouw,Links,1,
,dotcolour,dotcolour,dotcolour,50,1,110,110,training,negativefb,17,average,55,0.816552799999954,['n'],0,left,['8'],3,0.7285550999999941,,,39,31,Vrouw,Links,1,
,dotcolour,dotcolour,dotcolour,51,1,111,111,training,negativefb,74,hard,35,2.7168501999999535,['n'],1,right,['2'],5,0.4950655000002371,,,39,31,Vrouw,Links,1,
,dotcolour,dotcolour,dotcolour,52,1,112,112,training,negativefb,81,easy,63,1.9345558999998502,['c'],1,left,['1'],6,0.39830639999991035,,,39,31,Vrouw,Links,1,
,dotcolour,dotcolour,dotcolour,53,1,113,113,training,negativefb,65,easy,19,1.1504978000002666,['n'],1,right,['1'],6,0.37621979999994437,,,39,31,Vrouw,Links,1,
,dotcolour,dotcolour,dotcolour,54,1,114,114,training,negativefb,63,hard,45,1.417077000000063,['c'],1,left,['1'],6,0.2892016999999214,,,39,31,Vrouw,Links,1,
,dotcolour,dotcolour,dotcolour,55,1,115,115,training,negativefb,84,average,29,1.900371300000188,['n'],1,right,['3'],4,0.2503583999996408,,,39,31,Vrouw,Links,1,
,dotcolour,dotcolour,dotcolour,56,1,116,116,training,negativefb,61,average,55,2.049883300000147,['c'],1,left,['1'],6,0.4134976000000279,,,39,31,Vrouw,Links,1,
,dotcolour,dotcolour,dotcolour,57,1,117,117,training,negativefb,58,easy,61,0.9338096999999834,['c'],1,left,['1'],6,0.2724897000002784,,,39,31,Vrouw,Links,1,
,dotcolour,dotcolour,dotcolour,58,1,118,118,training,negativefb,58,average,52,1.5662600000000566,['c'],1,left,['1'],6,0.2952983000000131,,,39,31,Vrouw,Links,1,
,dotcolour,dotcolour,dotcolour,59,1,119,119,training,negativefb,78,easy,62,1.1500929000003453,['c'],1,left,['1'],6,0.3174152999999933,,,39,31,Vrouw,Links,1,
,dotcolour,dotcolour,dotcolour,0,2,120,120,main,negativefb,-99,average,51,2.933338400000139,['c'],1,left,['1'],6,0.6738368000001174,,,39,31,Vrouw,Links,1,
,dotcolour,dotcolour,dotcolour,1,2,121,121,main,negativefb,-99,hard,41,0.9850921000002018,['n'],0,left,['1'],6,1.032501400000001,,,39,31,Vrouw,Links,1,
,dotcolour,dotcolour,dotcolour,2,2,122,122,main,negativefb,-99,easy,19,0.9844694999997046,['n'],1,right,['1'],6,0.5848747000000003,,,39,31,Vrouw,Links,1,
,dotcolour,dotcolour,dotcolour,3,2,123,123,main,negativefb,-99,hard,37,1.5844773000003443,['n'],1,right,['1'],6,0.2983867000002647,,,39,31,Vrouw,Links,1,
,dotcolour,dotcolour,dotcolour,4,2,124,124,main,negativefb,-99,hard,38,1.3509672000000137,['n'],1,right,['1'],6,0.17695249999997031,,,39,31,Vrouw,Links,1,
,dotcolour,dotcolour,dotcolour,5,2,125,125,main,negativefb,-99,average,55,0.8674187999999958,['c'],1,left,['1'],6,0.21639060000006793,,,39,31,Vrouw,Links,1,
,dotcolour,dotcolour,dotcolour,6,2,126,126,main,negativefb,-99,easy,63,0.9515473999999813,['c'],1,left,['1'],6,0.19440899999972316,,,39,31,Vrouw,Links,1,
,dotcolour,dotcolour,dotcolour,7,2,127,127,main,negativefb,-99,hard,45,3.1003287999997156,['c'],1,left,['3'],4,0.5924683999996887,,,39,31,Vrouw,Links,1,
,dotcolour,dotcolour,dotcolour,8,2,128,128,main,negativefb,-99,average,54,2.467591900000116,['c'],1,left,['1'],6,0.32705570000007356,,,39,31,Vrouw,Links,1,
,dotcolour,dotcolour,dotcolour,9,2,129,129,main,negativefb,-99,average,29,0.9500877000000401,['n'],1,right,['2'],5,0.924272899999778,,,39,31,Vrouw,Links,1,
,dotcolour,dotcolour,dotcolour,10,2,130,130,main,negativefb,-99,hard,39,1.701369099999738,['n'],1,right,['2'],5,0.3241862999998375,,,39,31,Vrouw,Links,1,
,dotcolour,dotcolour,dotcolour,11,2,131,131,main,negativefb,-99,easy,63,1.9836075999996865,['c'],1,left,['1'],6,0.7606644000002234,,,39,31,Vrouw,Links,1,
,dotcolour,dotcolour,dotcolour,12,2,132,132,main,negativefb,-99,easy,65,0.9176062000001366,['c'],1,left,['1'],6,0.3034364000000096,,,39,31,Vrouw,Links,1,
,dotcolour,dotcolour,dotcolour,13,2,133,133,main,negativefb,-99,average,55,0.8840218999998797,['c'],1,left,['1'],6,0.2814415000002555,,,39,31,Vrouw,Links,1,
,dotcolour,dotcolour,dotcolour,14,2,134,134,main,negativefb,-99,average,28,0.9339632999999594,['n'],1,right,['1'],6,0.36893359999976383,,,39,31,Vrouw,Links,1,
,dotcolour,dotcolour,dotcolour,15,2,135,135,main,negativefb,-99,easy,17,0.8844675000000279,['n'],1,right,['1'],6,0.6229014999998981,,,39,31,Vrouw,Links,1,
,dotcolour,dotcolour,dotcolour,16,2,136,136,main,negativefb,-99,hard,38,2.0838371999998344,['c'],0,right,['3'],4,0.788627599999927,,,39,31,Vrouw,Links,1,
,dotcolour,dotcolour,dotcolour,17,2,137,137,main,negativefb,-99,average,28,0.7848297999998977,['n'],1,right,['2'],5,1.0058672000000115,,,39,31,Vrouw,Links,1,
,dotcolour,dotcolour,dotcolour,18,2,138,138,main,negativefb,-99,easy,18,1.1171001999996406,['n'],1,right,['2'],5,0.5945263999997223,,,39,31,Vrouw,Links,1,
,dotcolour,dotcolour,dotcolour,19,2,139,139,main,negativefb,-99,easy,17,0.7499195000000327,['n'],1,right,['1'],6,0.3732614000000467,,,39,31,Vrouw,Links,1,
,dotcolour,dotcolour,dotcolour,20,2,140,140,main,negativefb,-99,hard,44,1.5674552000000403,['c'],1,left,['3'],4,0.7685696999997162,,,39,31,Vrouw,Links,1,
,dotcolour,dotcolour,dotcolour,21,2,141,141,main,negativefb,-99,hard,45,1.2519578000001275,['c'],1,left,['3'],4,0.3450394999999844,,,39,31,Vrouw,Links,1,
,dotcolour,dotcolour,dotcolour,22,2,142,142,main,negativefb,-99,average,51,1.0355751000001874,['c'],1,left,['3'],4,0.682724600000256,,,39,31,Vrouw,Links,1,
,dotcolour,dotcolour,dotcolour,23,2,143,143,main,negativefb,-99,hard,44,0.9338637999999264,['n'],0,left,['3'],4,0.34686439999995855,,,39,31,Vrouw,Links,1,
,dotcolour,dotcolour,dotcolour,24,2,144,144,main,negativefb,-99,average,55,1.351246700000047,['c'],1,left,['2'],5,0.5839571000001342,,,39,31,Vrouw,Links,1,
,dotcolour,dotcolour,dotcolour,25,2,145,145,main,negativefb,-99,easy,62,0.8672706000002108,['c'],1,left,['2'],5,0.23866409999982352,,,39,31,Vrouw,Links,1,
,dotcolour,dotcolour,dotcolour,26,2,146,146,main,negativefb,-99,hard,45,1.6174934000000576,['c'],1,left,['2'],5,0.4849616999999853,,,39,31,Vrouw,Links,1,
,dotcolour,dotcolour,dotcolour,27,2,147,147,main,negativefb,-99,average,26,0.8683430999999473,['n'],1,right,['2'],5,0.25588639999978113,,,39,31,Vrouw,Links,1,
,dotcolour,dotcolour,dotcolour,28,2,148,148,main,negativefb,-99,easy,15,1.300819500000216,['n'],1,right,['1'],6,0.9147568000003048,,,39,31,Vrouw,Links,1,
,dotcolour,dotcolour,dotcolour,29,2,149,149,main,negativefb,-99,average,28,0.750517100000252,['n'],1,right,['1'],6,0.23279509999974834,,,39,31,Vrouw,Links,1,
,dotcolour,dotcolour,dotcolour,30,2,150,150,main,negativefb,-99,hard,42,1.884669400000348,['c'],1,left,['1'],6,0.300774199999978,,,39,31,Vrouw,Links,1,
,dotcolour,dotcolour,dotcolour,31,2,151,151,main,negativefb,-99,easy,65,1.4003673000001982,['c'],1,left,['1'],6,0.2257564999999886,,,39,31,Vrouw,Links,1,
,dotcolour,dotcolour,dotcolour,32,2,152,152,main,negativefb,-99,easy,15,0.8342250999999123,['n'],1,right,['2'],5,0.28834439999991446,,,39,31,Vrouw,Links,1,
,dotcolour,dotcolour,dotcolour,33,2,153,153,main,negativefb,-99,average,29,0.884153200000128,['n'],1,right,['2'],5,0.17756770000005417,,,39,31,Vrouw,Links,1,
,dotcolour,dotcolour,dotcolour,34,2,154,154,main,negativefb,-99,easy,19,0.7497702000000572,['n'],1,right,['2'],5,0.30961900000011155,,,39,31,Vrouw,Links,1,
,dotcolour,dotcolour,dotcolour,35,2,155,155,main,negativefb,-99,hard,37,0.7678453000003174,['n'],1,right,['2'],5,0.331886299999951,,,39,31,Vrouw,Links,1,
,dotcolour,dotcolour,dotcolour,36,2,156,156,main,negativefb,-99,easy,64,1.3519022000000405,['c'],1,left,['1'],6,0.7056015999996816,,,39,31,Vrouw,Links,1,
,dotcolour,dotcolour,dotcolour,37,2,157,157,main,negativefb,-99,easy,63,0.8341213999997308,['c'],1,left,['2'],5,0.37284509999972215,,,39,31,Vrouw,Links,1,
,dotcolour,dotcolour,dotcolour,38,2,158,158,main,negativefb,-99,hard,45,0.8675676000002568,['n'],0,left,['8'],3,1.1875837999996293,,,39,31,Vrouw,Links,1,
,dotcolour,dotcolour,dotcolour,39,2,159,159,main,negativefb,-99,easy,17,1.1505717000000004,['n'],1,right,['2'],5,0.5595355999998901,,,39,31,Vrouw,Links,1,
,dotcolour,dotcolour,dotcolour,40,2,160,160,main,negativefb,-99,average,27,0.6677146000001812,['n'],1,right,['2'],5,0.32741829999986294,,,39,31,Vrouw,Links,1,
,dotcolour,dotcolour,dotcolour,41,2,161,161,main,negativefb,-99,hard,36,1.2008396999999604,['n'],1,right,['2'],5,0.4991917000002104,,,39,31,Vrouw,Links,1,
,dotcolour,dotcolour,dotcolour,42,2,162,162,main,negativefb,-99,average,51,1.200738900000033,['c'],1,left,['3'],4,1.072656199999983,,,39,31,Vrouw,Links,1,
,dotcolour,dotcolour,dotcolour,43,2,163,163,main,negativefb,-99,hard,38,1.0680516000002171,['n'],1,right,['2'],5,0.5957527999999002,,,39,31,Vrouw,Links,1,
,dotcolour,dotcolour,dotcolour,44,2,164,164,main,negativefb,-99,average,28,0.751448900000014,['n'],1,right,['3'],4,0.5903650000000198,,,39,31,Vrouw,Links,1,
,dotcolour,dotcolour,dotcolour,45,2,165,165,main,negativefb,-99,hard,41,1.0511858999998367,['c'],1,left,['3'],4,0.462188900000001,,,39,31,Vrouw,Links,1,
,dotcolour,dotcolour,dotcolour,46,2,166,166,main,negativefb,-99,average,54,0.901342200000272,['c'],1,left,['3'],4,0.2732317999998486,,,39,31,Vrouw,Links,1,
,dotcolour,dotcolour,dotcolour,47,2,167,167,main,negativefb,-99,average,26,0.7680680000003122,['n'],1,right,['3'],4,0.4638260000001537,,,39,31,Vrouw,Links,1,
,dotcolour,dotcolour,dotcolour,48,2,168,168,main,negativefb,-99,hard,42,1.050471699999889,['n'],0,left,['2'],5,0.2529030000000603,,,39,31,Vrouw,Links,1,
,dotcolour,dotcolour,dotcolour,49,2,169,169,main,negativefb,-99,hard,35,0.8676798999999846,['n'],1,right,['2'],5,0.40071350000016537,,,39,31,Vrouw,Links,1,
,dotcolour,dotcolour,dotcolour,50,2,170,170,main,negativefb,-99,easy,62,1.5682366000000911,['c'],1,left,['3'],4,0.7785744999996496,,,39,31,Vrouw,Links,1,
,dotcolour,dotcolour,dotcolour,51,2,171,171,main,negativefb,-99,easy,18,0.7506798999997955,['n'],1,right,['1'],6,0.4469030999998722,,,39,31,Vrouw,Links,1,
,dotcolour,dotcolour,dotcolour,52,2,172,172,main,negativefb,-99,easy,17,0.6339281999999002,['n'],1,right,['1'],6,0.32456939999974566,,,39,31,Vrouw,Links,1,
,dotcolour,dotcolour,dotcolour,53,2,173,173,main,negativefb,-99,average,29,0.9010282999997798,['n'],1,right,['2'],5,0.3001690000000963,,,39,31,Vrouw,Links,1,
,dotcolour,dotcolour,dotcolour,54,2,174,174,main,negativefb,-99,easy,63,1.016927300000134,['c'],1,left,['2'],5,0.681355799999892,,,39,31,Vrouw,Links,1,
,dotcolour,dotcolour,dotcolour,55,2,175,175,main,negativefb,-99,average,55,0.8176285999998072,['c'],1,left,['2'],5,0.40657310000005964,,,39,31,Vrouw,Links,1,
,dotcolour,dotcolour,dotcolour,56,2,176,176,main,negativefb,-99,average,54,1.0181241000000227,['c'],1,left,['2'],5,0.4458654000000024,,,39,31,Vrouw,Links,1,
,dotcolour,dotcolour,dotcolour,57,2,177,177,main,negativefb,-99,hard,36,1.3521098999999595,['n'],1,right,['2'],5,0.6473732999997992,,,39,31,Vrouw,Links,1,
,dotcolour,dotcolour,dotcolour,58,2,178,178,main,negativefb,-99,easy,63,0.8679197999999815,['c'],1,left,['1'],6,0.46861570000010033,,,39,31,Vrouw,Links,1,
,dotcolour,dotcolour,dotcolour,59,2,179,179,main,negativefb,-99,hard,35,1.3513325999997505,['n'],1,right,['2'],5,0.5717641999999614,,,39,31,Vrouw,Links,1,
,dotcolour,dotcolour,dotcolour,0,3,180,180,main,negativefb,-99,easy,19,1.4833576999999423,['n'],1,right,['2'],5,0.6927559999999175,,,39,31,Vrouw,Links,1,
,dotcolour,dotcolour,dotcolour,1,3,181,181,main,negativefb,-99,easy,63,1.6673789000001307,['c'],1,left,['2'],5,0.6558195000002343,,,39,31,Vrouw,Links,1,
,dotcolour,dotcolour,dotcolour,2,3,182,182,main,negativefb,-99,easy,64,0.9008994999999231,['c'],1,left,['1'],6,0.45028140000022177,,,39,31,Vrouw,Links,1,
,dotcolour,dotcolour,dotcolour,3,3,183,183,main,negativefb,-99,easy,19,0.7012896000001092,['n'],1,right,['2'],5,0.5566529999996419,,,39,31,Vrouw,Links,1,
,dotcolour,dotcolour,dotcolour,4,3,184,184,main,negativefb,-99,easy,65,1.5845869999998285,['c'],1,left,['1'],6,0.29615629999989324,,,39,31,Vrouw,Links,1,
,dotcolour,dotcolour,dotcolour,5,3,185,185,main,negativefb,-99,hard,42,0.8502321999999367,['n'],0,left,['2'],5,0.5877575999998044,,,39,31,Vrouw,Links,1,
,dotcolour,dotcolour,dotcolour,6,3,186,186,main,negativefb,-99,easy,61,0.7847357000000557,['c'],1,left,['1'],6,0.24575770000001285,,,39,31,Vrouw,Links,1,
,dotcolour,dotcolour,dotcolour,7,3,187,187,main,negativefb,-99,average,26,1.6345188000000235,['n'],1,right,['2'],5,0.6357751000000462,,,39,31,Vrouw,Links,1,
,dotcolour,dotcolour,dotcolour,8,3,188,188,main,negativefb,-99,average,55,0.8333250999999109,['c'],1,left,['2'],5,0.4090310999999929,,,39,31,Vrouw,Links,1,
,dotcolour,dotcolour,dotcolour,9,3,189,189,main,negativefb,-99,hard,36,0.685142100000121,['n'],1,right,['2'],5,0.3751001000000542,,,39,31,Vrouw,Links,1,
,dotcolour,dotcolour,dotcolour,10,3,190,190,main,negativefb,-99,easy,15,0.8521499000003132,['n'],1,right,['1'],6,0.41470239999989644,,,39,31,Vrouw,Links,1,
,dotcolour,dotcolour,dotcolour,11,3,191,191,main,negativefb,-99,easy,62,1.0185983999999735,['c'],1,left,['1'],6,0.2621633999997357,,,39,31,Vrouw,Links,1,
,dotcolour,dotcolour,dotcolour,12,3,192,192,main,negativefb,-99,average,54,1.9507638999998562,['c'],1,left,['1'],6,0.40692210000042905,,,39,31,Vrouw,Links,1,
,dotcolour,dotcolour,dotcolour,13,3,193,193,main,negativefb,-99,hard,38,0.9667691999998169,['n'],1,right,['2'],5,0.488738800000192,,,39,31,Vrouw,Links,1,
,dotcolour,dotcolour,dotcolour,14,3,194,194,main,negativefb,-99,easy,18,0.8509002000000692,['n'],1,right,['1'],6,0.30020020000029035,,,39,31,Vrouw,Links,1,
,dotcolour,dotcolour,dotcolour,15,3,195,195,main,negativefb,-99,easy,15,0.6999591999997392,['n'],1,right,['1'],6,0.30152589999988777,,,39,31,Vrouw,Links,1,
,dotcolour,dotcolour,dotcolour,16,3,196,196,main,negativefb,-99,average,51,1.4005983000001834,['c'],1,left,['1'],6,0.3618316000001869,,,39,31,Vrouw,Links,1,
,dotcolour,dotcolour,dotcolour,17,3,197,197,main,negativefb,-99,hard,35,0.9348391999997148,['n'],1,right,['3'],4,0.5674306000000797,,,39,31,Vrouw,Links,1,
,dotcolour,dotcolour,dotcolour,18,3,198,198,main,negativefb,-99,easy,64,1.0336110000002918,['c'],1,left,['1'],6,0.2557301000001644,,,39,31,Vrouw,Links,1,
,dotcolour,dotcolour,dotcolour,19,3,199,199,main,negativefb,-99,easy,15,1.2178498999996918,['n'],1,right,['1'],6,0.5892970999998397,,,39,31,Vrouw,Links,1,
,dotcolour,dotcolour,dotcolour,20,3,200,200,main,negativefb,-99,hard,38,1.550351000000319,['c'],0,right,['2'],5,0.4405959000000621,,,39,31,Vrouw,Links,1,
,dotcolour,dotcolour,dotcolour,21,3,201,201,main,negativefb,-99,average,26,1.267743800000062,['n'],1,right,['1'],6,0.526282700000138,,,39,31,Vrouw,Links,1,
,dotcolour,dotcolour,dotcolour,22,3,202,202,main,negativefb,-99,average,25,0.7500830999997561,['n'],1,right,['1'],6,0.26747629999999845,,,39,31,Vrouw,Links,1,
,dotcolour,dotcolour,dotcolour,23,3,203,203,main,negativefb,-99,hard,38,0.6003584000000046,['n'],1,right,['1'],6,0.21776039999986097,,,39,31,Vrouw,Links,1,
,dotcolour,dotcolour,dotcolour,24,3,204,204,main,negativefb,-99,average,29,0.6003495999998449,['n'],1,right,['1'],6,0.28904130000000805,,,39,31,Vrouw,Links,1,
,dotcolour,dotcolour,dotcolour,25,3,205,205,main,negativefb,-99,easy,64,1.3844161000001804,['c'],1,left,['1'],6,0.6161505000000034,,,39,31,Vrouw,Links,1,
,dotcolour,dotcolour,dotcolour,26,3,206,206,main,negativefb,-99,hard,42,0.8839216999999735,['n'],0,left,['2'],5,0.39665759999979855,,,39,31,Vrouw,Links,1,
,dotcolour,dotcolour,dotcolour,27,3,207,207,main,negativefb,-99,easy,18,1.2855479999998352,['n'],1,right,['1'],6,0.6903032999998686,,,39,31,Vrouw,Links,1,
,dotcolour,dotcolour,dotcolour,28,3,208,208,main,negativefb,-99,hard,44,0.8343536000002132,['n'],0,left,['1'],6,0.3261410000000069,,,39,31,Vrouw,Links,1,
,dotcolour,dotcolour,dotcolour,29,3,209,209,main,negativefb,-99,hard,38,1.850752199999988,['n'],1,right,['2'],5,0.4078094000001329,,,39,31,Vrouw,Links,1,
,dotcolour,dotcolour,dotcolour,30,3,210,210,main,negativefb,-99,hard,38,0.9003440000001319,['n'],1,right,['3'],4,1.4125326000003042,,,39,31,Vrouw,Links,1,
,dotcolour,dotcolour,dotcolour,31,3,211,211,main,negativefb,-99,average,55,1.434155799999644,['c'],1,left,['3'],4,0.3557573999996748,,,39,31,Vrouw,Links,1,
,dotcolour,dotcolour,dotcolour,32,3,212,212,main,negativefb,-99,easy,19,0.833572600000025,['n'],1,right,['1'],6,0.2935686999999234,,,39,31,Vrouw,Links,1,
,dotcolour,dotcolour,dotcolour,33,3,213,213,main,negativefb,-99,hard,44,1.3673866000003727,['c'],1,left,['3'],4,0.49975929999982327,,,39,31,Vrouw,Links,1,
,dotcolour,dotcolour,dotcolour,34,3,214,214,main,negativefb,-99,average,28,0.6683748000000378,['n'],1,right,['1'],6,0.7426362999999583,,,39,31,Vrouw,Links,1,
,dotcolour,dotcolour,dotcolour,35,3,215,215,main,negativefb,-99,easy,62,0.9017917999999554,['c'],1,left,['2'],5,0.39741060000005746,,,39,31,Vrouw,Links,1,
,dotcolour,dotcolour,dotcolour,36,3,216,216,main,negativefb,-99,average,52,0.7335497999997642,['c'],1,left,['2'],5,0.19338569999990796,,,39,31,Vrouw,Links,1,
,dotcolour,dotcolour,dotcolour,37,3,217,217,main,negativefb,-99,hard,44,1.3840846999996756,['c'],1,left,['3'],4,0.29234839999980977,,,39,31,Vrouw,Links,1,
,dotcolour,dotcolour,dotcolour,38,3,218,218,main,negativefb,-99,hard,44,0.799964700000146,['c'],1,left,['3'],4,0.16953700000021854,,,39,31,Vrouw,Links,1,
,dotcolour,dotcolour,dotcolour,39,3,219,219,main,negativefb,-99,average,28,0.7503474000000097,['n'],1,right,['2'],5,0.5249167000001762,,,39,31,Vrouw,Links,1,
,dotcolour,dotcolour,dotcolour,40,3,220,220,main,negativefb,-99,hard,36,0.867869900000187,['n'],1,right,['2'],5,0.5977640999999494,,,39,31,Vrouw,Links,1,
,dotcolour,dotcolour,dotcolour,41,3,221,221,main,negativefb,-99,easy,61,0.8687205000001086,['c'],1,left,['2'],5,0.3398357999999462,,,39,31,Vrouw,Links,1,
,dotcolour,dotcolour,dotcolour,42,3,222,222,main,negativefb,-99,easy,15,0.8505636999998387,['n'],1,right,['1'],6,0.4612707999999657,,,39,31,Vrouw,Links,1,
,dotcolour,dotcolour,dotcolour,43,3,223,223,main,negativefb,-99,average,51,0.8010783999998239,['c'],1,left,['2'],5,0.4036994000002778,,,39,31,Vrouw,Links,1,
,dotcolour,dotcolour,dotcolour,44,3,224,224,main,negativefb,-99,average,27,0.768170000000282,['n'],1,right,['2'],5,1.1738500000001295,,,39,31,Vrouw,Links,1,
,dotcolour,dotcolour,dotcolour,45,3,225,225,main,negativefb,-99,average,52,1.1512778000001163,['c'],1,left,['1'],6,0.2978124999999636,,,39,31,Vrouw,Links,1,
,dotcolour,dotcolour,dotcolour,46,3,226,226,main,negativefb,-99,average,51,1.183272400000078,['n'],0,left,['2'],5,0.38406090000034965,,,39,31,Vrouw,Links,1,
,dotcolour,dotcolour,dotcolour,47,3,227,227,main,negativefb,-99,hard,36,1.1005064000000857,['n'],1,right,['1'],6,0.917527500000233,,,39,31,Vrouw,Links,1,
,dotcolour,dotcolour,dotcolour,48,3,228,228,main,negativefb,-99,average,52,2.400215499999831,['n'],0,left,['2'],5,0.37680860000000393,,,39,31,Vrouw,Links,1,
,dotcolour,dotcolour,dotcolour,49,3,229,229,main,negativefb,-99,hard,45,1.1839846999996553,['n'],0,left,['2'],5,0.49215079999976297,,,39,31,Vrouw,Links,1,
,dotcolour,dotcolour,dotcolour,50,3,230,230,main,negativefb,-99,hard,41,1.1343213999998625,['n'],0,left,['3'],4,0.5469678999997996,,,39,31,Vrouw,Links,1,
,dotcolour,dotcolour,dotcolour,51,3,231,231,main,negativefb,-99,hard,42,1.217627900000025,['n'],0,left,['3'],4,0.6943057999997109,,,39,31,Vrouw,Links,1,
,dotcolour,dotcolour,dotcolour,52,3,232,232,main,negativefb,-99,easy,18,0.7850264999997307,['n'],1,right,['1'],6,0.3971091000003071,,,39,31,Vrouw,Links,1,
,dotcolour,dotcolour,dotcolour,53,3,233,233,main,negativefb,-99,average,25,1.4340143999997963,['n'],1,right,['2'],5,0.45235279999997147,,,39,31,Vrouw,Links,1,
,dotcolour,dotcolour,dotcolour,54,3,234,234,main,negativefb,-99,hard,42,1.233612600000015,['n'],0,left,['3'],4,0.9454709999999977,,,39,31,Vrouw,Links,1,
,dotcolour,dotcolour,dotcolour,55,3,235,235,main,negativefb,-99,hard,36,1.532756099999915,['n'],1,right,['3'],4,0.5281346000001577,,,39,31,Vrouw,Links,1,
,dotcolour,dotcolour,dotcolour,56,3,236,236,main,negativefb,-99,average,51,1.1348210000001018,['c'],1,left,['2'],5,0.4300102000001971,,,39,31,Vrouw,Links,1,
,dotcolour,dotcolour,dotcolour,57,3,237,237,main,negativefb,-99,easy,64,0.7347588000002361,['c'],1,left,['2'],5,0.18500700000004144,,,39,31,Vrouw,Links,1,
,dotcolour,dotcolour,dotcolour,58,3,238,238,main,negativefb,-99,average,27,0.801264700000047,['n'],1,right,['1'],6,0.26656240000011167,,,39,31,Vrouw,Links,1,
,dotcolour,dotcolour,dotcolour,59,3,239,239,main,negativefb,-99,average,27,0.8512986999999157,['n'],1,right,['1'],6,0.43803920000027574,,,39,31,Vrouw,Links,1,
,dotcolour,dotcolour,dotcolour,0,4,240,240,main,negativefb,-99,easy,63,0.9517527000002701,['c'],1,left,['1'],6,1.2329216000002816,,,39,31,Vrouw,Links,1,
,dotcolour,dotcolour,dotcolour,1,4,241,241,main,negativefb,-99,hard,36,0.7347044999996797,['n'],1,right,['3'],4,0.7223667999996906,,,39,31,Vrouw,Links,1,
,dotcolour,dotcolour,dotcolour,2,4,242,242,main,negativefb,-99,easy,63,0.8500309000000925,['c'],1,left,['1'],6,0.23612510000020848,,,39,31,Vrouw,Links,1,
,dotcolour,dotcolour,dotcolour,3,4,243,243,main,negativefb,-99,average,53,0.7171935999999732,['c'],1,left,['1'],6,0.2152602000001025,,,39,31,Vrouw,Links,1,
,dotcolour,dotcolour,dotcolour,4,4,244,244,main,negativefb,-99,average,51,0.8007142000001295,['c'],1,left,['1'],6,0.21497390000013183,,,39,31,Vrouw,Links,1,
,dotcolour,dotcolour,dotcolour,5,4,245,245,main,negativefb,-99,average,26,0.7674671999998282,['n'],1,right,['1'],6,0.3040296999997736,,,39,31,Vrouw,Links,1,
,dotcolour,dotcolour,dotcolour,6,4,246,246,main,negativefb,-99,hard,43,1.0675974999999198,['n'],0,left,['2'],5,0.45046739999997953,,,39,31,Vrouw,Links,1,
,dotcolour,dotcolour,dotcolour,7,4,247,247,main,negativefb,-99,average,26,0.9336549999998169,['n'],1,right,['1'],6,0.3955636000000595,,,39,31,Vrouw,Links,1,
,dotcolour,dotcolour,dotcolour,8,4,248,248,main,negativefb,-99,easy,64,1.4174394000001485,['c'],1,left,['2'],5,0.6839217000001554,,,39,31,Vrouw,Links,1,
,dotcolour,dotcolour,dotcolour,9,4,249,249,main,negativefb,-99,easy,19,0.8006735999997545,['n'],1,right,['1'],6,0.5852854999998272,,,39,31,Vrouw,Links,1,
,dotcolour,dotcolour,dotcolour,10,4,250,250,main,negativefb,-99,hard,43,0.6685597999999118,['n'],0,left,['1'],6,0.2642571000001226,,,39,31,Vrouw,Links,1,
,dotcolour,dotcolour,dotcolour,11,4,251,251,main,negativefb,-99,hard,45,0.6841990000002625,['n'],0,left,['1'],6,0.24317530000007537,,,39,31,Vrouw,Links,1,
,dotcolour,dotcolour,dotcolour,12,4,252,252,main,negativefb,-99,average,25,0.6018662000001314,['n'],1,right,['1'],6,0.5226451999997153,,,39,31,Vrouw,Links,1,
,dotcolour,dotcolour,dotcolour,13,4,253,253,main,negativefb,-99,hard,45,0.9496103999999832,['c'],1,left,['2'],5,0.273154599999998,,,39,31,Vrouw,Links,1,
,dotcolour,dotcolour,dotcolour,14,4,254,254,main,negativefb,-99,average,28,0.7337966999998571,['n'],1,right,['2'],5,0.6810255000000325,,,39,31,Vrouw,Links,1,
,dotcolour,dotcolour,dotcolour,15,4,255,255,main,negativefb,-99,easy,15,0.9674403999997594,['n'],1,right,['1'],6,0.3356690000000526,,,39,31,Vrouw,Links,1,
,dotcolour,dotcolour,dotcolour,16,4,256,256,main,negativefb,-99,hard,43,0.8347355999999309,['n'],0,left,['2'],5,0.45792759999994814,,,39,31,Vrouw,Links,1,
,dotcolour,dotcolour,dotcolour,17,4,257,257,main,negativefb,-99,average,54,1.2180545999999595,['c'],1,left,['2'],5,0.959272300000066,,,39,31,Vrouw,Links,1,
,dotcolour,dotcolour,dotcolour,18,4,258,258,main,negativefb,-99,easy,64,2.33381959999997,['c'],1,left,['1'],6,0.47749290000001565,,,39,31,Vrouw,Links,1,
,dotcolour,dotcolour,dotcolour,19,4,259,259,main,negativefb,-99,average,27,0.6333620999998857,['n'],1,right,['1'],6,0.7542567000000417,,,39,31,Vrouw,Links,1,
,dotcolour,dotcolour,dotcolour,20,4,260,260,main,negativefb,-99,easy,18,0.7832311000001937,['n'],1,right,['1'],6,0.46155229999976655,,,39,31,Vrouw,Links,1,
,dotcolour,dotcolour,dotcolour,21,4,261,261,main,negativefb,-99,easy,64,0.8658105999998043,['c'],1,left,['1'],6,0.3295819999998457,,,39,31,Vrouw,Links,1,
,dotcolour,dotcolour,dotcolour,22,4,262,262,main,negativefb,-99,hard,36,0.8000444999997853,['n'],1,right,['2'],5,0.4614818000000014,,,39,31,Vrouw,Links,1,
,dotcolour,dotcolour,dotcolour,23,4,263,263,main,negativefb,-99,easy,64,1.699613500000396,['c'],1,left,['1'],6,0.42407060000005004,,,39,31,Vrouw,Links,1,
,dotcolour,dotcolour,dotcolour,24,4,264,264,main,negativefb,-99,hard,37,0.7507357999998021,['n'],1,right,['2'],5,0.7225330999999642,,,39,31,Vrouw,Links,1,
,dotcolour,dotcolour,dotcolour,25,4,265,265,main,negativefb,-99,average,29,0.6177300999997897,['n'],1,right,['2'],5,0.47756029999982275,,,39,31,Vrouw,Links,1,
,dotcolour,dotcolour,dotcolour,26,4,266,266,main,negativefb,-99,easy,61,0.8166538000000401,['c'],1,left,['1'],6,0.33890400000018417,,,39,31,Vrouw,Links,1,
,dotcolour,dotcolour,dotcolour,27,4,267,267,main,negativefb,-99,average,27,0.65041680000013,['n'],1,right,['2'],5,0.4361514000001989,,,39,31,Vrouw,Links,1,
,dotcolour,dotcolour,dotcolour,28,4,268,268,main,negativefb,-99,easy,16,2.3009587000001375,['n'],1,right,['2'],5,0.8955627000000277,,,39,31,Vrouw,Links,1,
,dotcolour,dotcolour,dotcolour,29,4,269,269,main,negativefb,-99,average,54,0.8502714000001106,['c'],1,left,['2'],5,0.29091269999980796,,,39,31,Vrouw,Links,1,
,dotcolour,dotcolour,dotcolour,30,4,270,270,main,negativefb,-99,average,54,1.233240300000034,['c'],1,left,['2'],5,0.35089890000017476,,,39,31,Vrouw,Links,1,
,dotcolour,dotcolour,dotcolour,31,4,271,271,main,negativefb,-99,easy,16,0.7165190000000621,['n'],1,right,['1'],6,0.6928346999998212,,,39,31,Vrouw,Links,1,
,dotcolour,dotcolour,dotcolour,32,4,272,272,main,negativefb,-99,hard,38,0.9168045000001257,['n'],1,right,['2'],5,0.5734755000003133,,,39,31,Vrouw,Links,1,
,dotcolour,dotcolour,dotcolour,33,4,273,273,main,negativefb,-99,easy,64,0.8507838999998967,['c'],1,left,['1'],6,0.30951120000008814,,,39,31,Vrouw,Links,1,
,dotcolour,dotcolour,dotcolour,34,4,274,274,main,negativefb,-99,easy,17,0.7511543999999049,['n'],1,right,['2'],5,0.5553052000000207,,,39,31,Vrouw,Links,1,
,dotcolour,dotcolour,dotcolour,35,4,275,275,main,negativefb,-99,hard,36,0.6177798999997322,['n'],1,right,['1'],6,0.3098261000000093,,,39,31,Vrouw,Links,1,
,dotcolour,dotcolour,dotcolour,36,4,276,276,main,negativefb,-99,hard,35,1.0845577999998568,['c'],0,right,['3'],4,0.6064981999998054,,,39,31,Vrouw,Links,1,
,dotcolour,dotcolour,dotcolour,37,4,277,277,main,negativefb,-99,average,28,0.9679040999999415,['n'],1,right,['2'],5,0.6891207000003305,,,39,31,Vrouw,Links,1,
,dotcolour,dotcolour,dotcolour,38,4,278,278,main,negativefb,-99,hard,42,1.4014514000000418,['n'],0,left,['3'],4,0.7987839000002168,,,39,31,Vrouw,Links,1,
,dotcolour,dotcolour,dotcolour,39,4,279,279,main,negativefb,-99,average,52,1.9010322999997697,['c'],1,left,['2'],5,0.41866790000040055,,,39,31,Vrouw,Links,1,
,dotcolour,dotcolour,dotcolour,40,4,280,280,main,negativefb,-99,average,28,0.8505847999999787,['n'],1,right,['1'],6,0.8175983999999517,,,39,31,Vrouw,Links,1,
,dotcolour,dotcolour,dotcolour,41,4,281,281,main,negativefb,-99,hard,44,2.0672850999999355,['n'],0,left,['2'],5,0.4699765000000298,,,39,31,Vrouw,Links,1,
,dotcolour,dotcolour,dotcolour,42,4,282,282,main,negativefb,-99,hard,36,1.0669874000000164,['n'],1,right,['1'],6,0.3616379000000052,,,39,31,Vrouw,Links,1,
,dotcolour,dotcolour,dotcolour,43,4,283,283,main,negativefb,-99,hard,43,1.3336463999999069,['c'],1,left,['2'],5,0.43956329999991794,,,39,31,Vrouw,Links,1,
,dotcolour,dotcolour,dotcolour,44,4,284,284,main,negativefb,-99,hard,43,1.017246399999749,['n'],0,left,['2'],5,0.36584990000028483,,,39,31,Vrouw,Links,1,
,dotcolour,dotcolour,dotcolour,45,4,285,285,main,negativefb,-99,average,54,1.749786800000038,['c'],1,left,['3'],4,0.5139699999999721,,,39,31,Vrouw,Links,1,
,dotcolour,dotcolour,dotcolour,46,4,286,286,main,negativefb,-99,average,55,1.6172922999999173,['c'],1,left,['2'],5,0.4854860999998891,,,39,31,Vrouw,Links,1,
,dotcolour,dotcolour,dotcolour,47,4,287,287,main,negativefb,-99,easy,18,1.1508160000003045,['n'],1,right,['1'],6,0.43704539999998815,,,39,31,Vrouw,Links,1,
,dotcolour,dotcolour,dotcolour,48,4,288,288,main,negativefb,-99,easy,63,1.6005860999998731,['c'],1,left,['2'],5,0.39683030000014696,,,39,31,Vrouw,Links,1,
,dotcolour,dotcolour,dotcolour,49,4,289,289,main,negativefb,-99,easy,19,0.7174577000000681,['n'],1,right,['1'],6,0.4887570000000778,,,39,31,Vrouw,Links,1,
,dotcolour,dotcolour,dotcolour,50,4,290,290,main,negativefb,-99,hard,44,1.6003660999999738,['c'],1,left,['2'],5,0.3589505999998437,,,39,31,Vrouw,Links,1,
,dotcolour,dotcolour,dotcolour,51,4,291,291,main,negativefb,-99,average,52,1.0328011000001425,['c'],1,left,['1'],6,0.2641059000002315,,,39,31,Vrouw,Links,1,
,dotcolour,dotcolour,dotcolour,52,4,292,292,main,negativefb,-99,hard,35,0.7495976999998675,['n'],1,right,['1'],6,0.36117289999992863,,,39,31,Vrouw,Links,1,
,dotcolour,dotcolour,dotcolour,53,4,293,293,main,negativefb,-99,average,26,0.6991475999998329,['n'],1,right,['1'],6,0.3116058000000521,,,39,31,Vrouw,Links,1,
,dotcolour,dotcolour,dotcolour,54,4,294,294,main,negativefb,-99,easy,16,0.6160861999996996,['n'],1,right,['1'],6,0.27553760000000693,,,39,31,Vrouw,Links,1,
,dotcolour,dotcolour,dotcolour,55,4,295,295,main,negativefb,-99,hard,36,0.7339818000000378,['n'],1,right,['1'],6,0.28400809999993726,,,39,31,Vrouw,Links,1,
,dotcolour,dotcolour,dotcolour,56,4,296,296,main,negativefb,-99,average,53,0.9170515999999225,['c'],1,left,['2'],5,0.24513999999999214,,,39,31,Vrouw,Links,1,
,dotcolour,dotcolour,dotcolour,57,4,297,297,main,negativefb,-99,easy,65,0.8663264000001618,['c'],1,left,['2'],5,0.24196200000005774,,,39,31,Vrouw,Links,1,
,dotcolour,dotcolour,dotcolour,58,4,298,298,main,negativefb,-99,easy,17,0.7326026999999158,['n'],1,right,['1'],6,0.3477671000000555,,,39,31,Vrouw,Links,1,
,dotcolour,dotcolour,dotcolour,59,4,299,299,main,negativefb,-99,hard,36,1.1826223000002756,['n'],1,right,['2'],5,0.27964879999990444,,,39,31,Vrouw,Links,1,
,dotcolour,dotcolour,dotcolour,0,0,0,300,training,negativefb,29,average,55,2.499947599999814,['c'],1,left,['1'],6,0.48810790000015913,,,39,31,Vrouw,Links,1,
,dotcolour,dotcolour,dotcolour,1,0,1,301,training,negativefb,57,easy,62,0.8002105999999003,['c'],1,left,['2'],5,0.2281366000001981,,,39,31,Vrouw,Links,1,
,dotcolour,dotcolour,dotcolour,2,0,2,302,training,negativefb,74,average,55,1.1827659000000494,['n'],0,left,['8'],3,0.5086902000002738,,,39,31,Vrouw,Links,1,
,dotcolour,dotcolour,dotcolour,3,0,3,303,training,negativefb,93,easy,16,0.8336945000000924,['n'],1,right,['2'],5,0.4947679000001699,,,39,31,Vrouw,Links,1,
,dotcolour,dotcolour,dotcolour,4,0,4,304,training,negativefb,50,average,28,1.31665380000004,['n'],1,right,['2'],5,0.3827909000001455,,,39,31,Vrouw,Links,1,
,dotcolour,dotcolour,dotcolour,5,0,5,305,training,negativefb,32,hard,41,1.4828667000001587,['c'],1,left,['2'],5,0.3326151999999638,,,39,31,Vrouw,Links,1,
,dotcolour,dotcolour,dotcolour,6,0,6,306,training,negativefb,60,average,53,1.8658980999998676,['c'],1,left,['2'],5,0.355990600000041,,,39,31,Vrouw,Links,1,
,dotcolour,dotcolour,dotcolour,7,0,7,307,training,negativefb,91,easy,15,0.7007346000000325,['n'],1,right,['1'],6,0.2985186999999314,,,39,31,Vrouw,Links,1,
,dotcolour,dotcolour,dotcolour,8,0,8,308,training,negativefb,77,hard,38,1.151093899999978,['c'],0,right,['3'],4,0.3687827000003381,,,39,31,Vrouw,Links,1,
,dotcolour,dotcolour,dotcolour,9,0,9,309,training,negativefb,76,easy,61,0.800655900000038,['c'],1,left,['1'],6,0.2418665999998666,,,39,31,Vrouw,Links,1,
,dotcolour,dotcolour,dotcolour,10,0,10,310,training,negativefb,51,hard,38,0.7346278999998503,['n'],1,right,['2'],5,0.9552420999998503,,,39,31,Vrouw,Links,1,
,dotcolour,dotcolour,dotcolour,11,0,11,311,training,negativefb,85,easy,61,0.9659160000001066,['c'],1,left,['2'],5,0.23065550000001167,,,39,31,Vrouw,Links,1,
,dotcolour,dotcolour,dotcolour,12,0,12,312,training,negativefb,84,easy,15,0.7830964999998287,['n'],1,right,['1'],6,0.20606850000012855,,,39,31,Vrouw,Links,1,
,dotcolour,dotcolour,dotcolour,13,0,13,313,training,negativefb,77,easy,63,1.2009161999999378,['c'],1,left,['1'],6,0.5021780000001854,,,39,31,Vrouw,Links,1,
,dotcolour,dotcolour,dotcolour,14,0,14,314,training,negativefb,87,hard,39,0.6992700999999215,['n'],1,right,['3'],4,0.47002389999988736,,,39,31,Vrouw,Links,1,
,dotcolour,dotcolour,dotcolour,15,0,15,315,training,negativefb,82,easy,63,1.0506819000001997,['c'],1,left,['1'],6,0.3854264999999941,,,39,31,Vrouw,Links,1,
,dotcolour,dotcolour,dotcolour,16,0,16,316,training,negativefb,69,easy,64,0.8838198000003104,['c'],1,left,['2'],5,0.3193287999997665,,,39,31,Vrouw,Links,1,
,dotcolour,dotcolour,dotcolour,17,0,17,317,training,negativefb,43,hard,36,0.8502221000003374,['n'],1,right,['2'],5,0.36022630000024947,,,39,31,Vrouw,Links,1,
,dotcolour,dotcolour,dotcolour,18,0,18,318,training,negativefb,59,hard,43,0.6999814999999217,['n'],0,left,['3'],4,0.4865583999999217,,,39,31,Vrouw,Links,1,
,dotcolour,dotcolour,dotcolour,19,0,19,319,training,negativefb,57,average,28,0.8335590000001503,['n'],1,right,['2'],5,0.4494386999999733,,,39,31,Vrouw,Links,1,
,dotcolour,dotcolour,dotcolour,20,0,20,320,training,negativefb,83,average,51,0.984404700000141,['c'],1,left,['3'],4,0.3521035000003394,,,39,31,Vrouw,Links,1,
,dotcolour,dotcolour,dotcolour,21,0,21,321,training,negativefb,95,average,27,0.7169024999998328,['n'],1,right,['3'],4,0.3900079999998525,,,39,31,Vrouw,Links,1,
,dotcolour,dotcolour,dotcolour,22,0,22,322,training,negativefb,70,easy,15,0.6844571000001451,['n'],1,right,['1'],6,0.3789028999999573,,,39,31,Vrouw,Links,1,
,dotcolour,dotcolour,dotcolour,23,0,23,323,training,negativefb,36,average,52,1.1007094999999936,['n'],0,left,['2'],5,0.31263140000010026,,,39,31,Vrouw,Links,1,
,dotcolour,dotcolour,dotcolour,24,0,24,324,training,negativefb,78,hard,35,0.7010796999998092,['n'],1,right,['3'],4,0.30446470000015324,,,39,31,Vrouw,Links,1,
,dotcolour,dotcolour,dotcolour,25,0,25,325,training,negativefb,76,easy,16,0.7836234000001241,['n'],1,right,['1'],6,0.34109910000006494,,,39,31,Vrouw,Links,1,
,dotcolour,dotcolour,dotcolour,26,0,26,326,training,negativefb,59,hard,43,0.7504641000000447,['n'],0,left,['2'],5,0.2578984000001583,,,39,31,Vrouw,Links,1,
,dotcolour,dotcolour,dotcolour,27,0,27,327,training,negativefb,66,hard,41,0.7169650999999249,['n'],0,left,['3'],4,0.3230962000002364,,,39,31,Vrouw,Links,1,
,dotcolour,dotcolour,dotcolour,28,0,28,328,training,negativefb,39,average,52,2.5339038999995864,['c'],1,left,['2'],5,0.5215826999997262,,,39,31,Vrouw,Links,1,
,dotcolour,dotcolour,dotcolour,29,0,29,329,training,negativefb,88,average,28,0.8163808999997855,['n'],1,right,['2'],5,0.5232814999999391,,,39,31,Vrouw,Links,1,
,dotcolour,dotcolour,dotcolour,30,0,30,330,training,negativefb,55,easy,16,0.9000917000003028,['n'],1,right,['1'],6,0.579112399999758,,,39,31,Vrouw,Links,1,
,dotcolour,dotcolour,dotcolour,31,0,31,331,training,negativefb,85,easy,17,0.7842131000002155,['n'],1,right,['2'],5,0.35707490000004327,,,39,31,Vrouw,Links,1,
,dotcolour,dotcolour,dotcolour,32,0,32,332,training,negativefb,69,average,25,0.750774900000124,['n'],1,right,['2'],5,0.241019900000083,,,39,31,Vrouw,Links,1,
,dotcolour,dotcolour,dotcolour,33,0,33,333,training,negativefb,60,easy,65,1.0505914999998822,['c'],1,left,['1'],6,0.19816790000004403,,,39,31,Vrouw,Links,1,
,dotcolour,dotcolour,dotcolour,34,0,34,334,training,negativefb,72,average,29,0.9165323999995962,['n'],1,right,['1'],6,0.32181690000015806,,,39,31,Vrouw,Links,1,
,dotcolour,dotcolour,dotcolour,35,0,35,335,training,negativefb,50,hard,38,1.0674976999998762,['n'],1,right,['3'],4,0.2583531000000221,,,39,31,Vrouw,Links,1,
,dotcolour,dotcolour,dotcolour,36,0,36,336,training,negativefb,93,easy,19,0.8166654000001472,['n'],1,right,['2'],5,0.5833618000001479,,,39,31,Vrouw,Links,1,
,dotcolour,dotcolour,dotcolour,37,0,37,337,training,negativefb,67,hard,42,0.916980599999988,['n'],0,left,['2'],5,0.33131490000005215,,,39,31,Vrouw,Links,1,
,dotcolour,dotcolour,dotcolour,38,0,38,338,training,negativefb,33,hard,44,0.7843438999998398,['n'],0,left,['3'],4,0.3427121000004263,,,39,31,Vrouw,Links,1,
,dotcolour,dotcolour,dotcolour,39,0,39,339,training,negativefb,65,hard,39,0.7829939000002923,['n'],1,right,['3'],4,0.4422191999997267,,,39,31,Vrouw,Links,1,
,dotcolour,dotcolour,dotcolour,40,0,40,340,training,negativefb,88,average,55,1.2822667999998885,['c'],1,left,['2'],5,0.589944800000012,,,39,31,Vrouw,Links,1,
,dotcolour,dotcolour,dotcolour,41,0,41,341,training,negativefb,27,hard,36,0.8334706000000551,['n'],1,right,['3'],4,0.6526364999999714,,,39,31,Vrouw,Links,1,
,dotcolour,dotcolour,dotcolour,42,0,42,342,training,negativefb,44,average,53,1.5667677000001277,['c'],1,left,['3'],4,0.3879108000000997,,,39,31,Vrouw,Links,1,
,dotcolour,dotcolour,dotcolour,43,0,43,343,training,negativefb,33,hard,41,0.7167799999997442,['n'],0,left,['8'],3,0.9843145999998342,,,39,31,Vrouw,Links,1,
,dotcolour,dotcolour,dotcolour,44,0,44,344,training,negativefb,70,easy,61,1.1829741999999897,['c'],1,left,['2'],5,0.21720270000014352,,,39,31,Vrouw,Links,1,
,dotcolour,dotcolour,dotcolour,45,0,45,345,training,negativefb,65,easy,18,1.799927999999909,['n'],1,right,['2'],5,0.304228299999977,,,39,31,Vrouw,Links,1,
,dotcolour,dotcolour,dotcolour,46,0,46,346,training,negativefb,18,hard,42,0.9664540000003399,['n'],0,left,['8'],3,0.8939654000000701,,,39,31,Vrouw,Links,1,
,dotcolour,dotcolour,dotcolour,47,0,47,347,training,negativefb,59,average,26,0.7664267000000109,['n'],1,right,['2'],5,0.4767660000002252,,,39,31,Vrouw,Links,1,
,dotcolour,dotcolour,dotcolour,48,0,48,348,training,negativefb,68,average,27,0.9330397000003359,['n'],1,right,['2'],5,0.39598220000016227,,,39,31,Vrouw,Links,1,
,dotcolour,dotcolour,dotcolour,49,0,49,349,training,negativefb,83,average,25,0.8672131999996964,['n'],1,right,['1'],6,0.5295688999999584,,,39,31,Vrouw,Links,1,
,dotcolour,dotcolour,dotcolour,50,0,50,350,training,negativefb,80,average,55,1.166235400000005,['c'],1,left,['2'],5,0.43922699999984616,,,39,31,Vrouw,Links,1,
,dotcolour,dotcolour,dotcolour,51,0,51,351,training,negativefb,66,hard,37,0.7505662999997185,['n'],1,right,['3'],4,0.2713963999999578,,,39,31,Vrouw,Links,1,
,dotcolour,dotcolour,dotcolour,52,0,52,352,training,negativefb,69,easy,65,4.26738239999986,['c'],1,left,['1'],6,0.2660710999998628,,,39,31,Vrouw,Links,1,
,dotcolour,dotcolour,dotcolour,53,0,53,353,training,negativefb,78,average,25,1.3999635999998645,['n'],1,right,['3'],4,0.5998562999998285,,,39,31,Vrouw,Links,1,
,dotcolour,dotcolour,dotcolour,54,0,54,354,training,negativefb,57,hard,35,1.23377789999995,['n'],1,right,['3'],4,0.35796060000029684,,,39,31,Vrouw,Links,1,
,dotcolour,dotcolour,dotcolour,55,0,55,355,training,negativefb,49,hard,45,2.7166016000001036,['n'],0,left,['8'],3,0.5633620000003248,,,39,31,Vrouw,Links,1,
,dotcolour,dotcolour,dotcolour,56,0,56,356,training,negativefb,89,easy,19,1.1670499000001655,['n'],1,right,['2'],5,0.5265567000001283,,,39,31,Vrouw,Links,1,
,dotcolour,dotcolour,dotcolour,57,0,57,357,training,negativefb,76,average,51,0.9169050000000425,['c'],1,left,['2'],5,0.2534012999999504,,,39,31,Vrouw,Links,1,
,dotcolour,dotcolour,dotcolour,58,0,58,358,training,negativefb,66,hard,44,0.783506700000089,['n'],0,left,['3'],4,0.4359578000003239,,,39,31,Vrouw,Links,1,
,dotcolour,dotcolour,dotcolour,59,0,59,359,training,negativefb,66,easy,64,1.1496989000002031,['c'],1,left,['2'],5,0.2526116999997612,,,39,31,Vrouw,Links,1,
,dotcolour,dotcolour,dotcolour,0,1,60,360,training,negativefb,92,hard,35,1.1507122999996682,['n'],1,right,['2'],5,0.6037102999998751,,,39,31,Vrouw,Links,1,
,dotcolour,dotcolour,dotcolour,1,1,61,361,training,negativefb,60,easy,64,0.8842454000000544,['c'],1,left,['1'],6,0.21659159999990152,,,39,31,Vrouw,Links,1,
,dotcolour,dotcolour,dotcolour,2,1,62,362,training,negativefb,46,hard,42,0.9171985000002678,['n'],0,left,['8'],3,0.7152654999999868,,,39,31,Vrouw,Links,1,
,dotcolour,dotcolour,dotcolour,3,1,63,363,training,negativefb,57,easy,63,0.8508474000000206,['c'],1,left,['1'],6,0.22884449999992285,,,39,31,Vrouw,Links,1,
,dotcolour,dotcolour,dotcolour,4,1,64,364,training,negativefb,78,average,26,1.1501444000000447,['n'],1,right,['1'],6,0.2936035000002448,,,39,31,Vrouw,Links,1,
,dotcolour,dotcolour,dotcolour,5,1,65,365,training,negativefb,65,hard,45,0.8834449000000859,['n'],0,left,['8'],3,0.5192367999998169,,,39,31,Vrouw,Links,1,
,dotcolour,dotcolour,dotcolour,6,1,66,366,training,negativefb,79,average,53,1.1170228000000861,['c'],1,left,['2'],5,0.26188420000016777,,,39,31,Vrouw,Links,1,
,dotcolour,dotcolour,dotcolour,7,1,67,367,training,negativefb,61,average,55,0.8662921000000097,['c'],1,left,['2'],5,0.2976184999997713,,,39,31,Vrouw,Links,1,
,dotcolour,dotcolour,dotcolour,8,1,68,368,training,negativefb,81,easy,63,0.8832487999998193,['c'],1,left,['2'],5,0.26612710000017614,,,39,31,Vrouw,Links,1,
,dotcolour,dotcolour,dotcolour,9,1,69,369,training,negativefb,74,average,25,0.9830466999997043,['n'],1,right,['2'],5,0.3277349999998478,,,39,31,Vrouw,Links,1,
,dotcolour,dotcolour,dotcolour,10,1,70,370,training,negativefb,64,easy,64,0.8325525999998717,['c'],1,left,['2'],5,0.2818302999999105,,,39,31,Vrouw,Links,1,
,dotcolour,dotcolour,dotcolour,11,1,71,371,training,negativefb,82,easy,19,0.7842469999995956,['n'],1,right,['2'],5,0.24700750000010885,,,39,31,Vrouw,Links,1,
,dotcolour,dotcolour,dotcolour,12,1,72,372,training,negativefb,77,average,29,0.7665769000000182,['n'],1,right,['2'],5,0.23097009999992224,,,39,31,Vrouw,Links,1,
,dotcolour,dotcolour,dotcolour,13,1,73,373,training,negativefb,53,average,29,0.8341550999998617,['c'],0,right,['2'],5,0.16528749999997672,,,39,31,Vrouw,Links,1,
,dotcolour,dotcolour,dotcolour,14,1,74,374,training,negativefb,55,easy,15,0.7671263000002,['n'],1,right,['2'],5,0.26315070000009655,,,39,31,Vrouw,Links,1,
,dotcolour,dotcolour,dotcolour,15,1,75,375,training,negativefb,84,hard,41,0.9838356000000203,['c'],1,left,['2'],5,0.27023360000021057,,,39,31,Vrouw,Links,1,
,dotcolour,dotcolour,dotcolour,16,1,76,376,training,negativefb,74,average,54,0.7501921999996739,['n'],0,left,['8'],3,0.4692958999999064,,,39,31,Vrouw,Links,1,
,dotcolour,dotcolour,dotcolour,17,1,77,377,training,negativefb,33,average,25,0.799981900000148,['n'],1,right,['2'],5,0.24274240000022473,,,39,31,Vrouw,Links,1,
,dotcolour,dotcolour,dotcolour,18,1,78,378,training,negativefb,80,easy,19,0.9670040999999401,['n'],1,right,['2'],5,0.27501859999983935,,,39,31,Vrouw,Links,1,
,dotcolour,dotcolour,dotcolour,19,1,79,379,training,negativefb,91,easy,65,0.917507999999998,['c'],1,left,['2'],5,0.25145030000021507,,,39,31,Vrouw,Links,1,
,dotcolour,dotcolour,dotcolour,20,1,80,380,training,negativefb,68,average,28,0.7174456999996437,['n'],1,right,['8'],3,0.3969484999997803,,,39,31,Vrouw,Links,1,
,dotcolour,dotcolour,dotcolour,21,1,81,381,training,negativefb,76,average,54,0.9834554999997636,['c'],1,left,['1'],6,0.21418369999992137,,,39,31,Vrouw,Links,1,
,dotcolour,dotcolour,dotcolour,22,1,82,382,training,negativefb,64,hard,42,1.1832429000000957,['c'],1,left,['2'],5,0.25496000000021013,,,39,31,Vrouw,Links,1,
,dotcolour,dotcolour,dotcolour,23,1,83,383,training,negativefb,56,easy,16,0.8001814999997805,['n'],1,right,['2'],5,0.4128984999997556,,,39,31,Vrouw,Links,1,
,dotcolour,dotcolour,dotcolour,24,1,84,384,training,negativefb,63,easy,62,0.8161755999999514,['c'],1,left,['2'],5,0.1805279000000155,,,39,31,Vrouw,Links,1,
,dotcolour,dotcolour,dotcolour,25,1,85,385,training,negativefb,76,easy,63,0.767220400000042,['c'],1,left,['2'],5,0.09505940000008195,,,39,31,Vrouw,Links,1,
,dotcolour,dotcolour,dotcolour,26,1,86,386,training,negativefb,18,average,51,1.0003734000001714,['n'],0,left,['8'],3,0.7150440000000344,,,39,31,Vrouw,Links,1,
,dotcolour,dotcolour,dotcolour,27,1,87,387,training,negativefb,58,hard,39,1.5850676000000021,['n'],1,right,['8'],3,0.4471935999999914,,,39,31,Vrouw,Links,1,
,dotcolour,dotcolour,dotcolour,28,1,88,388,training,negativefb,66,average,55,0.9514145000002827,['c'],1,left,['2'],5,0.18412790000002133,,,39,31,Vrouw,Links,1,
,dotcolour,dotcolour,dotcolour,29,1,89,389,training,negativefb,82,hard,37,0.7505303000002641,['n'],1,right,['2'],5,0.4188424999997551,,,39,31,Vrouw,Links,1,
,dotcolour,dotcolour,dotcolour,30,1,90,390,training,negativefb,58,easy,16,0.8340790000002016,['n'],1,right,['1'],6,0.19248819999984335,,,39,31,Vrouw,Links,1,
,dotcolour,dotcolour,dotcolour,31,1,91,391,training,negativefb,22,hard,42,0.8505129999998644,['n'],0,left,['8'],3,0.4635040999996818,,,39,31,Vrouw,Links,1,
,dotcolour,dotcolour,dotcolour,32,1,92,392,training,negativefb,92,average,28,0.8673388000001978,['n'],1,right,['1'],6,1.090775399999984,,,39,31,Vrouw,Links,1,
,dotcolour,dotcolour,dotcolour,33,1,93,393,training,negativefb,5,average,54,1.0337021000000277,['n'],0,left,['9'],2,0.8300994999999602,,,39,31,Vrouw,Links,1,
,dotcolour,dotcolour,dotcolour,34,1,94,394,training,negativefb,86,average,54,1.2507393000000775,['c'],1,left,['1'],6,0.2831203999999161,,,39,31,Vrouw,Links,1,
,dotcolour,dotcolour,dotcolour,35,1,95,395,training,negativefb,79,easy,64,0.9344343999996454,['c'],1,left,['1'],6,0.23443189999989045,,,39,31,Vrouw,Links,1,
,dotcolour,dotcolour,dotcolour,36,1,96,396,training,negativefb,54,easy,61,0.7999980999998115,['c'],1,left,['1'],6,0.31293530000039027,,,39,31,Vrouw,Links,1,
,dotcolour,dotcolour,dotcolour,37,1,97,397,training,negativefb,62,average,51,0.6325858000000153,['c'],1,left,['1'],6,0.18028940000021976,,,39,31,Vrouw,Links,1,
,dotcolour,dotcolour,dotcolour,38,1,98,398,training,negativefb,55,average,26,0.8160530000000108,['n'],1,right,['1'],6,0.6288883000001988,,,39,31,Vrouw,Links,1,
,dotcolour,dotcolour,dotcolour,39,1,99,399,training,negativefb,24,hard,43,0.7503523999998833,['n'],0,left,['1'],6,0.43007540000007793,,,39,31,Vrouw,Links,1,
,dotcolour,dotcolour,dotcolour,40,1,100,400,training,negativefb,54,hard,42,0.9670004999998127,['n'],0,left,['8'],3,0.37466230000018186,,,39,31,Vrouw,Links,1,
,dotcolour,dotcolour,dotcolour,41,1,101,401,training,negativefb,80,hard,37,0.8006080000000111,['n'],1,right,['2'],5,0.4000538999998753,,,39,31,Vrouw,Links,1,
,dotcolour,dotcolour,dotcolour,42,1,102,402,training,negativefb,69,average,28,0.7666856000000735,['n'],1,right,['1'],6,0.24202409999998054,,,39,31,Vrouw,Links,1,
,dotcolour,dotcolour,dotcolour,43,1,103,403,training,negativefb,67,hard,38,1.1996365999998488,['n'],1,right,['2'],5,0.3684776000000056,,,39,31,Vrouw,Links,1,
,dotcolour,dotcolour,dotcolour,44,1,104,404,training,negativefb,12,hard,45,0.8831227000000581,['n'],0,left,['8'],3,0.9347232999998596,,,39,31,Vrouw,Links,1,
,dotcolour,dotcolour,dotcolour,45,1,105,405,training,negativefb,81,easy,18,0.7997385999997277,['n'],1,right,['2'],5,0.28921260000015536,,,39,31,Vrouw,Links,1,
,dotcolour,dotcolour,dotcolour,46,1,106,406,training,negativefb,54,easy,18,0.8014130000001387,['n'],1,right,['2'],5,0.222237099999802,,,39,31,Vrouw,Links,1,
,dotcolour,dotcolour,dotcolour,47,1,107,407,training,negativefb,38,average,52,1.0336690000003728,['c'],1,left,['2'],5,0.2116204000003563,,,39,31,Vrouw,Links,1,
,dotcolour,dotcolour,dotcolour,48,1,108,408,training,negativefb,71,hard,37,0.7505715000002056,['n'],1,right,['3'],4,0.6132253000000674,,,39,31,Vrouw,Links,1,
,dotcolour,dotcolour,dotcolour,49,1,109,409,training,negativefb,37,hard,38,0.7671600000003309,['n'],1,right,['3'],4,1.0544279999999162,,,39,31,Vrouw,Links,1,
,dotcolour,dotcolour,dotcolour,50,1,110,410,training,negativefb,89,hard,43,0.7344208999998045,['n'],0,left,['2'],5,0.4316373999999996,,,39,31,Vrouw,Links,1,
,dotcolour,dotcolour,dotcolour,51,1,111,411,training,negativefb,81,average,28,0.6828918000001067,['n'],1,right,['2'],5,0.2906249999996362,,,39,31,Vrouw,Links,1,
,dotcolour,dotcolour,dotcolour,52,1,112,412,training,negativefb,88,hard,45,1.0665902999999162,['n'],0,left,['2'],5,0.2612304999997832,,,39,31,Vrouw,Links,1,
,dotcolour,dotcolour,dotcolour,53,1,113,413,training,negativefb,59,easy,65,1.0162215999998807,['c'],1,left,['2'],5,0.24278170000025057,,,39,31,Vrouw,Links,1,
,dotcolour,dotcolour,dotcolour,54,1,114,414,training,negativefb,77,easy,15,0.7509742000002007,['n'],1,right,['2'],5,0.2910713000001124,,,39,31,Vrouw,Links,1,
,dotcolour,dotcolour,dotcolour,55,1,115,415,training,negativefb,80,easy,17,0.6338380999995934,['n'],1,right,['2'],5,0.2544724999997925,,,39,31,Vrouw,Links,1,
,dotcolour,dotcolour,dotcolour,56,1,116,416,training,negativefb,58,hard,39,0.8838218999999299,['n'],1,right,['2'],5,0.25688750000017535,,,39,31,Vrouw,Links,1,
,dotcolour,dotcolour,dotcolour,57,1,117,417,training,negativefb,72,hard,36,0.733664900000349,['n'],1,right,['2'],5,0.28127330000006623,,,39,31,Vrouw,Links,1,
,dotcolour,dotcolour,dotcolour,58,1,118,418,training,negativefb,76,easy,16,1.0173859999999877,['n'],1,right,['2'],5,0.26929130000007717,,,39,31,Vrouw,Links,1,
,dotcolour,dotcolour,dotcolour,59,1,119,419,training,negativefb,53,hard,39,1.1001326999999037,['n'],1,right,['1'],6,0.23061600000028193,,,39,31,Vrouw,Links,1,
,xotask,dotcolour,dotcolour,0,2,120,420,main,negativefb,-99,easy,,2.6179801000002954,['n'],1,right,['8'],3,1.472486199999821,5,,39,31,Vrouw,Links,1,
,xotask,dotcolour,dotcolour,1,2,121,421,main,negativefb,-99,average,,0.9684489999999641,['n'],1,right,['8'],3,0.4556379000000561,16,,39,31,Vrouw,Links,1,
,xotask,dotcolour,dotcolour,2,2,122,422,main,negativefb,-99,average,,1.3684180000000197,['n'],1,right,['2'],5,0.7755782999997791,18,,39,31,Vrouw,Links,1,
,xotask,dotcolour,dotcolour,3,2,123,423,main,negativefb,-99,average,,2.5838825000000725,['n'],0,left,['3'],4,1.0991768999997475,61,,39,31,Vrouw,Links,1,
,xotask,dotcolour,dotcolour,4,2,124,424,main,negativefb,-99,hard,,2.417445999999927,['c'],1,left,['3'],4,0.5104860999999801,52,,39,31,Vrouw,Links,1,
,xotask,dotcolour,dotcolour,5,2,125,425,main,negativefb,-99,hard,,1.317673300000024,['n'],1,right,['3'],4,0.470345400000042,25,,39,31,Vrouw,Links,1,
,xotask,dotcolour,dotcolour,6,2,126,426,main,negativefb,-99,hard,,1.501302399999986,['n'],0,left,['3'],4,0.31252009999980146,52,,39,31,Vrouw,Links,1,
,xotask,dotcolour,dotcolour,7,2,127,427,main,negativefb,-99,hard,,1.1172234000000572,['n'],1,right,['3'],4,0.7999886999996306,26,,39,31,Vrouw,Links,1,
,xotask,dotcolour,dotcolour,8,2,128,428,main,negativefb,-99,average,,1.5349110000001929,['c'],1,left,['2'],5,0.5397099000001617,62,,39,31,Vrouw,Links,1,
,xotask,dotcolour,dotcolour,9,2,129,429,main,negativefb,-99,hard,,1.168445199999951,['c'],1,left,['2'],5,0.2639195000001564,54,,39,31,Vrouw,Links,1,
,xotask,dotcolour,dotcolour,10,2,130,430,main,negativefb,-99,average,,0.9678941000001942,['n'],1,right,['2'],5,0.6073861999998371,15,,39,31,Vrouw,Links,1,
,xotask,dotcolour,dotcolour,11,2,131,431,main,negativefb,-99,easy,,1.0179402999997365,['c'],1,left,['2'],5,0.5117437999997492,72,,39,31,Vrouw,Links,1,
,xotask,dotcolour,dotcolour,12,2,132,432,main,negativefb,-99,hard,,0.9853915000003326,['c'],1,left,['2'],5,0.18859410000004573,54,,39,31,Vrouw,Links,1,
,xotask,dotcolour,dotcolour,13,2,133,433,main,negativefb,-99,hard,,0.9180731999999807,['n'],1,right,['3'],4,0.7780674000000545,27,,39,31,Vrouw,Links,1,
,xotask,dotcolour,dotcolour,14,2,134,434,main,negativefb,-99,easy,,1.7671970999999758,['c'],1,left,['2'],5,0.2210536000002321,74,,39,31,Vrouw,Links,1,
,xotask,dotcolour,dotcolour,15,2,135,435,main,negativefb,-99,average,,0.8342421000002105,['n'],0,left,['8'],3,0.8278307000000495,60,,39,31,Vrouw,Links,1,
,xotask,dotcolour,dotcolour,16,2,136,436,main,negativefb,-99,hard,,0.9511038000000553,['n'],1,right,['2'],5,0.33395740000014484,28,,39,31,Vrouw,Links,1,
,xotask,dotcolour,dotcolour,17,2,137,437,main,negativefb,-99,easy,,1.0512145999996392,['n'],0,left,['2'],5,0.49488479999990886,73,,39,31,Vrouw,Links,1,
,xotask,dotcolour,dotcolour,18,2,138,438,main,negativefb,-99,hard,,0.9843035999997483,['n'],0,left,['9'],2,1.2446101999998973,54,,39,31,Vrouw,Links,1,
,xotask,dotcolour,dotcolour,19,2,139,439,main,negativefb,-99,hard,,1.650635400000283,['c'],1,left,['2'],5,0.24301070000001346,51,,39,31,Vrouw,Links,1,
,xotask,dotcolour,dotcolour,20,2,140,440,main,negativefb,-99,average,,1.084605300000021,['n'],1,right,['2'],5,0.32594179999978223,15,,39,31,Vrouw,Links,1,
,xotask,dotcolour,dotcolour,21,2,141,441,main,negativefb,-99,average,,1.00141050000002,['c'],1,left,['2'],5,0.28238439999995535,62,,39,31,Vrouw,Links,1,
,xotask,dotcolour,dotcolour,22,2,142,442,main,negativefb,-99,hard,,1.1010731000001215,['c'],1,left,['2'],5,0.12398980000034499,54,,39,31,Vrouw,Links,1,
,xotask,dotcolour,dotcolour,23,2,143,443,main,negativefb,-99,hard,,0.8187391999999818,['n'],1,right,['2'],5,0.5274776999999631,27,,39,31,Vrouw,Links,1,
,xotask,dotcolour,dotcolour,24,2,144,444,main,negativefb,-99,average,,0.9180780000001505,['n'],1,right,['1'],6,0.4384549000001243,19,,39,31,Vrouw,Links,1,
,xotask,dotcolour,dotcolour,25,2,145,445,main,negativefb,-99,easy,,1.40092229999982,['c'],1,left,['1'],6,0.28593099999989136,71,,39,31,Vrouw,Links,1,
,xotask,dotcolour,dotcolour,26,2,146,446,main,negativefb,-99,average,,1.1338780000000952,['c'],1,left,['1'],6,0.14190310000003592,63,,39,31,Vrouw,Links,1,
,xotask,dotcolour,dotcolour,27,2,147,447,main,negativefb,-99,hard,,0.8346895999998196,['n'],1,right,['2'],5,0.30430969999997615,27,,39,31,Vrouw,Links,1,
,xotask,dotcolour,dotcolour,28,2,148,448,main,negativefb,-99,easy,,1.0172757000000274,['c'],1,left,['2'],5,0.18785669999988386,71,,39,31,Vrouw,Links,1,
,xotask,dotcolour,dotcolour,29,2,149,449,main,negativefb,-99,easy,,1.0338141000001997,['n'],1,right,['1'],6,0.29160219999994297,5,,39,31,Vrouw,Links,1,
,xotask,dotcolour,dotcolour,30,2,150,450,main,negativefb,-99,average,,0.9171875000001819,['n'],1,right,['1'],6,0.21206149999989066,15,,39,31,Vrouw,Links,1,
,xotask,dotcolour,dotcolour,31,2,151,451,main,negativefb,-99,easy,,0.8347257000000354,['c'],1,left,['1'],6,0.195602400000098,70,,39,31,Vrouw,Links,1,
,xotask,dotcolour,dotcolour,32,2,152,452,main,negativefb,-99,hard,,0.8504519000002801,['n'],1,right,['2'],5,0.39493690000017523,25,,39,31,Vrouw,Links,1,
,xotask,dotcolour,dotcolour,33,2,153,453,main,negativefb,-99,average,,0.8171065000001363,['c'],1,left,['1'],6,0.13971409999976458,63,,39,31,Vrouw,Links,1,
,xotask,dotcolour,dotcolour,34,2,154,454,main,negativefb,-99,easy,,0.7006575000000339,['n'],1,right,['1'],6,0.20341869999992923,8,,39,31,Vrouw,Links,1,
,xotask,dotcolour,dotcolour,35,2,155,455,main,negativefb,-99,hard,,0.8503273999999692,['n'],1,right,['1'],6,0.09778170000026876,28,,39,31,Vrouw,Links,1,
,xotask,dotcolour,dotcolour,36,2,156,456,main,negativefb,-99,easy,,1.0015955000003487,['c'],1,left,['1'],6,0.13441039999997884,73,,39,31,Vrouw,Links,1,
,xotask,dotcolour,dotcolour,37,2,157,457,main,negativefb,-99,hard,,0.8519443999998657,['c'],1,left,['1'],6,0.08786499999996522,53,,39,31,Vrouw,Links,1,
,xotask,dotcolour,dotcolour,38,2,158,458,main,negativefb,-99,easy,,0.832867399999941,['n'],1,right,['1'],6,0.15589679999993677,5,,39,31,Vrouw,Links,1,
,xotask,dotcolour,dotcolour,39,2,159,459,main,negativefb,-99,easy,,0.733773200000087,['n'],1,right,['1'],6,0.12926420000030703,7,,39,31,Vrouw,Links,1,
,xotask,dotcolour,dotcolour,40,2,160,460,main,negativefb,-99,hard,,1.5175095000004148,['c'],1,left,['2'],5,0.2721096000000216,50,,39,31,Vrouw,Links,1,
,xotask,dotcolour,dotcolour,41,2,161,461,main,negativefb,-99,hard,,0.7008421000000453,['n'],1,right,['1'],6,0.20245000000022628,25,,39,31,Vrouw,Links,1,
,xotask,dotcolour,dotcolour,42,2,162,462,main,negativefb,-99,easy,,0.617278400000032,['n'],1,right,['1'],6,0.21819090000008146,5,,39,31,Vrouw,Links,1,
,xotask,dotcolour,dotcolour,43,2,163,463,main,negativefb,-99,average,,0.7005490000001373,['n'],1,right,['1'],6,0.15793710000025385,18,,39,31,Vrouw,Links,1,
,xotask,dotcolour,dotcolour,44,2,164,464,main,negativefb,-99,easy,,0.667139700000007,['n'],1,right,['1'],6,0.1745653000002676,7,,39,31,Vrouw,Links,1,
,xotask,dotcolour,dotcolour,45,2,165,465,main,negativefb,-99,average,,1.1507612000000336,['n'],1,right,['1'],6,0.27397949999976845,18,,39,31,Vrouw,Links,1,
,xotask,dotcolour,dotcolour,46,2,166,466,main,negativefb,-99,easy,,0.5664659999997639,['n'],1,right,['1'],6,0.24117690000002767,7,,39,31,Vrouw,Links,1,
,xotask,dotcolour,dotcolour,47,2,167,467,main,negativefb,-99,easy,,0.5511037999999644,['n'],1,right,['1'],6,0.21184089999997013,5,,39,31,Vrouw,Links,1,
,xotask,dotcolour,dotcolour,48,2,168,468,main,negativefb,-99,average,,0.5174689999998918,['n'],1,right,['1'],6,0.26340090000030614,15,,39,31,Vrouw,Links,1,
,xotask,dotcolour,dotcolour,49,2,169,469,main,negativefb,-99,average,,0.9505741000002672,['c'],1,left,['1'],6,0.1833361999997578,64,,39,31,Vrouw,Links,1,
,xotask,dotcolour,dotcolour,50,2,170,470,main,negativefb,-99,easy,,0.7839230000004136,['c'],1,left,['1'],6,0.1696050999998988,72,,39,31,Vrouw,Links,1,
,xotask,dotcolour,dotcolour,51,2,171,471,main,negativefb,-99,average,,0.7001469000001634,['c'],1,left,['1'],6,0.1279260000001159,62,,39,31,Vrouw,Links,1,
,xotask,dotcolour,dotcolour,52,2,172,472,main,negativefb,-99,average,,0.5847690000000512,['c'],1,left,['1'],6,0.15588819999993575,61,,39,31,Vrouw,Links,1,
,xotask,dotcolour,dotcolour,53,2,173,473,main,negativefb,-99,easy,,0.6671390999999858,['c'],1,left,['1'],6,0.18039630000021134,72,,39,31,Vrouw,Links,1,
,xotask,dotcolour,dotcolour,54,2,174,474,main,negativefb,-99,average,,0.7011035000000447,['n'],1,right,['2'],5,0.5464514000000236,16,,39,31,Vrouw,Links,1,
,xotask,dotcolour,dotcolour,55,2,175,475,main,negativefb,-99,easy,,0.6342528999998649,['n'],1,right,['1'],6,0.14797010000029331,7,,39,31,Vrouw,Links,1,
,xotask,dotcolour,dotcolour,56,2,176,476,main,negativefb,-99,average,,1.3513636000002407,['n'],0,left,['2'],5,0.19355129999985365,60,,39,31,Vrouw,Links,1,
,xotask,dotcolour,dotcolour,57,2,177,477,main,negativefb,-99,hard,,1.4841352000003099,['c'],1,left,['2'],5,0.2948090000004413,52,,39,31,Vrouw,Links,1,
,xotask,dotcolour,dotcolour,58,2,178,478,main,negativefb,-99,hard,,1.150213200000053,['n'],1,right,['1'],6,0.17396610000014334,25,,39,31,Vrouw,Links,1,
,xotask,dotcolour,dotcolour,59,2,179,479,main,negativefb,-99,easy,,0.7338239000000613,['c'],1,left,['1'],6,0.12309800000002724,74,,39,31,Vrouw,Links,1,
,xotask,dotcolour,dotcolour,0,3,180,480,main,negativefb,-99,average,,0.9836596999998619,['n'],1,right,['2'],5,0.31572689999984505,16,,39,31,Vrouw,Links,1,
,xotask,dotcolour,dotcolour,1,3,181,481,main,negativefb,-99,easy,,0.9512638999999581,['c'],1,left,['2'],5,0.17713290000028792,70,,39,31,Vrouw,Links,1,
,xotask,dotcolour,dotcolour,2,3,182,482,main,negativefb,-99,hard,,1.1001031000000694,['n'],1,right,['2'],5,0.24807529999998224,26,,39,31,Vrouw,Links,1,
,xotask,dotcolour,dotcolour,3,3,183,483,main,negativefb,-99,easy,,1.2335133000001406,['c'],1,left,['2'],5,0.22938759999988179,74,,39,31,Vrouw,Links,1,
,xotask,dotcolour,dotcolour,4,3,184,484,main,negativefb,-99,easy,,0.6011793000002399,['n'],1,right,['2'],5,0.26989789999970526,7,,39,31,Vrouw,Links,1,
,xotask,dotcolour,dotcolour,5,3,185,485,main,negativefb,-99,hard,,0.8344391000000542,['n'],1,right,['2'],5,0.2736583000000792,25,,39,31,Vrouw,Links,1,
,xotask,dotcolour,dotcolour,6,3,186,486,main,negativefb,-99,easy,,0.5520317999998952,['n'],1,right,['1'],6,0.7536901000003127,5,,39,31,Vrouw,Links,1,
,xotask,dotcolour,dotcolour,7,3,187,487,main,negativefb,-99,average,,0.9664708000000246,['c'],1,left,['2'],5,0.18205940000007104,62,,39,31,Vrouw,Links,1,
,xotask,dotcolour,dotcolour,8,3,188,488,main,negativefb,-99,average,,0.8006397999997716,['n'],0,left,['2'],5,0.470844599999964,63,,39,31,Vrouw,Links,1,
,xotask,dotcolour,dotcolour,9,3,189,489,main,negativefb,-99,easy,,1.7011575999999877,['n'],0,left,['1'],6,0.2727106000002095,73,,39,31,Vrouw,Links,1,
,xotask,dotcolour,dotcolour,10,3,190,490,main,negativefb,-99,hard,,0.633624300000065,['n'],1,right,['2'],5,0.3577064999999493,29,,39,31,Vrouw,Links,1,
,xotask,dotcolour,dotcolour,11,3,191,491,main,negativefb,-99,average,,1.001611099999991,['c'],1,left,['2'],5,0.128522299999986,60,,39,31,Vrouw,Links,1,
,xotask,dotcolour,dotcolour,12,3,192,492,main,negativefb,-99,easy,,0.8836633000000802,['c'],1,left,['2'],5,0.16850320000003194,72,,39,31,Vrouw,Links,1,
,xotask,dotcolour,dotcolour,13,3,193,493,main,negativefb,-99,hard,,0.7002144999996744,['c'],1,left,['2'],5,0.18305049999980838,54,,39,31,Vrouw,Links,1,
,xotask,dotcolour,dotcolour,14,3,194,494,main,negativefb,-99,easy,,0.6677841999999146,['n'],1,right,['1'],6,0.29417179999973087,6,,39,31,Vrouw,Links,1,
,xotask,dotcolour,dotcolour,15,3,195,495,main,negativefb,-99,easy,,0.7668509000000086,['c'],1,left,['2'],5,0.3165109000001394,70,,39,31,Vrouw,Links,1,
,xotask,dotcolour,dotcolour,16,3,196,496,main,negativefb,-99,average,,0.8675711999999294,['c'],1,left,"['1', '2']",6,0.1900828000002548,63,,39,31,Vrouw,Links,1,
,xotask,dotcolour,dotcolour,17,3,197,497,main,negativefb,-99,hard,,0.6001640999998017,['n'],1,right,['1'],6,0.2151770000000397,26,,39,31,Vrouw,Links,1,
,xotask,dotcolour,dotcolour,18,3,198,498,main,negativefb,-99,average,,0.7006138000001556,['c'],1,left,['1'],6,0.147726899999725,62,,39,31,Vrouw,Links,1,
,xotask,dotcolour,dotcolour,19,3,199,499,main,negativefb,-99,easy,,0.8169315000000097,['c'],1,left,['1'],6,0.14139250000016546,73,,39,31,Vrouw,Links,1,
,xotask,dotcolour,dotcolour,20,3,200,500,main,negativefb,-99,hard,,0.7676016999998865,['n'],0,left,['1'],6,0.23492589999978009,53,,39,31,Vrouw,Links,1,
,xotask,dotcolour,dotcolour,21,3,201,501,main,negativefb,-99,average,,1.234713499999998,['n'],0,left,['1'],6,0.24838980000004085,64,,39,31,Vrouw,Links,1,
,xotask,dotcolour,dotcolour,22,3,202,502,main,negativefb,-99,easy,,0.8342173999999432,['c'],1,left,['1'],6,0.10962609999978667,73,,39,31,Vrouw,Links,1,
,xotask,dotcolour,dotcolour,23,3,203,503,main,negativefb,-99,average,,0.8836682999999539,['c'],1,left,['1'],6,0.16734409999980926,64,,39,31,Vrouw,Links,1,
,xotask,dotcolour,dotcolour,24,3,204,504,main,negativefb,-99,average,,0.6019405000001825,['n'],1,right,"['1', '2']",6,0.20127449999972669,15,,39,31,Vrouw,Links,1,
,xotask,dotcolour,dotcolour,25,3,205,505,main,negativefb,-99,average,,0.8342952000002697,['c'],1,left,['2'],5,0.1445582999999715,60,,39,31,Vrouw,Links,1,
,xotask,dotcolour,dotcolour,26,3,206,506,main,negativefb,-99,average,,1.3683650000002672,['n'],1,right,['1'],6,0.3416698999999426,17,,39,31,Vrouw,Links,1,
,xotask,dotcolour,dotcolour,27,3,207,507,main,negativefb,-99,easy,,0.700323600000047,['n'],1,right,['1'],6,0.2602422999998453,9,,39,31,Vrouw,Links,1,
,xotask,dotcolour,dotcolour,28,3,208,508,main,negativefb,-99,hard,,0.8179666999999426,['c'],1,left,['1'],6,0.13799339999968652,51,,39,31,Vrouw,Links,1,
,xotask,dotcolour,dotcolour,29,3,209,509,main,negativefb,-99,average,,0.5173293000002559,['n'],1,right,['1'],6,0.21708330000001297,18,,39,31,Vrouw,Links,1,
,xotask,dotcolour,dotcolour,30,3,210,510,main,negativefb,-99,average,,0.4849733999999444,['n'],1,right,['1'],6,0.23026190000018687,18,,39,31,Vrouw,Links,1,
,xotask,dotcolour,dotcolour,31,3,211,511,main,negativefb,-99,hard,,0.9840788000001339,['n'],1,right,['1'],6,0.18299890000025698,25,,39,31,Vrouw,Links,1,
,xotask,dotcolour,dotcolour,32,3,212,512,main,negativefb,-99,hard,,0.6174614999999903,['n'],1,right,['1'],6,0.1987914000001183,26,,39,31,Vrouw,Links,1,
,xotask,dotcolour,dotcolour,33,3,213,513,main,negativefb,-99,average,,0.5678636000002371,['n'],1,right,['1'],6,0.1770394000000124,16,,39,31,Vrouw,Links,1,
,xotask,dotcolour,dotcolour,34,3,214,514,main,negativefb,-99,hard,,0.5166232000001401,['n'],1,right,"['1', '2']",6,0.1987373000001753,29,,39,31,Vrouw,Links,1,
,xotask,dotcolour,dotcolour,35,3,215,515,main,negativefb,-99,hard,,0.5670178000000305,['n'],1,right,['1'],6,0.20037570000022242,25,,39,31,Vrouw,Links,1,
,xotask,dotcolour,dotcolour,36,3,216,516,main,negativefb,-99,hard,,0.9178756000001158,['c'],1,left,['2'],5,0.15630840000039825,53,,39,31,Vrouw,Links,1,
,xotask,dotcolour,dotcolour,37,3,217,517,main,negativefb,-99,average,,1.084996599999613,['c'],1,left,['1'],6,0.1322397000003548,60,,39,31,Vrouw,Links,1,
,xotask,dotcolour,dotcolour,38,3,218,518,main,negativefb,-99,hard,,0.5342825999996421,['n'],1,right,['1'],6,0.18558830000029047,27,,39,31,Vrouw,Links,1,
,xotask,dotcolour,dotcolour,39,3,219,519,main,negativefb,-99,average,,0.5336412000001474,['n'],1,right,['1'],6,0.24606930000027205,17,,39,31,Vrouw,Links,1,
,xotask,dotcolour,dotcolour,40,3,220,520,main,negativefb,-99,average,,0.4841161999997894,['n'],1,right,['1'],6,0.2100935000003119,17,,39,31,Vrouw,Links,1,
,xotask,dotcolour,dotcolour,41,3,221,521,main,negativefb,-99,easy,,0.6848176999997122,['c'],1,left,"['1', '2']",6,0.14340119999997114,73,,39,31,Vrouw,Links,1,
,xotask,dotcolour,dotcolour,42,3,222,522,main,negativefb,-99,hard,,0.9164774999999281,['c'],1,left,['1'],6,0.3418993000000228,53,,39,31,Vrouw,Links,1,
,xotask,dotcolour,dotcolour,43,3,223,523,main,negativefb,-99,hard,,0.8335266999997657,['c'],1,left,['1'],6,0.13622320000013133,52,,39,31,Vrouw,Links,1,
,xotask,dotcolour,dotcolour,44,3,224,524,main,negativefb,-99,easy,,0.6837359000001015,['n'],1,right,['1'],6,0.15185850000034407,9,,39,31,Vrouw,Links,1,
,xotask,dotcolour,dotcolour,45,3,225,525,main,negativefb,-99,hard,,0.6998058000003766,['n'],0,left,['2'],5,0.2391115999998874,50,,39,31,Vrouw,Links,1,
,xotask,dotcolour,dotcolour,46,3,226,526,main,negativefb,-99,hard,,0.9346113999999943,['c'],1,left,['1'],6,0.13739309999982652,50,,39,31,Vrouw,Links,1,
,xotask,dotcolour,dotcolour,47,3,227,527,main,negativefb,-99,easy,,1.001101800000015,['c'],1,left,['1'],6,0.15577669999993304,70,,39,31,Vrouw,Links,1,
,xotask,dotcolour,dotcolour,48,3,228,528,main,negativefb,-99,easy,,0.4670882000000347,['n'],1,right,['1'],6,0.21174070000006395,5,,39,31,Vrouw,Links,1,
,xotask,dotcolour,dotcolour,49,3,229,529,main,negativefb,-99,easy,,0.5502640999998221,['n'],1,right,['1'],6,0.22288019999996322,9,,39,31,Vrouw,Links,1,
,xotask,dotcolour,dotcolour,50,3,230,530,main,negativefb,-99,average,,0.484095900000284,['n'],1,right,['2'],5,0.20306510000000344,19,,39,31,Vrouw,Links,1,
,xotask,dotcolour,dotcolour,51,3,231,531,main,negativefb,-99,average,,0.5180653000002167,['n'],1,right,['2'],5,0.22280270000010205,18,,39,31,Vrouw,Links,1,
,xotask,dotcolour,dotcolour,52,3,232,532,main,negativefb,-99,hard,,0.5671932000000197,['n'],1,right,['1'],6,0.2169458999997005,29,,39,31,Vrouw,Links,1,
,xotask,dotcolour,dotcolour,53,3,233,533,main,negativefb,-99,easy,,0.8173767999996926,['c'],1,left,['1'],6,0.14430850000007922,73,,39,31,Vrouw,Links,1,
,xotask,dotcolour,dotcolour,54,3,234,534,main,negativefb,-99,average,,1.1519747000002099,['n'],0,left,['2'],5,0.1888117999997121,61,,39,31,Vrouw,Links,1,
,xotask,dotcolour,dotcolour,55,3,235,535,main,negativefb,-99,easy,,0.8843638999996983,['n'],1,right,['1'],6,0.21142879999979414,6,,39,31,Vrouw,Links,1,
,xotask,dotcolour,dotcolour,56,3,236,536,main,negativefb,-99,easy,,0.5999740000002021,['n'],1,right,['1'],6,0.1875529999997525,5,,39,31,Vrouw,Links,1,
,xotask,dotcolour,dotcolour,57,3,237,537,main,negativefb,-99,hard,,1.2843222999999853,['c'],1,left,['2'],5,0.593865199999982,53,,39,31,Vrouw,Links,1,
,xotask,dotcolour,dotcolour,58,3,238,538,main,negativefb,-99,easy,,0.6008111999999528,['n'],1,right,['2'],5,0.2273193999999421,9,,39,31,Vrouw,Links,1,
,xotask,dotcolour,dotcolour,59,3,239,539,main,negativefb,-99,hard,,1.300577599999997,['c'],1,left,['3'],4,0.6398325999998633,51,,39,31,Vrouw,Links,1,
,xotask,dotcolour,dotcolour,0,4,240,540,main,negativefb,-99,hard,,0.8495958999997129,['n'],1,right,['3'],4,0.3495136999999886,25,,39,31,Vrouw,Links,1,
,xotask,dotcolour,dotcolour,1,4,241,541,main,negativefb,-99,hard,,0.6336580999995931,['n'],0,left,['2'],5,0.25518990000000485,50,,39,31,Vrouw,Links,1,
,xotask,dotcolour,dotcolour,2,4,242,542,main,negativefb,-99,average,,0.5841996999997718,['n'],1,right,['2'],5,0.2150854999999865,19,,39,31,Vrouw,Links,1,
,xotask,dotcolour,dotcolour,3,4,243,543,main,negativefb,-99,easy,,0.9014643999998952,['n'],1,right,['1'],6,0.31455929999992804,8,,39,31,Vrouw,Links,1,
,xotask,dotcolour,dotcolour,4,4,244,544,main,negativefb,-99,average,,0.6513528999998925,['n'],1,right,['1'],6,0.30028319999973974,17,,39,31,Vrouw,Links,1,
,xotask,dotcolour,dotcolour,5,4,245,545,main,negativefb,-99,hard,,1.6685721000003468,['c'],1,left,['1'],6,0.2867974000000686,52,,39,31,Vrouw,Links,1,
,xotask,dotcolour,dotcolour,6,4,246,546,main,negativefb,-99,average,,0.5503798999998253,['n'],1,right,['2'],5,0.3662481999999727,18,,39,31,Vrouw,Links,1,
,xotask,dotcolour,dotcolour,7,4,247,547,main,negativefb,-99,average,,0.8177752000001419,['n'],1,right,['2'],5,0.30363709999983257,16,,39,31,Vrouw,Links,1,
,xotask,dotcolour,dotcolour,8,4,248,548,main,negativefb,-99,easy,,0.5350751999999375,['n'],1,right,['2'],5,0.5664656000003561,7,,39,31,Vrouw,Links,1,
,xotask,dotcolour,dotcolour,9,4,249,549,main,negativefb,-99,easy,,0.5173184000000219,['n'],1,right,['1'],6,0.18798700000024837,9,,39,31,Vrouw,Links,1,
,xotask,dotcolour,dotcolour,10,4,250,550,main,negativefb,-99,easy,,1.3850890999997318,['c'],1,left,['1'],6,0.2296744000000217,72,,39,31,Vrouw,Links,1,
,xotask,dotcolour,dotcolour,11,4,251,551,main,negativefb,-99,hard,,0.7170614999999998,['n'],0,left,['2'],5,0.24925329999996393,53,,39,31,Vrouw,Links,1,
,xotask,dotcolour,dotcolour,12,4,252,552,main,negativefb,-99,hard,,0.6011418000002777,['n'],1,right,['2'],5,0.23233529999970415,26,,39,31,Vrouw,Links,1,
,xotask,dotcolour,dotcolour,13,4,253,553,main,negativefb,-99,hard,,0.7839688999997634,['n'],0,left,['2'],5,0.20811929999990753,51,,39,31,Vrouw,Links,1,
,xotask,dotcolour,dotcolour,14,4,254,554,main,negativefb,-99,average,,0.7176845999997568,['n'],1,right,['2'],5,0.47604779999983293,15,,39,31,Vrouw,Links,1,
,xotask,dotcolour,dotcolour,15,4,255,555,main,negativefb,-99,average,,1.0012163999999757,['n'],0,left,['2'],5,0.31354160000000775,60,,39,31,Vrouw,Links,1,
,xotask,dotcolour,dotcolour,16,4,256,556,main,negativefb,-99,hard,,0.5832195000002685,['n'],1,right,['2'],5,0.2553589999997712,29,,39,31,Vrouw,Links,1,
,xotask,dotcolour,dotcolour,17,4,257,557,main,negativefb,-99,hard,,0.5184040999997706,['n'],0,left,['3'],4,0.6256121000001258,52,,39,31,Vrouw,Links,1,
,xotask,dotcolour,dotcolour,18,4,258,558,main,negativefb,-99,hard,,0.8009725000001708,['n'],0,left,['3'],4,0.19301290000021254,54,,39,31,Vrouw,Links,1,
,xotask,dotcolour,dotcolour,19,4,259,559,main,negativefb,-99,easy,,0.5836692000002586,['n'],1,right,['2'],5,0.5475126999999702,5,,39,31,Vrouw,Links,1,
,xotask,dotcolour,dotcolour,20,4,260,560,main,negativefb,-99,average,,0.9506980999999541,['n'],0,left,['3'],4,0.37602130000004763,62,,39,31,Vrouw,Links,1,
,xotask,dotcolour,dotcolour,21,4,261,561,main,negativefb,-99,easy,,1.667513599999893,['c'],1,left,['2'],5,0.34434539999983826,72,,39,31,Vrouw,Links,1,
,xotask,dotcolour,dotcolour,22,4,262,562,main,negativefb,-99,hard,,0.5669106000000284,['n'],1,right,['1'],6,0.31690500000013344,27,,39,31,Vrouw,Links,1,
,xotask,dotcolour,dotcolour,23,4,263,563,main,negativefb,-99,average,,1.3505700999999135,['c'],1,left,['2'],5,0.2427345000000969,64,,39,31,Vrouw,Links,1,
,xotask,dotcolour,dotcolour,24,4,264,564,main,negativefb,-99,easy,,0.9513082000003124,['c'],1,left,['2'],5,0.23609870000018418,74,,39,31,Vrouw,Links,1,
,xotask,dotcolour,dotcolour,25,4,265,565,main,negativefb,-99,average,,0.7504174000000603,['n'],0,left,['3'],4,0.7580637999999453,60,,39,31,Vrouw,Links,1,
,xotask,dotcolour,dotcolour,26,4,266,566,main,negativefb,-99,average,,0.9845884999999726,['n'],1,right,['2'],5,0.6965075000002798,17,,39,31,Vrouw,Links,1,
,xotask,dotcolour,dotcolour,27,4,267,567,main,negativefb,-99,average,,1.000816400000076,['c'],1,left,['1'],6,0.18222130000003744,64,,39,31,Vrouw,Links,1,
,xotask,dotcolour,dotcolour,28,4,268,568,main,negativefb,-99,hard,,0.6182286999996904,['n'],1,right,['2'],5,0.3668250000000626,28,,39,31,Vrouw,Links,1,
,xotask,dotcolour,dotcolour,29,4,269,569,main,negativefb,-99,average,,0.9514601999999286,['c'],1,left,['1'],6,0.09059410000008938,63,,39,31,Vrouw,Links,1,
,xotask,dotcolour,dotcolour,30,4,270,570,main,negativefb,-99,easy,,0.8166132000001198,['c'],1,left,['1'],6,0.1198776999999609,74,,39,31,Vrouw,Links,1,
,xotask,dotcolour,dotcolour,31,4,271,571,main,negativefb,-99,hard,,0.7012479999998504,['n'],1,right,['2'],5,0.21497230000022682,25,,39,31,Vrouw,Links,1,
,xotask,dotcolour,dotcolour,32,4,272,572,main,negativefb,-99,average,,0.9674030000001039,['c'],1,left,['1'],6,0.12807939999993323,60,,39,31,Vrouw,Links,1,
,xotask,dotcolour,dotcolour,33,4,273,573,main,negativefb,-99,easy,,0.866810500000156,['c'],1,left,['1'],6,0.129424900000231,74,,39,31,Vrouw,Links,1,
,xotask,dotcolour,dotcolour,34,4,274,574,main,negativefb,-99,easy,,0.7002108000001499,['n'],1,right,['2'],5,0.16952360000004774,6,,39,31,Vrouw,Links,1,
,xotask,dotcolour,dotcolour,35,4,275,575,main,negativefb,-99,easy,,1.5841819000002033,['n'],1,right,['1'],6,0.21287560000018857,5,,39,31,Vrouw,Links,1,
,xotask,dotcolour,dotcolour,36,4,276,576,main,negativefb,-99,hard,,1.1341528000002654,['c'],1,left,['2'],5,0.14330629999994926,53,,39,31,Vrouw,Links,1,
,xotask,dotcolour,dotcolour,37,4,277,577,main,negativefb,-99,hard,,0.7180818000001636,['n'],0,left,['2'],5,0.31065369999987524,50,,39,31,Vrouw,Links,1,
,xotask,dotcolour,dotcolour,38,4,278,578,main,negativefb,-99,average,,1.117864400000144,['c'],1,left,['2'],5,0.11867830000028334,61,,39,31,Vrouw,Links,1,
,xotask,dotcolour,dotcolour,39,4,279,579,main,negativefb,-99,easy,,0.9010840999999346,['c'],1,left,['1'],6,0.13444890000027954,71,,39,31,Vrouw,Links,1,
,xotask,dotcolour,dotcolour,40,4,280,580,main,negativefb,-99,average,,0.6167905000002065,['n'],1,right,['2'],5,0.21784419999994498,17,,39,31,Vrouw,Links,1,
,xotask,dotcolour,dotcolour,41,4,281,581,main,negativefb,-99,easy,,0.8681085000002895,['n'],1,right,['1'],6,0.2788967000001321,6,,39,31,Vrouw,Links,1,
,xotask,dotcolour,dotcolour,42,4,282,582,main,negativefb,-99,easy,,1.1015784999999596,['c'],1,left,['1'],6,0.10469710000006671,72,,39,31,Vrouw,Links,1,
,xotask,dotcolour,dotcolour,43,4,283,583,main,negativefb,-99,easy,,0.784628999999768,['c'],1,left,['2'],5,0.22232629999962228,72,,39,31,Vrouw,Links,1,
,xotask,dotcolour,dotcolour,44,4,284,584,main,negativefb,-99,hard,,0.684060000000045,['n'],1,right,['2'],5,0.19473930000003747,27,,39,31,Vrouw,Links,1,
,xotask,dotcolour,dotcolour,45,4,285,585,main,negativefb,-99,average,,0.8177445000001171,['c'],1,left,['1'],6,0.12320399999998699,63,,39,31,Vrouw,Links,1,
,xotask,dotcolour,dotcolour,46,4,286,586,main,negativefb,-99,easy,,0.6840178000002197,['n'],1,right,['1'],6,0.21988920000012513,7,,39,31,Vrouw,Links,1,
,xotask,dotcolour,dotcolour,47,4,287,587,main,negativefb,-99,easy,,0.717545699999846,['c'],1,left,['1'],6,0.09499630000027537,73,,39,31,Vrouw,Links,1,
,xotask,dotcolour,dotcolour,48,4,288,588,main,negativefb,-99,average,,1.1675122999999985,['c'],1,left,['2'],5,0.11844799999971656,60,,39,31,Vrouw,Links,1,
,xotask,dotcolour,dotcolour,49,4,289,589,main,negativefb,-99,hard,,0.8345142999996824,['n'],0,left,['2'],5,0.20854959999996936,51,,39,31,Vrouw,Links,1,
,xotask,dotcolour,dotcolour,50,4,290,590,main,negativefb,-99,hard,,0.6847421000002214,['n'],1,right,['2'],5,0.16642030000002705,29,,39,31,Vrouw,Links,1,
,xotask,dotcolour,dotcolour,51,4,291,591,main,negativefb,-99,hard,,0.8354231000002983,['c'],1,left,['1'],6,0.11063060000014957,53,,39,31,Vrouw,Links,1,
,xotask,dotcolour,dotcolour,52,4,292,592,main,negativefb,-99,average,,0.8167497999997977,['n'],1,right,['1'],6,0.14653009999983624,19,,39,31,Vrouw,Links,1,
,xotask,dotcolour,dotcolour,53,4,293,593,main,negativefb,-99,easy,,0.6005483999997523,['n'],1,right,['1'],6,0.13417970000000423,7,,39,31,Vrouw,Links,1,
,xotask,dotcolour,dotcolour,54,4,294,594,main,negativefb,-99,average,,0.583817000000181,['n'],1,right,['1'],6,0.14596510000001217,18,,39,31,Vrouw,Links,1,
,xotask,dotcolour,dotcolour,55,4,295,595,main,negativefb,-99,hard,,0.7999604999999974,['n'],1,right,['2'],5,0.19740779999983715,29,,39,31,Vrouw,Links,1,
,xotask,dotcolour,dotcolour,56,4,296,596,main,negativefb,-99,easy,,0.6009296000001996,['n'],1,right,['2'],5,0.15822530000014012,9,,39,31,Vrouw,Links,1,
,xotask,dotcolour,dotcolour,57,4,297,597,main,negativefb,-99,average,,0.5176268000000164,['n'],1,right,['1'],6,0.1638068000002022,16,,39,31,Vrouw,Links,1,
,xotask,dotcolour,dotcolour,58,4,298,598,main,negativefb,-99,hard,,0.7848211000000447,['n'],1,right,['2'],5,0.4234409999999116,28,,39,31,Vrouw,Links,1,
,xotask,dotcolour,dotcolour,59,4,299,599,main,negativefb,-99,easy,,0.8841584000001603,['c'],1,left,['1'],6,0.11595809999971607,73,,39,31,Vrouw,Links,1,
,dotcolour,dotcolour,dotcolour,0,0,0,600,training,negativefb,74,average,25,1.351687800000036,['n'],1,right,['2'],5,0.1293217000002187,,,39,31,Vrouw,Links,1,
,dotcolour,dotcolour,dotcolour,1,0,1,601,training,negativefb,44,easy,16,0.6507921999996142,['n'],1,right,['1'],6,0.14720680000027642,,,39,31,Vrouw,Links,1,
,dotcolour,dotcolour,dotcolour,2,0,2,602,training,negativefb,43,hard,45,0.8341824999997698,['n'],0,left,['1'],6,0.09212600000000748,,,39,31,Vrouw,Links,1,
,dotcolour,dotcolour,dotcolour,3,0,3,603,training,negativefb,71,average,51,0.7829870000000483,['c'],1,left,['2'],5,0.14597300000014002,,,39,31,Vrouw,Links,1,
,dotcolour,dotcolour,dotcolour,4,0,4,604,training,negativefb,70,hard,45,0.7172921999999744,['n'],0,left,['2'],5,0.5759862999998404,,,39,31,Vrouw,Links,1,
,dotcolour,dotcolour,dotcolour,5,0,5,605,training,negativefb,67,easy,64,0.8666213999999854,['c'],1,left,['1'],6,0.11027409999996962,,,39,31,Vrouw,Links,1,
,dotcolour,dotcolour,dotcolour,6,0,6,606,training,negativefb,57,average,25,0.648688900000252,['n'],1,right,['1'],6,0.24014880000004268,,,39,31,Vrouw,Links,1,
,dotcolour,dotcolour,dotcolour,7,0,7,607,training,negativefb,86,average,26,0.5673314999999093,['n'],1,right,['1'],6,0.120222499999727,,,39,31,Vrouw,Links,1,
,dotcolour,dotcolour,dotcolour,8,0,8,608,training,negativefb,78,easy,16,0.582198900000094,['n'],1,right,['1'],6,0.11659150000014051,,,39,31,Vrouw,Links,1,
,dotcolour,dotcolour,dotcolour,9,0,9,609,training,negativefb,62,average,29,0.44961160000002565,['n'],1,right,['1'],6,0.1652964999998403,,,39,31,Vrouw,Links,1,
,dotcolour,dotcolour,dotcolour,10,0,10,610,training,negativefb,45,easy,62,1.0670101999999133,['c'],1,left,['2'],5,0.3315830999999889,,,39,31,Vrouw,Links,1,
,dotcolour,dotcolour,dotcolour,11,0,11,611,training,negativefb,45,easy,15,0.7834219999999732,['n'],1,right,['1'],6,0.2713002000000415,,,39,31,Vrouw,Links,1,
,dotcolour,dotcolour,dotcolour,12,0,12,612,training,negativefb,32,average,27,0.7998000999996293,['n'],1,right,['2'],5,0.19720970000025773,,,39,31,Vrouw,Links,1,
,dotcolour,dotcolour,dotcolour,13,0,13,613,training,negativefb,84,hard,37,0.7167788000001565,['n'],1,right,['2'],5,0.22439620000022842,,,39,31,Vrouw,Links,1,
,dotcolour,dotcolour,dotcolour,14,0,14,614,training,negativefb,49,easy,63,0.9003311000001304,['c'],1,left,['2'],5,0.14035639999974592,,,39,31,Vrouw,Links,1,
,dotcolour,dotcolour,dotcolour,15,0,15,615,training,negativefb,72,easy,61,1.100042499999745,['c'],1,left,['1'],6,0.09847940000008748,,,39,31,Vrouw,Links,1,
,dotcolour,dotcolour,dotcolour,16,0,16,616,training,negativefb,54,average,54,1.266377299999931,['n'],0,left,['2'],5,0.21156269999983124,,,39,31,Vrouw,Links,1,
,dotcolour,dotcolour,dotcolour,17,0,17,617,training,negativefb,44,hard,44,0.8502112999999554,['n'],0,left,['2'],5,0.30624429999988934,,,39,31,Vrouw,Links,1,
,dotcolour,dotcolour,dotcolour,18,0,18,618,training,negativefb,76,hard,37,1.2492333000000144,['n'],1,right,['2'],5,0.2360564999999042,,,39,31,Vrouw,Links,1,
,dotcolour,dotcolour,dotcolour,19,0,19,619,training,negativefb,63,average,53,0.9163228000002164,['c'],1,left,['2'],5,0.10978479999994306,,,39,31,Vrouw,Links,1,
,dotcolour,dotcolour,dotcolour,20,0,20,620,training,negativefb,44,hard,37,0.7503827999998975,['n'],1,right,['2'],5,0.19600369999989198,,,39,31,Vrouw,Links,1,
,dotcolour,dotcolour,dotcolour,21,0,21,621,training,negativefb,72,average,54,0.9493554999999105,['c'],1,left,['2'],5,0.2391327000000274,,,39,31,Vrouw,Links,1,
,dotcolour,dotcolour,dotcolour,22,0,22,622,training,negativefb,72,easy,63,0.7837859999999637,['c'],1,left,['2'],5,0.11007219999964946,,,39,31,Vrouw,Links,1,
,dotcolour,dotcolour,dotcolour,23,0,23,623,training,negativefb,73,easy,16,0.7328683999999157,['n'],1,right,['2'],5,0.23684899999989284,,,39,31,Vrouw,Links,1,
,dotcolour,dotcolour,dotcolour,24,0,24,624,training,negativefb,70,easy,61,0.9503091000001405,['c'],1,left,['2'],5,0.14948770000000877,,,39,31,Vrouw,Links,1,
,dotcolour,dotcolour,dotcolour,25,0,25,625,training,negativefb,55,average,53,0.8014261999996961,['n'],0,left,['2'],5,0.2952755999999681,,,39,31,Vrouw,Links,1,
,dotcolour,dotcolour,dotcolour,26,0,26,626,training,negativefb,42,hard,44,0.7497424999996838,['n'],0,left,['2'],5,0.21399830000018483,,,39,31,Vrouw,Links,1,
,dotcolour,dotcolour,dotcolour,27,0,27,627,training,negativefb,50,average,26,0.983840599999894,['n'],1,right,['2'],5,0.29438620000019,,,39,31,Vrouw,Links,1,
,dotcolour,dotcolour,dotcolour,28,0,28,628,training,negativefb,76,easy,65,0.8996949000002132,['c'],1,left,['2'],5,0.1034773999999743,,,39,31,Vrouw,Links,1,
,dotcolour,dotcolour,dotcolour,29,0,29,629,training,negativefb,52,easy,65,0.717407600000115,['c'],1,left,['2'],5,0.10255979999965348,,,39,31,Vrouw,Links,1,
,dotcolour,dotcolour,dotcolour,30,0,30,630,training,negativefb,87,average,27,0.7678986000000805,['n'],1,right,['2'],5,0.2764486000000943,,,39,31,Vrouw,Links,1,
,dotcolour,dotcolour,dotcolour,31,0,31,631,training,negativefb,68,hard,41,1.1511661999998068,['n'],0,left,['1'],6,0.19546540000010282,,,39,31,Vrouw,Links,1,
,dotcolour,dotcolour,dotcolour,32,0,32,632,training,negativefb,78,hard,37,1.0338627999999517,['n'],1,right,['2'],5,0.2181433000000652,,,39,31,Vrouw,Links,1,
,dotcolour,dotcolour,dotcolour,33,0,33,633,training,negativefb,56,average,25,0.8500045000000682,['n'],1,right,['2'],5,0.2637583000000632,,,39,31,Vrouw,Links,1,
,dotcolour,dotcolour,dotcolour,34,0,34,634,training,negativefb,92,average,29,0.733542199999647,['n'],1,right,['2'],5,0.3284469000000172,,,39,31,Vrouw,Links,1,
,dotcolour,dotcolour,dotcolour,35,0,35,635,training,negativefb,33,hard,43,0.7171722000002774,['n'],0,left,['2'],5,0.22388950000004115,,,39,31,Vrouw,Links,1,
,dotcolour,dotcolour,dotcolour,36,0,36,636,training,negativefb,71,average,54,0.9669086000003517,['c'],1,left,['2'],5,0.15173890000005485,,,39,31,Vrouw,Links,1,
,dotcolour,dotcolour,dotcolour,37,0,37,637,training,negativefb,31,hard,36,0.7841788999999153,['n'],1,right,['2'],5,0.21084749999999985,,,39,31,Vrouw,Links,1,
,dotcolour,dotcolour,dotcolour,38,0,38,638,training,negativefb,59,easy,18,0.7514385999998012,['n'],1,right,['2'],5,0.20459850000042934,,,39,31,Vrouw,Links,1,
,dotcolour,dotcolour,dotcolour,39,0,39,639,training,negativefb,43,hard,45,1.016360000000077,['n'],0,left,['2'],5,0.1401887999995779,,,39,31,Vrouw,Links,1,
,dotcolour,dotcolour,dotcolour,40,0,40,640,training,negativefb,66,easy,17,0.7679933000003984,['n'],1,right,['1'],6,0.16012769999997545,,,39,31,Vrouw,Links,1,
,dotcolour,dotcolour,dotcolour,41,0,41,641,training,negativefb,73,average,52,1.3170873999997639,['c'],1,left,['2'],5,0.20544289999998,,,39,31,Vrouw,Links,1,
