starttime,task,fbtask,firsttask,withinblocktrial,block,withintasktrial,trial,running,feedback,fbscore,difflevel,reddots,rt,resp,cor,cresp,conf_press,cj,RTconf,n_xes,stoptime,sub,age,gender,handedness,session,
1714978772,dotcolour,dotcolour,dotcolour,0,0,0,0,training,negativefb,2,hard,41,2.8008012000000235,['n'],0,left,['9'],5,5.636661099999856,,,15,18,Man,Rechts,1,
,dotcolour,dotcolour,dotcolour,1,0,1,1,training,negativefb,2,hard,39,2.7009345999999823,['c'],0,right,['8'],4,5.006561500000089,,,15,18,Man,Rechts,1,
,dotcolour,dotcolour,dotcolour,2,0,2,2,training,negativefb,88,average,27,2.9333317000000534,['n'],1,right,['2'],2,4.894950799999833,,,15,18,Man,Rechts,1,
,dotcolour,dotcolour,dotcolour,3,0,3,3,training,negativefb,18,easy,17,1.2170991000000413,['c'],0,right,['0'],6,1.3288129999998546,,,15,18,Man,Rechts,1,
,dotcolour,dotcolour,dotcolour,4,0,4,4,training,negativefb,36,hard,38,2.7173660999999356,['c'],0,right,['1'],1,1.0693974000000708,,,15,18,Man,Rechts,1,
,dotcolour,dotcolour,dotcolour,5,0,5,5,training,negativefb,89,average,51,1.4170059000000492,['c'],1,left,['0'],6,4.986814500000037,,,15,18,Man,Rechts,1,
,dotcolour,dotcolour,dotcolour,6,0,6,6,training,negativefb,43,hard,38,1.7338388000000577,['n'],1,right,['0'],6,0.532122599999866,,,15,18,Man,Rechts,1,
,dotcolour,dotcolour,dotcolour,7,0,7,7,training,negativefb,72,hard,44,1.217119700000012,['c'],1,left,['1'],1,0.421115699999973,,,15,18,Man,Rechts,1,
,dotcolour,dotcolour,dotcolour,8,0,8,8,training,negativefb,57,hard,37,1.4006010999999035,['n'],1,right,['0'],6,0.46950969999988956,,,15,18,Man,Rechts,1,
,dotcolour,dotcolour,dotcolour,9,0,9,9,training,negativefb,92,easy,64,1.0515852000000905,['c'],1,left,['1'],1,0.33653469999990193,,,15,18,Man,Rechts,1,
,dotcolour,dotcolour,dotcolour,10,0,10,10,training,negativefb,85,easy,65,1.066462700000102,['c'],1,left,['0'],6,0.48005140000009305,,,15,18,Man,Rechts,1,
,dotcolour,dotcolour,dotcolour,11,0,11,11,training,negativefb,82,hard,35,1.4995355999999447,['n'],1,right,['0'],6,0.8501854000001003,,,15,18,Man,Rechts,1,
,dotcolour,dotcolour,dotcolour,12,0,12,12,training,negativefb,39,hard,43,0.7501589000000877,['c'],1,left,['0'],6,0.4425149000001056,,,15,18,Man,Rechts,1,
,dotcolour,dotcolour,dotcolour,13,0,13,13,training,negativefb,76,average,29,0.8670715999999175,['n'],1,right,['0'],6,0.26234249999993153,,,15,18,Man,Rechts,1,
,dotcolour,dotcolour,dotcolour,14,0,14,14,training,negativefb,75,hard,38,0.8172342000000299,['c'],0,right,['0'],6,0.24339000000009037,,,15,18,Man,Rechts,1,
,dotcolour,dotcolour,dotcolour,15,0,15,15,training,negativefb,75,average,55,0.8833700000000135,['c'],1,left,['8'],4,1.8462714999998298,,,15,18,Man,Rechts,1,
,dotcolour,dotcolour,dotcolour,16,0,16,16,training,negativefb,87,easy,17,1.0168295999999373,['n'],1,right,['0'],6,0.2762009999999009,,,15,18,Man,Rechts,1,
,dotcolour,dotcolour,dotcolour,17,0,17,17,training,negativefb,77,easy,18,0.7831555999998727,['n'],1,right,['0'],6,0.21846640000012485,,,15,18,Man,Rechts,1,
,dotcolour,dotcolour,dotcolour,18,0,18,18,training,negativefb,37,average,26,0.6343342000000121,['n'],1,right,['0'],6,0.20020209999984218,,,15,18,Man,Rechts,1,
,dotcolour,dotcolour,dotcolour,19,0,19,19,training,negativefb,72,easy,16,0.5337130000000343,['n'],1,right,['0'],6,0.2190841999999975,,,15,18,Man,Rechts,1,
,dotcolour,dotcolour,dotcolour,20,0,20,20,training,negativefb,54,average,27,0.751989999999978,['n'],1,right,['0'],6,0.2193706000000475,,,15,18,Man,Rechts,1,
,dotcolour,dotcolour,dotcolour,21,0,21,21,training,negativefb,49,average,52,0.7007429000000229,['c'],1,left,['1'],1,0.3107910000001084,,,15,18,Man,Rechts,1,
,dotcolour,dotcolour,dotcolour,22,0,22,22,training,negativefb,89,easy,61,0.816244099999949,['c'],1,left,['0'],6,0.29863320000004023,,,15,18,Man,Rechts,1,
,dotcolour,dotcolour,dotcolour,23,0,23,23,training,negativefb,76,easy,18,0.6672175999999581,['n'],1,right,['0'],6,0.22050749999993968,,,15,18,Man,Rechts,1,
,dotcolour,dotcolour,dotcolour,24,0,24,24,training,negativefb,81,easy,64,0.6337834000000839,['c'],1,left,['0'],6,0.5703627999998844,,,15,18,Man,Rechts,1,
,dotcolour,dotcolour,dotcolour,25,0,25,25,training,negativefb,76,average,27,0.5998257999999623,['n'],1,right,['0'],6,0.14769729999989067,,,15,18,Man,Rechts,1,
,dotcolour,dotcolour,dotcolour,26,0,26,26,training,negativefb,59,hard,42,0.5826495999999679,['c'],1,left,['0'],6,0.3509954999999536,,,15,18,Man,Rechts,1,
,dotcolour,dotcolour,dotcolour,27,0,27,27,training,negativefb,73,average,29,0.6663270999999895,['n'],1,right,['0'],6,0.16614099999992504,,,15,18,Man,Rechts,1,
,dotcolour,dotcolour,dotcolour,28,0,28,28,training,negativefb,75,average,28,0.48287839999989046,['n'],1,right,['0'],6,0.22787680000010369,,,15,18,Man,Rechts,1,
,dotcolour,dotcolour,dotcolour,29,0,29,29,training,negativefb,4,average,54,0.3161648000000241,['n'],0,left,['1'],1,0.7991167000000132,,,15,18,Man,Rechts,1,
,dotcolour,dotcolour,dotcolour,30,0,30,30,training,negativefb,90,easy,62,0.7835601000001589,['c'],1,left,['1'],1,0.2398476999999275,,,15,18,Man,Rechts,1,
,dotcolour,dotcolour,dotcolour,31,0,31,31,training,negativefb,80,hard,35,1.4667449000000943,['n'],1,right,['0'],6,0.23581239999998616,,,15,18,Man,Rechts,1,
,dotcolour,dotcolour,dotcolour,32,0,32,32,training,negativefb,77,average,29,1.0334671999999046,['n'],1,right,['0'],6,0.27319740000007187,,,15,18,Man,Rechts,1,
,dotcolour,dotcolour,dotcolour,33,0,33,33,training,negativefb,63,easy,18,0.5668785999998818,['n'],1,right,['0'],6,0.1917775999997957,,,15,18,Man,Rechts,1,
,dotcolour,dotcolour,dotcolour,34,0,34,34,training,negativefb,45,hard,42,1.1675352000002022,['c'],1,left,['0'],6,0.32983869999998205,,,15,18,Man,Rechts,1,
,dotcolour,dotcolour,dotcolour,35,0,35,35,training,negativefb,79,hard,43,1.517197699999997,['c'],1,left,['1'],1,0.24845619999996416,,,15,18,Man,Rechts,1,
,dotcolour,dotcolour,dotcolour,36,0,36,36,training,negativefb,33,hard,35,1.3837012999999843,['c'],0,right,['0'],6,0.20717489999992722,,,15,18,Man,Rechts,1,
,dotcolour,dotcolour,dotcolour,37,0,37,37,training,negativefb,66,easy,19,0.9840939000000617,['n'],1,right,['0'],6,0.23994999999990796,,,15,18,Man,Rechts,1,
,dotcolour,dotcolour,dotcolour,38,0,38,38,training,negativefb,62,average,51,2.118194300000141,['n'],0,left,['0'],6,0.40137639999989005,,,15,18,Man,Rechts,1,
,dotcolour,dotcolour,dotcolour,39,0,39,39,training,negativefb,54,average,28,0.6335476000001563,['n'],1,right,['0'],6,0.15248880000012832,,,15,18,Man,Rechts,1,
,dotcolour,dotcolour,dotcolour,40,0,40,40,training,negativefb,47,easy,17,0.583545999999842,['n'],1,right,['0'],6,0.16348579999998947,,,15,18,Man,Rechts,1,
,dotcolour,dotcolour,dotcolour,41,0,41,41,training,negativefb,63,average,55,0.7000685000000431,['c'],1,left,['0'],6,0.31322499999987485,,,15,18,Man,Rechts,1,
,dotcolour,dotcolour,dotcolour,42,0,42,42,training,negativefb,56,easy,62,0.9503455999999915,['c'],1,left,['0'],6,0.191303199999993,,,15,18,Man,Rechts,1,
,dotcolour,dotcolour,dotcolour,43,0,43,43,training,negativefb,40,hard,44,0.8502628000001096,['c'],1,left,['0'],6,0.18184299999984432,,,15,18,Man,Rechts,1,
,dotcolour,dotcolour,dotcolour,44,0,44,44,training,negativefb,54,hard,42,0.7172458999998526,['c'],1,left,['1'],1,0.26587500000005093,,,15,18,Man,Rechts,1,
,dotcolour,dotcolour,dotcolour,45,0,45,45,training,negativefb,48,average,28,0.8172096000000693,['n'],1,right,['0'],6,0.20662019999986114,,,15,18,Man,Rechts,1,
,dotcolour,dotcolour,dotcolour,46,0,46,46,training,negativefb,11,hard,41,0.9499865000000227,['c'],1,left,['0'],6,0.3282586000000265,,,15,18,Man,Rechts,1,
,dotcolour,dotcolour,dotcolour,47,0,47,47,training,negativefb,30,easy,64,1.1518051999998988,['n'],0,left,['0'],6,0.44599410000000717,,,15,18,Man,Rechts,1,
,dotcolour,dotcolour,dotcolour,48,0,48,48,training,negativefb,55,hard,37,0.6011098000001311,['n'],1,right,['0'],6,0.25219270000002325,,,15,18,Man,Rechts,1,
,dotcolour,dotcolour,dotcolour,49,0,49,49,training,negativefb,80,easy,18,0.4997006999999485,['n'],1,right,['0'],6,0.28692850000015824,,,15,18,Man,Rechts,1,
,dotcolour,dotcolour,dotcolour,50,0,50,50,training,negativefb,57,hard,39,1.1184740999999576,['c'],0,right,['1'],1,0.2548269999999775,,,15,18,Man,Rechts,1,
,dotcolour,dotcolour,dotcolour,51,0,51,51,training,negativefb,62,easy,62,0.8505605999998807,['c'],1,left,['0'],6,0.5946956000000228,,,15,18,Man,Rechts,1,
,dotcolour,dotcolour,dotcolour,52,0,52,52,training,negativefb,64,average,52,0.7504561000000649,['c'],1,left,['0'],6,0.42951220000009016,,,15,18,Man,Rechts,1,
,dotcolour,dotcolour,dotcolour,53,0,53,53,training,negativefb,63,easy,16,0.6829049999998915,['n'],1,right,['0'],6,0.21780879999982972,,,15,18,Man,Rechts,1,
,dotcolour,dotcolour,dotcolour,54,0,54,54,training,negativefb,77,easy,63,0.6155995999999959,['c'],1,left,['0'],6,0.25521600000001854,,,15,18,Man,Rechts,1,
,dotcolour,dotcolour,dotcolour,55,0,55,55,training,negativefb,85,average,55,0.48371819999988475,['c'],1,left,['0'],6,0.17884129999993092,,,15,18,Man,Rechts,1,
,dotcolour,dotcolour,dotcolour,56,0,56,56,training,negativefb,50,hard,42,0.7335628999999244,['c'],1,left,['0'],6,0.34993740000004436,,,15,18,Man,Rechts,1,
,dotcolour,dotcolour,dotcolour,57,0,57,57,training,negativefb,57,average,51,0.5003816000000825,['c'],1,left,['0'],6,0.30902609999998276,,,15,18,Man,Rechts,1,
,dotcolour,dotcolour,dotcolour,58,0,58,58,training,negativefb,40,average,53,0.5324688000000606,['c'],1,left,['8'],4,0.3236723999998503,,,15,18,Man,Rechts,1,
,dotcolour,dotcolour,dotcolour,59,0,59,59,training,negativefb,72,easy,64,0.5836123000001407,['c'],1,left,['0'],6,0.32785549999994146,,,15,18,Man,Rechts,1,
,dotcolour,dotcolour,dotcolour,0,1,60,60,training,negativefb,59,easy,16,1.1838252000000011,['n'],1,right,['0'],6,0.21223809999992227,,,15,18,Man,Rechts,1,
,dotcolour,dotcolour,dotcolour,1,1,61,61,training,negativefb,62,average,54,0.5329054999999698,['c'],1,left,['0'],6,0.2062535999998545,,,15,18,Man,Rechts,1,
,dotcolour,dotcolour,dotcolour,2,1,62,62,training,negativefb,84,easy,17,0.8842720000000099,['n'],1,right,['0'],6,0.1944351000001916,,,15,18,Man,Rechts,1,
,dotcolour,dotcolour,dotcolour,3,1,63,63,training,negativefb,81,easy,61,0.9500369999998384,['c'],1,left,['0'],6,0.18253540000000612,,,15,18,Man,Rechts,1,
,dotcolour,dotcolour,dotcolour,4,1,64,64,training,negativefb,85,easy,65,0.4992293000000245,['c'],1,left,['0'],6,0.24319379999997182,,,15,18,Man,Rechts,1,
,dotcolour,dotcolour,dotcolour,5,1,65,65,training,negativefb,61,hard,38,0.7503484000001208,['n'],1,right,['0'],6,0.33065739999983634,,,15,18,Man,Rechts,1,
,dotcolour,dotcolour,dotcolour,6,1,66,66,training,negativefb,55,hard,38,1.849516999999878,['c'],0,right,['8'],4,0.2761714999999185,,,15,18,Man,Rechts,1,
,dotcolour,dotcolour,dotcolour,7,1,67,67,training,negativefb,73,easy,15,0.8666264000000865,['n'],1,right,['0'],6,0.20708230000013828,,,15,18,Man,Rechts,1,
,dotcolour,dotcolour,dotcolour,8,1,68,68,training,negativefb,46,hard,39,1.4170306000000892,['c'],0,right,['0'],6,0.42227890000003754,,,15,18,Man,Rechts,1,
,dotcolour,dotcolour,dotcolour,9,1,69,69,training,negativefb,71,hard,44,0.749363300000141,['c'],1,left,['8'],4,0.2872879000001376,,,15,18,Man,Rechts,1,
,dotcolour,dotcolour,dotcolour,10,1,70,70,training,negativefb,34,hard,43,1.3335442000000057,['c'],1,left,['0'],6,0.21438149999994494,,,15,18,Man,Rechts,1,
,dotcolour,dotcolour,dotcolour,11,1,71,71,training,negativefb,60,easy,16,0.9511064999999235,['n'],1,right,['0'],6,0.23225139999999556,,,15,18,Man,Rechts,1,
,dotcolour,dotcolour,dotcolour,12,1,72,72,training,negativefb,73,easy,61,0.8003921999998056,['c'],1,left,['0'],6,0.16646620000005896,,,15,18,Man,Rechts,1,
,dotcolour,dotcolour,dotcolour,13,1,73,73,training,negativefb,39,hard,42,0.7331358999999793,['c'],1,left,['0'],6,0.20311470000001464,,,15,18,Man,Rechts,1,
,dotcolour,dotcolour,dotcolour,14,1,74,74,training,negativefb,76,easy,63,1.100234399999863,['c'],1,left,['0'],6,0.21499839999978576,,,15,18,Man,Rechts,1,
,dotcolour,dotcolour,dotcolour,15,1,75,75,training,negativefb,86,average,29,0.6685686000000715,['n'],1,right,['0'],6,0.18741759999988972,,,15,18,Man,Rechts,1,
,dotcolour,dotcolour,dotcolour,16,1,76,76,training,negativefb,72,average,29,1.8490479999998115,['n'],1,right,['8'],4,0.6344469000000572,,,15,18,Man,Rechts,1,
,dotcolour,dotcolour,dotcolour,17,1,77,77,training,negativefb,77,hard,41,1.183478100000002,['c'],1,left,['8'],4,0.24990019999995638,,,15,18,Man,Rechts,1,
,dotcolour,dotcolour,dotcolour,18,1,78,78,training,negativefb,63,average,29,1.033573300000171,['n'],1,right,['8'],4,0.26188669999987724,,,15,18,Man,Rechts,1,
,dotcolour,dotcolour,dotcolour,19,1,79,79,training,negativefb,11,average,51,0.7653353000000607,['n'],0,left,['1'],1,1.997887799999944,,,15,18,Man,Rechts,1,
,dotcolour,dotcolour,dotcolour,20,1,80,80,training,negativefb,91,easy,62,1.0161689000001388,['c'],1,left,['0'],6,0.3011079000000336,,,15,18,Man,Rechts,1,
,dotcolour,dotcolour,dotcolour,21,1,81,81,training,negativefb,2,hard,43,1.517145600000049,['n'],0,left,['1'],1,2.940576700000065,,,15,18,Man,Rechts,1,
,dotcolour,dotcolour,dotcolour,22,1,82,82,training,negativefb,55,average,25,0.9347665000000234,['n'],1,right,['0'],6,0.448471900000186,,,15,18,Man,Rechts,1,
,dotcolour,dotcolour,dotcolour,23,1,83,83,training,negativefb,59,average,51,0.7015412000000651,['c'],1,left,['0'],6,0.24160870000014256,,,15,18,Man,Rechts,1,
,dotcolour,dotcolour,dotcolour,24,1,84,84,training,negativefb,62,average,51,1.4499205000001893,['c'],1,left,['0'],6,0.11865999999986343,,,15,18,Man,Rechts,1,
,dotcolour,dotcolour,dotcolour,25,1,85,85,training,negativefb,82,easy,19,0.7171662999999171,['n'],1,right,['0'],6,0.19775079999999434,,,15,18,Man,Rechts,1,
,dotcolour,dotcolour,dotcolour,26,1,86,86,training,negativefb,65,easy,62,0.7506352000000334,['c'],1,left,['0'],6,0.15194469999983085,,,15,18,Man,Rechts,1,
,dotcolour,dotcolour,dotcolour,27,1,87,87,training,negativefb,16,easy,18,0.6157216999999946,['c'],0,right,['0'],6,0.2178539000001365,,,15,18,Man,Rechts,1,
,dotcolour,dotcolour,dotcolour,28,1,88,88,training,negativefb,58,easy,17,0.7162109000000783,['n'],1,right,['0'],6,0.22051799999985633,,,15,18,Man,Rechts,1,
,dotcolour,dotcolour,dotcolour,29,1,89,89,training,negativefb,77,easy,16,0.7507232999998905,['n'],1,right,['0'],6,0.15694399999983943,,,15,18,Man,Rechts,1,
,dotcolour,dotcolour,dotcolour,30,1,90,90,training,negativefb,55,average,28,0.6333442000000105,['n'],1,right,['0'],6,0.3106680000000779,,,15,18,Man,Rechts,1,
,dotcolour,dotcolour,dotcolour,31,1,91,91,training,negativefb,65,average,29,0.4671106000000691,['n'],1,right,['0'],6,0.26396340000019336,,,15,18,Man,Rechts,1,
,dotcolour,dotcolour,dotcolour,32,1,92,92,training,negativefb,53,hard,41,1.3667652999999973,['c'],1,left,['0'],6,0.2066730000001371,,,15,18,Man,Rechts,1,
,dotcolour,dotcolour,dotcolour,33,1,93,93,training,negativefb,87,average,53,0.7995386000000053,['c'],1,left,['1'],1,0.6475554999999531,,,15,18,Man,Rechts,1,
,dotcolour,dotcolour,dotcolour,34,1,94,94,training,negativefb,34,easy,19,0.7495272999999543,['c'],0,right,['1'],1,0.8949818999999479,,,15,18,Man,Rechts,1,
,dotcolour,dotcolour,dotcolour,35,1,95,95,training,negativefb,27,average,53,0.8329948000000513,['c'],1,left,['0'],6,0.38662940000017443,,,15,18,Man,Rechts,1,
,dotcolour,dotcolour,dotcolour,36,1,96,96,training,negativefb,39,average,25,0.6337813999998616,['n'],1,right,['0'],6,0.17864749999989726,,,15,18,Man,Rechts,1,
,dotcolour,dotcolour,dotcolour,37,1,97,97,training,negativefb,48,hard,37,0.7828171000001021,['n'],1,right,['0'],6,0.1969683999998324,,,15,18,Man,Rechts,1,
,dotcolour,dotcolour,dotcolour,38,1,98,98,training,negativefb,20,hard,45,0.7007487999999285,['c'],1,left,['0'],6,0.25729739999997037,,,15,18,Man,Rechts,1,
,dotcolour,dotcolour,dotcolour,39,1,99,99,training,negativefb,67,hard,38,0.5826099999999315,['n'],1,right,['0'],6,0.20819970000002286,,,15,18,Man,Rechts,1,
,dotcolour,dotcolour,dotcolour,40,1,100,100,training,negativefb,39,average,26,0.6000796999999238,['c'],0,right,['0'],6,0.4321385000000646,,,15,18,Man,Rechts,1,
,dotcolour,dotcolour,dotcolour,41,1,101,101,training,negativefb,8,average,25,3.782601999999997,['c'],0,right,['8'],4,1.7998328999999558,,,15,18,Man,Rechts,1,
,dotcolour,dotcolour,dotcolour,42,1,102,102,training,negativefb,5,hard,45,1.4988911000000371,['n'],0,left,['1'],1,1.874900900000057,,,15,18,Man,Rechts,1,
,dotcolour,dotcolour,dotcolour,43,1,103,103,training,negativefb,83,average,53,0.7834976999999981,['c'],1,left,['0'],6,0.5762801999999283,,,15,18,Man,Rechts,1,
,dotcolour,dotcolour,dotcolour,44,1,104,104,training,negativefb,63,hard,37,1.1835289000000557,['n'],1,right,['8'],4,1.0662296999998944,,,15,18,Man,Rechts,1,
,dotcolour,dotcolour,dotcolour,45,1,105,105,training,negativefb,76,hard,42,1.5665890000000218,['c'],1,left,['8'],4,1.952971499999876,,,15,18,Man,Rechts,1,
,dotcolour,dotcolour,dotcolour,46,1,106,106,training,negativefb,44,hard,38,3.6334130000000187,['n'],1,right,['1'],1,1.0163007999999536,,,15,18,Man,Rechts,1,
,dotcolour,dotcolour,dotcolour,47,1,107,107,training,negativefb,14,hard,38,1.3166811999999481,['c'],0,right,['0'],6,1.2436508999999205,,,15,18,Man,Rechts,1,
,dotcolour,dotcolour,dotcolour,48,1,108,108,training,negativefb,69,average,51,1.017712500000016,['c'],1,left,['0'],6,0.39990099999999984,,,15,18,Man,Rechts,1,
,dotcolour,dotcolour,dotcolour,49,1,109,109,training,negativefb,92,easy,15,0.6165212999999312,['n'],1,right,['0'],6,0.58428640000011,,,15,18,Man,Rechts,1,
,dotcolour,dotcolour,dotcolour,50,1,110,110,training,negativefb,61,hard,42,1.0005883999999696,['n'],0,left,['8'],4,0.5532944000001407,,,15,18,Man,Rechts,1,
,dotcolour,dotcolour,dotcolour,51,1,111,111,training,negativefb,97,average,55,1.2503838999998607,['c'],1,left,['9'],5,1.792008399999986,,,15,18,Man,Rechts,1,
,dotcolour,dotcolour,dotcolour,52,1,112,112,training,negativefb,43,easy,64,1.53347389999999,['c'],1,left,['0'],6,0.45971060000010766,,,15,18,Man,Rechts,1,
,dotcolour,dotcolour,dotcolour,53,1,113,113,training,negativefb,73,average,28,1.4334746000001815,['n'],1,right,['9'],5,0.4312932999998793,,,15,18,Man,Rechts,1,
,dotcolour,dotcolour,dotcolour,54,1,114,114,training,negativefb,79,hard,37,1.4507619000000886,['n'],1,right,['8'],4,0.7324524999999085,,,15,18,Man,Rechts,1,
,dotcolour,dotcolour,dotcolour,55,1,115,115,training,negativefb,67,easy,64,1.0331251000000066,['c'],1,left,['8'],4,0.5587954999998601,,,15,18,Man,Rechts,1,
,dotcolour,dotcolour,dotcolour,56,1,116,116,training,negativefb,94,average,52,0.9007857999999942,['c'],1,left,['8'],4,0.29930430000013075,,,15,18,Man,Rechts,1,
,dotcolour,dotcolour,dotcolour,57,1,117,117,training,negativefb,80,easy,61,0.6331456000000344,['c'],1,left,['8'],4,0.22326539999994566,,,15,18,Man,Rechts,1,
,dotcolour,dotcolour,dotcolour,58,1,118,118,training,negativefb,77,hard,38,1.2671832000000904,['c'],0,right,['0'],6,0.7316894000000502,,,15,18,Man,Rechts,1,
,dotcolour,dotcolour,dotcolour,59,1,119,119,training,negativefb,85,easy,65,0.6841653999999835,['c'],1,left,['0'],6,0.21133359999998902,,,15,18,Man,Rechts,1,
,dotcolour,dotcolour,dotcolour,0,2,120,120,main,negativefb,-99,easy,62,2.8335359000000153,['c'],1,left,['8'],4,0.699337499999956,,,15,18,Man,Rechts,1,
,dotcolour,dotcolour,dotcolour,1,2,121,121,main,negativefb,-99,hard,39,1.617850399999952,['n'],1,right,['8'],4,0.5599463000000924,,,15,18,Man,Rechts,1,
,dotcolour,dotcolour,dotcolour,2,2,122,122,main,negativefb,-99,average,29,3.984668000000056,['n'],1,right,['8'],4,0.9712776000001213,,,15,18,Man,Rechts,1,
,dotcolour,dotcolour,dotcolour,3,2,123,123,main,negativefb,-99,easy,16,0.8341193000001113,['n'],1,right,['8'],4,1.7237397000001238,,,15,18,Man,Rechts,1,
,dotcolour,dotcolour,dotcolour,4,2,124,124,main,negativefb,-99,average,27,0.9178598999999394,['n'],1,right,['8'],4,0.2747375999999804,,,15,18,Man,Rechts,1,
,dotcolour,dotcolour,dotcolour,5,2,125,125,main,negativefb,-99,average,28,1.033592699999872,['n'],1,right,['8'],4,0.2795698000002176,,,15,18,Man,Rechts,1,
,dotcolour,dotcolour,dotcolour,6,2,126,126,main,negativefb,-99,hard,35,0.8009432999999717,['n'],1,right,['9'],5,0.9489089999999578,,,15,18,Man,Rechts,1,
,dotcolour,dotcolour,dotcolour,7,2,127,127,main,negativefb,-99,easy,62,0.7666809000002104,['c'],1,left,['1'],1,0.36898089999999684,,,15,18,Man,Rechts,1,
,dotcolour,dotcolour,dotcolour,8,2,128,128,main,negativefb,-99,hard,36,0.967543699999851,['n'],1,right,['8'],4,0.604566800000157,,,15,18,Man,Rechts,1,
,dotcolour,dotcolour,dotcolour,9,2,129,129,main,negativefb,-99,hard,41,2.051689900000156,['n'],0,left,['8'],4,1.0673991999999544,,,15,18,Man,Rechts,1,
,dotcolour,dotcolour,dotcolour,10,2,130,130,main,negativefb,-99,easy,15,0.8345103999999992,['n'],1,right,['8'],4,0.34498290000010456,,,15,18,Man,Rechts,1,
,dotcolour,dotcolour,dotcolour,11,2,131,131,main,negativefb,-99,hard,44,2.4509064999999737,['c'],1,left,['8'],4,1.5770626999999422,,,15,18,Man,Rechts,1,
,dotcolour,dotcolour,dotcolour,12,2,132,132,main,negativefb,-99,hard,44,2.518862399999989,['n'],0,left,['8'],4,0.8149573000000601,,,15,18,Man,Rechts,1,
,dotcolour,dotcolour,dotcolour,13,2,133,133,main,negativefb,-99,average,54,1.067921800000022,['c'],1,left,['8'],4,0.3963959000000159,,,15,18,Man,Rechts,1,
,dotcolour,dotcolour,dotcolour,14,2,134,134,main,negativefb,-99,easy,61,0.7672480999999607,['c'],1,left,['8'],4,0.22251839999989897,,,15,18,Man,Rechts,1,
,dotcolour,dotcolour,dotcolour,15,2,135,135,main,negativefb,-99,average,54,0.5672497999998996,['c'],1,left,['8'],4,0.2807860000000346,,,15,18,Man,Rechts,1,
,dotcolour,dotcolour,dotcolour,16,2,136,136,main,negativefb,-99,easy,61,0.46769499999982145,['c'],1,left,['8'],4,0.2351387999999588,,,15,18,Man,Rechts,1,
,dotcolour,dotcolour,dotcolour,17,2,137,137,main,negativefb,-99,average,25,2.4684081999998853,['n'],1,right,['0'],6,0.5763024999998834,,,15,18,Man,Rechts,1,
,dotcolour,dotcolour,dotcolour,18,2,138,138,main,negativefb,-99,easy,18,0.651493500000015,['n'],1,right,['0'],6,0.19988880000005338,,,15,18,Man,Rechts,1,
,dotcolour,dotcolour,dotcolour,19,2,139,139,main,negativefb,-99,average,55,0.7840255999999499,['c'],1,left,['0'],6,0.2332926999999927,,,15,18,Man,Rechts,1,
,dotcolour,dotcolour,dotcolour,20,2,140,140,main,negativefb,-99,average,55,0.4175067000001036,['c'],1,left,['0'],6,0.15241100000002916,,,15,18,Man,Rechts,1,
,dotcolour,dotcolour,dotcolour,21,2,141,141,main,negativefb,-99,hard,43,0.4186465999998745,['c'],1,left,['0'],6,0.20242749999988519,,,15,18,Man,Rechts,1,
,dotcolour,dotcolour,dotcolour,22,2,142,142,main,negativefb,-99,easy,62,0.43482909999988806,['c'],1,left,['0'],6,0.13743199999998978,,,15,18,Man,Rechts,1,
,dotcolour,dotcolour,dotcolour,23,2,143,143,main,negativefb,-99,easy,16,2.2335067000001345,['n'],1,right,['0'],6,0.3793605999999272,,,15,18,Man,Rechts,1,
,dotcolour,dotcolour,dotcolour,24,2,144,144,main,negativefb,-99,average,25,0.6843089000001328,['n'],1,right,['0'],6,0.18609679999985929,,,15,18,Man,Rechts,1,
,dotcolour,dotcolour,dotcolour,25,2,145,145,main,negativefb,-99,average,29,0.3347040000001016,['n'],1,right,['0'],6,0.23812010000006012,,,15,18,Man,Rechts,1,
,dotcolour,dotcolour,dotcolour,26,2,146,146,main,negativefb,-99,average,55,1.1004502000000684,['c'],1,left,['8'],4,0.24113009999996393,,,15,18,Man,Rechts,1,
,dotcolour,dotcolour,dotcolour,27,2,147,147,main,negativefb,-99,hard,35,2.984000799999876,['n'],1,right,['0'],6,0.19352059999982885,,,15,18,Man,Rechts,1,
,dotcolour,dotcolour,dotcolour,28,2,148,148,main,negativefb,-99,easy,17,0.7014661999999134,['n'],1,right,['0'],6,0.22271599999999125,,,15,18,Man,Rechts,1,
,dotcolour,dotcolour,dotcolour,29,2,149,149,main,negativefb,-99,hard,45,4.683851900000036,['c'],1,left,['8'],4,1.363926800000172,,,15,18,Man,Rechts,1,
,dotcolour,dotcolour,dotcolour,30,2,150,150,main,negativefb,-99,hard,38,1.1515957999999955,['c'],0,right,['8'],4,0.16043710000008105,,,15,18,Man,Rechts,1,
,dotcolour,dotcolour,dotcolour,31,2,151,151,main,negativefb,-99,hard,39,1.400361200000134,['c'],0,right,['8'],4,0.14693420000003243,,,15,18,Man,Rechts,1,
,dotcolour,dotcolour,dotcolour,32,2,152,152,main,negativefb,-99,hard,37,1.300994099999798,['n'],1,right,['8'],4,1.138510799999949,,,15,18,Man,Rechts,1,
,dotcolour,dotcolour,dotcolour,33,2,153,153,main,negativefb,-99,average,25,1.601021800000126,['n'],1,right,['0'],6,0.23055650000014793,,,15,18,Man,Rechts,1,
,dotcolour,dotcolour,dotcolour,34,2,154,154,main,negativefb,-99,average,51,0.9671407000000727,['c'],1,left,['0'],6,0.21533470000008492,,,15,18,Man,Rechts,1,
,dotcolour,dotcolour,dotcolour,35,2,155,155,main,negativefb,-99,easy,63,0.5503714999999829,['c'],1,left,['0'],6,0.2169844000000012,,,15,18,Man,Rechts,1,
,dotcolour,dotcolour,dotcolour,36,2,156,156,main,negativefb,-99,easy,15,0.6663183000000572,['n'],1,right,['0'],6,0.19830439999986993,,,15,18,Man,Rechts,1,
,dotcolour,dotcolour,dotcolour,37,2,157,157,main,negativefb,-99,average,51,0.6175376999999571,['c'],1,left,['0'],6,0.17481580000003305,,,15,18,Man,Rechts,1,
,dotcolour,dotcolour,dotcolour,38,2,158,158,main,negativefb,-99,hard,37,0.5340892000001531,['c'],0,right,['8'],4,2.459072100000185,,,15,18,Man,Rechts,1,
,dotcolour,dotcolour,dotcolour,39,2,159,159,main,negativefb,-99,easy,61,0.7682282000000669,['c'],1,left,['0'],6,0.13903180000011162,,,15,18,Man,Rechts,1,
,dotcolour,dotcolour,dotcolour,40,2,160,160,main,negativefb,-99,hard,45,0.61701979999998,['c'],1,left,['0'],6,0.19756469999992987,,,15,18,Man,Rechts,1,
,dotcolour,dotcolour,dotcolour,41,2,161,161,main,negativefb,-99,hard,43,0.6163309999999456,['c'],1,left,['0'],6,0.19037009999988186,,,15,18,Man,Rechts,1,
,dotcolour,dotcolour,dotcolour,42,2,162,162,main,negativefb,-99,hard,39,0.5999885999999606,['c'],0,right,['0'],6,0.23952339999982541,,,15,18,Man,Rechts,1,
,dotcolour,dotcolour,dotcolour,43,2,163,163,main,negativefb,-99,average,54,0.7014910000000327,['c'],1,left,['0'],6,0.20241329999998925,,,15,18,Man,Rechts,1,
,dotcolour,dotcolour,dotcolour,44,2,164,164,main,negativefb,-99,average,51,0.60139160000017,['c'],1,left,['0'],6,0.24365579999994225,,,15,18,Man,Rechts,1,
,dotcolour,dotcolour,dotcolour,45,2,165,165,main,negativefb,-99,average,28,1.0508345000000645,['n'],1,right,['0'],6,0.22407810000004247,,,15,18,Man,Rechts,1,
,dotcolour,dotcolour,dotcolour,46,2,166,166,main,negativefb,-99,hard,41,0.7174440999999661,['c'],1,left,['0'],6,0.3391403000000537,,,15,18,Man,Rechts,1,
,dotcolour,dotcolour,dotcolour,47,2,167,167,main,negativefb,-99,average,54,0.7507352999998602,['c'],1,left,['0'],6,0.19367029999989427,,,15,18,Man,Rechts,1,
,dotcolour,dotcolour,dotcolour,48,2,168,168,main,negativefb,-99,average,27,0.8008294000001115,['n'],1,right,['0'],6,0.24309739999989688,,,15,18,Man,Rechts,1,
,dotcolour,dotcolour,dotcolour,49,2,169,169,main,negativefb,-99,easy,15,0.6003307000000859,['c'],0,right,['1'],1,0.9945521999998164,,,15,18,Man,Rechts,1,
,dotcolour,dotcolour,dotcolour,50,2,170,170,main,negativefb,-99,hard,42,0.8671787999999196,['n'],0,left,['0'],6,0.2329016999999567,,,15,18,Man,Rechts,1,
,dotcolour,dotcolour,dotcolour,51,2,171,171,main,negativefb,-99,easy,62,0.7847034999999778,['c'],1,left,['0'],6,0.24852359999999862,,,15,18,Man,Rechts,1,
,dotcolour,dotcolour,dotcolour,52,2,172,172,main,negativefb,-99,easy,19,1.267724600000065,['n'],1,right,['0'],6,0.28505729999983487,,,15,18,Man,Rechts,1,
,dotcolour,dotcolour,dotcolour,53,2,173,173,main,negativefb,-99,easy,64,0.6840621999999712,['c'],1,left,['0'],6,0.20684159999996155,,,15,18,Man,Rechts,1,
,dotcolour,dotcolour,dotcolour,54,2,174,174,main,negativefb,-99,hard,37,1.2183081000000584,['n'],1,right,['8'],4,0.2463948999998138,,,15,18,Man,Rechts,1,
,dotcolour,dotcolour,dotcolour,55,2,175,175,main,negativefb,-99,average,25,2.016800099999955,['c'],0,right,['0'],6,0.2298315000000457,,,15,18,Man,Rechts,1,
,dotcolour,dotcolour,dotcolour,56,2,176,176,main,negativefb,-99,easy,16,0.951920599999994,['c'],0,right,['1'],1,0.863736499999959,,,15,18,Man,Rechts,1,
,dotcolour,dotcolour,dotcolour,57,2,177,177,main,negativefb,-99,hard,41,2.500780599999871,['c'],1,left,['9'],5,0.48251989999994294,,,15,18,Man,Rechts,1,
,dotcolour,dotcolour,dotcolour,58,2,178,178,main,negativefb,-99,easy,61,1.333900400000175,['c'],1,left,['0'],6,0.13010450000001583,,,15,18,Man,Rechts,1,
,dotcolour,dotcolour,dotcolour,59,2,179,179,main,negativefb,-99,easy,19,0.700723200000084,['n'],1,right,['0'],6,0.17047339999999167,,,15,18,Man,Rechts,1,
,dotcolour,dotcolour,dotcolour,0,3,180,180,main,negativefb,-99,average,54,2.5676226999999017,['c'],1,left,['8'],4,1.314236300000175,,,15,18,Man,Rechts,1,
,dotcolour,dotcolour,dotcolour,1,3,181,181,main,negativefb,-99,hard,43,2.150485000000117,['n'],0,left,['8'],4,0.26435379999998077,,,15,18,Man,Rechts,1,
,dotcolour,dotcolour,dotcolour,2,3,182,182,main,negativefb,-99,hard,39,1.6009122999998908,['c'],0,right,['0'],6,0.36598380000009456,,,15,18,Man,Rechts,1,
,dotcolour,dotcolour,dotcolour,3,3,183,183,main,negativefb,-99,average,55,1.5004522000001543,['c'],1,left,['0'],6,0.3172759000001406,,,15,18,Man,Rechts,1,
,dotcolour,dotcolour,dotcolour,4,3,184,184,main,negativefb,-99,average,55,0.6497670999999627,['c'],1,left,['0'],6,0.1421456999999009,,,15,18,Man,Rechts,1,
,dotcolour,dotcolour,dotcolour,5,3,185,185,main,negativefb,-99,average,25,0.6023791999998593,['n'],1,right,['0'],6,0.20260299999995368,,,15,18,Man,Rechts,1,
,dotcolour,dotcolour,dotcolour,6,3,186,186,main,negativefb,-99,easy,15,0.6845121999999719,['c'],0,right,['1'],1,0.5998698999999306,,,15,18,Man,Rechts,1,
,dotcolour,dotcolour,dotcolour,7,3,187,187,main,negativefb,-99,hard,37,2.250540099999853,['n'],1,right,['0'],6,0.20641389999991588,,,15,18,Man,Rechts,1,
,dotcolour,dotcolour,dotcolour,8,3,188,188,main,negativefb,-99,average,26,0.4673855999999432,['n'],1,right,['9'],5,0.6526922000000468,,,15,18,Man,Rechts,1,
,dotcolour,dotcolour,dotcolour,9,3,189,189,main,negativefb,-99,easy,64,0.9168187999998736,['c'],1,left,['0'],6,0.6302802999998676,,,15,18,Man,Rechts,1,
,dotcolour,dotcolour,dotcolour,10,3,190,190,main,negativefb,-99,easy,65,0.5184478000001036,['c'],1,left,['0'],6,0.2574041999998826,,,15,18,Man,Rechts,1,
,dotcolour,dotcolour,dotcolour,11,3,191,191,main,negativefb,-99,easy,61,0.9010035999999673,['c'],1,left,['0'],6,0.2046623000001091,,,15,18,Man,Rechts,1,
,dotcolour,dotcolour,dotcolour,12,3,192,192,main,negativefb,-99,average,25,0.7168484000001172,['n'],1,right,['0'],6,0.17670249999991938,,,15,18,Man,Rechts,1,
,dotcolour,dotcolour,dotcolour,13,3,193,193,main,negativefb,-99,easy,17,0.5337455000001228,['n'],1,right,['0'],6,0.23706240000001344,,,15,18,Man,Rechts,1,
,dotcolour,dotcolour,dotcolour,14,3,194,194,main,negativefb,-99,average,28,1.566945700000133,['n'],1,right,['0'],6,0.22984139999994113,,,15,18,Man,Rechts,1,
,dotcolour,dotcolour,dotcolour,15,3,195,195,main,negativefb,-99,easy,63,1.2173307000000477,['c'],1,left,['0'],6,0.12460269999996854,,,15,18,Man,Rechts,1,
,dotcolour,dotcolour,dotcolour,16,3,196,196,main,negativefb,-99,hard,36,1.1853439000001345,['n'],1,right,['9'],5,0.20176280000009683,,,15,18,Man,Rechts,1,
,dotcolour,dotcolour,dotcolour,17,3,197,197,main,negativefb,-99,average,28,0.6168693000001895,['n'],1,right,['9'],5,0.2095076999999037,,,15,18,Man,Rechts,1,
,dotcolour,dotcolour,dotcolour,18,3,198,198,main,negativefb,-99,hard,43,1.1335293000001911,['c'],1,left,['0'],6,0.1412978999999268,,,15,18,Man,Rechts,1,
,dotcolour,dotcolour,dotcolour,19,3,199,199,main,negativefb,-99,hard,39,1.133229799999981,['c'],0,right,['9'],5,0.3871891000001142,,,15,18,Man,Rechts,1,
,dotcolour,dotcolour,dotcolour,20,3,200,200,main,negativefb,-99,hard,42,0.5507861000000958,['c'],1,left,['9'],5,0.23074459999997998,,,15,18,Man,Rechts,1,
,dotcolour,dotcolour,dotcolour,21,3,201,201,main,negativefb,-99,hard,37,0.7506124999999884,['c'],0,right,['9'],5,0.20801529999994273,,,15,18,Man,Rechts,1,
,dotcolour,dotcolour,dotcolour,22,3,202,202,main,negativefb,-99,hard,45,0.6846481999998559,['c'],1,left,['9'],5,0.23789299999998548,,,15,18,Man,Rechts,1,
,dotcolour,dotcolour,dotcolour,23,3,203,203,main,negativefb,-99,average,29,1.633414700000003,['n'],1,right,['9'],5,0.27602569999999105,,,15,18,Man,Rechts,1,
,dotcolour,dotcolour,dotcolour,24,3,204,204,main,negativefb,-99,easy,63,1.0004461000000902,['c'],1,left,['9'],5,0.22618160000001808,,,15,18,Man,Rechts,1,
,dotcolour,dotcolour,dotcolour,25,3,205,205,main,negativefb,-99,hard,43,1.0992174999998952,['c'],1,left,['9'],5,0.277938899999981,,,15,18,Man,Rechts,1,
,dotcolour,dotcolour,dotcolour,26,3,206,206,main,negativefb,-99,easy,62,1.016793099999859,['c'],1,left,['0'],6,1.667299899999989,,,15,18,Man,Rechts,1,
,dotcolour,dotcolour,dotcolour,27,3,207,207,main,negativefb,-99,easy,64,0.4662183999998888,['c'],1,left,['0'],6,0.15881070000000364,,,15,18,Man,Rechts,1,
,dotcolour,dotcolour,dotcolour,28,3,208,208,main,negativefb,-99,average,29,1.767475099999956,['n'],1,right,['9'],5,0.8896303000001353,,,15,18,Man,Rechts,1,
,dotcolour,dotcolour,dotcolour,29,3,209,209,main,negativefb,-99,hard,42,3.3509528000001865,['c'],1,left,['9'],5,0.6415747999999439,,,15,18,Man,Rechts,1,
,dotcolour,dotcolour,dotcolour,30,3,210,210,main,negativefb,-99,easy,61,0.7840594000001602,['c'],1,left,['0'],6,0.18613289999984772,,,15,18,Man,Rechts,1,
,dotcolour,dotcolour,dotcolour,31,3,211,211,main,negativefb,-99,easy,16,1.000701299999946,['n'],1,right,['0'],6,0.2194268999999167,,,15,18,Man,Rechts,1,
,dotcolour,dotcolour,dotcolour,32,3,212,212,main,negativefb,-99,average,25,0.8848178000000644,['n'],1,right,['0'],6,0.17603339999982381,,,15,18,Man,Rechts,1,
,dotcolour,dotcolour,dotcolour,33,3,213,213,main,negativefb,-99,average,26,0.6667583000000832,['n'],1,right,['0'],6,0.25552749999997104,,,15,18,Man,Rechts,1,
,dotcolour,dotcolour,dotcolour,34,3,214,214,main,negativefb,-99,hard,43,3.7008190999999897,['c'],1,left,['0'],6,0.14612480000005235,,,15,18,Man,Rechts,1,
,dotcolour,dotcolour,dotcolour,35,3,215,215,main,negativefb,-99,average,53,0.7503601999999319,['c'],1,left,['0'],6,0.1515411000000313,,,15,18,Man,Rechts,1,
,dotcolour,dotcolour,dotcolour,36,3,216,216,main,negativefb,-99,hard,36,1.034243800000013,['n'],1,right,['9'],5,0.22394499999995787,,,15,18,Man,Rechts,1,
,dotcolour,dotcolour,dotcolour,37,3,217,217,main,negativefb,-99,easy,16,1.084830699999884,['n'],1,right,['0'],6,0.20482139999990068,,,15,18,Man,Rechts,1,
,dotcolour,dotcolour,dotcolour,38,3,218,218,main,negativefb,-99,hard,37,1.8006734000000506,['c'],0,right,['9'],5,0.6290994999999384,,,15,18,Man,Rechts,1,
,dotcolour,dotcolour,dotcolour,39,3,219,219,main,negativefb,-99,hard,38,1.1510607000000164,['n'],1,right,['9'],5,0.2955562000001919,,,15,18,Man,Rechts,1,
,dotcolour,dotcolour,dotcolour,40,3,220,220,main,negativefb,-99,average,53,1.4002160000000003,['c'],1,left,['9'],5,0.3565135999999711,,,15,18,Man,Rechts,1,
,dotcolour,dotcolour,dotcolour,41,3,221,221,main,negativefb,-99,easy,18,0.6346254000000044,['n'],1,right,['9'],5,0.2705015999999887,,,15,18,Man,Rechts,1,
,dotcolour,dotcolour,dotcolour,42,3,222,222,main,negativefb,-99,hard,35,0.9515541000000667,['n'],1,right,['9'],5,0.2463090999999622,,,15,18,Man,Rechts,1,
,dotcolour,dotcolour,dotcolour,43,3,223,223,main,negativefb,-99,hard,44,2.184461699999929,['c'],1,left,['9'],5,0.16633249999995314,,,15,18,Man,Rechts,1,
,dotcolour,dotcolour,dotcolour,44,3,224,224,main,negativefb,-99,average,55,0.6020488999999998,['c'],1,left,['9'],5,0.18443470000011075,,,15,18,Man,Rechts,1,
,dotcolour,dotcolour,dotcolour,45,3,225,225,main,negativefb,-99,easy,18,0.7182172000000264,['n'],1,right,['9'],5,0.17249839999999494,,,15,18,Man,Rechts,1,
,dotcolour,dotcolour,dotcolour,46,3,226,226,main,negativefb,-99,hard,45,0.634285600000112,['c'],1,left,['9'],5,0.22165060000020276,,,15,18,Man,Rechts,1,
,dotcolour,dotcolour,dotcolour,47,3,227,227,main,negativefb,-99,average,53,1.4682318999998643,['c'],1,left,['0'],6,0.19563369999991664,,,15,18,Man,Rechts,1,
,dotcolour,dotcolour,dotcolour,48,3,228,228,main,negativefb,-99,easy,62,0.4514842999999473,['c'],1,left,['0'],6,0.20271809999985635,,,15,18,Man,Rechts,1,
,dotcolour,dotcolour,dotcolour,49,3,229,229,main,negativefb,-99,easy,65,0.3831366999997954,['c'],1,left,['0'],6,0.14783200000010766,,,15,18,Man,Rechts,1,
,dotcolour,dotcolour,dotcolour,50,3,230,230,main,negativefb,-99,easy,19,0.3516784999999345,['n'],1,right,['0'],6,0.19328679999989617,,,15,18,Man,Rechts,1,
,dotcolour,dotcolour,dotcolour,51,3,231,231,main,negativefb,-99,easy,17,0.4681946999999127,['n'],1,right,['0'],6,1.4801402999999027,,,15,18,Man,Rechts,1,
,dotcolour,dotcolour,dotcolour,52,3,232,232,main,negativefb,-99,average,26,0.5351173000001381,['n'],1,right,['0'],6,0.16799859999991895,,,15,18,Man,Rechts,1,
,dotcolour,dotcolour,dotcolour,53,3,233,233,main,negativefb,-99,average,55,0.818249299999934,['c'],1,left,['0'],6,0.14562180000007174,,,15,18,Man,Rechts,1,
,dotcolour,dotcolour,dotcolour,54,3,234,234,main,negativefb,-99,hard,36,1.300205700000106,['c'],0,right,['9'],5,0.19259229999988747,,,15,18,Man,Rechts,1,
,dotcolour,dotcolour,dotcolour,55,3,235,235,main,negativefb,-99,hard,45,0.6508671999999933,['c'],1,left,['9'],5,0.18419570000014573,,,15,18,Man,Rechts,1,
,dotcolour,dotcolour,dotcolour,56,3,236,236,main,negativefb,-99,easy,17,0.6666222000001198,['n'],1,right,['9'],5,0.22294430000010834,,,15,18,Man,Rechts,1,
,dotcolour,dotcolour,dotcolour,57,3,237,237,main,negativefb,-99,easy,18,0.7678951000000325,['c'],0,right,['1'],1,0.672449300000153,,,15,18,Man,Rechts,1,
,dotcolour,dotcolour,dotcolour,58,3,238,238,main,negativefb,-99,average,53,1.0180806000000757,['n'],0,left,['1'],1,0.9897274999998444,,,15,18,Man,Rechts,1,
,dotcolour,dotcolour,dotcolour,59,3,239,239,main,negativefb,-99,average,52,1.2178780000001552,['c'],1,left,['0'],6,0.25438050000002477,,,15,18,Man,Rechts,1,
,dotcolour,dotcolour,dotcolour,0,4,240,240,main,negativefb,-99,easy,15,0.8511254000000008,['n'],1,right,['0'],6,0.23376389999998537,,,15,18,Man,Rechts,1,
,dotcolour,dotcolour,dotcolour,1,4,241,241,main,negativefb,-99,average,55,0.9005732999999054,['c'],1,left,['0'],6,0.1250296000000617,,,15,18,Man,Rechts,1,
,dotcolour,dotcolour,dotcolour,2,4,242,242,main,negativefb,-99,average,26,0.568087000000105,['n'],1,right,['0'],6,0.21843630000012126,,,15,18,Man,Rechts,1,
,dotcolour,dotcolour,dotcolour,3,4,243,243,main,negativefb,-99,easy,16,0.6009566000000177,['c'],0,right,['1'],1,0.7219838999999411,,,15,18,Man,Rechts,1,
,dotcolour,dotcolour,dotcolour,4,4,244,244,main,negativefb,-99,hard,36,2.6506910999999036,['c'],0,right,['9'],5,0.8369795999999496,,,15,18,Man,Rechts,1,
,dotcolour,dotcolour,dotcolour,5,4,245,245,main,negativefb,-99,average,55,0.7518528999999035,['c'],1,left,['9'],5,0.12562109999998938,,,15,18,Man,Rechts,1,
,dotcolour,dotcolour,dotcolour,6,4,246,246,main,negativefb,-99,average,29,0.6509824999998273,['n'],1,right,['9'],5,0.2644275000000107,,,15,18,Man,Rechts,1,
,dotcolour,dotcolour,dotcolour,7,4,247,247,main,negativefb,-99,hard,35,0.7503518999999415,['c'],0,right,['9'],5,0.2074881999999434,,,15,18,Man,Rechts,1,
,dotcolour,dotcolour,dotcolour,8,4,248,248,main,negativefb,-99,hard,43,1.8509687999999187,['c'],1,left,['9'],5,1.1262733000000935,,,15,18,Man,Rechts,1,
,dotcolour,dotcolour,dotcolour,9,4,249,249,main,negativefb,-99,hard,45,0.8842878999998902,['c'],1,left,['9'],5,0.14374620000012328,,,15,18,Man,Rechts,1,
,dotcolour,dotcolour,dotcolour,10,4,250,250,main,negativefb,-99,hard,39,1.6005169999998543,['c'],0,right,['9'],5,0.2269647000000532,,,15,18,Man,Rechts,1,
,dotcolour,dotcolour,dotcolour,11,4,251,251,main,negativefb,-99,hard,44,0.7508004999999685,['c'],1,left,['9'],5,0.3882349999998951,,,15,18,Man,Rechts,1,
,dotcolour,dotcolour,dotcolour,12,4,252,252,main,negativefb,-99,easy,15,1.3179431000000932,['n'],1,right,['9'],5,0.4972573999998531,,,15,18,Man,Rechts,1,
,dotcolour,dotcolour,dotcolour,13,4,253,253,main,negativefb,-99,average,28,0.5999249999999847,['n'],1,right,['9'],5,0.24611509999999726,,,15,18,Man,Rechts,1,
,dotcolour,dotcolour,dotcolour,14,4,254,254,main,negativefb,-99,hard,35,0.6834115999999995,['n'],1,right,['9'],5,0.25111870000000636,,,15,18,Man,Rechts,1,
,dotcolour,dotcolour,dotcolour,15,4,255,255,main,negativefb,-99,average,26,0.5004169000001184,['n'],1,right,['9'],5,0.6694972999998754,,,15,18,Man,Rechts,1,
,dotcolour,dotcolour,dotcolour,16,4,256,256,main,negativefb,-99,easy,62,0.6672143000000688,['c'],1,left,['0'],6,0.6081951999999546,,,15,18,Man,Rechts,1,
,dotcolour,dotcolour,dotcolour,17,4,257,257,main,negativefb,-99,easy,64,0.5168654999999944,['c'],1,left,['0'],6,0.24492020000002412,,,15,18,Man,Rechts,1,
,dotcolour,dotcolour,dotcolour,18,4,258,258,main,negativefb,-99,easy,15,0.6505626000000575,['n'],1,right,['0'],6,0.2344198000000688,,,15,18,Man,Rechts,1,
,dotcolour,dotcolour,dotcolour,19,4,259,259,main,negativefb,-99,hard,45,0.9502478000001702,['c'],1,left,['0'],6,0.12348969999993642,,,15,18,Man,Rechts,1,
,dotcolour,dotcolour,dotcolour,20,4,260,260,main,negativefb,-99,hard,43,0.6665164999999433,['c'],1,left,['0'],6,0.26028259999998227,,,15,18,Man,Rechts,1,
,dotcolour,dotcolour,dotcolour,21,4,261,261,main,negativefb,-99,average,51,0.5835055000000011,['c'],1,left,['0'],6,0.18806119999999282,,,15,18,Man,Rechts,1,
,dotcolour,dotcolour,dotcolour,22,4,262,262,main,negativefb,-99,hard,39,0.7339825000001383,['c'],0,right,['0'],6,0.14398290000008274,,,15,18,Man,Rechts,1,
,dotcolour,dotcolour,dotcolour,23,4,263,263,main,negativefb,-99,easy,65,0.5334765000000061,['c'],1,left,['0'],6,0.13400380000007317,,,15,18,Man,Rechts,1,
,dotcolour,dotcolour,dotcolour,24,4,264,264,main,negativefb,-99,hard,44,0.4183904999999868,['c'],1,left,['0'],6,0.1923659999999927,,,15,18,Man,Rechts,1,
,dotcolour,dotcolour,dotcolour,25,4,265,265,main,negativefb,-99,average,29,0.7337339000000611,['n'],1,right,['0'],6,0.15599840000004406,,,15,18,Man,Rechts,1,
,dotcolour,dotcolour,dotcolour,26,4,266,266,main,negativefb,-99,hard,39,0.8498114999999871,['c'],0,right,['0'],6,0.12482929999987391,,,15,18,Man,Rechts,1,
,dotcolour,dotcolour,dotcolour,27,4,267,267,main,negativefb,-99,easy,64,0.5663491000000249,['c'],1,left,['0'],6,0.16237870000009025,,,15,18,Man,Rechts,1,
,dotcolour,dotcolour,dotcolour,28,4,268,268,main,negativefb,-99,easy,17,0.4840618999999151,['n'],1,right,['0'],6,0.22626560000003337,,,15,18,Man,Rechts,1,
,dotcolour,dotcolour,dotcolour,29,4,269,269,main,negativefb,-99,hard,42,0.5854423000000679,['c'],1,left,['0'],6,0.13814709999996921,,,15,18,Man,Rechts,1,
,dotcolour,dotcolour,dotcolour,30,4,270,270,main,negativefb,-99,average,28,0.684139899999991,['n'],1,right,['0'],6,0.21017110000002504,,,15,18,Man,Rechts,1,
,dotcolour,dotcolour,dotcolour,31,4,271,271,main,negativefb,-99,easy,61,1.0349631999999929,['c'],1,left,['0'],6,0.8502195000000938,,,15,18,Man,Rechts,1,
,dotcolour,dotcolour,dotcolour,32,4,272,272,main,negativefb,-99,easy,17,0.6681065000000217,['n'],1,right,['0'],6,0.18205080000007,,,15,18,Man,Rechts,1,
,dotcolour,dotcolour,dotcolour,33,4,273,273,main,negativefb,-99,easy,65,0.9666664999999739,['c'],1,left,['0'],6,0.10507749999987936,,,15,18,Man,Rechts,1,
,dotcolour,dotcolour,dotcolour,34,4,274,274,main,negativefb,-99,easy,65,0.5665338999999676,['c'],1,left,['0'],6,0.10323600000015176,,,15,18,Man,Rechts,1,
,dotcolour,dotcolour,dotcolour,35,4,275,275,main,negativefb,-99,average,54,0.5005326000000423,['c'],1,left,['0'],6,0.16747850000001563,,,15,18,Man,Rechts,1,
,dotcolour,dotcolour,dotcolour,36,4,276,276,main,negativefb,-99,easy,18,0.41787710000016887,['n'],1,right,['0'],6,0.22490560000005644,,,15,18,Man,Rechts,1,
,dotcolour,dotcolour,dotcolour,37,4,277,277,main,negativefb,-99,average,52,0.5179259999999886,['c'],1,left,['0'],6,0.13146050000000287,,,15,18,Man,Rechts,1,
,dotcolour,dotcolour,dotcolour,38,4,278,278,main,negativefb,-99,hard,38,1.1015224000000217,['n'],1,right,['9'],5,0.17132250000008753,,,15,18,Man,Rechts,1,
,dotcolour,dotcolour,dotcolour,39,4,279,279,main,negativefb,-99,easy,65,1.6176387999998951,['c'],1,left,['9'],5,0.1568766999998843,,,15,18,Man,Rechts,1,
,dotcolour,dotcolour,dotcolour,40,4,280,280,main,negativefb,-99,hard,38,2.834371499999861,['c'],0,right,['9'],5,0.4617222999997921,,,15,18,Man,Rechts,1,
,dotcolour,dotcolour,dotcolour,41,4,281,281,main,negativefb,-99,easy,18,2.4840372000001025,['n'],1,right,['0'],6,0.28192140000010113,,,15,18,Man,Rechts,1,
,dotcolour,dotcolour,dotcolour,42,4,282,282,main,negativefb,-99,easy,65,1.1509553999999298,['c'],1,left,['0'],6,0.2166997999997875,,,15,18,Man,Rechts,1,
,dotcolour,dotcolour,dotcolour,43,4,283,283,main,negativefb,-99,average,25,0.6174479999999676,['n'],1,right,['0'],6,0.30397499999980937,,,15,18,Man,Rechts,1,
,dotcolour,dotcolour,dotcolour,44,4,284,284,main,negativefb,-99,hard,42,1.3516087000000425,['c'],1,left,['0'],6,0.230170199999975,,,15,18,Man,Rechts,1,
,dotcolour,dotcolour,dotcolour,45,4,285,285,main,negativefb,-99,average,53,0.9513122999999268,['c'],1,left,['0'],6,0.2724940999999035,,,15,18,Man,Rechts,1,
,dotcolour,dotcolour,dotcolour,46,4,286,286,main,negativefb,-99,hard,42,0.8347152000001188,['c'],1,left,['9'],5,0.38159539999992376,,,15,18,Man,Rechts,1,
,dotcolour,dotcolour,dotcolour,47,4,287,287,main,negativefb,-99,hard,39,0.5681033000000753,['c'],0,right,['9'],5,0.31986689999985174,,,15,18,Man,Rechts,1,
,dotcolour,dotcolour,dotcolour,48,4,288,288,main,negativefb,-99,easy,19,0.8674047000001792,['n'],1,right,['0'],6,0.7695780999999897,,,15,18,Man,Rechts,1,
,dotcolour,dotcolour,dotcolour,49,4,289,289,main,negativefb,-99,average,51,0.6680520999998407,['c'],1,left,['0'],6,1.0809257999999318,,,15,18,Man,Rechts,1,
,dotcolour,dotcolour,dotcolour,50,4,290,290,main,negativefb,-99,average,54,0.7011906000000181,['c'],1,left,['0'],6,0.1947786000000633,,,15,18,Man,Rechts,1,
,dotcolour,dotcolour,dotcolour,51,4,291,291,main,negativefb,-99,hard,37,0.767279599999938,['c'],0,right,['0'],6,0.18949960000009014,,,15,18,Man,Rechts,1,
,dotcolour,dotcolour,dotcolour,52,4,292,292,main,negativefb,-99,hard,42,0.6171807000000626,['c'],1,left,['0'],6,0.23773080000000846,,,15,18,Man,Rechts,1,
,dotcolour,dotcolour,dotcolour,53,4,293,293,main,negativefb,-99,average,28,3.401584800000137,['c'],0,right,['9'],5,1.413598100000172,,,15,18,Man,Rechts,1,
,dotcolour,dotcolour,dotcolour,54,4,294,294,main,negativefb,-99,average,51,0.5678336999999374,['c'],1,left,['0'],6,0.29617099999995844,,,15,18,Man,Rechts,1,
,dotcolour,dotcolour,dotcolour,55,4,295,295,main,negativefb,-99,average,29,2.0006848000000446,['n'],1,right,['8'],4,1.732611800000086,,,15,18,Man,Rechts,1,
,dotcolour,dotcolour,dotcolour,56,4,296,296,main,negativefb,-99,average,55,0.6013717999999244,['c'],1,left,['0'],6,0.24025050000000192,,,15,18,Man,Rechts,1,
,dotcolour,dotcolour,dotcolour,57,4,297,297,main,negativefb,-99,easy,15,0.8342216999999437,['n'],1,right,['0'],6,0.25363560000005236,,,15,18,Man,Rechts,1,
,dotcolour,dotcolour,dotcolour,58,4,298,298,main,negativefb,-99,easy,65,0.716987300000028,['c'],1,left,['0'],6,0.24871710000002167,,,15,18,Man,Rechts,1,
,dotcolour,dotcolour,dotcolour,59,4,299,299,main,negativefb,-99,average,27,0.6171764000000621,['n'],1,right,['0'],6,0.23101280000014413,,,15,18,Man,Rechts,1,
,dotcolour,dotcolour,dotcolour,0,0,0,300,training,negativefb,85,easy,64,1.8657363000002078,['c'],1,left,['8'],4,2.310338000000229,,,15,18,Man,Rechts,1,
,dotcolour,dotcolour,dotcolour,1,0,1,301,training,negativefb,66,average,53,1.0669828000000052,['c'],1,left,['0'],6,0.47018320000006497,,,15,18,Man,Rechts,1,
,dotcolour,dotcolour,dotcolour,2,0,2,302,training,negativefb,48,easy,17,4.032866600000034,['n'],1,right,['8'],4,1.0666995999999926,,,15,18,Man,Rechts,1,
,dotcolour,dotcolour,dotcolour,3,0,3,303,training,negativefb,38,easy,16,0.9835100000000239,['n'],1,right,['0'],6,0.4475806000000375,,,15,18,Man,Rechts,1,
,dotcolour,dotcolour,dotcolour,4,0,4,304,training,negativefb,59,easy,15,0.7499314000001505,['n'],1,right,['0'],6,0.20723540000017238,,,15,18,Man,Rechts,1,
,dotcolour,dotcolour,dotcolour,5,0,5,305,training,negativefb,66,easy,61,0.7161796999998842,['c'],1,left,['0'],6,0.22782189999998081,,,15,18,Man,Rechts,1,
,dotcolour,dotcolour,dotcolour,6,0,6,306,training,negativefb,90,average,28,0.5834489999997459,['n'],1,right,['0'],6,0.2188848999999209,,,15,18,Man,Rechts,1,
,dotcolour,dotcolour,dotcolour,7,0,7,307,training,negativefb,77,easy,61,0.9008859999999004,['c'],1,left,['0'],6,0.16675629999963348,,,15,18,Man,Rechts,1,
,dotcolour,dotcolour,dotcolour,8,0,8,308,training,negativefb,59,easy,62,0.533356399999775,['c'],1,left,['0'],6,0.2264298999998573,,,15,18,Man,Rechts,1,
,dotcolour,dotcolour,dotcolour,9,0,9,309,training,negativefb,91,average,27,0.5662058000002617,['n'],1,right,['0'],6,0.17909469999995054,,,15,18,Man,Rechts,1,
,dotcolour,dotcolour,dotcolour,10,0,10,310,training,negativefb,97,hard,37,2.433061899999757,['n'],1,right,['8'],4,0.8438187000001562,,,15,18,Man,Rechts,1,
,dotcolour,dotcolour,dotcolour,11,0,11,311,training,negativefb,73,easy,63,1.0663786000000073,['c'],1,left,['8'],4,0.26350090000005366,,,15,18,Man,Rechts,1,
,dotcolour,dotcolour,dotcolour,12,0,12,312,training,negativefb,78,hard,39,0.7832514000001538,['n'],1,right,['8'],4,0.29447810000010577,,,15,18,Man,Rechts,1,
,dotcolour,dotcolour,dotcolour,13,0,13,313,training,negativefb,37,easy,18,0.7665529999999308,['n'],1,right,['8'],4,0.34749280000005456,,,15,18,Man,Rechts,1,
,dotcolour,dotcolour,dotcolour,14,0,14,314,training,negativefb,67,easy,15,0.7328118999998878,['n'],1,right,['0'],6,0.22413669999968988,,,15,18,Man,Rechts,1,
,dotcolour,dotcolour,dotcolour,15,0,15,315,training,negativefb,70,hard,35,1.1336021000001892,['n'],1,right,['0'],6,0.19405390000019906,,,15,18,Man,Rechts,1,
,dotcolour,dotcolour,dotcolour,16,0,16,316,training,negativefb,74,average,28,1.1161739999997735,['n'],1,right,['8'],4,0.5345972999998594,,,15,18,Man,Rechts,1,
,dotcolour,dotcolour,dotcolour,17,0,17,317,training,negativefb,70,average,27,0.6664676999998846,['n'],1,right,['8'],4,0.26231800000005023,,,15,18,Man,Rechts,1,
,dotcolour,dotcolour,dotcolour,18,0,18,318,training,negativefb,50,easy,62,1.1664719999998852,['c'],1,left,['0'],6,0.19024290000015753,,,15,18,Man,Rechts,1,
,dotcolour,dotcolour,dotcolour,19,0,19,319,training,negativefb,53,hard,41,0.7993046999999933,['c'],1,left,['0'],6,0.1422402000002876,,,15,18,Man,Rechts,1,
,dotcolour,dotcolour,dotcolour,20,0,20,320,training,negativefb,87,average,54,0.7340469999999186,['c'],1,left,['0'],6,0.09957189999977345,,,15,18,Man,Rechts,1,
,dotcolour,dotcolour,dotcolour,21,0,21,321,training,negativefb,73,hard,42,0.8503821999997854,['c'],1,left,['0'],6,0.1494409000001724,,,15,18,Man,Rechts,1,
,dotcolour,dotcolour,dotcolour,22,0,22,322,training,negativefb,92,average,29,0.6510355000000345,['n'],1,right,['9'],5,0.46172029999979713,,,15,18,Man,Rechts,1,
,dotcolour,dotcolour,dotcolour,23,0,23,323,training,negativefb,39,average,25,0.7998102999999901,['n'],1,right,['9'],5,0.26779739999983576,,,15,18,Man,Rechts,1,
,dotcolour,dotcolour,dotcolour,24,0,24,324,training,negativefb,45,easy,62,0.7343620999999985,['c'],1,left,['0'],6,0.1956545000002734,,,15,18,Man,Rechts,1,
,dotcolour,dotcolour,dotcolour,25,0,25,325,training,negativefb,77,hard,36,0.7329789000000346,['n'],1,right,['8'],4,0.31139530000018567,,,15,18,Man,Rechts,1,
,dotcolour,dotcolour,dotcolour,26,0,26,326,training,negativefb,86,average,26,2.116788599999836,['n'],1,right,['0'],6,1.5912008000000242,,,15,18,Man,Rechts,1,
,dotcolour,dotcolour,dotcolour,27,0,27,327,training,negativefb,86,average,52,0.8003942999998799,['c'],1,left,['0'],6,0.19073429999980362,,,15,18,Man,Rechts,1,
,dotcolour,dotcolour,dotcolour,28,0,28,328,training,negativefb,51,hard,43,0.6336756999999125,['c'],1,left,['0'],6,0.2622961000001851,,,15,18,Man,Rechts,1,
,dotcolour,dotcolour,dotcolour,29,0,29,329,training,negativefb,62,average,27,2.0330840000001444,['c'],0,right,['0'],6,0.33097589999988486,,,15,18,Man,Rechts,1,
,dotcolour,dotcolour,dotcolour,30,0,30,330,training,negativefb,67,hard,35,1.2168166999999812,['n'],1,right,['0'],6,0.24562190000006012,,,15,18,Man,Rechts,1,
,dotcolour,dotcolour,dotcolour,31,0,31,331,training,negativefb,59,hard,38,0.816244000000097,['c'],0,right,['9'],5,0.1876921000002767,,,15,18,Man,Rechts,1,
,dotcolour,dotcolour,dotcolour,32,0,32,332,training,negativefb,85,average,26,0.7335296000001108,['n'],1,right,['0'],6,0.2634174999998322,,,15,18,Man,Rechts,1,
,dotcolour,dotcolour,dotcolour,33,0,33,333,training,negativefb,48,average,55,0.5997434000000794,['c'],1,left,['0'],6,0.16514649999999165,,,15,18,Man,Rechts,1,
,dotcolour,dotcolour,dotcolour,34,0,34,334,training,negativefb,26,hard,43,3.2000990000001366,['n'],0,left,['8'],4,1.1901886999999078,,,15,18,Man,Rechts,1,
,dotcolour,dotcolour,dotcolour,35,0,35,335,training,negativefb,39,average,54,1.6334585999998126,['c'],1,left,['9'],5,0.26885300000003554,,,15,18,Man,Rechts,1,
,dotcolour,dotcolour,dotcolour,36,0,36,336,training,negativefb,24,hard,44,1.1330299999999625,['n'],0,left,['0'],6,0.27708419999999023,,,15,18,Man,Rechts,1,
,dotcolour,dotcolour,dotcolour,37,0,37,337,training,negativefb,53,hard,38,1.3005076999997982,['n'],1,right,['8'],4,0.4308883999997306,,,15,18,Man,Rechts,1,
,dotcolour,dotcolour,dotcolour,38,0,38,338,training,negativefb,87,average,53,0.6500806999997621,['c'],1,left,['9'],5,0.6915671000001566,,,15,18,Man,Rechts,1,
,dotcolour,dotcolour,dotcolour,39,0,39,339,training,negativefb,68,easy,15,0.934374200000093,['n'],1,right,['0'],6,0.16343619999997827,,,15,18,Man,Rechts,1,
,dotcolour,dotcolour,dotcolour,40,0,40,340,training,negativefb,30,easy,62,0.6829554000000826,['c'],1,left,['0'],6,0.09714850000000297,,,15,18,Man,Rechts,1,
,dotcolour,dotcolour,dotcolour,41,0,41,341,training,negativefb,37,hard,41,0.9170406999996885,['n'],0,left,['1'],1,1.0493516000001364,,,15,18,Man,Rechts,1,
,dotcolour,dotcolour,dotcolour,42,0,42,342,training,negativefb,67,hard,45,0.9014754999998331,['n'],0,left,['1'],1,1.2352676000000429,,,15,18,Man,Rechts,1,
,dotcolour,dotcolour,dotcolour,43,0,43,343,training,negativefb,63,average,53,2.6493043999998918,['c'],1,left,['8'],4,0.8070007000001169,,,15,18,Man,Rechts,1,
,dotcolour,dotcolour,dotcolour,44,0,44,344,training,negativefb,56,average,52,1.30007680000017,['c'],1,left,['8'],4,0.30704759999980524,,,15,18,Man,Rechts,1,
,dotcolour,dotcolour,dotcolour,45,0,45,345,training,negativefb,69,easy,17,0.7337739999998121,['n'],1,right,['0'],6,0.7851608000000851,,,15,18,Man,Rechts,1,
,dotcolour,dotcolour,dotcolour,46,0,46,346,training,negativefb,71,hard,43,1.2178976999998667,['c'],1,left,['0'],6,0.20970860000034008,,,15,18,Man,Rechts,1,
,dotcolour,dotcolour,dotcolour,47,0,47,347,training,negativefb,52,easy,15,0.6830924000000778,['n'],1,right,['0'],6,0.24594639999986612,,,15,18,Man,Rechts,1,
,dotcolour,dotcolour,dotcolour,48,0,48,348,training,negativefb,43,easy,62,0.7168165000002773,['n'],0,left,['1'],1,0.9844376000000921,,,15,18,Man,Rechts,1,
,dotcolour,dotcolour,dotcolour,49,0,49,349,training,negativefb,49,hard,43,1.1832509999999274,['c'],1,left,['8'],4,0.39407389999996667,,,15,18,Man,Rechts,1,
,dotcolour,dotcolour,dotcolour,50,0,50,350,training,negativefb,41,easy,16,0.6510819999998603,['n'],1,right,['0'],6,0.22480959999984407,,,15,18,Man,Rechts,1,
,dotcolour,dotcolour,dotcolour,51,0,51,351,training,negativefb,41,hard,38,1.500015899999653,['c'],0,right,['8'],4,0.30778190000000905,,,15,18,Man,Rechts,1,
,dotcolour,dotcolour,dotcolour,52,0,52,352,training,negativefb,76,average,28,0.516643799999656,['n'],1,right,['0'],6,0.21929149999959918,,,15,18,Man,Rechts,1,
,dotcolour,dotcolour,dotcolour,53,0,53,353,training,negativefb,65,hard,36,0.6664378999998917,['c'],0,right,['0'],6,0.28731169999991835,,,15,18,Man,Rechts,1,
,dotcolour,dotcolour,dotcolour,54,0,54,354,training,negativefb,84,hard,45,0.7670250000001033,['n'],0,left,['1'],1,0.8215764999999919,,,15,18,Man,Rechts,1,
,dotcolour,dotcolour,dotcolour,55,0,55,355,training,negativefb,73,easy,17,3.317175500000303,['n'],1,right,['8'],4,1.000759399999879,,,15,18,Man,Rechts,1,
,dotcolour,dotcolour,dotcolour,56,0,56,356,training,negativefb,58,easy,64,1.1003363999998328,['c'],1,left,['8'],4,0.2530184000002009,,,15,18,Man,Rechts,1,
,dotcolour,dotcolour,dotcolour,57,0,57,357,training,negativefb,64,average,54,0.6004986999996618,['c'],1,left,['0'],6,0.1866277999997692,,,15,18,Man,Rechts,1,
,dotcolour,dotcolour,dotcolour,58,0,58,358,training,negativefb,90,hard,35,0.9336521999998695,['n'],1,right,['8'],4,0.558216899999934,,,15,18,Man,Rechts,1,
,dotcolour,dotcolour,dotcolour,59,0,59,359,training,negativefb,67,average,53,1.1164174000000457,['c'],1,left,['8'],4,0.21919310000021142,,,15,18,Man,Rechts,1,
,dotcolour,dotcolour,dotcolour,0,1,60,360,training,negativefb,60,hard,43,1.4341607000001204,['n'],0,left,['8'],4,0.28487670000004073,,,15,18,Man,Rechts,1,
,dotcolour,dotcolour,dotcolour,1,1,61,361,training,negativefb,39,easy,63,0.6666033999999854,['n'],0,left,['1'],1,0.5838298999997278,,,15,18,Man,Rechts,1,
,dotcolour,dotcolour,dotcolour,2,1,62,362,training,negativefb,66,hard,36,1.084658600000239,['n'],1,right,['8'],4,0.23633299999983137,,,15,18,Man,Rechts,1,
,dotcolour,dotcolour,dotcolour,3,1,63,363,training,negativefb,75,average,54,1.033148699999856,['c'],1,left,['0'],6,1.1137413000001288,,,15,18,Man,Rechts,1,
,dotcolour,dotcolour,dotcolour,4,1,64,364,training,negativefb,70,average,54,0.5839914999996836,['c'],1,left,['8'],4,0.17454230000021198,,,15,18,Man,Rechts,1,
,dotcolour,dotcolour,dotcolour,5,1,65,365,training,negativefb,65,hard,44,0.7165753999997833,['c'],1,left,['0'],6,0.1466832000000977,,,15,18,Man,Rechts,1,
,dotcolour,dotcolour,dotcolour,6,1,66,366,training,negativefb,42,hard,37,1.3008062999997492,['n'],1,right,['8'],4,0.817956200000026,,,15,18,Man,Rechts,1,
,dotcolour,dotcolour,dotcolour,7,1,67,367,training,negativefb,84,average,26,0.7654551000000538,['n'],1,right,['8'],4,0.19473829999969894,,,15,18,Man,Rechts,1,
,dotcolour,dotcolour,dotcolour,8,1,68,368,training,negativefb,41,hard,36,0.6832799000003433,['n'],1,right,['8'],4,0.20770149999998466,,,15,18,Man,Rechts,1,
,dotcolour,dotcolour,dotcolour,9,1,69,369,training,negativefb,54,average,53,3.9004585000002407,['c'],1,left,['8'],4,0.3397574999999051,,,15,18,Man,Rechts,1,
,dotcolour,dotcolour,dotcolour,10,1,70,370,training,negativefb,46,easy,17,1.35029859999986,['n'],1,right,['8'],4,0.22495009999965987,,,15,18,Man,Rechts,1,
,dotcolour,dotcolour,dotcolour,11,1,71,371,training,negativefb,83,easy,65,0.5998464000003878,['c'],1,left,['0'],6,0.2957200000000739,,,15,18,Man,Rechts,1,
,dotcolour,dotcolour,dotcolour,12,1,72,372,training,negativefb,53,average,54,1.166802799999914,['c'],1,left,['0'],6,0.20549769999979617,,,15,18,Man,Rechts,1,
,dotcolour,dotcolour,dotcolour,13,1,73,373,training,negativefb,64,hard,36,0.6503289000002042,['n'],1,right,['0'],6,0.19576080000024376,,,15,18,Man,Rechts,1,
,dotcolour,dotcolour,dotcolour,14,1,74,374,training,negativefb,75,average,28,0.6332346999997753,['n'],1,right,['0'],6,0.2670742000000246,,,15,18,Man,Rechts,1,
,dotcolour,dotcolour,dotcolour,15,1,75,375,training,negativefb,80,average,28,0.6669990999998845,['n'],1,right,['0'],6,0.1900855999997475,,,15,18,Man,Rechts,1,
,dotcolour,dotcolour,dotcolour,16,1,76,376,training,negativefb,48,easy,18,0.45052450000002864,['n'],1,right,['0'],6,0.24505100000033053,,,15,18,Man,Rechts,1,
,dotcolour,dotcolour,dotcolour,17,1,77,377,training,negativefb,30,easy,17,0.38279149999971196,['n'],1,right,['0'],6,0.16466750000017782,,,15,18,Man,Rechts,1,
,dotcolour,dotcolour,dotcolour,18,1,78,378,training,negativefb,75,easy,65,0.5511753000000681,['c'],1,left,['0'],6,0.15185440000004746,,,15,18,Man,Rechts,1,
,dotcolour,dotcolour,dotcolour,19,1,79,379,training,negativefb,48,average,55,0.633571899999879,['c'],1,left,['0'],6,0.12798130000010133,,,15,18,Man,Rechts,1,
,dotcolour,dotcolour,dotcolour,20,1,80,380,training,negativefb,42,average,52,0.5999583000002531,['c'],1,left,['0'],6,0.31495459999996456,,,15,18,Man,Rechts,1,
,dotcolour,dotcolour,dotcolour,21,1,81,381,training,negativefb,31,hard,35,0.7344828000000234,['n'],1,right,['8'],4,0.34513049999986833,,,15,18,Man,Rechts,1,
,dotcolour,dotcolour,dotcolour,22,1,82,382,training,negativefb,25,hard,36,0.5492432000000917,['n'],1,right,['8'],4,0.2382033999997475,,,15,18,Man,Rechts,1,
,dotcolour,dotcolour,dotcolour,23,1,83,383,training,negativefb,48,average,54,0.582921400000032,['c'],1,left,['0'],6,0.15713919999961945,,,15,18,Man,Rechts,1,
,dotcolour,dotcolour,dotcolour,24,1,84,384,training,negativefb,57,average,53,0.46699179999995977,['c'],1,left,['0'],6,0.1567627999997967,,,15,18,Man,Rechts,1,
,dotcolour,dotcolour,dotcolour,25,1,85,385,training,negativefb,57,hard,43,0.38357070000029125,['c'],1,left,['0'],6,0.2472834000000148,,,15,18,Man,Rechts,1,
,dotcolour,dotcolour,dotcolour,26,1,86,386,training,negativefb,78,easy,65,0.48384759999999005,['c'],1,left,['0'],6,0.17063610000013796,,,15,18,Man,Rechts,1,
,dotcolour,dotcolour,dotcolour,27,1,87,387,training,negativefb,37,easy,19,0.45022770000014134,['c'],0,right,['1'],1,0.8091758000000482,,,15,18,Man,Rechts,1,
,dotcolour,dotcolour,dotcolour,28,1,88,388,training,negativefb,4,hard,44,0.9327066000000741,['n'],0,left,['3'],3,0.9086326000001463,,,15,18,Man,Rechts,1,
,dotcolour,dotcolour,dotcolour,29,1,89,389,training,negativefb,79,easy,65,1.0506544999998368,['c'],1,left,['8'],4,0.2063786999997319,,,15,18,Man,Rechts,1,
,dotcolour,dotcolour,dotcolour,30,1,90,390,training,negativefb,79,easy,18,0.6165463000002092,['n'],1,right,['0'],6,0.19740820000015447,,,15,18,Man,Rechts,1,
,dotcolour,dotcolour,dotcolour,31,1,91,391,training,negativefb,55,hard,45,1.5170450000000528,['c'],1,left,['8'],4,0.27320959999997285,,,15,18,Man,Rechts,1,
,dotcolour,dotcolour,dotcolour,32,1,92,392,training,negativefb,64,average,25,1.0990123000001404,['n'],1,right,['8'],4,0.24361440000029688,,,15,18,Man,Rechts,1,
,dotcolour,dotcolour,dotcolour,33,1,93,393,training,negativefb,66,hard,45,0.7834629000003588,['c'],1,left,['0'],6,0.48293710000007195,,,15,18,Man,Rechts,1,
,dotcolour,dotcolour,dotcolour,34,1,94,394,training,negativefb,64,easy,62,0.9328608000000713,['c'],1,left,['0'],6,0.20219300000007934,,,15,18,Man,Rechts,1,
,dotcolour,dotcolour,dotcolour,35,1,95,395,training,negativefb,76,easy,16,0.6169467999998233,['n'],1,right,['0'],6,0.21799590000000535,,,15,18,Man,Rechts,1,
,dotcolour,dotcolour,dotcolour,36,1,96,396,training,negativefb,66,hard,44,1.0330316999998104,['c'],1,left,['8'],4,0.2634794000000511,,,15,18,Man,Rechts,1,
,dotcolour,dotcolour,dotcolour,37,1,97,397,training,negativefb,90,average,27,0.799898000000212,['n'],1,right,['8'],4,0.56591729999991,,,15,18,Man,Rechts,1,
,dotcolour,dotcolour,dotcolour,38,1,98,398,training,negativefb,85,average,54,0.9499445000001288,['c'],1,left,['9'],5,0.9849048999999468,,,15,18,Man,Rechts,1,
,dotcolour,dotcolour,dotcolour,39,1,99,399,training,negativefb,21,easy,17,0.6842118999998092,['n'],1,right,['0'],6,0.2145700000000943,,,15,18,Man,Rechts,1,
,dotcolour,dotcolour,dotcolour,40,1,100,400,training,negativefb,58,hard,36,1.2171763000001192,['n'],1,right,['0'],6,0.23784920000025522,,,15,18,Man,Rechts,1,
,dotcolour,dotcolour,dotcolour,41,1,101,401,training,negativefb,63,hard,39,0.8495419999999285,['n'],1,right,['8'],4,0.2265956000001097,,,15,18,Man,Rechts,1,
,dotcolour,dotcolour,dotcolour,42,1,102,402,training,negativefb,28,easy,16,0.5659046999999191,['n'],1,right,['0'],6,0.26731180000024324,,,15,18,Man,Rechts,1,
,dotcolour,dotcolour,dotcolour,43,1,103,403,training,negativefb,76,average,29,0.6664114000000154,['n'],1,right,['0'],6,0.20562829999971655,,,15,18,Man,Rechts,1,
,dotcolour,dotcolour,dotcolour,44,1,104,404,training,negativefb,60,average,26,0.6493926999996802,['n'],1,right,['0'],6,0.23576920000004975,,,15,18,Man,Rechts,1,
,dotcolour,dotcolour,dotcolour,45,1,105,405,training,negativefb,85,hard,36,0.43323700000019016,['n'],1,right,['9'],5,0.5290562000000136,,,15,18,Man,Rechts,1,
,dotcolour,dotcolour,dotcolour,46,1,106,406,training,negativefb,64,easy,65,0.7178980999997293,['c'],1,left,['0'],6,0.35978890000023966,,,15,18,Man,Rechts,1,
,dotcolour,dotcolour,dotcolour,47,1,107,407,training,negativefb,80,average,29,0.849729600000046,['n'],1,right,['0'],6,0.13572099999964848,,,15,18,Man,Rechts,1,
,dotcolour,dotcolour,dotcolour,48,1,108,408,training,negativefb,84,easy,19,0.3832978999998886,['n'],1,right,['0'],6,0.22653769999988072,,,15,18,Man,Rechts,1,
,dotcolour,dotcolour,dotcolour,49,1,109,409,training,negativefb,82,hard,43,0.7337360999999873,['c'],1,left,['8'],4,0.1967598999999609,,,15,18,Man,Rechts,1,
,dotcolour,dotcolour,dotcolour,50,1,110,410,training,negativefb,67,easy,15,0.4834611000001132,['n'],1,right,['0'],6,0.15406930000017383,,,15,18,Man,Rechts,1,
,dotcolour,dotcolour,dotcolour,51,1,111,411,training,negativefb,77,easy,62,0.6171085000000858,['n'],0,left,['1'],1,1.0027820000000247,,,15,18,Man,Rechts,1,
,dotcolour,dotcolour,dotcolour,52,1,112,412,training,negativefb,35,hard,44,0.6000014000001102,['n'],0,left,['9'],5,0.4671382999999878,,,15,18,Man,Rechts,1,
,dotcolour,dotcolour,dotcolour,53,1,113,413,training,negativefb,49,hard,35,0.5665773999999146,['n'],1,right,['0'],6,0.25781899999992675,,,15,18,Man,Rechts,1,
,dotcolour,dotcolour,dotcolour,54,1,114,414,training,negativefb,85,average,29,0.7169997999999396,['n'],1,right,['9'],5,0.7316559999999299,,,15,18,Man,Rechts,1,
,dotcolour,dotcolour,dotcolour,55,1,115,415,training,negativefb,65,easy,64,0.7499824000001354,['c'],1,left,['0'],6,0.23194340000009106,,,15,18,Man,Rechts,1,
,dotcolour,dotcolour,dotcolour,56,1,116,416,training,negativefb,98,hard,41,0.7664036999999553,['c'],1,left,['8'],4,1.6643283999997038,,,15,18,Man,Rechts,1,
,dotcolour,dotcolour,dotcolour,57,1,117,417,training,negativefb,78,average,53,0.7328020999998444,['c'],1,left,['9'],5,0.15130470000030982,,,15,18,Man,Rechts,1,
,dotcolour,dotcolour,dotcolour,58,1,118,418,training,negativefb,71,easy,62,0.5505513000002793,['c'],1,left,['0'],6,0.299948900000345,,,15,18,Man,Rechts,1,
,dotcolour,dotcolour,dotcolour,59,1,119,419,training,negativefb,76,average,27,0.7664907000003041,['n'],1,right,['0'],6,0.2176179000002776,,,15,18,Man,Rechts,1,
,xotask,dotcolour,dotcolour,0,2,120,420,main,negativefb,-99,easy,,4.267404600000191,['c'],0,right,['2'],2,4.74820869999985,8,,15,18,Man,Rechts,1,
,xotask,dotcolour,dotcolour,1,2,121,421,main,negativefb,-99,easy,,4.334766599999966,['n'],1,right,['9'],5,0.5692729000002146,8,,15,18,Man,Rechts,1,
,xotask,dotcolour,dotcolour,2,2,122,422,main,negativefb,-99,hard,,4.384541200000058,['c'],0,right,['8'],4,0.9641209000001254,26,,15,18,Man,Rechts,1,
,xotask,dotcolour,dotcolour,3,2,123,423,main,negativefb,-99,hard,,11.433906499999921,['n'],1,right,['8'],4,0.9175583000001097,29,,15,18,Man,Rechts,1,
,xotask,dotcolour,dotcolour,4,2,124,424,main,negativefb,-99,easy,,3.28470150000021,['c'],1,left,['8'],4,0.934635999999955,70,,15,18,Man,Rechts,1,
,xotask,dotcolour,dotcolour,5,2,125,425,main,negativefb,-99,easy,,1.3005670000002283,['c'],1,left,['8'],4,0.4300922999996146,71,,15,18,Man,Rechts,1,
,xotask,dotcolour,dotcolour,6,2,126,426,main,negativefb,-99,average,,1.3018784000000778,['c'],1,left,['8'],4,0.4895888000000923,61,,15,18,Man,Rechts,1,
,xotask,dotcolour,dotcolour,7,2,127,427,main,negativefb,-99,average,,2.9176879999999983,['n'],1,right,['9'],5,1.0743631000000278,18,,15,18,Man,Rechts,1,
,xotask,dotcolour,dotcolour,8,2,128,428,main,negativefb,-99,average,,1.1180256000002373,['c'],1,left,['8'],4,0.32368300000007366,62,,15,18,Man,Rechts,1,
,xotask,dotcolour,dotcolour,9,2,129,429,main,negativefb,-99,hard,,1.3010174000000916,['c'],1,left,['8'],4,0.715641400000095,50,,15,18,Man,Rechts,1,
,xotask,dotcolour,dotcolour,10,2,130,430,main,negativefb,-99,hard,,0.8181103000001713,['c'],1,left,['8'],4,0.2708987999999408,52,,15,18,Man,Rechts,1,
,xotask,dotcolour,dotcolour,11,2,131,431,main,negativefb,-99,average,,0.8012456999999813,['n'],1,right,['8'],4,0.2767604000000574,15,,15,18,Man,Rechts,1,
,xotask,dotcolour,dotcolour,12,2,132,432,main,negativefb,-99,easy,,0.8171606000000793,['c'],1,left,['8'],4,0.8585951999998542,70,,15,18,Man,Rechts,1,
,xotask,dotcolour,dotcolour,13,2,133,433,main,negativefb,-99,hard,,1.5179874000000382,['c'],0,right,['8'],4,0.49269490000006044,26,,15,18,Man,Rechts,1,
,xotask,dotcolour,dotcolour,14,2,134,434,main,negativefb,-99,hard,,0.95119109999996,['c'],0,right,['8'],4,0.23566380000011122,29,,15,18,Man,Rechts,1,
,xotask,dotcolour,dotcolour,15,2,135,435,main,negativefb,-99,easy,,1.7161753000000317,['c'],1,left,['9'],5,1.246169000000009,73,,15,18,Man,Rechts,1,
,xotask,dotcolour,dotcolour,16,2,136,436,main,negativefb,-99,easy,,1.6684430999998767,['c'],1,left,['0'],6,0.8589934000001449,70,,15,18,Man,Rechts,1,
,xotask,dotcolour,dotcolour,17,2,137,437,main,negativefb,-99,hard,,1.3513937999996415,['c'],1,left,['9'],5,0.4034851000001254,51,,15,18,Man,Rechts,1,
,xotask,dotcolour,dotcolour,18,2,138,438,main,negativefb,-99,average,,0.8512209999998959,['c'],1,left,['9'],5,0.5147194000001036,60,,15,18,Man,Rechts,1,
,xotask,dotcolour,dotcolour,19,2,139,439,main,negativefb,-99,average,,0.7846534000000247,['c'],1,left,['0'],6,0.2875851000003422,63,,15,18,Man,Rechts,1,
,xotask,dotcolour,dotcolour,20,2,140,440,main,negativefb,-99,average,,0.8351034000002073,['c'],1,left,['0'],6,0.17865160000019387,60,,15,18,Man,Rechts,1,
,xotask,dotcolour,dotcolour,21,2,141,441,main,negativefb,-99,hard,,0.9171031000000767,['c'],1,left,['0'],6,0.336485299999822,51,,15,18,Man,Rechts,1,
,xotask,dotcolour,dotcolour,22,2,142,442,main,negativefb,-99,hard,,0.6834312000000864,['c'],1,left,['0'],6,0.3443191999999726,52,,15,18,Man,Rechts,1,
,xotask,dotcolour,dotcolour,23,2,143,443,main,negativefb,-99,easy,,1.9662892000001193,['n'],1,right,['0'],6,0.38076679999994667,7,,15,18,Man,Rechts,1,
,xotask,dotcolour,dotcolour,24,2,144,444,main,negativefb,-99,hard,,0.9015767999999298,['n'],0,left,['0'],6,0.2746401999997943,52,,15,18,Man,Rechts,1,
,xotask,dotcolour,dotcolour,25,2,145,445,main,negativefb,-99,easy,,1.0666433999999754,['n'],1,right,['0'],6,0.2458171999996921,9,,15,18,Man,Rechts,1,
,xotask,dotcolour,dotcolour,26,2,146,446,main,negativefb,-99,average,,0.8348977000000559,['n'],1,right,['9'],5,0.4516129999997247,17,,15,18,Man,Rechts,1,
,xotask,dotcolour,dotcolour,27,2,147,447,main,negativefb,-99,average,,0.5010784000000967,['n'],1,right,['9'],5,0.3260648999998921,19,,15,18,Man,Rechts,1,
,xotask,dotcolour,dotcolour,28,2,148,448,main,negativefb,-99,hard,,1.7172493999996732,['c'],0,right,['9'],5,0.23800170000004073,25,,15,18,Man,Rechts,1,
,xotask,dotcolour,dotcolour,29,2,149,449,main,negativefb,-99,easy,,1.93441810000013,['c'],1,left,['9'],5,0.44790469999998095,71,,15,18,Man,Rechts,1,
,xotask,dotcolour,dotcolour,30,2,150,450,main,negativefb,-99,easy,,2.7350437000000056,['c'],1,left,['8'],4,0.27317790000006426,74,,15,18,Man,Rechts,1,
,xotask,dotcolour,dotcolour,31,2,151,451,main,negativefb,-99,average,,0.7517194000001837,['c'],1,left,['8'],4,0.36115369999970426,62,,15,18,Man,Rechts,1,
,xotask,dotcolour,dotcolour,32,2,152,452,main,negativefb,-99,hard,,1.101626000000124,['c'],1,left,['8'],4,0.3598535000000993,53,,15,18,Man,Rechts,1,
,xotask,dotcolour,dotcolour,33,2,153,453,main,negativefb,-99,average,,0.6848353999998835,['c'],0,right,['8'],4,0.19937709999976505,18,,15,18,Man,Rechts,1,
,xotask,dotcolour,dotcolour,34,2,154,454,main,negativefb,-99,easy,,1.6003586000001633,['n'],1,right,['9'],5,0.7441432000000532,6,,15,18,Man,Rechts,1,
,xotask,dotcolour,dotcolour,35,2,155,455,main,negativefb,-99,hard,,0.6676563999999416,['n'],1,right,['9'],5,0.26505330000009053,25,,15,18,Man,Rechts,1,
,xotask,dotcolour,dotcolour,36,2,156,456,main,negativefb,-99,average,,1.334164200000032,['n'],1,right,['0'],6,0.3053724000001239,16,,15,18,Man,Rechts,1,
,xotask,dotcolour,dotcolour,37,2,157,457,main,negativefb,-99,easy,,0.5012747999999192,['n'],1,right,['0'],6,0.3060597999997299,5,,15,18,Man,Rechts,1,
,xotask,dotcolour,dotcolour,38,2,158,458,main,negativefb,-99,hard,,0.9505252999997538,['c'],1,left,['8'],4,0.36870760000010705,54,,15,18,Man,Rechts,1,
,xotask,dotcolour,dotcolour,39,2,159,459,main,negativefb,-99,hard,,1.0666160999999192,['n'],0,left,['9'],5,0.28049579999969865,51,,15,18,Man,Rechts,1,
,xotask,dotcolour,dotcolour,40,2,160,460,main,negativefb,-99,hard,,1.0498156000003291,['n'],1,right,['9'],5,0.26058670000020356,27,,15,18,Man,Rechts,1,
,xotask,dotcolour,dotcolour,41,2,161,461,main,negativefb,-99,hard,,1.2010417000001326,['c'],1,left,['8'],4,0.36296219999985624,53,,15,18,Man,Rechts,1,
,xotask,dotcolour,dotcolour,42,2,162,462,main,negativefb,-99,average,,1.1841295999997783,['c'],1,left,['0'],6,0.26224290000027395,64,,15,18,Man,Rechts,1,
,xotask,dotcolour,dotcolour,43,2,163,463,main,negativefb,-99,average,,1.0516178000002583,['c'],1,left,['9'],5,0.18680480000011812,63,,15,18,Man,Rechts,1,
,xotask,dotcolour,dotcolour,44,2,164,464,main,negativefb,-99,average,,2.15070280000009,['n'],1,right,['0'],6,0.31799439999986134,18,,15,18,Man,Rechts,1,
,xotask,dotcolour,dotcolour,45,2,165,465,main,negativefb,-99,average,,1.0346839999997428,['c'],1,left,['0'],6,0.4088438999997379,64,,15,18,Man,Rechts,1,
,xotask,dotcolour,dotcolour,46,2,166,466,main,negativefb,-99,average,,1.4850543999996262,['n'],1,right,['9'],5,0.3260723999997026,16,,15,18,Man,Rechts,1,
,xotask,dotcolour,dotcolour,47,2,167,467,main,negativefb,-99,average,,0.6007461999997759,['n'],1,right,['0'],6,0.7061178999997537,15,,15,18,Man,Rechts,1,
,xotask,dotcolour,dotcolour,48,2,168,468,main,negativefb,-99,easy,,1.0848898000003828,['c'],1,left,['8'],4,1.0433836000001975,73,,15,18,Man,Rechts,1,
,xotask,dotcolour,dotcolour,49,2,169,469,main,negativefb,-99,hard,,1.5002706999998736,['c'],0,right,['8'],4,0.5102615999999216,28,,15,18,Man,Rechts,1,
,xotask,dotcolour,dotcolour,50,2,170,470,main,negativefb,-99,hard,,1.067693600000439,['c'],0,right,['0'],6,0.2165961000000607,27,,15,18,Man,Rechts,1,
,xotask,dotcolour,dotcolour,51,2,171,471,main,negativefb,-99,average,,0.9339681999999812,['c'],1,left,['8'],4,0.3315965000001597,63,,15,18,Man,Rechts,1,
,xotask,dotcolour,dotcolour,52,2,172,472,main,negativefb,-99,easy,,1.2843887999997605,['n'],1,right,['0'],6,0.21925929999997607,5,,15,18,Man,Rechts,1,
,xotask,dotcolour,dotcolour,53,2,173,473,main,negativefb,-99,easy,,0.7679134999998496,['c'],1,left,['9'],5,0.8682656000000861,73,,15,18,Man,Rechts,1,
,xotask,dotcolour,dotcolour,54,2,174,474,main,negativefb,-99,easy,,0.617255699999987,['n'],1,right,['0'],6,0.28253989999984697,6,,15,18,Man,Rechts,1,
,xotask,dotcolour,dotcolour,55,2,175,475,main,negativefb,-99,easy,,1.0673555000003034,['n'],1,right,['0'],6,0.2530229999997573,9,,15,18,Man,Rechts,1,
,xotask,dotcolour,dotcolour,56,2,176,476,main,negativefb,-99,easy,,0.5004778000002261,['n'],1,right,['0'],6,0.35976369999980307,5,,15,18,Man,Rechts,1,
,xotask,dotcolour,dotcolour,57,2,177,477,main,negativefb,-99,average,,0.417041799999879,['n'],1,right,['0'],6,0.3774616999999125,19,,15,18,Man,Rechts,1,
,xotask,dotcolour,dotcolour,58,2,178,478,main,negativefb,-99,easy,,0.8020369999999275,['c'],1,left,['8'],4,0.2351134999998976,72,,15,18,Man,Rechts,1,
,xotask,dotcolour,dotcolour,59,2,179,479,main,negativefb,-99,hard,,2.3516555000001063,['c'],0,right,['9'],5,0.5333626999999979,29,,15,18,Man,Rechts,1,
,xotask,dotcolour,dotcolour,0,3,180,480,main,negativefb,-99,easy,,4.684543699999722,['n'],0,left,['9'],5,0.6713167000002613,73,,15,18,Man,Rechts,1,
,xotask,dotcolour,dotcolour,1,3,181,481,main,negativefb,-99,easy,,0.8850353999996514,['c'],0,right,['2'],2,1.2264964999999393,8,,15,18,Man,Rechts,1,
,xotask,dotcolour,dotcolour,2,3,182,482,main,negativefb,-99,hard,,1.4685221999998248,['c'],1,left,['8'],4,0.4158403999999791,52,,15,18,Man,Rechts,1,
,xotask,dotcolour,dotcolour,3,3,183,483,main,negativefb,-99,average,,1.9844024000003628,['n'],1,right,['0'],6,0.3602848000000449,19,,15,18,Man,Rechts,1,
,xotask,dotcolour,dotcolour,4,3,184,484,main,negativefb,-99,average,,0.9337513000000399,['n'],1,right,['0'],6,0.2774602999998024,18,,15,18,Man,Rechts,1,
,xotask,dotcolour,dotcolour,5,3,185,485,main,negativefb,-99,average,,1.2014149000001453,['c'],1,left,['9'],5,0.19555069999978514,63,,15,18,Man,Rechts,1,
,xotask,dotcolour,dotcolour,6,3,186,486,main,negativefb,-99,easy,,1.01761069999975,['c'],0,right,['8'],4,0.20406499999990046,9,,15,18,Man,Rechts,1,
,xotask,dotcolour,dotcolour,7,3,187,487,main,negativefb,-99,hard,,1.0849020000000564,['c'],0,right,['8'],4,1.025799399999869,27,,15,18,Man,Rechts,1,
,xotask,dotcolour,dotcolour,8,3,188,488,main,negativefb,-99,hard,,1.284098399999948,['n'],0,left,['9'],5,0.27832400000033886,50,,15,18,Man,Rechts,1,
,xotask,dotcolour,dotcolour,9,3,189,489,main,negativefb,-99,average,,0.7348621999999523,['c'],1,left,['8'],4,0.43099630000006073,63,,15,18,Man,Rechts,1,
,xotask,dotcolour,dotcolour,10,3,190,490,main,negativefb,-99,average,,1.250965300000189,['c'],1,left,['8'],4,0.268834699999843,64,,15,18,Man,Rechts,1,
,xotask,dotcolour,dotcolour,11,3,191,491,main,negativefb,-99,hard,,0.8353169999995771,['c'],0,right,['8'],4,0.3135953999999401,29,,15,18,Man,Rechts,1,
,xotask,dotcolour,dotcolour,12,3,192,492,main,negativefb,-99,easy,,1.5519976000000497,['c'],1,left,['9'],5,0.49665240000013,71,,15,18,Man,Rechts,1,
,xotask,dotcolour,dotcolour,13,3,193,493,main,negativefb,-99,easy,,1.9339426000001367,['n'],1,right,['9'],5,0.7446617999999035,5,,15,18,Man,Rechts,1,
,xotask,dotcolour,dotcolour,14,3,194,494,main,negativefb,-99,easy,,0.884470599999986,['c'],1,left,['9'],5,1.03261829999974,72,,15,18,Man,Rechts,1,
,xotask,dotcolour,dotcolour,15,3,195,495,main,negativefb,-99,easy,,1.5007772999997542,['c'],1,left,['9'],5,1.2521155999997973,70,,15,18,Man,Rechts,1,
,xotask,dotcolour,dotcolour,16,3,196,496,main,negativefb,-99,easy,,2.3341137000002163,['c'],1,left,['8'],4,0.19729240000015125,72,,15,18,Man,Rechts,1,
,xotask,dotcolour,dotcolour,17,3,197,497,main,negativefb,-99,easy,,1.233634599999732,['c'],1,left,['8'],4,0.5731001000003744,70,,15,18,Man,Rechts,1,
,xotask,dotcolour,dotcolour,18,3,198,498,main,negativefb,-99,easy,,0.7680134000001999,['n'],1,right,['8'],4,0.43195319999995263,7,,15,18,Man,Rechts,1,
,xotask,dotcolour,dotcolour,19,3,199,499,main,negativefb,-99,hard,,0.6353055999998105,['n'],0,left,['8'],4,0.7589290000000801,51,,15,18,Man,Rechts,1,
,xotask,dotcolour,dotcolour,20,3,200,500,main,negativefb,-99,easy,,1.0342758000001595,['c'],1,left,['8'],4,0.42393089999995937,70,,15,18,Man,Rechts,1,
,xotask,dotcolour,dotcolour,21,3,201,501,main,negativefb,-99,hard,,0.8350663999999597,['c'],1,left,['8'],4,0.326336000000083,53,,15,18,Man,Rechts,1,
,xotask,dotcolour,dotcolour,22,3,202,502,main,negativefb,-99,average,,0.7506118000001152,['c'],0,right,['8'],4,0.2043786999997792,16,,15,18,Man,Rechts,1,
,xotask,dotcolour,dotcolour,23,3,203,503,main,negativefb,-99,hard,,0.7519887999997081,['c'],1,left,['8'],4,0.23897740000029444,51,,15,18,Man,Rechts,1,
,xotask,dotcolour,dotcolour,24,3,204,504,main,negativefb,-99,average,,0.7342256000001726,['c'],0,right,['9'],5,1.033122099999673,15,,15,18,Man,Rechts,1,
,xotask,dotcolour,dotcolour,25,3,205,505,main,negativefb,-99,hard,,0.8171603999999206,['c'],1,left,['8'],4,0.839802200000122,53,,15,18,Man,Rechts,1,
,xotask,dotcolour,dotcolour,26,3,206,506,main,negativefb,-99,average,,1.100845500000105,['c'],1,left,['8'],4,0.21066639999980907,63,,15,18,Man,Rechts,1,
,xotask,dotcolour,dotcolour,27,3,207,507,main,negativefb,-99,average,,0.7007129999997233,['c'],1,left,['9'],5,0.735738400000173,64,,15,18,Man,Rechts,1,
,xotask,dotcolour,dotcolour,28,3,208,508,main,negativefb,-99,average,,1.652357700000266,['n'],0,left,['8'],4,0.3366943999999421,62,,15,18,Man,Rechts,1,
,xotask,dotcolour,dotcolour,29,3,209,509,main,negativefb,-99,hard,,0.6837803000003078,['n'],0,left,['8'],4,0.24903039999981047,51,,15,18,Man,Rechts,1,
,xotask,dotcolour,dotcolour,30,3,210,510,main,negativefb,-99,average,,0.6676698999999644,['n'],1,right,['8'],4,0.2851160999998683,16,,15,18,Man,Rechts,1,
,xotask,dotcolour,dotcolour,31,3,211,511,main,negativefb,-99,easy,,1.0844035999998596,['c'],1,left,['8'],4,0.1991635999997925,74,,15,18,Man,Rechts,1,
,xotask,dotcolour,dotcolour,32,3,212,512,main,negativefb,-99,hard,,0.7681154000001698,['n'],0,left,['8'],4,0.8097787000001517,53,,15,18,Man,Rechts,1,
,xotask,dotcolour,dotcolour,33,3,213,513,main,negativefb,-99,easy,,1.234484600000087,['c'],1,left,['9'],5,0.3769710000001396,71,,15,18,Man,Rechts,1,
,xotask,dotcolour,dotcolour,34,3,214,514,main,negativefb,-99,easy,,0.5511759999999413,['n'],1,right,['0'],6,0.6601677999997264,6,,15,18,Man,Rechts,1,
,xotask,dotcolour,dotcolour,35,3,215,515,main,negativefb,-99,average,,3.5350476999997227,['n'],0,left,['9'],5,0.5900974000001042,64,,15,18,Man,Rechts,1,
,xotask,dotcolour,dotcolour,36,3,216,516,main,negativefb,-99,hard,,1.184450900000229,['n'],1,right,['9'],5,0.41557300000022224,25,,15,18,Man,Rechts,1,
,xotask,dotcolour,dotcolour,37,3,217,517,main,negativefb,-99,average,,0.46793979999984003,['n'],1,right,['9'],5,0.22928129999991143,15,,15,18,Man,Rechts,1,
,xotask,dotcolour,dotcolour,38,3,218,518,main,negativefb,-99,hard,,0.9848041000000194,['c'],0,right,['8'],4,0.3257693000000472,29,,15,18,Man,Rechts,1,
,xotask,dotcolour,dotcolour,39,3,219,519,main,negativefb,-99,hard,,2.118228900000304,['n'],1,right,['9'],5,2.317292500000349,27,,15,18,Man,Rechts,1,
,xotask,dotcolour,dotcolour,40,3,220,520,main,negativefb,-99,average,,1.401638400000138,['c'],1,left,['8'],4,0.5684344999999666,63,,15,18,Man,Rechts,1,
,xotask,dotcolour,dotcolour,41,3,221,521,main,negativefb,-99,easy,,1.001448999999866,['n'],1,right,['0'],6,0.6191408999998202,9,,15,18,Man,Rechts,1,
,xotask,dotcolour,dotcolour,42,3,222,522,main,negativefb,-99,easy,,0.7171993000001748,['n'],1,right,['0'],6,0.23921449999988909,8,,15,18,Man,Rechts,1,
,xotask,dotcolour,dotcolour,43,3,223,523,main,negativefb,-99,easy,,0.9685570000001462,['c'],1,left,['8'],4,0.29532160000007934,72,,15,18,Man,Rechts,1,
,xotask,dotcolour,dotcolour,44,3,224,524,main,negativefb,-99,average,,1.5167931000000863,['c'],1,left,['9'],5,0.9125690999999279,63,,15,18,Man,Rechts,1,
,xotask,dotcolour,dotcolour,45,3,225,525,main,negativefb,-99,average,,0.9842683000001671,['c'],1,left,['8'],4,11.646111699999892,61,,15,18,Man,Rechts,1,
,xotask,dotcolour,dotcolour,46,3,226,526,main,negativefb,-99,hard,,4.383925999999974,['c'],0,right,['8'],4,0.7171566000001803,27,,15,18,Man,Rechts,1,
,xotask,dotcolour,dotcolour,47,3,227,527,main,negativefb,-99,easy,,0.9345907000001716,['n'],1,right,['8'],4,0.25167629999987184,7,,15,18,Man,Rechts,1,
,xotask,dotcolour,dotcolour,48,3,228,528,main,negativefb,-99,average,,0.600967700000183,['n'],1,right,['8'],4,0.22683760000018083,16,,15,18,Man,Rechts,1,
,xotask,dotcolour,dotcolour,49,3,229,529,main,negativefb,-99,hard,,0.6179990000000544,['n'],1,right,['0'],6,0.38605570000027,29,,15,18,Man,Rechts,1,
,xotask,dotcolour,dotcolour,50,3,230,530,main,negativefb,-99,average,,0.685405400000036,['n'],1,right,['0'],6,0.23990679999997155,15,,15,18,Man,Rechts,1,
,xotask,dotcolour,dotcolour,51,3,231,531,main,negativefb,-99,average,,0.5007379000003311,['n'],1,right,['0'],6,0.23543960000006336,19,,15,18,Man,Rechts,1,
,xotask,dotcolour,dotcolour,52,3,232,532,main,negativefb,-99,easy,,0.7016116999998303,['n'],1,right,['0'],6,0.2303823000002012,9,,15,18,Man,Rechts,1,
,xotask,dotcolour,dotcolour,53,3,233,533,main,negativefb,-99,hard,,0.45089370000005147,['n'],1,right,['0'],6,0.5488010000003669,27,,15,18,Man,Rechts,1,
,xotask,dotcolour,dotcolour,54,3,234,534,main,negativefb,-99,average,,0.45083759999988615,['n'],1,right,['9'],5,0.2772362000000612,19,,15,18,Man,Rechts,1,
,xotask,dotcolour,dotcolour,55,3,235,535,main,negativefb,-99,hard,,0.5006658000002062,['n'],0,left,['9'],5,0.2478065999998762,51,,15,18,Man,Rechts,1,
,xotask,dotcolour,dotcolour,56,3,236,536,main,negativefb,-99,hard,,0.5170711999999185,['n'],1,right,['9'],5,0.2581058999999186,27,,15,18,Man,Rechts,1,
,xotask,dotcolour,dotcolour,57,3,237,537,main,negativefb,-99,easy,,0.38445969999975205,['n'],1,right,['9'],5,0.30536690000008093,5,,15,18,Man,Rechts,1,
,xotask,dotcolour,dotcolour,58,3,238,538,main,negativefb,-99,hard,,0.6851029999997991,['n'],1,right,['0'],6,0.330720299999939,28,,15,18,Man,Rechts,1,
,xotask,dotcolour,dotcolour,59,3,239,539,main,negativefb,-99,hard,,0.784566199999972,['n'],0,left,['2'],2,1.1830485999998928,54,,15,18,Man,Rechts,1,
,xotask,dotcolour,dotcolour,0,4,240,540,main,negativefb,-99,hard,,0.7675260999999409,['c'],0,right,['3'],3,2.021748099999968,27,,15,18,Man,Rechts,1,
,xotask,dotcolour,dotcolour,1,4,241,541,main,negativefb,-99,average,,2.901867999999922,['n'],1,right,['8'],4,0.32180689999995593,18,,15,18,Man,Rechts,1,
,xotask,dotcolour,dotcolour,2,4,242,542,main,negativefb,-99,easy,,0.6520617000001039,['n'],1,right,['9'],5,0.3633745000001909,8,,15,18,Man,Rechts,1,
,xotask,dotcolour,dotcolour,3,4,243,543,main,negativefb,-99,hard,,0.4508577999999943,['n'],1,right,['9'],5,0.2202882999999929,28,,15,18,Man,Rechts,1,
,xotask,dotcolour,dotcolour,4,4,244,544,main,negativefb,-99,easy,,1.0020153000000391,['c'],1,left,['8'],4,0.2679608999997072,70,,15,18,Man,Rechts,1,
,xotask,dotcolour,dotcolour,5,4,245,545,main,negativefb,-99,hard,,1.3004563999998027,['n'],1,right,['8'],4,0.19826359999979104,27,,15,18,Man,Rechts,1,
,xotask,dotcolour,dotcolour,6,4,246,546,main,negativefb,-99,easy,,0.9518114000002242,['c'],1,left,['8'],4,0.20123340000009193,72,,15,18,Man,Rechts,1,
,xotask,dotcolour,dotcolour,7,4,247,547,main,negativefb,-99,average,,0.5841141999999309,['c'],1,left,['9'],5,0.2181909999999334,61,,15,18,Man,Rechts,1,
,xotask,dotcolour,dotcolour,8,4,248,548,main,negativefb,-99,hard,,2.3998529000000417,['c'],1,left,['8'],4,0.26574099999970713,52,,15,18,Man,Rechts,1,
,xotask,dotcolour,dotcolour,9,4,249,549,main,negativefb,-99,hard,,0.7671070000001237,['c'],1,left,['8'],4,0.20207309999977952,51,,15,18,Man,Rechts,1,
,xotask,dotcolour,dotcolour,10,4,250,550,main,negativefb,-99,average,,0.9505690999999388,['n'],1,right,['8'],4,0.17988439999999173,16,,15,18,Man,Rechts,1,
,xotask,dotcolour,dotcolour,11,4,251,551,main,negativefb,-99,hard,,0.6852407999999741,['c'],0,right,['8'],4,0.2188255000000936,27,,15,18,Man,Rechts,1,
,xotask,dotcolour,dotcolour,12,4,252,552,main,negativefb,-99,average,,0.6842059000000518,['c'],1,left,['8'],4,0.6395904000000883,64,,15,18,Man,Rechts,1,
,xotask,dotcolour,dotcolour,13,4,253,553,main,negativefb,-99,hard,,1.0008827000001475,['n'],1,right,['8'],4,0.2866070000000036,28,,15,18,Man,Rechts,1,
,xotask,dotcolour,dotcolour,14,4,254,554,main,negativefb,-99,easy,,0.785081700000319,['n'],1,right,['8'],4,0.2367695999996613,5,,15,18,Man,Rechts,1,
,xotask,dotcolour,dotcolour,15,4,255,555,main,negativefb,-99,easy,,0.5347515999997086,['n'],1,right,['9'],5,0.3746866000001319,5,,15,18,Man,Rechts,1,
,xotask,dotcolour,dotcolour,16,4,256,556,main,negativefb,-99,average,,0.5498413000000255,['n'],0,left,['9'],5,0.2588455000000067,63,,15,18,Man,Rechts,1,
,xotask,dotcolour,dotcolour,17,4,257,557,main,negativefb,-99,easy,,0.6337521000000379,['n'],0,left,['9'],5,0.463824299999942,71,,15,18,Man,Rechts,1,
,xotask,dotcolour,dotcolour,18,4,258,558,main,negativefb,-99,average,,0.8180728000002091,['n'],1,right,['9'],5,0.36660619999975097,15,,15,18,Man,Rechts,1,
,xotask,dotcolour,dotcolour,19,4,259,559,main,negativefb,-99,hard,,1.2673107000000527,['c'],1,left,['3'],3,0.2532142999998541,50,,15,18,Man,Rechts,1,
,xotask,dotcolour,dotcolour,20,4,260,560,main,negativefb,-99,hard,,0.75136509999993,['n'],0,left,['8'],4,0.350811799999974,51,,15,18,Man,Rechts,1,
,xotask,dotcolour,dotcolour,21,4,261,561,main,negativefb,-99,hard,,0.7177620999996179,['c'],1,left,['3'],3,0.26039510000009614,51,,15,18,Man,Rechts,1,
,xotask,dotcolour,dotcolour,22,4,262,562,main,negativefb,-99,easy,,0.6349703999999292,['n'],1,right,['8'],4,0.2181617000001097,9,,15,18,Man,Rechts,1,
,xotask,dotcolour,dotcolour,23,4,263,563,main,negativefb,-99,hard,,0.6169213999996828,['c'],1,left,['3'],3,0.19256720000021232,50,,15,18,Man,Rechts,1,
,xotask,dotcolour,dotcolour,24,4,264,564,main,negativefb,-99,easy,,0.9161958999998205,['c'],1,left,['2'],2,0.38987970000016503,74,,15,18,Man,Rechts,1,
,xotask,dotcolour,dotcolour,25,4,265,565,main,negativefb,-99,average,,0.6341097000004083,['c'],1,left,['2'],2,0.2053237000000081,64,,15,18,Man,Rechts,1,
,xotask,dotcolour,dotcolour,26,4,266,566,main,negativefb,-99,hard,,0.817519700000048,['c'],1,left,['2'],2,0.15739639999992505,52,,15,18,Man,Rechts,1,
,xotask,dotcolour,dotcolour,27,4,267,567,main,negativefb,-99,average,,0.834585000000061,['c'],1,left,['2'],2,0.198738499999763,61,,15,18,Man,Rechts,1,
,xotask,dotcolour,dotcolour,28,4,268,568,main,negativefb,-99,hard,,1.2339905999997427,['n'],1,right,['8'],4,0.18985209999982544,25,,15,18,Man,Rechts,1,
,xotask,dotcolour,dotcolour,29,4,269,569,main,negativefb,-99,easy,,0.5680397999999514,['c'],0,right,['2'],2,0.18504399999983434,7,,15,18,Man,Rechts,1,
,xotask,dotcolour,dotcolour,30,4,270,570,main,negativefb,-99,easy,,0.9505997000001116,['n'],1,right,['8'],4,0.14087449999988166,5,,15,18,Man,Rechts,1,
,xotask,dotcolour,dotcolour,31,4,271,571,main,negativefb,-99,average,,0.5680566000000908,['n'],1,right,['9'],5,0.5131013000000166,16,,15,18,Man,Rechts,1,
,xotask,dotcolour,dotcolour,32,4,272,572,main,negativefb,-99,average,,0.8670781000000716,['c'],1,left,['2'],2,0.13880599999993137,61,,15,18,Man,Rechts,1,
,xotask,dotcolour,dotcolour,33,4,273,573,main,negativefb,-99,average,,1.2009004999999888,['n'],1,right,['9'],5,0.213974700000108,18,,15,18,Man,Rechts,1,
,xotask,dotcolour,dotcolour,34,4,274,574,main,negativefb,-99,average,,1.118725700000141,['n'],1,right,['9'],5,0.273362299999917,16,,15,18,Man,Rechts,1,
,xotask,dotcolour,dotcolour,35,4,275,575,main,negativefb,-99,hard,,0.6674439999997048,['c'],0,right,['2'],2,0.19677480000018477,25,,15,18,Man,Rechts,1,
,xotask,dotcolour,dotcolour,36,4,276,576,main,negativefb,-99,easy,,2.184638499999892,['c'],1,left,['8'],4,0.3352834000002076,72,,15,18,Man,Rechts,1,
,xotask,dotcolour,dotcolour,37,4,277,577,main,negativefb,-99,easy,,0.9013746999999057,['n'],1,right,['8'],4,0.21486480000021402,5,,15,18,Man,Rechts,1,
,xotask,dotcolour,dotcolour,38,4,278,578,main,negativefb,-99,hard,,0.6680773000002773,['n'],1,right,['8'],4,0.21982359999992696,26,,15,18,Man,Rechts,1,
,xotask,dotcolour,dotcolour,39,4,279,579,main,negativefb,-99,easy,,0.850649599999997,['c'],1,left,['8'],4,0.393786000000091,73,,15,18,Man,Rechts,1,
,xotask,dotcolour,dotcolour,40,4,280,580,main,negativefb,-99,average,,1.3672228999998879,['c'],1,left,['8'],4,0.46775049999996554,60,,15,18,Man,Rechts,1,
,xotask,dotcolour,dotcolour,41,4,281,581,main,negativefb,-99,easy,,0.6347018000001299,['c'],1,left,['8'],4,0.22518619999982548,73,,15,18,Man,Rechts,1,
,xotask,dotcolour,dotcolour,42,4,282,582,main,negativefb,-99,hard,,0.5674691999997776,['c'],1,left,['9'],5,0.2180677999999716,51,,15,18,Man,Rechts,1,
,xotask,dotcolour,dotcolour,43,4,283,583,main,negativefb,-99,hard,,0.8021395999999186,['n'],1,right,['8'],4,0.13887890000023617,25,,15,18,Man,Rechts,1,
,xotask,dotcolour,dotcolour,44,4,284,584,main,negativefb,-99,average,,0.7684044000002359,['c'],0,right,['9'],5,0.135049799999706,16,,15,18,Man,Rechts,1,
,xotask,dotcolour,dotcolour,45,4,285,585,main,negativefb,-99,easy,,0.7678804000001946,['c'],0,right,['1'],1,0.8202304000001277,9,,15,18,Man,Rechts,1,
,xotask,dotcolour,dotcolour,46,4,286,586,main,negativefb,-99,easy,,1.051152699999875,['c'],1,left,['0'],6,0.4260825000001205,74,,15,18,Man,Rechts,1,
,xotask,dotcolour,dotcolour,47,4,287,587,main,negativefb,-99,hard,,1.2178193999998257,['n'],1,right,['0'],6,0.1770252999999684,29,,15,18,Man,Rechts,1,
,xotask,dotcolour,dotcolour,48,4,288,588,main,negativefb,-99,average,,0.6354297000002589,['c'],1,left,['0'],6,0.3784499999997024,64,,15,18,Man,Rechts,1,
,xotask,dotcolour,dotcolour,49,4,289,589,main,negativefb,-99,easy,,0.5338044999998601,['c'],1,left,['0'],6,0.1510772999999972,74,,15,18,Man,Rechts,1,
,xotask,dotcolour,dotcolour,50,4,290,590,main,negativefb,-99,easy,,0.7331646000002365,['n'],1,right,['0'],6,0.17999269999972967,9,,15,18,Man,Rechts,1,
,xotask,dotcolour,dotcolour,51,4,291,591,main,negativefb,-99,average,,0.46736399999963396,['n'],1,right,['0'],6,0.21933230000013282,19,,15,18,Man,Rechts,1,
,xotask,dotcolour,dotcolour,52,4,292,592,main,negativefb,-99,easy,,0.4010558999998466,['n'],1,right,['0'],6,0.1790581000000202,7,,15,18,Man,Rechts,1,
,xotask,dotcolour,dotcolour,53,4,293,593,main,negativefb,-99,average,,0.334347500000149,['n'],0,left,['0'],6,0.2473651999998765,64,,15,18,Man,Rechts,1,
,xotask,dotcolour,dotcolour,54,4,294,594,main,negativefb,-99,average,,0.7840621999998802,['c'],1,left,['0'],6,0.18308479999996052,63,,15,18,Man,Rechts,1,
,xotask,dotcolour,dotcolour,55,4,295,595,main,negativefb,-99,average,,0.6177499999998872,['c'],0,right,['1'],1,0.6718610999996599,16,,15,18,Man,Rechts,1,
,xotask,dotcolour,dotcolour,56,4,296,596,main,negativefb,-99,average,,0.7678961000001436,['n'],1,right,['0'],6,0.1672396000003573,17,,15,18,Man,Rechts,1,
,xotask,dotcolour,dotcolour,57,4,297,597,main,negativefb,-99,hard,,1.5331562000001213,['c'],1,left,['0'],6,0.17175189999989016,52,,15,18,Man,Rechts,1,
,xotask,dotcolour,dotcolour,58,4,298,598,main,negativefb,-99,easy,,0.7000210000001061,['c'],1,left,['0'],6,0.5777232999998887,73,,15,18,Man,Rechts,1,
,xotask,dotcolour,dotcolour,59,4,299,599,main,negativefb,-99,hard,,0.6174035999997614,['c'],1,left,['0'],6,0.20309780000025057,54,,15,18,Man,Rechts,1,
,dotcolour,dotcolour,dotcolour,0,0,0,600,training,negativefb,97,easy,63,0.850448900000174,['c'],1,left,['8'],4,1.681749999999738,,,15,18,Man,Rechts,1,
,dotcolour,dotcolour,dotcolour,1,0,1,601,training,negativefb,3,hard,43,0.7333896999998615,['n'],0,left,['3'],3,2.1202159999998003,,,15,18,Man,Rechts,1,
,dotcolour,dotcolour,dotcolour,2,0,2,602,training,negativefb,55,easy,65,0.7337855000000673,['c'],1,left,['8'],4,0.2776828999999452,,,15,18,Man,Rechts,1,
,dotcolour,dotcolour,dotcolour,3,0,3,603,training,negativefb,63,hard,42,0.7497871000000487,['c'],1,left,['8'],4,0.1821655000003375,,,15,18,Man,Rechts,1,
,dotcolour,dotcolour,dotcolour,4,0,4,604,training,negativefb,79,average,52,0.5670484000002034,['c'],1,left,['8'],4,0.3119134000003214,,,15,18,Man,Rechts,1,
,dotcolour,dotcolour,dotcolour,5,0,5,605,training,negativefb,45,average,52,0.5493353000001662,['c'],1,left,['8'],4,0.2058790000000954,,,15,18,Man,Rechts,1,
,dotcolour,dotcolour,dotcolour,6,0,6,606,training,negativefb,58,average,55,0.5333193999999821,['c'],1,left,['9'],5,0.1437089000000924,,,15,18,Man,Rechts,1,
,dotcolour,dotcolour,dotcolour,7,0,7,607,training,negativefb,69,average,51,0.46709350000037375,['c'],1,left,['9'],5,0.09598589999995966,,,15,18,Man,Rechts,1,
,dotcolour,dotcolour,dotcolour,8,0,8,608,training,negativefb,78,hard,38,2.0839977000000545,['c'],0,right,['9'],5,0.1698673000000781,,,15,18,Man,Rechts,1,
,dotcolour,dotcolour,dotcolour,9,0,9,609,training,negativefb,92,average,26,0.8335769000000255,['n'],1,right,['8'],4,0.23331570000027568,,,15,18,Man,Rechts,1,
,dotcolour,dotcolour,dotcolour,10,0,10,610,training,negativefb,79,average,53,1.5995735000001332,['c'],1,left,['9'],5,0.5770234999999957,,,15,18,Man,Rechts,1,
,dotcolour,dotcolour,dotcolour,11,0,11,611,training,negativefb,62,hard,39,1.0837839999999233,['c'],0,right,['9'],5,0.11797200000000885,,,15,18,Man,Rechts,1,
,dotcolour,dotcolour,dotcolour,12,0,12,612,training,negativefb,63,hard,45,0.4179887000000235,['c'],1,left,['9'],5,0.14513920000035796,,,15,18,Man,Rechts,1,
,dotcolour,dotcolour,dotcolour,13,0,13,613,training,negativefb,79,hard,36,0.8170463999999811,['n'],1,right,['8'],4,0.37933079999993424,,,15,18,Man,Rechts,1,
,dotcolour,dotcolour,dotcolour,14,0,14,614,training,negativefb,35,hard,35,0.8338265000002139,['c'],0,right,['8'],4,0.39553609999984474,,,15,18,Man,Rechts,1,
,dotcolour,dotcolour,dotcolour,15,0,15,615,training,negativefb,58,easy,65,0.6997555000002649,['c'],1,left,['8'],4,0.11133590000008553,,,15,18,Man,Rechts,1,
,dotcolour,dotcolour,dotcolour,16,0,16,616,training,negativefb,15,average,29,0.600405199999841,['c'],0,right,['1'],1,0.7957546999996339,,,15,18,Man,Rechts,1,
,dotcolour,dotcolour,dotcolour,17,0,17,617,training,negativefb,56,hard,35,0.6676047999999355,['n'],1,right,['8'],4,0.27423559999988356,,,15,18,Man,Rechts,1,
,dotcolour,dotcolour,dotcolour,18,0,18,618,training,negativefb,82,easy,18,0.6178838000000724,['n'],1,right,['8'],4,0.26192719999971814,,,15,18,Man,Rechts,1,
,dotcolour,dotcolour,dotcolour,19,0,19,619,training,negativefb,80,easy,19,0.46731110000018816,['n'],1,right,['9'],5,0.12895810000009078,,,15,18,Man,Rechts,1,
,dotcolour,dotcolour,dotcolour,20,0,20,620,training,negativefb,39,average,54,0.6670712000000094,['c'],1,left,['9'],5,0.050387599999794475,,,15,18,Man,Rechts,1,
,dotcolour,dotcolour,dotcolour,21,0,21,621,training,negativefb,80,hard,45,0.45068700000001627,['c'],1,left,['0'],6,0.22236439999960567,,,15,18,Man,Rechts,1,
,dotcolour,dotcolour,dotcolour,22,0,22,622,training,negativefb,38,hard,39,0.9170568999998068,['n'],1,right,['0'],6,0.32145790000004126,,,15,18,Man,Rechts,1,
,dotcolour,dotcolour,dotcolour,23,0,23,623,training,negativefb,50,easy,17,0.5666871999997056,['n'],1,right,['0'],6,0.12516729999970266,,,15,18,Man,Rechts,1,
,dotcolour,dotcolour,dotcolour,24,0,24,624,training,negativefb,55,average,51,0.6338692999997875,['c'],1,left,['0'],6,0.07115190000013172,,,15,18,Man,Rechts,1,
,dotcolour,dotcolour,dotcolour,25,0,25,625,training,negativefb,49,easy,61,0.483437800000047,['c'],1,left,['0'],6,0.08101879999958328,,,15,18,Man,Rechts,1,
,dotcolour,dotcolour,dotcolour,26,0,26,626,training,negativefb,80,hard,43,0.7842510000000402,['c'],1,left,['0'],6,0.11875510000027134,,,15,18,Man,Rechts,1,
,dotcolour,dotcolour,dotcolour,27,0,27,627,training,negativefb,58,easy,64,0.583706699999766,['c'],1,left,['0'],6,0.09085989999994126,,,15,18,Man,Rechts,1,
,dotcolour,dotcolour,dotcolour,28,0,28,628,training,negativefb,66,average,27,0.750695000000178,['n'],1,right,['0'],6,0.12985759999992297,,,15,18,Man,Rechts,1,
,dotcolour,dotcolour,dotcolour,29,0,29,629,training,negativefb,69,average,51,0.5334955999996964,['c'],1,left,['0'],6,0.15161510000007183,,,15,18,Man,Rechts,1,
,dotcolour,dotcolour,dotcolour,30,0,30,630,training,negativefb,41,hard,41,0.7502803999996104,['n'],0,left,['0'],6,0.3797397999996974,,,15,18,Man,Rechts,1,
,dotcolour,dotcolour,dotcolour,31,0,31,631,training,negativefb,64,hard,37,0.5844324999998207,['n'],1,right,['0'],6,0.2217092999999295,,,15,18,Man,Rechts,1,
,dotcolour,dotcolour,dotcolour,32,0,32,632,training,negativefb,44,easy,16,0.5662489999999707,['n'],1,right,['0'],6,0.14244339999959266,,,15,18,Man,Rechts,1,
,dotcolour,dotcolour,dotcolour,33,0,33,633,training,negativefb,68,easy,62,0.7344192000000476,['c'],1,left,['0'],6,0.1552999999998974,,,15,18,Man,Rechts,1,
,dotcolour,dotcolour,dotcolour,34,0,34,634,training,negativefb,85,average,27,0.7013152999998056,['n'],1,right,['0'],6,0.26515900000003967,,,15,18,Man,Rechts,1,
,dotcolour,dotcolour,dotcolour,35,0,35,635,training,negativefb,80,easy,19,0.8184892999997828,['n'],1,right,['0'],6,0.18256689999998343,,,15,18,Man,Rechts,1,
,dotcolour,dotcolour,dotcolour,36,0,36,636,training,negativefb,51,average,53,0.6493298000000323,['c'],1,left,['0'],6,0.14944439999999304,,,15,18,Man,Rechts,1,
,dotcolour,dotcolour,dotcolour,37,0,37,637,training,negativefb,33,average,54,0.566864799999621,['c'],1,left,['0'],6,0.19228999999995722,,,15,18,Man,Rechts,1,
,dotcolour,dotcolour,dotcolour,38,0,38,638,training,negativefb,55,hard,39,0.8504431000001205,['n'],1,right,['9'],5,0.24672479999981078,,,15,18,Man,Rechts,1,
,dotcolour,dotcolour,dotcolour,39,0,39,639,training,negativefb,8,hard,44,0.7841417999998157,['n'],0,left,['9'],5,0.5347514999998566,,,15,18,Man,Rechts,1,
,dotcolour,dotcolour,dotcolour,40,0,40,640,training,negativefb,62,hard,43,1.03382240000019,['c'],1,left,['9'],5,0.21589999999969223,,,15,18,Man,Rechts,1,
,dotcolour,dotcolour,dotcolour,41,0,41,641,training,negativefb,37,easy,18,0.8174103000001196,['n'],1,right,['9'],5,0.3344879999999648,,,15,18,Man,Rechts,1,
,dotcolour,dotcolour,dotcolour,42,0,42,642,training,negativefb,35,hard,35,1.1332406999999876,['c'],0,right,['9'],5,0.18802340000002005,,,15,18,Man,Rechts,1,
,dotcolour,dotcolour,dotcolour,43,0,43,643,training,negativefb,80,easy,18,0.5669233999997232,['n'],1,right,['0'],6,0.2054149000000507,,,15,18,Man,Rechts,1,
,dotcolour,dotcolour,dotcolour,44,0,44,644,training,negativefb,76,hard,43,1.0001697000002423,['c'],1,left,['9'],5,0.1655015999999705,,,15,18,Man,Rechts,1,
,dotcolour,dotcolour,dotcolour,45,0,45,645,training,negativefb,66,easy,61,0.900661200000286,['c'],1,left,['0'],6,0.2591555999997581,,,15,18,Man,Rechts,1,
