starttime,task,fbtask,firsttask,withinblocktrial,block,withintasktrial,trial,running,feedback,fbscore,difflevel,n_xes,rt,resp,cor,cresp,conf_press,cj,RTconf,reddots,post1,post2,post3,post4,post5,stoptime,sub,age,gender,handedness,session,
1715675565,xotask,xotask,dotcolour,0,0,0,0,training,negativefb,81,average,19,1.6336027000006652,['n'],1,right,['9'],5,0.9634618000000046,,,,,,,,25,18,Man,Rechts,2,
,xotask,xotask,dotcolour,1,0,1,1,training,negativefb,88,average,16,0.6495311999997284,['n'],1,right,['9'],5,0.20270739999978105,,,,,,,,25,18,Man,Rechts,2,
,xotask,xotask,dotcolour,2,0,2,2,training,negativefb,52,hard,28,0.4160670000001119,['n'],1,right,['9'],5,0.2653964000000997,,,,,,,,25,18,Man,Rechts,2,
,xotask,xotask,dotcolour,3,0,3,3,training,negativefb,79,hard,50,0.4664167000000816,['c'],1,left,['9'],5,0.3245110999996541,,,,,,,,25,18,Man,Rechts,2,
,xotask,xotask,dotcolour,4,0,4,4,training,negativefb,47,easy,8,0.4501424000000043,['n'],1,right,['9'],5,0.3336669999998776,,,,,,,,25,18,Man,Rechts,2,
,xotask,xotask,dotcolour,5,0,5,5,training,negativefb,84,easy,5,0.46666580000055546,['n'],1,right,['0'],6,0.34168080000017653,,,,,,,,25,18,Man,Rechts,2,
,xotask,xotask,dotcolour,6,0,6,6,training,negativefb,80,average,16,0.4492419999996855,['n'],1,right,['9'],5,0.29416159999982483,,,,,,,,25,18,Man,Rechts,2,
,xotask,xotask,dotcolour,7,0,7,7,training,negativefb,79,hard,52,0.9334914999999455,['c'],1,left,['8'],4,0.2543820000000778,,,,,,,,25,18,Man,Rechts,2,
,xotask,xotask,dotcolour,8,0,8,8,training,negativefb,15,average,16,0.41692930000044726,['n'],1,right,['9'],5,0.33055160000003525,,,,,,,,25,18,Man,Rechts,2,
,xotask,xotask,dotcolour,9,0,9,9,training,negativefb,82,easy,73,0.5834175999998479,['c'],1,left,['9'],5,0.2307307999999466,,,,,,,,25,18,Man,Rechts,2,
,xotask,xotask,dotcolour,10,0,10,10,training,negativefb,49,easy,8,0.4000629000001936,['n'],1,right,['9'],5,0.38966160000018135,,,,,,,,25,18,Man,Rechts,2,
,xotask,xotask,dotcolour,11,0,11,11,training,negativefb,92,average,62,0.6163028999999369,['c'],1,left,['0'],6,0.2941949999994904,,,,,,,,25,18,Man,Rechts,2,
,xotask,xotask,dotcolour,12,0,12,12,training,negativefb,40,easy,72,0.5832750999998098,['c'],1,left,['0'],6,0.25149299999975483,,,,,,,,25,18,Man,Rechts,2,
,xotask,xotask,dotcolour,13,0,13,13,training,negativefb,22,hard,51,0.532694000000447,['n'],0,left,['0'],6,0.25992740000037884,,,,,,,,25,18,Man,Rechts,2,
,xotask,xotask,dotcolour,14,0,14,14,training,negativefb,15,easy,6,0.5504153000001679,['n'],1,right,['9'],5,0.34035409999978583,,,,,,,,25,18,Man,Rechts,2,
,xotask,xotask,dotcolour,15,0,15,15,training,negativefb,85,easy,73,0.633557699999983,['c'],1,left,['9'],5,0.42087660000015603,,,,,,,,25,18,Man,Rechts,2,
,xotask,xotask,dotcolour,16,0,16,16,training,negativefb,31,average,18,0.4829021000005014,['n'],1,right,['0'],6,0.26521929999944405,,,,,,,,25,18,Man,Rechts,2,
,xotask,xotask,dotcolour,17,0,17,17,training,negativefb,69,average,62,1.083038900000247,['c'],1,left,['8'],4,0.3231586000001698,,,,,,,,25,18,Man,Rechts,2,
,xotask,xotask,dotcolour,18,0,18,18,training,negativefb,59,hard,27,0.4992051999997784,['n'],1,right,['9'],5,0.2589349999998376,,,,,,,,25,18,Man,Rechts,2,
,xotask,xotask,dotcolour,19,0,19,19,training,negativefb,73,easy,5,0.550952800000232,['n'],1,right,['9'],5,0.2901190000002316,,,,,,,,25,18,Man,Rechts,2,
,xotask,xotask,dotcolour,20,0,20,20,training,negativefb,57,easy,7,1.1673252000000502,['n'],1,right,['9'],5,0.18439929999931337,,,,,,,,25,18,Man,Rechts,2,
,xotask,xotask,dotcolour,21,0,21,21,training,negativefb,77,average,61,1.8507668000002013,['c'],1,left,['9'],5,0.21568029999980354,,,,,,,,25,18,Man,Rechts,2,
,xotask,xotask,dotcolour,22,0,22,22,training,negativefb,58,average,62,0.2669572999993761,['n'],0,left,['2'],2,0.3800827000004574,,,,,,,,25,18,Man,Rechts,2,
,xotask,xotask,dotcolour,23,0,23,23,training,negativefb,66,average,17,0.26610230000005686,['c'],0,right,['9'],5,0.21052609999969718,,,,,,,,25,18,Man,Rechts,2,
,xotask,xotask,dotcolour,24,0,24,24,training,negativefb,37,hard,50,0.18853699999999662,['n'],0,left,['9'],5,0.10620509999989736,,,,,,,,25,18,Man,Rechts,2,
,xotask,xotask,dotcolour,25,0,25,25,training,negativefb,4,average,61,0.5999486000000616,['n'],0,left,['1'],1,0.8142980000002353,,,,,,,,25,18,Man,Rechts,2,
,xotask,xotask,dotcolour,26,0,26,26,training,negativefb,43,hard,26,0.9007195000003776,['c'],0,right,['9'],5,0.20955789999970875,,,,,,,,25,18,Man,Rechts,2,
,xotask,xotask,dotcolour,27,0,27,27,training,negativefb,59,easy,74,0.584279400000014,['c'],1,left,['0'],6,0.21088109999982407,,,,,,,,25,18,Man,Rechts,2,
,xotask,xotask,dotcolour,28,0,28,28,training,negativefb,7,easy,73,0.650709900000038,['n'],0,left,['1'],1,0.9210672999997769,,,,,,,,25,18,Man,Rechts,2,
,xotask,xotask,dotcolour,29,0,29,29,training,negativefb,76,hard,29,0.7832042000000001,['n'],1,right,['9'],5,0.36528009999983624,,,,,,,,25,18,Man,Rechts,2,
,xotask,xotask,dotcolour,30,0,30,30,training,negativefb,68,hard,26,0.7174155000002429,['n'],1,right,['0'],6,0.3536474000002272,,,,,,,,25,18,Man,Rechts,2,
,xotask,xotask,dotcolour,31,0,31,31,training,negativefb,73,hard,51,0.6510207000001174,['c'],1,left,['9'],5,0.20102520000000368,,,,,,,,25,18,Man,Rechts,2,
,xotask,xotask,dotcolour,32,0,32,32,training,negativefb,74,hard,52,0.5340729999998075,['c'],1,left,['0'],6,0.2682635000001028,,,,,,,,25,18,Man,Rechts,2,
,xotask,xotask,dotcolour,33,0,33,33,training,negativefb,53,easy,7,0.8656755000001795,['n'],1,right,['9'],5,0.21473750000041036,,,,,,,,25,18,Man,Rechts,2,
,xotask,xotask,dotcolour,34,0,34,34,training,negativefb,37,average,64,0.48383949999970355,['c'],1,left,['9'],5,0.17868379999981698,,,,,,,,25,18,Man,Rechts,2,
,xotask,xotask,dotcolour,35,0,35,35,training,negativefb,80,average,16,0.5170111999996152,['n'],1,right,['9'],5,0.2469569999993837,,,,,,,,25,18,Man,Rechts,2,
,xotask,xotask,dotcolour,36,0,36,36,training,negativefb,45,average,63,0.5680293999994319,['c'],1,left,['9'],5,0.2637439000000086,,,,,,,,25,18,Man,Rechts,2,
,xotask,xotask,dotcolour,37,0,37,37,training,negativefb,93,hard,53,0.6006850000003396,['c'],1,left,['9'],5,0.1739293999999063,,,,,,,,25,18,Man,Rechts,2,
,xotask,xotask,dotcolour,38,0,38,38,training,negativefb,84,average,16,0.5669813000004069,['n'],1,right,['9'],5,0.16801269999996293,,,,,,,,25,18,Man,Rechts,2,
,xotask,xotask,dotcolour,39,0,39,39,training,negativefb,24,hard,53,0.4166736999995919,['c'],1,left,['9'],5,0.17715839999982563,,,,,,,,25,18,Man,Rechts,2,
,xotask,xotask,dotcolour,40,0,40,40,training,negativefb,63,hard,27,0.6178399000000354,['c'],0,right,['9'],5,0.2737254000003304,,,,,,,,25,18,Man,Rechts,2,
,xotask,xotask,dotcolour,41,0,41,41,training,negativefb,88,easy,5,0.39966370000001916,['n'],1,right,['9'],5,0.23090460000003077,,,,,,,,25,18,Man,Rechts,2,
,xotask,xotask,dotcolour,42,0,42,42,training,negativefb,61,hard,27,0.582803999999669,['c'],0,right,['1'],1,0.7818683000004967,,,,,,,,25,18,Man,Rechts,2,
,xotask,xotask,dotcolour,43,0,43,43,training,negativefb,41,average,62,0.4831248999998934,['c'],1,left,['9'],5,0.195675900000424,,,,,,,,25,18,Man,Rechts,2,
,xotask,xotask,dotcolour,44,0,44,44,training,negativefb,70,easy,73,0.4664799000001949,['c'],1,left,['0'],6,0.16180900000017573,,,,,,,,25,18,Man,Rechts,2,
,xotask,xotask,dotcolour,45,0,45,45,training,negativefb,48,average,61,0.6010373999997682,['c'],1,left,['0'],6,0.1715405999993891,,,,,,,,25,18,Man,Rechts,2,
,xotask,xotask,dotcolour,46,0,46,46,training,negativefb,91,easy,7,0.5158025000000634,['n'],1,right,['9'],5,0.3203822000004948,,,,,,,,25,18,Man,Rechts,2,
,xotask,xotask,dotcolour,47,0,47,47,training,negativefb,70,easy,8,0.5345446999999695,['n'],1,right,['0'],6,0.23863000000073953,,,,,,,,25,18,Man,Rechts,2,
,xotask,xotask,dotcolour,48,0,48,48,training,negativefb,47,hard,54,0.5833252000002176,['c'],1,left,['9'],5,0.26169129999925644,,,,,,,,25,18,Man,Rechts,2,
,xotask,xotask,dotcolour,49,0,49,49,training,negativefb,29,hard,29,0.4835006000002977,['c'],0,right,['9'],5,0.2161602000005587,,,,,,,,25,18,Man,Rechts,2,
,xotask,xotask,dotcolour,50,0,50,50,training,negativefb,86,average,19,0.6494001000000935,['n'],1,right,['0'],6,0.14938160000019707,,,,,,,,25,18,Man,Rechts,2,
,xotask,xotask,dotcolour,51,0,51,51,training,negativefb,34,easy,70,0.5660881000003428,['c'],1,left,['0'],6,0.20076679999965563,,,,,,,,25,18,Man,Rechts,2,
,xotask,xotask,dotcolour,52,0,52,52,training,negativefb,56,hard,52,0.5506752999999662,['n'],0,left,['9'],5,0.3232330999999249,,,,,,,,25,18,Man,Rechts,2,
,xotask,xotask,dotcolour,53,0,53,53,training,negativefb,54,hard,25,0.2159620000002178,['c'],0,right,['9'],5,0.061491299999943294,,,,,,,,25,18,Man,Rechts,2,
,xotask,xotask,dotcolour,54,0,54,54,training,negativefb,60,average,63,0.33428340000045864,['n'],0,left,['9'],5,0.35046760000022914,,,,,,,,25,18,Man,Rechts,2,
,xotask,xotask,dotcolour,55,0,55,55,training,negativefb,58,easy,72,0.3513615999991089,['c'],1,left,['9'],5,0.30576469999959954,,,,,,,,25,18,Man,Rechts,2,
,xotask,xotask,dotcolour,56,0,56,56,training,negativefb,92,easy,72,0.5505304999996952,['c'],1,left,['9'],5,0.20769790000031207,,,,,,,,25,18,Man,Rechts,2,
,xotask,xotask,dotcolour,57,0,57,57,training,negativefb,83,easy,71,0.4337372999998479,['c'],1,left,['9'],5,0.20660010000028706,,,,,,,,25,18,Man,Rechts,2,
,xotask,xotask,dotcolour,58,0,58,58,training,negativefb,75,hard,26,0.566184099999191,['n'],1,right,['9'],5,0.1279380999994828,,,,,,,,25,18,Man,Rechts,2,
,xotask,xotask,dotcolour,59,0,59,59,training,negativefb,84,average,17,0.49978939999982686,['c'],0,right,['9'],5,0.3037500000000364,,,,,,,,25,18,Man,Rechts,2,
,xotask,xotask,dotcolour,0,1,60,60,training,negativefb,75,average,19,0.667833000000428,['c'],0,right,['9'],5,0.1366264999996929,,,,,,,,25,18,Man,Rechts,2,
,xotask,xotask,dotcolour,1,1,61,61,training,negativefb,45,average,16,0.3830877000000328,['n'],1,right,['9'],5,0.30857229999946867,,,,,,,,25,18,Man,Rechts,2,
,xotask,xotask,dotcolour,2,1,62,62,training,negativefb,97,easy,72,0.3832287000004726,['c'],1,left,['9'],5,0.24902209999982006,,,,,,,,25,18,Man,Rechts,2,
,xotask,xotask,dotcolour,3,1,63,63,training,negativefb,66,easy,72,0.7016481999999087,['c'],1,left,['9'],5,0.3708518000003096,,,,,,,,25,18,Man,Rechts,2,
,xotask,xotask,dotcolour,4,1,64,64,training,negativefb,50,hard,29,0.6328053000006548,['c'],0,right,['9'],5,0.32254920000013954,,,,,,,,25,18,Man,Rechts,2,
,xotask,xotask,dotcolour,5,1,65,65,training,negativefb,11,average,19,0.5492855999991662,['c'],0,right,['9'],5,0.36803429999963555,,,,,,,,25,18,Man,Rechts,2,
,xotask,xotask,dotcolour,6,1,66,66,training,negativefb,85,average,61,0.566330999999991,['c'],1,left,['0'],6,0.24322589999974298,,,,,,,,25,18,Man,Rechts,2,
,xotask,xotask,dotcolour,7,1,67,67,training,negativefb,50,hard,51,0.5339769000001979,['c'],1,left,['0'],6,0.3561988999999812,,,,,,,,25,18,Man,Rechts,2,
,xotask,xotask,dotcolour,8,1,68,68,training,negativefb,81,easy,70,0.48443369999949937,['c'],1,left,['9'],5,0.2991329999995287,,,,,,,,25,18,Man,Rechts,2,
,xotask,xotask,dotcolour,9,1,69,69,training,negativefb,73,easy,6,0.5007117000004655,['n'],1,right,['0'],6,0.25904699999955483,,,,,,,,25,18,Man,Rechts,2,
,xotask,xotask,dotcolour,10,1,70,70,training,negativefb,20,hard,25,0.4658125999994809,['n'],1,right,['9'],5,0.261944300000323,,,,,,,,25,18,Man,Rechts,2,
,xotask,xotask,dotcolour,11,1,71,71,training,negativefb,73,average,63,0.39976800000022195,['c'],1,left,['9'],5,0.18000969999957306,,,,,,,,25,18,Man,Rechts,2,
,xotask,xotask,dotcolour,12,1,72,72,training,negativefb,63,easy,70,0.5993419000005815,['c'],1,left,['9'],5,0.28556160000061936,,,,,,,,25,18,Man,Rechts,2,
,xotask,xotask,dotcolour,13,1,73,73,training,negativefb,96,easy,72,0.4490069000003132,['c'],1,left,['0'],6,0.31244000000060623,,,,,,,,25,18,Man,Rechts,2,
,xotask,xotask,dotcolour,14,1,74,74,training,negativefb,42,easy,7,0.4839806999998473,['n'],1,right,['9'],5,0.2171321000005264,,,,,,,,25,18,Man,Rechts,2,
,xotask,xotask,dotcolour,15,1,75,75,training,negativefb,47,easy,9,0.6001037000005454,['n'],1,right,['9'],5,0.19191250000039872,,,,,,,,25,18,Man,Rechts,2,
,xotask,xotask,dotcolour,16,1,76,76,training,negativefb,45,average,19,0.4658540999998877,['n'],1,right,['0'],6,0.1903664999999819,,,,,,,,25,18,Man,Rechts,2,
,xotask,xotask,dotcolour,17,1,77,77,training,negativefb,30,hard,27,0.400006900000335,['c'],0,right,['0'],6,0.3111938000001828,,,,,,,,25,18,Man,Rechts,2,
,xotask,xotask,dotcolour,18,1,78,78,training,negativefb,58,easy,5,0.5833950999995068,['n'],1,right,['0'],6,0.10768780000034894,,,,,,,,25,18,Man,Rechts,2,
,xotask,xotask,dotcolour,19,1,79,79,training,negativefb,82,easy,71,0.4167722000001959,['c'],1,left,['0'],6,0.23919910000040545,,,,,,,,25,18,Man,Rechts,2,
,xotask,xotask,dotcolour,20,1,80,80,training,negativefb,44,easy,73,0.5830801000001884,['c'],1,left,['0'],6,0.22243239999988873,,,,,,,,25,18,Man,Rechts,2,
,xotask,xotask,dotcolour,21,1,81,81,training,negativefb,96,average,63,0.5828173999998398,['c'],1,left,['0'],6,0.2785863999997673,,,,,,,,25,18,Man,Rechts,2,
,xotask,xotask,dotcolour,22,1,82,82,training,negativefb,85,easy,5,0.3998352000007799,['n'],1,right,['0'],6,0.17192919999979495,,,,,,,,25,18,Man,Rechts,2,
,xotask,xotask,dotcolour,23,1,83,83,training,negativefb,72,average,64,0.4161097999995036,['c'],1,left,['0'],6,0.10842060000049969,,,,,,,,25,18,Man,Rechts,2,
,xotask,xotask,dotcolour,24,1,84,84,training,negativefb,42,easy,71,0.46701300000040646,['c'],1,left,['0'],6,0.06190650000007736,,,,,,,,25,18,Man,Rechts,2,
,xotask,xotask,dotcolour,25,1,85,85,training,negativefb,44,hard,25,0.45014009999977134,['c'],0,right,['0'],6,0.20189480000044568,,,,,,,,25,18,Man,Rechts,2,
,xotask,xotask,dotcolour,26,1,86,86,training,negativefb,58,average,63,0.4996849999997721,['c'],1,left,['0'],6,0.10152370000014344,,,,,,,,25,18,Man,Rechts,2,
,xotask,xotask,dotcolour,27,1,87,87,training,negativefb,35,average,17,0.2832361000000674,['c'],0,right,['9'],5,0.1026198999998087,,,,,,,,25,18,Man,Rechts,2,
,xotask,xotask,dotcolour,28,1,88,88,training,negativefb,75,easy,74,0.51648380000006,['c'],1,left,['9'],5,0.11787989999993442,,,,,,,,25,18,Man,Rechts,2,
,xotask,xotask,dotcolour,29,1,89,89,training,negativefb,29,average,63,0.4843096999993577,['c'],1,left,['9'],5,0.25395469999966735,,,,,,,,25,18,Man,Rechts,2,
,xotask,xotask,dotcolour,30,1,90,90,training,negativefb,63,hard,27,0.4176960999993753,['c'],0,right,['9'],5,0.31516849999934493,,,,,,,,25,18,Man,Rechts,2,
,xotask,xotask,dotcolour,31,1,91,91,training,negativefb,67,hard,53,0.13610459999927116,['n'],0,left,['0'],6,0.10300019999976939,,,,,,,,25,18,Man,Rechts,2,
,xotask,xotask,dotcolour,32,1,92,92,training,negativefb,86,hard,54,0.5330240000002959,['c'],1,left,['9'],5,0.19719590000022436,,,,,,,,25,18,Man,Rechts,2,
,xotask,xotask,dotcolour,33,1,93,93,training,negativefb,82,hard,26,0.7171803000001091,['c'],0,right,['9'],5,0.2894382999993468,,,,,,,,25,18,Man,Rechts,2,
,xotask,xotask,dotcolour,34,1,94,94,training,negativefb,59,hard,53,3.5172370999998748,['n'],0,left,['9'],5,0.22522269999990385,,,,,,,,25,18,Man,Rechts,2,
,xotask,xotask,dotcolour,35,1,95,95,training,negativefb,75,average,18,0.7000883999999132,['n'],1,right,['0'],6,0.14073840000037308,,,,,,,,25,18,Man,Rechts,2,
,xotask,xotask,dotcolour,36,1,96,96,training,negativefb,72,average,16,0.5833397999995213,['n'],1,right,['9'],5,0.11941509999996924,,,,,,,,25,18,Man,Rechts,2,
,xotask,xotask,dotcolour,37,1,97,97,training,negativefb,47,average,18,0.33341659999950934,['n'],1,right,['0'],6,0.25363540000034845,,,,,,,,25,18,Man,Rechts,2,
,xotask,xotask,dotcolour,38,1,98,98,training,negativefb,65,hard,52,0.33260169999994105,['n'],0,left,['9'],5,0.25504739999996673,,,,,,,,25,18,Man,Rechts,2,
,xotask,xotask,dotcolour,39,1,99,99,training,negativefb,76,hard,29,0.6003579999996873,['n'],1,right,['9'],5,0.1240509999997812,,,,,,,,25,18,Man,Rechts,2,
,xotask,xotask,dotcolour,40,1,100,100,training,negativefb,53,easy,70,0.43330599999990227,['c'],1,left,['9'],5,0.2066818000002968,,,,,,,,25,18,Man,Rechts,2,
,xotask,xotask,dotcolour,41,1,101,101,training,negativefb,39,hard,28,0.5173088000001371,['c'],0,right,['9'],5,0.11324280000008002,,,,,,,,25,18,Man,Rechts,2,
,xotask,xotask,dotcolour,42,1,102,102,training,negativefb,60,average,19,0.46665000000029977,['n'],1,right,['9'],5,0.16338660000019445,,,,,,,,25,18,Man,Rechts,2,
,xotask,xotask,dotcolour,43,1,103,103,training,negativefb,65,average,61,0.45022250000056374,['c'],1,left,['9'],5,0.13112600000022212,,,,,,,,25,18,Man,Rechts,2,
,xotask,xotask,dotcolour,44,1,104,104,training,negativefb,55,average,64,0.45151110000006156,['c'],1,left,['0'],6,0.14764590000049793,,,,,,,,25,18,Man,Rechts,2,
,xotask,xotask,dotcolour,45,1,105,105,training,negativefb,39,hard,53,0.7339451999996527,['n'],0,left,['9'],5,0.08869359999971493,,,,,,,,25,18,Man,Rechts,2,
,xotask,xotask,dotcolour,46,1,106,106,training,negativefb,47,hard,50,0.5500396999996156,['c'],1,left,['9'],5,0.08695450000050187,,,,,,,,25,18,Man,Rechts,2,
,xotask,xotask,dotcolour,47,1,107,107,training,negativefb,75,easy,7,0.43387540000003355,['n'],1,right,['9'],5,0.15479259999938222,,,,,,,,25,18,Man,Rechts,2,
,xotask,xotask,dotcolour,48,1,108,108,training,negativefb,34,hard,25,0.5333903999999166,['n'],1,right,['9'],5,0.1115005999999994,,,,,,,,25,18,Man,Rechts,2,
,xotask,xotask,dotcolour,49,1,109,109,training,negativefb,66,easy,8,0.5332511999995404,['n'],1,right,['9'],5,0.09345799999937299,,,,,,,,25,18,Man,Rechts,2,
,xotask,xotask,dotcolour,50,1,110,110,training,negativefb,38,average,16,0.5842021999997087,['n'],1,right,['9'],5,0.48299690000021656,,,,,,,,25,18,Man,Rechts,2,
,xotask,xotask,dotcolour,51,1,111,111,training,negativefb,60,hard,51,0.6325563999998849,['c'],1,left,['9'],5,0.11838100000022678,,,,,,,,25,18,Man,Rechts,2,
,xotask,xotask,dotcolour,52,1,112,112,training,negativefb,34,hard,50,0.5322562999999718,['n'],0,left,['9'],5,0.44497129999945173,,,,,,,,25,18,Man,Rechts,2,
,xotask,xotask,dotcolour,53,1,113,113,training,negativefb,10,average,64,0.44994930000029854,['n'],0,left,['1'],1,0.6337597000001551,,,,,,,,25,18,Man,Rechts,2,
,xotask,xotask,dotcolour,54,1,114,114,training,negativefb,67,average,60,0.48359569999956875,['c'],1,left,['9'],5,0.1405574999998862,,,,,,,,25,18,Man,Rechts,2,
,xotask,xotask,dotcolour,55,1,115,115,training,negativefb,57,hard,28,0.5494078000001537,['c'],0,right,['9'],5,0.17718590000004042,,,,,,,,25,18,Man,Rechts,2,
,xotask,xotask,dotcolour,56,1,116,116,training,negativefb,73,easy,8,0.2335789000007935,['n'],1,right,['0'],6,0.03327579999950103,,,,,,,,25,18,Man,Rechts,2,
,xotask,xotask,dotcolour,57,1,117,117,training,negativefb,47,hard,51,0.48416069999984757,['c'],1,left,['0'],6,0.100980599999275,,,,,,,,25,18,Man,Rechts,2,
,xotask,xotask,dotcolour,58,1,118,118,training,negativefb,32,easy,6,0.3002492000005077,['c'],0,right,['9'],5,0.0845921999998609,,,,,,,,25,18,Man,Rechts,2,
,xotask,xotask,dotcolour,59,1,119,119,training,negativefb,74,easy,6,0.4838270999998713,['n'],1,right,['9'],5,0.09385519999977987,,,,,,,,25,18,Man,Rechts,2,
,dotcolour,xotask,dotcolour,0,2,120,120,main,negativefb,-99,easy,,1.0338713000001007,['c'],1,left,['9'],5,0.5287230999992971,64,,,,,,,25,18,Man,Rechts,2,
,dotcolour,xotask,dotcolour,1,2,121,121,main,negativefb,-99,average,,0.45118689999981143,['n'],1,right,['9'],5,0.1226611000001867,27,,,,,,,25,18,Man,Rechts,2,
,dotcolour,xotask,dotcolour,2,2,122,122,main,negativefb,-99,easy,,0.43398639999941224,['c'],1,left,['9'],5,0.09339409999938653,61,,,,,,,25,18,Man,Rechts,2,
,dotcolour,xotask,dotcolour,3,2,123,123,main,negativefb,-99,hard,,0.8672719999995024,['n'],1,right,['9'],5,0.11204639999959909,37,,,,,,,25,18,Man,Rechts,2,
,dotcolour,xotask,dotcolour,4,2,124,124,main,negativefb,-99,hard,,1.3499755000002551,['n'],1,right,['8'],4,0.07878559999971912,37,,,,,,,25,18,Man,Rechts,2,
,dotcolour,xotask,dotcolour,5,2,125,125,main,negativefb,-99,easy,,0.6510586000003968,['n'],1,right,['0'],6,0.2110324999994191,16,,,,,,,25,18,Man,Rechts,2,
,dotcolour,xotask,dotcolour,6,2,126,126,main,negativefb,-99,average,,0.7173107999997228,['c'],0,right,['9'],5,0.3185230999997657,29,,,,,,,25,18,Man,Rechts,2,
,dotcolour,xotask,dotcolour,7,2,127,127,main,negativefb,-99,hard,,0.6507486000000426,['c'],0,right,['9'],5,0.13659629999983736,38,,,,,,,25,18,Man,Rechts,2,
,dotcolour,xotask,dotcolour,8,2,128,128,main,negativefb,-99,average,,0.6337587999996686,['c'],1,left,['0'],6,0.12275920000047336,51,,,,,,,25,18,Man,Rechts,2,
,dotcolour,xotask,dotcolour,9,2,129,129,main,negativefb,-99,average,,0.5672701000003144,['n'],1,right,['8'],4,0.08745459999954619,25,,,,,,,25,18,Man,Rechts,2,
,dotcolour,xotask,dotcolour,10,2,130,130,main,negativefb,-99,hard,,0.6003906000005372,['c'],1,left,['0'],6,0.1338224999999511,45,,,,,,,25,18,Man,Rechts,2,
,dotcolour,xotask,dotcolour,11,2,131,131,main,negativefb,-99,hard,,0.601226200000383,['c'],1,left,['9'],5,0.1769084000006842,41,,,,,,,25,18,Man,Rechts,2,
,dotcolour,xotask,dotcolour,12,2,132,132,main,negativefb,-99,average,,0.7179097000007459,['c'],1,left,['8'],4,0.14172469999994064,52,,,,,,,25,18,Man,Rechts,2,
,dotcolour,xotask,dotcolour,13,2,133,133,main,negativefb,-99,easy,,0.48393080000005284,['n'],1,right,['8'],4,0.11773410000023432,19,,,,,,,25,18,Man,Rechts,2,
,dotcolour,xotask,dotcolour,14,2,134,134,main,negativefb,-99,hard,,0.9018115999997462,['c'],1,left,['9'],5,0.17392699999982142,45,,,,,,,25,18,Man,Rechts,2,
,dotcolour,xotask,dotcolour,15,2,135,135,main,negativefb,-99,easy,,0.6173055999997814,['c'],1,left,['0'],6,0.21549450000020443,63,,,,,,,25,18,Man,Rechts,2,
,dotcolour,xotask,dotcolour,16,2,136,136,main,negativefb,-99,average,,0.6017816000003222,['c'],1,left,['9'],5,0.2245108999995864,51,,,,,,,25,18,Man,Rechts,2,
,dotcolour,xotask,dotcolour,17,2,137,137,main,negativefb,-99,easy,,0.5836155999995754,['c'],1,left,['9'],5,0.18459210000037274,61,,,,,,,25,18,Man,Rechts,2,
,dotcolour,xotask,dotcolour,18,2,138,138,main,negativefb,-99,easy,,0.5679890000001251,['n'],1,right,['9'],5,0.21920370000043476,19,,,,,,,25,18,Man,Rechts,2,
,dotcolour,xotask,dotcolour,19,2,139,139,main,negativefb,-99,hard,,0.9345318000005136,['c'],0,right,['9'],5,0.2702563000002556,37,,,,,,,25,18,Man,Rechts,2,
,dotcolour,xotask,dotcolour,20,2,140,140,main,negativefb,-99,hard,,0.6674560999999812,['n'],1,right,['9'],5,0.23335919999954058,36,,,,,,,25,18,Man,Rechts,2,
,dotcolour,xotask,dotcolour,21,2,141,141,main,negativefb,-99,average,,0.5673833000000741,['c'],1,left,['9'],5,0.27358170000024984,51,,,,,,,25,18,Man,Rechts,2,
,dotcolour,xotask,dotcolour,22,2,142,142,main,negativefb,-99,easy,,0.5842142999999851,['c'],1,left,['9'],5,0.17644299999938085,64,,,,,,,25,18,Man,Rechts,2,
,dotcolour,xotask,dotcolour,23,2,143,143,main,negativefb,-99,hard,,0.5664260999992621,['n'],1,right,['9'],5,0.2356179999997039,35,,,,,,,25,18,Man,Rechts,2,
,dotcolour,xotask,dotcolour,24,2,144,144,main,negativefb,-99,hard,,0.63483400000041,['c'],1,left,['9'],5,0.27313320000030217,42,,,,,,,25,18,Man,Rechts,2,
,dotcolour,xotask,dotcolour,25,2,145,145,main,negativefb,-99,easy,,0.45077670000046055,['n'],1,right,['0'],6,0.309403299999758,17,,,,,,,25,18,Man,Rechts,2,
,dotcolour,xotask,dotcolour,26,2,146,146,main,negativefb,-99,hard,,0.8354145000002973,['c'],0,right,['9'],5,0.28151170000001,39,,,,,,,25,18,Man,Rechts,2,
,dotcolour,xotask,dotcolour,27,2,147,147,main,negativefb,-99,hard,,0.7010110999999597,['n'],1,right,['9'],5,0.3140891000002739,38,,,,,,,25,18,Man,Rechts,2,
,dotcolour,xotask,dotcolour,28,2,148,148,main,negativefb,-99,easy,,0.6839669999999387,['n'],1,right,['0'],6,0.35486130000026606,19,,,,,,,25,18,Man,Rechts,2,
,dotcolour,xotask,dotcolour,29,2,149,149,main,negativefb,-99,hard,,0.617720699999154,['c'],1,left,['9'],5,0.2445490999998583,44,,,,,,,25,18,Man,Rechts,2,
,dotcolour,xotask,dotcolour,30,2,150,150,main,negativefb,-99,hard,,0.7343545999992784,['n'],0,left,['9'],5,0.2786017999997057,41,,,,,,,25,18,Man,Rechts,2,
,dotcolour,xotask,dotcolour,31,2,151,151,main,negativefb,-99,easy,,0.684874900000068,['n'],1,right,['9'],5,0.23369950000051176,15,,,,,,,25,18,Man,Rechts,2,
,dotcolour,xotask,dotcolour,32,2,152,152,main,negativefb,-99,average,,0.5172694000002593,['n'],1,right,['9'],5,0.21254769999995915,28,,,,,,,25,18,Man,Rechts,2,
,dotcolour,xotask,dotcolour,33,2,153,153,main,negativefb,-99,average,,0.5504369999998744,['c'],1,left,['9'],5,0.19915189999937866,51,,,,,,,25,18,Man,Rechts,2,
,dotcolour,xotask,dotcolour,34,2,154,154,main,negativefb,-99,average,,0.833989599999768,['c'],1,left,['9'],5,0.262039499999446,55,,,,,,,25,18,Man,Rechts,2,
,dotcolour,xotask,dotcolour,35,2,155,155,main,negativefb,-99,hard,,0.8513799000002109,['n'],1,right,['9'],5,0.1950615999994625,35,,,,,,,25,18,Man,Rechts,2,
,dotcolour,xotask,dotcolour,36,2,156,156,main,negativefb,-99,easy,,0.633737299999666,['c'],1,left,['9'],5,0.12297790000047826,62,,,,,,,25,18,Man,Rechts,2,
,dotcolour,xotask,dotcolour,37,2,157,157,main,negativefb,-99,easy,,0.5495171000002301,['n'],1,right,['0'],6,0.18505689999983588,16,,,,,,,25,18,Man,Rechts,2,
,dotcolour,xotask,dotcolour,38,2,158,158,main,negativefb,-99,hard,,0.933959799999684,['c'],1,left,['9'],5,0.15724669999963226,41,,,,,,,25,18,Man,Rechts,2,
,dotcolour,xotask,dotcolour,39,2,159,159,main,negativefb,-99,average,,0.5340196999995896,['c'],1,left,['9'],5,0.18623589999970136,51,,,,,,,25,18,Man,Rechts,2,
,dotcolour,xotask,dotcolour,40,2,160,160,main,negativefb,-99,easy,,0.5336983999995937,['n'],1,right,['0'],6,0.22242349999942235,16,,,,,,,25,18,Man,Rechts,2,
,dotcolour,xotask,dotcolour,41,2,161,161,main,negativefb,-99,hard,,0.9018120999999155,['n'],1,right,['8'],4,0.2259820999997828,37,,,,,,,25,18,Man,Rechts,2,
,dotcolour,xotask,dotcolour,42,2,162,162,main,negativefb,-99,average,,0.5671161000000211,['n'],1,right,['0'],6,0.19512940000004164,26,,,,,,,25,18,Man,Rechts,2,
,dotcolour,xotask,dotcolour,43,2,163,163,main,negativefb,-99,average,,0.5180020999996486,['n'],1,right,['0'],6,0.15174620000016148,25,,,,,,,25,18,Man,Rechts,2,
,dotcolour,xotask,dotcolour,44,2,164,164,main,negativefb,-99,average,,0.5335543000001053,['n'],1,right,['0'],6,0.27011210000000574,25,,,,,,,25,18,Man,Rechts,2,
,dotcolour,xotask,dotcolour,45,2,165,165,main,negativefb,-99,average,,0.6338773999996192,['c'],1,left,['8'],4,0.562463299999763,55,,,,,,,25,18,Man,Rechts,2,
,dotcolour,xotask,dotcolour,46,2,166,166,main,negativefb,-99,average,,0.6184316999997463,['c'],1,left,['0'],6,0.16391859999930602,54,,,,,,,25,18,Man,Rechts,2,
,dotcolour,xotask,dotcolour,47,2,167,167,main,negativefb,-99,average,,0.599946600000294,['n'],1,right,['0'],6,0.14276580000023387,27,,,,,,,25,18,Man,Rechts,2,
,dotcolour,xotask,dotcolour,48,2,168,168,main,negativefb,-99,hard,,0.6839840000002368,['c'],1,left,['8'],4,0.19845879999957106,41,,,,,,,25,18,Man,Rechts,2,
,dotcolour,xotask,dotcolour,49,2,169,169,main,negativefb,-99,average,,0.634023999999954,['n'],1,right,['9'],5,0.20528199999989738,27,,,,,,,25,18,Man,Rechts,2,
,dotcolour,xotask,dotcolour,50,2,170,170,main,negativefb,-99,easy,,0.5341692000001785,['n'],1,right,['0'],6,0.18499580000025162,18,,,,,,,25,18,Man,Rechts,2,
,dotcolour,xotask,dotcolour,51,2,171,171,main,negativefb,-99,easy,,0.4994479999995747,['n'],1,right,['0'],6,0.24613339999996242,19,,,,,,,25,18,Man,Rechts,2,
,dotcolour,xotask,dotcolour,52,2,172,172,main,negativefb,-99,average,,0.535151400000359,['n'],1,right,['0'],6,0.31254230000013195,28,,,,,,,25,18,Man,Rechts,2,
,dotcolour,xotask,dotcolour,53,2,173,173,main,negativefb,-99,easy,,0.5853490000008605,['c'],1,left,['9'],5,0.26977739999983896,62,,,,,,,25,18,Man,Rechts,2,
,dotcolour,xotask,dotcolour,54,2,174,174,main,negativefb,-99,hard,,0.5838875999997981,['n'],0,left,['9'],5,0.48461070000030304,42,,,,,,,25,18,Man,Rechts,2,
,dotcolour,xotask,dotcolour,55,2,175,175,main,negativefb,-99,easy,,0.6338409999998476,['c'],1,left,['0'],6,0.2010128000001714,62,,,,,,,25,18,Man,Rechts,2,
,dotcolour,xotask,dotcolour,56,2,176,176,main,negativefb,-99,hard,,1.2675544000003356,['c'],1,left,['8'],4,0.23847980000027746,41,,,,,,,25,18,Man,Rechts,2,
,dotcolour,xotask,dotcolour,57,2,177,177,main,negativefb,-99,easy,,1.0341450999994777,['c'],1,left,['9'],5,0.26848880000034114,62,,,,,,,25,18,Man,Rechts,2,
,dotcolour,xotask,dotcolour,58,2,178,178,main,negativefb,-99,easy,,0.6164562999992995,['c'],1,left,['0'],6,0.26557859999957145,65,,,,,,,25,18,Man,Rechts,2,
,dotcolour,xotask,dotcolour,59,2,179,179,main,negativefb,-99,average,,0.6673859000002267,['c'],1,left,['9'],5,0.22914070000024367,51,,,,,,,25,18,Man,Rechts,2,
,dotcolour,xotask,dotcolour,0,3,180,180,main,negativefb,-99,average,,0.5856008000000656,['c'],1,left,['0'],6,0.20919410000078642,55,,,,,,,25,18,Man,Rechts,2,
,dotcolour,xotask,dotcolour,1,3,181,181,main,negativefb,-99,average,,0.4852784000004249,['n'],1,right,['9'],5,0.18216140000004089,28,,,,,,,25,18,Man,Rechts,2,
,dotcolour,xotask,dotcolour,2,3,182,182,main,negativefb,-99,average,,0.5342682000000423,['c'],1,left,['0'],6,0.20273049999923387,53,,,,,,,25,18,Man,Rechts,2,
,dotcolour,xotask,dotcolour,3,3,183,183,main,negativefb,-99,hard,,0.8172358000001623,['n'],1,right,['9'],5,0.1465342999999848,38,,,,,,,25,18,Man,Rechts,2,
,dotcolour,xotask,dotcolour,4,3,184,184,main,negativefb,-99,easy,,0.517059199999494,['n'],1,right,['9'],5,0.2009515999998257,17,,,,,,,25,18,Man,Rechts,2,
,dotcolour,xotask,dotcolour,5,3,185,185,main,negativefb,-99,hard,,0.7829646999998658,['c'],0,right,['9'],5,0.12281830000029004,37,,,,,,,25,18,Man,Rechts,2,
,dotcolour,xotask,dotcolour,6,3,186,186,main,negativefb,-99,easy,,0.6341149999998379,['c'],1,left,['9'],5,0.1813191999999617,64,,,,,,,25,18,Man,Rechts,2,
,dotcolour,xotask,dotcolour,7,3,187,187,main,negativefb,-99,hard,,0.8168218999999226,['n'],0,left,['9'],5,0.2297019999996337,45,,,,,,,25,18,Man,Rechts,2,
,dotcolour,xotask,dotcolour,8,3,188,188,main,negativefb,-99,hard,,0.8837582000005568,['c'],0,right,['9'],5,0.19443820000014966,35,,,,,,,25,18,Man,Rechts,2,
,dotcolour,xotask,dotcolour,9,3,189,189,main,negativefb,-99,hard,,1.1177570999998352,['c'],0,right,['8'],4,0.30363689999921917,39,,,,,,,25,18,Man,Rechts,2,
,dotcolour,xotask,dotcolour,10,3,190,190,main,negativefb,-99,hard,,0.933810700000322,['n'],0,left,['8'],4,0.23022280000077444,41,,,,,,,25,18,Man,Rechts,2,
,dotcolour,xotask,dotcolour,11,3,191,191,main,negativefb,-99,easy,,0.6674354000006133,['c'],1,left,['0'],6,0.16327649999948335,64,,,,,,,25,18,Man,Rechts,2,
,dotcolour,xotask,dotcolour,12,3,192,192,main,negativefb,-99,average,,0.5676399000003585,['n'],1,right,['0'],6,0.16794870000012452,29,,,,,,,25,18,Man,Rechts,2,
,dotcolour,xotask,dotcolour,13,3,193,193,main,negativefb,-99,hard,,0.6839288000001034,['c'],1,left,['8'],4,0.23842749999948865,42,,,,,,,25,18,Man,Rechts,2,
,dotcolour,xotask,dotcolour,14,3,194,194,main,negativefb,-99,hard,,1.5189004999992903,['n'],0,left,['9'],5,0.153189000000566,41,,,,,,,25,18,Man,Rechts,2,
,dotcolour,xotask,dotcolour,15,3,195,195,main,negativefb,-99,average,,0.6344193999993877,['c'],1,left,['0'],6,0.13048439999965922,53,,,,,,,25,18,Man,Rechts,2,
,dotcolour,xotask,dotcolour,16,3,196,196,main,negativefb,-99,easy,,0.5508429000001343,['c'],1,left,['0'],6,0.2243902000000162,64,,,,,,,25,18,Man,Rechts,2,
,dotcolour,xotask,dotcolour,17,3,197,197,main,negativefb,-99,hard,,0.6673224000005575,['n'],1,right,['8'],4,0.2216056999995999,37,,,,,,,25,18,Man,Rechts,2,
,dotcolour,xotask,dotcolour,18,3,198,198,main,negativefb,-99,easy,,0.9179813999999169,['c'],1,left,['8'],4,0.36120389999996405,65,,,,,,,25,18,Man,Rechts,2,
,dotcolour,xotask,dotcolour,19,3,199,199,main,negativefb,-99,average,,0.5515433999999004,['c'],1,left,['0'],6,0.13458669999999984,55,,,,,,,25,18,Man,Rechts,2,
,dotcolour,xotask,dotcolour,20,3,200,200,main,negativefb,-99,easy,,0.6012047000003804,['n'],1,right,['0'],6,0.20080119999965973,17,,,,,,,25,18,Man,Rechts,2,
,dotcolour,xotask,dotcolour,21,3,201,201,main,negativefb,-99,average,,0.5514374000003954,['c'],1,left,['8'],4,0.2040980000001582,55,,,,,,,25,18,Man,Rechts,2,
,dotcolour,xotask,dotcolour,22,3,202,202,main,negativefb,-99,easy,,0.5349229999992531,['c'],1,left,['0'],6,0.3034385000000839,65,,,,,,,25,18,Man,Rechts,2,
,dotcolour,xotask,dotcolour,23,3,203,203,main,negativefb,-99,average,,0.5677157000000079,['n'],1,right,['0'],6,0.35733429999982036,26,,,,,,,25,18,Man,Rechts,2,
,dotcolour,xotask,dotcolour,24,3,204,204,main,negativefb,-99,average,,0.5181966000000102,['n'],1,right,['9'],5,0.3390031999997518,26,,,,,,,25,18,Man,Rechts,2,
,dotcolour,xotask,dotcolour,25,3,205,205,main,negativefb,-99,hard,,0.6513961999999083,['c'],1,left,['8'],4,0.25270309999996243,45,,,,,,,25,18,Man,Rechts,2,
,dotcolour,xotask,dotcolour,26,3,206,206,main,negativefb,-99,average,,0.5346643000002587,['n'],1,right,['8'],4,0.3501393000005919,29,,,,,,,25,18,Man,Rechts,2,
,dotcolour,xotask,dotcolour,27,3,207,207,main,negativefb,-99,average,,0.5005551000003834,['c'],1,left,['8'],4,0.26884590000008757,52,,,,,,,25,18,Man,Rechts,2,
,dotcolour,xotask,dotcolour,28,3,208,208,main,negativefb,-99,average,,0.5177086000003328,['c'],1,left,['8'],4,0.23784549999982119,53,,,,,,,25,18,Man,Rechts,2,
,dotcolour,xotask,dotcolour,29,3,209,209,main,negativefb,-99,easy,,0.5331662999997206,['n'],1,right,['0'],6,0.2314925000000585,19,,,,,,,25,18,Man,Rechts,2,
,dotcolour,xotask,dotcolour,30,3,210,210,main,negativefb,-99,hard,,1.100663799999893,['c'],0,right,['8'],4,0.2592993000007482,38,,,,,,,25,18,Man,Rechts,2,
,dotcolour,xotask,dotcolour,31,3,211,211,main,negativefb,-99,hard,,1.0188379000001078,['n'],1,right,['8'],4,0.3047770999992281,39,,,,,,,25,18,Man,Rechts,2,
,dotcolour,xotask,dotcolour,32,3,212,212,main,negativefb,-99,hard,,0.8345349999999598,['c'],1,left,['8'],4,0.22062840000035067,43,,,,,,,25,18,Man,Rechts,2,
,dotcolour,xotask,dotcolour,33,3,213,213,main,negativefb,-99,hard,,1.400307800000519,['c'],1,left,['8'],4,0.18045749999964755,44,,,,,,,25,18,Man,Rechts,2,
,dotcolour,xotask,dotcolour,34,3,214,214,main,negativefb,-99,average,,0.634931300000062,['c'],1,left,['8'],4,0.4607646999993449,52,,,,,,,25,18,Man,Rechts,2,
,dotcolour,xotask,dotcolour,35,3,215,215,main,negativefb,-99,easy,,0.584324800000104,['n'],1,right,['9'],5,0.2450942000004943,19,,,,,,,25,18,Man,Rechts,2,
,dotcolour,xotask,dotcolour,36,3,216,216,main,negativefb,-99,hard,,1.0003605000001698,['c'],1,left,['9'],5,0.36449240000001737,43,,,,,,,25,18,Man,Rechts,2,
,dotcolour,xotask,dotcolour,37,3,217,217,main,negativefb,-99,easy,,0.6170096000005287,['c'],1,left,['0'],6,0.36613279999983206,62,,,,,,,25,18,Man,Rechts,2,
,dotcolour,xotask,dotcolour,38,3,218,218,main,negativefb,-99,easy,,0.5016015999999581,['n'],1,right,['0'],6,0.2199389000006704,18,,,,,,,25,18,Man,Rechts,2,
,dotcolour,xotask,dotcolour,39,3,219,219,main,negativefb,-99,easy,,0.651685499999985,['n'],1,right,['0'],6,0.2181181000005381,17,,,,,,,25,18,Man,Rechts,2,
,dotcolour,xotask,dotcolour,40,3,220,220,main,negativefb,-99,average,,1.4178438999997525,['n'],1,right,['8'],4,0.18507450000015524,26,,,,,,,25,18,Man,Rechts,2,
,dotcolour,xotask,dotcolour,41,3,221,221,main,negativefb,-99,average,,0.5178238000007696,['c'],0,right,['9'],5,0.446071800000027,29,,,,,,,25,18,Man,Rechts,2,
,dotcolour,xotask,dotcolour,42,3,222,222,main,negativefb,-99,hard,,1.6003224999994927,['n'],1,right,['8'],4,0.45328320000044187,37,,,,,,,25,18,Man,Rechts,2,
,dotcolour,xotask,dotcolour,43,3,223,223,main,negativefb,-99,hard,,1.134441600000173,['c'],1,left,['8'],4,0.2950577000001431,41,,,,,,,25,18,Man,Rechts,2,
,dotcolour,xotask,dotcolour,44,3,224,224,main,negativefb,-99,hard,,0.7018857000002754,['n'],1,right,['9'],5,0.23986969999987195,35,,,,,,,25,18,Man,Rechts,2,
,dotcolour,xotask,dotcolour,45,3,225,225,main,negativefb,-99,easy,,0.6165262000004077,['c'],1,left,['0'],6,0.13487650000024587,61,,,,,,,25,18,Man,Rechts,2,
,dotcolour,xotask,dotcolour,46,3,226,226,main,negativefb,-99,easy,,0.7338107000005039,['n'],1,right,['0'],6,0.2686572000002343,17,,,,,,,25,18,Man,Rechts,2,
,dotcolour,xotask,dotcolour,47,3,227,227,main,negativefb,-99,easy,,0.7672934000001987,['c'],1,left,['0'],6,0.20463199999994686,63,,,,,,,25,18,Man,Rechts,2,
,dotcolour,xotask,dotcolour,48,3,228,228,main,negativefb,-99,average,,0.8009798000002775,['n'],1,right,['0'],6,0.3166543000006641,25,,,,,,,25,18,Man,Rechts,2,
,dotcolour,xotask,dotcolour,49,3,229,229,main,negativefb,-99,easy,,0.6182742999999391,['n'],1,right,['0'],6,0.32818850000057864,15,,,,,,,25,18,Man,Rechts,2,
,dotcolour,xotask,dotcolour,50,3,230,230,main,negativefb,-99,easy,,0.5515199999999822,['c'],1,left,['0'],6,0.21401260000038747,65,,,,,,,25,18,Man,Rechts,2,
,dotcolour,xotask,dotcolour,51,3,231,231,main,negativefb,-99,average,,0.6992839000004096,['c'],1,left,['0'],6,1.0273465000000215,53,,,,,,,25,18,Man,Rechts,2,
,dotcolour,xotask,dotcolour,52,3,232,232,main,negativefb,-99,hard,,1.8846096000006582,['c'],1,left,['8'],4,0.19135090000054333,42,,,,,,,25,18,Man,Rechts,2,
,dotcolour,xotask,dotcolour,53,3,233,233,main,negativefb,-99,average,,0.585070099999939,['c'],1,left,['0'],6,0.26498520000041026,53,,,,,,,25,18,Man,Rechts,2,
,dotcolour,xotask,dotcolour,54,3,234,234,main,negativefb,-99,easy,,0.5338470999995479,['c'],1,left,['0'],6,0.21784430000025168,65,,,,,,,25,18,Man,Rechts,2,
,dotcolour,xotask,dotcolour,55,3,235,235,main,negativefb,-99,average,,0.5670411000000968,['n'],1,right,['0'],6,0.2593442999996114,25,,,,,,,25,18,Man,Rechts,2,
,dotcolour,xotask,dotcolour,56,3,236,236,main,negativefb,-99,easy,,0.6021500000006199,['n'],1,right,['0'],6,0.2901043000001664,17,,,,,,,25,18,Man,Rechts,2,
,dotcolour,xotask,dotcolour,57,3,237,237,main,negativefb,-99,average,,0.5515268999997716,['n'],1,right,['0'],6,0.36141219999990426,25,,,,,,,25,18,Man,Rechts,2,
,dotcolour,xotask,dotcolour,58,3,238,238,main,negativefb,-99,hard,,1.0504382999997688,['c'],0,right,['8'],4,0.2259063999999853,38,,,,,,,25,18,Man,Rechts,2,
,dotcolour,xotask,dotcolour,59,3,239,239,main,negativefb,-99,easy,,0.5673698999999033,['n'],1,right,['0'],6,0.3000652999999147,17,,,,,,,25,18,Man,Rechts,2,
,dotcolour,xotask,dotcolour,0,4,240,240,main,negativefb,-99,average,,0.5173958000004859,['n'],1,right,['9'],5,0.31804400000055466,26,,,,,,,25,18,Man,Rechts,2,
,dotcolour,xotask,dotcolour,1,4,241,241,main,negativefb,-99,hard,,0.6008213000004616,['n'],1,right,['9'],5,0.22603499999968335,39,,,,,,,25,18,Man,Rechts,2,
,dotcolour,xotask,dotcolour,2,4,242,242,main,negativefb,-99,average,,0.8995700999994369,['n'],1,right,['9'],5,0.30208219999985886,29,,,,,,,25,18,Man,Rechts,2,
,dotcolour,xotask,dotcolour,3,4,243,243,main,negativefb,-99,hard,,1.016486000000441,['c'],0,right,['8'],4,0.2420234999999593,35,,,,,,,25,18,Man,Rechts,2,
,dotcolour,xotask,dotcolour,4,4,244,244,main,negativefb,-99,hard,,0.6020552999998472,['n'],0,left,['9'],5,0.2323660000001837,41,,,,,,,25,18,Man,Rechts,2,
,dotcolour,xotask,dotcolour,5,4,245,245,main,negativefb,-99,hard,,0.7009166999996523,['c'],1,left,['9'],5,0.20439010000063718,43,,,,,,,25,18,Man,Rechts,2,
,dotcolour,xotask,dotcolour,6,4,246,246,main,negativefb,-99,easy,,0.5345876000001226,['n'],1,right,['0'],6,0.26370109999970737,19,,,,,,,25,18,Man,Rechts,2,
,dotcolour,xotask,dotcolour,7,4,247,247,main,negativefb,-99,hard,,0.9504761999996845,['n'],0,left,['9'],5,0.272175199999765,42,,,,,,,25,18,Man,Rechts,2,
,dotcolour,xotask,dotcolour,8,4,248,248,main,negativefb,-99,average,,0.5504078000003574,['c'],1,left,['0'],6,0.2722008000000642,55,,,,,,,25,18,Man,Rechts,2,
,dotcolour,xotask,dotcolour,9,4,249,249,main,negativefb,-99,hard,,0.6509132999999565,['n'],1,right,['0'],6,0.32428299999992305,37,,,,,,,25,18,Man,Rechts,2,
,dotcolour,xotask,dotcolour,10,4,250,250,main,negativefb,-99,hard,,0.7852246000002197,['c'],0,right,['8'],4,0.22454019999986485,39,,,,,,,25,18,Man,Rechts,2,
,dotcolour,xotask,dotcolour,11,4,251,251,main,negativefb,-99,easy,,0.5519771999997829,['n'],1,right,['0'],6,0.21897419999913836,18,,,,,,,25,18,Man,Rechts,2,
,dotcolour,xotask,dotcolour,12,4,252,252,main,negativefb,-99,average,,0.5333272999996552,['c'],1,left,['0'],6,0.2532781999998406,53,,,,,,,25,18,Man,Rechts,2,
,dotcolour,xotask,dotcolour,13,4,253,253,main,negativefb,-99,hard,,0.8676984000003358,['c'],1,left,['0'],6,0.28912379999928817,44,,,,,,,25,18,Man,Rechts,2,
,dotcolour,xotask,dotcolour,14,4,254,254,main,negativefb,-99,hard,,0.48406640000030166,['c'],1,left,['9'],5,0.2677170000006299,43,,,,,,,25,18,Man,Rechts,2,
,dotcolour,xotask,dotcolour,15,4,255,255,main,negativefb,-99,easy,,0.5009841000000961,['n'],1,right,['0'],6,0.22952429999986634,17,,,,,,,25,18,Man,Rechts,2,
,dotcolour,xotask,dotcolour,16,4,256,256,main,negativefb,-99,average,,0.6170535999999629,['c'],1,left,['0'],6,0.2932292999994388,53,,,,,,,25,18,Man,Rechts,2,
,dotcolour,xotask,dotcolour,17,4,257,257,main,negativefb,-99,hard,,0.600933100000475,['n'],1,right,['9'],5,0.36218539999936183,35,,,,,,,25,18,Man,Rechts,2,
,dotcolour,xotask,dotcolour,18,4,258,258,main,negativefb,-99,easy,,0.701008200000615,['c'],1,left,['9'],5,0.5925323000001299,63,,,,,,,25,18,Man,Rechts,2,
,dotcolour,xotask,dotcolour,19,4,259,259,main,negativefb,-99,average,,0.5680238000004465,['c'],1,left,['0'],6,0.3157143999997061,53,,,,,,,25,18,Man,Rechts,2,
,dotcolour,xotask,dotcolour,20,4,260,260,main,negativefb,-99,easy,,0.5680517000000691,['n'],1,right,['0'],6,0.17710040000019944,16,,,,,,,25,18,Man,Rechts,2,
,dotcolour,xotask,dotcolour,21,4,261,261,main,negativefb,-99,hard,,0.7156424000004336,['c'],0,right,['8'],4,0.502506099999664,35,,,,,,,25,18,Man,Rechts,2,
,dotcolour,xotask,dotcolour,22,4,262,262,main,negativefb,-99,hard,,0.9162965000004988,['n'],0,left,['9'],5,0.5345790000001216,42,,,,,,,25,18,Man,Rechts,2,
,dotcolour,xotask,dotcolour,23,4,263,263,main,negativefb,-99,average,,1.0343999999995503,['n'],1,right,['9'],5,0.4001795999993192,29,,,,,,,25,18,Man,Rechts,2,
,dotcolour,xotask,dotcolour,24,4,264,264,main,negativefb,-99,hard,,0.6682860000000801,['c'],1,left,['0'],6,0.22227420000035636,44,,,,,,,25,18,Man,Rechts,2,
,dotcolour,xotask,dotcolour,25,4,265,265,main,negativefb,-99,easy,,0.6509950999998182,['c'],1,left,['9'],5,0.3084969000001365,64,,,,,,,25,18,Man,Rechts,2,
,dotcolour,xotask,dotcolour,26,4,266,266,main,negativefb,-99,easy,,0.5511111999994682,['c'],1,left,['9'],5,0.2505107999995744,62,,,,,,,25,18,Man,Rechts,2,
,dotcolour,xotask,dotcolour,27,4,267,267,main,negativefb,-99,easy,,0.6351644999995187,['c'],1,left,['0'],6,0.24807490000057442,64,,,,,,,25,18,Man,Rechts,2,
,dotcolour,xotask,dotcolour,28,4,268,268,main,negativefb,-99,hard,,0.6843439999993279,['n'],1,right,['8'],4,0.2681597000000693,38,,,,,,,25,18,Man,Rechts,2,
,dotcolour,xotask,dotcolour,29,4,269,269,main,negativefb,-99,easy,,0.6000097000005553,['n'],1,right,['9'],5,0.2576267000004009,17,,,,,,,25,18,Man,Rechts,2,
,dotcolour,xotask,dotcolour,30,4,270,270,main,negativefb,-99,easy,,0.5675838999995904,['c'],1,left,['9'],5,0.24157319999994797,65,,,,,,,25,18,Man,Rechts,2,
,dotcolour,xotask,dotcolour,31,4,271,271,main,negativefb,-99,easy,,0.6509218000001056,['n'],1,right,['0'],6,0.15874900000017078,15,,,,,,,25,18,Man,Rechts,2,
,dotcolour,xotask,dotcolour,32,4,272,272,main,negativefb,-99,easy,,0.6507232000003569,['n'],1,right,['0'],6,0.392178199999762,18,,,,,,,25,18,Man,Rechts,2,
,dotcolour,xotask,dotcolour,33,4,273,273,main,negativefb,-99,easy,,0.6011380999998437,['c'],1,left,['9'],5,0.24899189999996452,62,,,,,,,25,18,Man,Rechts,2,
,dotcolour,xotask,dotcolour,34,4,274,274,main,negativefb,-99,average,,0.7847740999995949,['n'],1,right,['9'],5,0.2482835000000705,25,,,,,,,25,18,Man,Rechts,2,
,dotcolour,xotask,dotcolour,35,4,275,275,main,negativefb,-99,average,,0.8181444000001648,['c'],1,left,['9'],5,0.2857435000005353,52,,,,,,,25,18,Man,Rechts,2,
,dotcolour,xotask,dotcolour,36,4,276,276,main,negativefb,-99,hard,,1.1188526000005368,['c'],1,left,['8'],4,0.255255600000055,44,,,,,,,25,18,Man,Rechts,2,
,dotcolour,xotask,dotcolour,37,4,277,277,main,negativefb,-99,average,,0.6173818999996001,['c'],1,left,['9'],5,0.19636440000067523,54,,,,,,,25,18,Man,Rechts,2,
,dotcolour,xotask,dotcolour,38,4,278,278,main,negativefb,-99,average,,0.5177582999995138,['n'],1,right,['0'],6,0.2251620000006369,29,,,,,,,25,18,Man,Rechts,2,
,dotcolour,xotask,dotcolour,39,4,279,279,main,negativefb,-99,average,,0.6674792000003436,['n'],1,right,['0'],6,0.32684059999974124,26,,,,,,,25,18,Man,Rechts,2,
,dotcolour,xotask,dotcolour,40,4,280,280,main,negativefb,-99,average,,0.5675470999995014,['c'],1,left,['9'],5,0.25294969999958994,54,,,,,,,25,18,Man,Rechts,2,
,dotcolour,xotask,dotcolour,41,4,281,281,main,negativefb,-99,easy,,0.6164591000006112,['c'],1,left,['9'],5,0.9385621000001265,63,,,,,,,25,18,Man,Rechts,2,
,dotcolour,xotask,dotcolour,42,4,282,282,main,negativefb,-99,average,,0.51760749999994,['n'],1,right,['9'],5,0.2965492000002996,26,,,,,,,25,18,Man,Rechts,2,
,dotcolour,xotask,dotcolour,43,4,283,283,main,negativefb,-99,easy,,0.6011256000001595,['c'],1,left,['8'],4,0.3184690000007322,65,,,,,,,25,18,Man,Rechts,2,
,dotcolour,xotask,dotcolour,44,4,284,284,main,negativefb,-99,hard,,0.6002959999996165,['n'],1,right,['9'],5,0.32202809999944293,35,,,,,,,25,18,Man,Rechts,2,
,dotcolour,xotask,dotcolour,45,4,285,285,main,negativefb,-99,hard,,0.6003124999997453,['c'],0,right,['9'],5,0.23093209999933606,39,,,,,,,25,18,Man,Rechts,2,
,dotcolour,xotask,dotcolour,46,4,286,286,main,negativefb,-99,average,,0.7010528999999224,['n'],1,right,['0'],6,0.45045089999985066,28,,,,,,,25,18,Man,Rechts,2,
,dotcolour,xotask,dotcolour,47,4,287,287,main,negativefb,-99,average,,0.8507982000000993,['n'],1,right,['0'],6,0.35058680000020104,26,,,,,,,25,18,Man,Rechts,2,
,dotcolour,xotask,dotcolour,48,4,288,288,main,negativefb,-99,easy,,0.6180411000004824,['c'],1,left,['9'],5,0.2645806000000448,63,,,,,,,25,18,Man,Rechts,2,
,dotcolour,xotask,dotcolour,49,4,289,289,main,negativefb,-99,hard,,0.9178272999997716,['c'],1,left,['8'],4,0.35472089999984746,43,,,,,,,25,18,Man,Rechts,2,
,dotcolour,xotask,dotcolour,50,4,290,290,main,negativefb,-99,average,,0.5174944000000323,['c'],1,left,['9'],5,0.18450279999979102,54,,,,,,,25,18,Man,Rechts,2,
,dotcolour,xotask,dotcolour,51,4,291,291,main,negativefb,-99,easy,,0.5010013000000981,['n'],1,right,['0'],6,0.20557129999997414,19,,,,,,,25,18,Man,Rechts,2,
,dotcolour,xotask,dotcolour,52,4,292,292,main,negativefb,-99,easy,,0.5013842999996996,['n'],1,right,['0'],6,0.20248090000040975,15,,,,,,,25,18,Man,Rechts,2,
,dotcolour,xotask,dotcolour,53,4,293,293,main,negativefb,-99,hard,,0.6014048000006369,['n'],1,right,['0'],6,0.27501289999963774,37,,,,,,,25,18,Man,Rechts,2,
,dotcolour,xotask,dotcolour,54,4,294,294,main,negativefb,-99,easy,,0.5177411999993637,['c'],1,left,['9'],5,0.235821099999157,61,,,,,,,25,18,Man,Rechts,2,
,dotcolour,xotask,dotcolour,55,4,295,295,main,negativefb,-99,easy,,0.5839919000000009,['c'],0,right,['1'],1,0.8603250999994998,17,,,,,,,25,18,Man,Rechts,2,
,dotcolour,xotask,dotcolour,56,4,296,296,main,negativefb,-99,average,,0.7349600000006831,['c'],1,left,['9'],5,0.17378869999993185,52,,,,,,,25,18,Man,Rechts,2,
,dotcolour,xotask,dotcolour,57,4,297,297,main,negativefb,-99,average,,0.5668390000000727,['n'],1,right,['9'],5,0.20864609999989625,29,,,,,,,25,18,Man,Rechts,2,
,dotcolour,xotask,dotcolour,58,4,298,298,main,negativefb,-99,hard,,0.7846053999992364,['c'],1,left,['9'],5,0.17826859999968292,43,,,,,,,25,18,Man,Rechts,2,
,dotcolour,xotask,dotcolour,59,4,299,299,main,negativefb,-99,average,,0.5013274000002639,['c'],1,left,['9'],5,0.18440410000039265,51,,,,,,,25,18,Man,Rechts,2,
,xotask,xotask,dotcolour,0,0,0,300,training,negativefb,74,easy,74,0.7511239999994359,['c'],1,left,['9'],5,0.1771466000000146,,,,,,,,25,18,Man,Rechts,2,
,xotask,xotask,dotcolour,1,0,1,301,training,negativefb,85,average,18,0.4007483000004868,['n'],1,right,['0'],6,0.17080230000010488,,,,,,,,25,18,Man,Rechts,2,
,xotask,xotask,dotcolour,2,0,2,302,training,negativefb,65,easy,7,0.5329939000002923,['n'],1,right,['9'],5,0.17393599999923026,,,,,,,,25,18,Man,Rechts,2,
,xotask,xotask,dotcolour,3,0,3,303,training,negativefb,72,hard,52,0.5161344000007375,['c'],1,left,['9'],5,0.0834285999999338,,,,,,,,25,18,Man,Rechts,2,
,xotask,xotask,dotcolour,4,0,4,304,training,negativefb,54,hard,25,0.6172458000000915,['n'],1,right,['9'],5,0.09507030000077066,,,,,,,,25,18,Man,Rechts,2,
,xotask,xotask,dotcolour,5,0,5,305,training,negativefb,84,easy,71,0.43332330000066577,['c'],1,left,['9'],5,0.19515520000004472,,,,,,,,25,18,Man,Rechts,2,
,xotask,xotask,dotcolour,6,0,6,306,training,negativefb,67,average,17,0.4994350000006307,['n'],1,right,['9'],5,0.16666450000047917,,,,,,,,25,18,Man,Rechts,2,
,xotask,xotask,dotcolour,7,0,7,307,training,negativefb,81,easy,8,0.5498286000001826,['n'],1,right,['9'],5,0.17858410000008007,,,,,,,,25,18,Man,Rechts,2,
,xotask,xotask,dotcolour,8,0,8,308,training,negativefb,72,easy,71,0.5000202999999601,['c'],1,left,['9'],5,0.14415730000018812,,,,,,,,25,18,Man,Rechts,2,
,xotask,xotask,dotcolour,9,0,9,309,training,negativefb,58,average,63,0.5006377999998222,['c'],1,left,['9'],5,0.14999189999980445,,,,,,,,25,18,Man,Rechts,2,
,xotask,xotask,dotcolour,10,0,10,310,training,negativefb,68,hard,50,0.46722089999911987,['c'],1,left,['9'],5,0.15001399999982823,,,,,,,,25,18,Man,Rechts,2,
,xotask,xotask,dotcolour,11,0,11,311,training,negativefb,74,hard,25,0.2673604000001433,['c'],0,right,['9'],5,0.25351950000003853,,,,,,,,25,18,Man,Rechts,2,
,xotask,xotask,dotcolour,12,0,12,312,training,negativefb,40,hard,51,0.15778620000037336,['n'],0,left,['9'],5,0.14026920000014798,,,,,,,,25,18,Man,Rechts,2,
,xotask,xotask,dotcolour,13,0,13,313,training,negativefb,16,hard,50,0.5325448000003234,['c'],1,left,['9'],5,0.12801450000006298,,,,,,,,25,18,Man,Rechts,2,
,xotask,xotask,dotcolour,14,0,14,314,training,negativefb,69,hard,54,0.484085099999902,['c'],1,left,['9'],5,0.12001690000033705,,,,,,,,25,18,Man,Rechts,2,
,xotask,xotask,dotcolour,15,0,15,315,training,negativefb,54,average,61,0.4331591000000117,['c'],1,left,['9'],5,0.09866850000071281,,,,,,,,25,18,Man,Rechts,2,
,xotask,xotask,dotcolour,16,0,16,316,training,negativefb,55,hard,27,0.4175113000001147,['n'],1,right,['9'],5,0.17401610000069923,,,,,,,,25,18,Man,Rechts,2,
,xotask,xotask,dotcolour,17,0,17,317,training,negativefb,89,easy,74,0.4335040999994817,['c'],1,left,['9'],5,0.08571159999974043,,,,,,,,25,18,Man,Rechts,2,
,xotask,xotask,dotcolour,18,0,18,318,training,negativefb,77,easy,7,0.4991350999998758,['n'],1,right,['9'],5,0.1581023999997342,,,,,,,,25,18,Man,Rechts,2,
,xotask,xotask,dotcolour,19,0,19,319,training,negativefb,88,easy,6,0.41674520000015036,['c'],0,right,['8'],4,0.575707699999839,,,,,,,,25,18,Man,Rechts,2,
,xotask,xotask,dotcolour,20,0,20,320,training,negativefb,71,easy,73,0.5010717999994085,['c'],1,left,['9'],5,0.14176319999933185,,,,,,,,25,18,Man,Rechts,2,
,xotask,xotask,dotcolour,21,0,21,321,training,negativefb,56,average,19,0.5679853999999978,['n'],1,right,['0'],6,0.13775859999987006,,,,,,,,25,18,Man,Rechts,2,
,xotask,xotask,dotcolour,22,0,22,322,training,negativefb,81,easy,5,0.5498995999996623,['n'],1,right,['9'],5,0.18221040000025823,,,,,,,,25,18,Man,Rechts,2,
,xotask,xotask,dotcolour,23,0,23,323,training,negativefb,43,average,63,0.5175180000005639,['c'],1,left,['9'],5,0.09810329999982059,,,,,,,,25,18,Man,Rechts,2,
,xotask,xotask,dotcolour,24,0,24,324,training,negativefb,69,average,15,0.4505951000001005,['n'],1,right,['9'],5,0.13214900000002672,,,,,,,,25,18,Man,Rechts,2,
,xotask,xotask,dotcolour,25,0,25,325,training,negativefb,62,easy,8,0.5505455000002257,['n'],1,right,['9'],5,0.07249210000009043,,,,,,,,25,18,Man,Rechts,2,
,xotask,xotask,dotcolour,26,0,26,326,training,negativefb,45,average,18,0.5332272000005105,['n'],1,right,['9'],5,0.07218069999998988,,,,,,,,25,18,Man,Rechts,2,
,xotask,xotask,dotcolour,27,0,27,327,training,negativefb,34,hard,54,0.45018010000057984,['c'],1,left,['9'],5,0.10031450000042241,,,,,,,,25,18,Man,Rechts,2,
,xotask,xotask,dotcolour,28,0,28,328,training,negativefb,77,average,60,0.5169629000001805,['c'],1,left,['9'],5,0.10724219999974594,,,,,,,,25,18,Man,Rechts,2,
,xotask,xotask,dotcolour,29,0,29,329,training,negativefb,79,average,62,0.6014501999998174,['c'],1,left,['9'],5,0.0794636000000537,,,,,,,,25,18,Man,Rechts,2,
,xotask,xotask,dotcolour,30,0,30,330,training,negativefb,69,hard,50,0.5001778999994713,['n'],0,left,['9'],5,0.0965738999993846,,,,,,,,25,18,Man,Rechts,2,
,xotask,xotask,dotcolour,31,0,31,331,training,negativefb,68,hard,52,0.5833068000001731,['c'],1,left,['9'],5,0.06132699999943725,,,,,,,,25,18,Man,Rechts,2,
,xotask,xotask,dotcolour,32,0,32,332,training,negativefb,32,hard,29,0.5839357000004384,['c'],0,right,['9'],5,0.28410619999976916,,,,,,,,25,18,Man,Rechts,2,
,xotask,xotask,dotcolour,33,0,33,333,training,negativefb,81,easy,72,0.5003446000000622,['c'],1,left,['9'],5,0.10131619999992836,,,,,,,,25,18,Man,Rechts,2,
,xotask,xotask,dotcolour,34,0,34,334,training,negativefb,37,average,18,0.650799800000641,['c'],0,right,['9'],5,0.09589049999976851,,,,,,,,25,18,Man,Rechts,2,
,xotask,xotask,dotcolour,35,0,35,335,training,negativefb,52,average,64,0.5004269000000932,['c'],1,left,['9'],5,0.09554610000031971,,,,,,,,25,18,Man,Rechts,2,
,xotask,xotask,dotcolour,36,0,36,336,training,negativefb,62,easy,9,0.6165293000003658,['n'],1,right,['9'],5,0.1401877999996941,,,,,,,,25,18,Man,Rechts,2,
,xotask,xotask,dotcolour,37,0,37,337,training,negativefb,25,easy,74,0.44910149999941495,['c'],1,left,['9'],5,0.11688839999987977,,,,,,,,25,18,Man,Rechts,2,
,xotask,xotask,dotcolour,38,0,38,338,training,negativefb,69,hard,27,0.5669619000000239,['n'],1,right,['0'],6,0.2013184999996156,,,,,,,,25,18,Man,Rechts,2,
,xotask,xotask,dotcolour,39,0,39,339,training,negativefb,96,easy,7,0.7840888999999152,['n'],1,right,['9'],5,0.46574409999993804,,,,,,,,25,18,Man,Rechts,2,
,xotask,xotask,dotcolour,40,0,40,340,training,negativefb,26,easy,5,0.6502661000004082,['c'],0,right,['9'],5,0.41377469999952154,,,,,,,,25,18,Man,Rechts,2,
,xotask,xotask,dotcolour,41,0,41,341,training,negativefb,51,average,17,0.7347908000001553,['n'],1,right,['9'],5,0.15209929999946326,,,,,,,,25,18,Man,Rechts,2,
,xotask,xotask,dotcolour,42,0,42,342,training,negativefb,69,hard,29,0.5995211999997991,['n'],1,right,['9'],5,0.1221267999999327,,,,,,,,25,18,Man,Rechts,2,
,xotask,xotask,dotcolour,43,0,43,343,training,negativefb,74,hard,27,0.5836779000001115,['n'],1,right,['9'],5,0.1503645000002507,,,,,,,,25,18,Man,Rechts,2,
,xotask,xotask,dotcolour,44,0,44,344,training,negativefb,83,average,18,0.8339618999998493,['n'],1,right,['9'],5,0.15094239999962156,,,,,,,,25,18,Man,Rechts,2,
,xotask,xotask,dotcolour,45,0,45,345,training,negativefb,27,easy,70,0.4838681000001088,['c'],1,left,['9'],5,0.10946659999990516,,,,,,,,25,18,Man,Rechts,2,
,xotask,xotask,dotcolour,46,0,46,346,training,negativefb,40,hard,27,2.0176092000001518,['c'],0,right,['9'],5,0.3051930999999968,,,,,,,,25,18,Man,Rechts,2,
,xotask,xotask,dotcolour,47,0,47,347,training,negativefb,80,average,62,0.38301959999989776,['c'],1,left,['9'],5,0.11737759999959962,,,,,,,,25,18,Man,Rechts,2,
,xotask,xotask,dotcolour,48,0,48,348,training,negativefb,92,average,17,0.6009814999997616,['c'],0,right,['9'],5,0.712670199999593,,,,,,,,25,18,Man,Rechts,2,
,xotask,xotask,dotcolour,49,0,49,349,training,negativefb,52,average,63,0.7341271999994206,['c'],1,left,['9'],5,0.11161030000039318,,,,,,,,25,18,Man,Rechts,2,
,xotask,xotask,dotcolour,50,0,50,350,training,negativefb,53,average,15,0.4668466000002809,['c'],0,right,['9'],5,0.20922000000064145,,,,,,,,25,18,Man,Rechts,2,
,xotask,xotask,dotcolour,51,0,51,351,training,negativefb,60,average,62,0.3666254999998273,['n'],0,left,['9'],5,0.33012929999949847,,,,,,,,25,18,Man,Rechts,2,
,xotask,xotask,dotcolour,52,0,52,352,training,negativefb,48,easy,73,0.0715409999993426,['c'],1,left,['8'],4,0.10216709999986051,,,,,,,,25,18,Man,Rechts,2,
,xotask,xotask,dotcolour,53,0,53,353,training,negativefb,90,easy,70,0.23181209999984276,['n'],0,left,['9'],5,0.1762598999994225,,,,,,,,25,18,Man,Rechts,2,
,xotask,xotask,dotcolour,54,0,54,354,training,negativefb,73,easy,5,0.33389700000043376,['c'],0,right,['8'],4,0.212115399999675,,,,,,,,25,18,Man,Rechts,2,
,xotask,xotask,dotcolour,55,0,55,355,training,negativefb,28,hard,27,0.14899270000023535,['n'],1,right,['9'],5,0.34893320000082895,,,,,,,,25,18,Man,Rechts,2,
,xotask,xotask,dotcolour,56,0,56,356,training,negativefb,81,hard,54,0.40043839999998454,['c'],1,left,['9'],5,0.09465390000059415,,,,,,,,25,18,Man,Rechts,2,
,xotask,xotask,dotcolour,57,0,57,357,training,negativefb,70,hard,54,0.6343885999995109,['c'],1,left,['9'],5,0.057663599999614235,,,,,,,,25,18,Man,Rechts,2,
,xotask,xotask,dotcolour,58,0,58,358,training,negativefb,65,average,60,0.6674431999999797,['n'],0,left,['9'],5,0.052333399999952235,,,,,,,,25,18,Man,Rechts,2,
,xotask,xotask,dotcolour,59,0,59,359,training,negativefb,66,hard,27,0.10085820000040258,['c'],0,right,['9'],5,0.00346839999929216,,,,,,,,25,18,Man,Rechts,2,
,xotask,xotask,dotcolour,0,1,60,360,training,negativefb,97,average,62,0.4340001000000484,['n'],0,left,['9'],5,0.20397070000035455,,,,,,,,25,18,Man,Rechts,2,
,xotask,xotask,dotcolour,1,1,61,361,training,negativefb,33,average,19,0.24938430000020162,['c'],0,right,['9'],5,0.22618669999974372,,,,,,,,25,18,Man,Rechts,2,
,xotask,xotask,dotcolour,2,1,62,362,training,negativefb,19,hard,51,0.4847223999995549,['c'],1,left,['9'],5,0.11785580000014306,,,,,,,,25,18,Man,Rechts,2,
,xotask,xotask,dotcolour,3,1,63,363,training,negativefb,82,average,63,0.2492880999998306,['n'],0,left,['9'],5,0.03196109999953478,,,,,,,,25,18,Man,Rechts,2,
,xotask,xotask,dotcolour,4,1,64,364,training,negativefb,28,easy,70,0.40071329999955196,['n'],0,left,['9'],5,0.43098080000072514,,,,,,,,25,18,Man,Rechts,2,
,xotask,xotask,dotcolour,5,1,65,365,training,negativefb,16,average,18,0.48334890000023734,['c'],0,right,['9'],5,0.1703268000001117,,,,,,,,25,18,Man,Rechts,2,
,xotask,xotask,dotcolour,6,1,66,366,training,negativefb,77,hard,28,0.6005849000002854,['n'],1,right,['9'],5,0.14794619999975112,,,,,,,,25,18,Man,Rechts,2,
,xotask,xotask,dotcolour,7,1,67,367,training,negativefb,62,average,17,0.6667003000002296,['n'],1,right,['9'],5,0.13916340000014316,,,,,,,,25,18,Man,Rechts,2,
,xotask,xotask,dotcolour,8,1,68,368,training,negativefb,80,easy,7,0.6008123000001433,['n'],1,right,['9'],5,0.11712810000062746,,,,,,,,25,18,Man,Rechts,2,
,xotask,xotask,dotcolour,9,1,69,369,training,negativefb,64,easy,5,0.5666647999996712,['n'],1,right,['9'],5,0.08188310000059573,,,,,,,,25,18,Man,Rechts,2,
,xotask,xotask,dotcolour,10,1,70,370,training,negativefb,65,easy,70,0.5328927999998996,['c'],1,left,['9'],5,0.07319999999981519,,,,,,,,25,18,Man,Rechts,2,
,xotask,xotask,dotcolour,11,1,71,371,training,negativefb,66,easy,74,0.5340837000003376,['c'],1,left,['9'],5,0.20133930000065448,,,,,,,,25,18,Man,Rechts,2,
,xotask,xotask,dotcolour,12,1,72,372,training,negativefb,73,hard,27,0.5167911999997159,['n'],1,right,['9'],5,0.12493400000039401,,,,,,,,25,18,Man,Rechts,2,
,xotask,xotask,dotcolour,13,1,73,373,training,negativefb,71,hard,51,0.6170431000000463,['n'],0,left,['9'],5,0.07908559999941644,,,,,,,,25,18,Man,Rechts,2,
,xotask,xotask,dotcolour,14,1,74,374,training,negativefb,50,average,64,0.5180410000002666,['c'],1,left,['9'],5,0.07243279999966035,,,,,,,,25,18,Man,Rechts,2,
,xotask,xotask,dotcolour,15,1,75,375,training,negativefb,39,easy,70,0.2334141000001182,['n'],0,left,['9'],5,0.11664160000054835,,,,,,,,25,18,Man,Rechts,2,
,xotask,xotask,dotcolour,16,1,76,376,training,negativefb,49,easy,9,0.6006498999995529,['n'],1,right,['9'],5,0.0879266000001735,,,,,,,,25,18,Man,Rechts,2,
,xotask,xotask,dotcolour,17,1,77,377,training,negativefb,81,easy,74,0.6166936999998143,['c'],1,left,['9'],5,0.11550500000066677,,,,,,,,25,18,Man,Rechts,2,
,xotask,xotask,dotcolour,18,1,78,378,training,negativefb,51,average,60,0.682863200000611,['c'],1,left,['9'],5,0.09201669999947626,,,,,,,,25,18,Man,Rechts,2,
,xotask,xotask,dotcolour,19,1,79,379,training,negativefb,51,average,62,0.5837335999995048,['c'],1,left,['9'],5,0.12077709999994113,,,,,,,,25,18,Man,Rechts,2,
,xotask,xotask,dotcolour,20,1,80,380,training,negativefb,60,easy,74,0.5495158000003357,['c'],1,left,['0'],6,0.07794930000000022,,,,,,,,25,18,Man,Rechts,2,
,xotask,xotask,dotcolour,21,1,81,381,training,negativefb,40,easy,74,0.483794200000375,['c'],1,left,['9'],5,0.13597110000046086,,,,,,,,25,18,Man,Rechts,2,
,xotask,xotask,dotcolour,22,1,82,382,training,negativefb,71,average,61,0.5173070999999254,['c'],1,left,['9'],5,0.13403899999957503,,,,,,,,25,18,Man,Rechts,2,
,xotask,xotask,dotcolour,23,1,83,383,training,negativefb,74,easy,6,0.4845175999998901,['n'],1,right,['9'],5,0.06930779999947845,,,,,,,,25,18,Man,Rechts,2,
,xotask,xotask,dotcolour,24,1,84,384,training,negativefb,41,hard,28,0.4177809000002526,['c'],0,right,['9'],5,0.10618820000036067,,,,,,,,25,18,Man,Rechts,2,
,xotask,xotask,dotcolour,25,1,85,385,training,negativefb,55,hard,50,0.5658210999999937,['c'],1,left,['9'],5,0.1123925000001691,,,,,,,,25,18,Man,Rechts,2,
,xotask,xotask,dotcolour,26,1,86,386,training,negativefb,62,average,64,0.8161595000001398,['c'],1,left,['9'],5,0.09887220000018715,,,,,,,,25,18,Man,Rechts,2,
,xotask,xotask,dotcolour,27,1,87,387,training,negativefb,53,hard,54,0.4002571999999418,['n'],0,left,['9'],5,0.09523910000007163,,,,,,,,25,18,Man,Rechts,2,
,xotask,xotask,dotcolour,28,1,88,388,training,negativefb,68,average,19,0.6335839000003034,['n'],1,right,['9'],5,0.1627518000004784,,,,,,,,25,18,Man,Rechts,2,
,xotask,xotask,dotcolour,29,1,89,389,training,negativefb,64,average,62,0.5168374000004405,['c'],1,left,['9'],5,0.07165609999992739,,,,,,,,25,18,Man,Rechts,2,
,xotask,xotask,dotcolour,30,1,90,390,training,negativefb,69,average,17,0.517005099999551,['n'],1,right,['9'],5,0.07212979999985691,,,,,,,,25,18,Man,Rechts,2,
,xotask,xotask,dotcolour,31,1,91,391,training,negativefb,64,average,60,0.4830018000002383,['c'],1,left,['9'],5,0.09022900000036316,,,,,,,,25,18,Man,Rechts,2,
,xotask,xotask,dotcolour,32,1,92,392,training,negativefb,54,hard,53,0.5338659999997617,['c'],1,left,['9'],5,0.049839199999951234,,,,,,,,25,18,Man,Rechts,2,
,xotask,xotask,dotcolour,33,1,93,393,training,negativefb,52,easy,6,0.5507431000005454,['n'],1,right,['9'],5,0.09810669999933452,,,,,,,,25,18,Man,Rechts,2,
,xotask,xotask,dotcolour,34,1,94,394,training,negativefb,79,easy,74,0.6002446999991662,['c'],1,left,['9'],5,0.429881099999875,,,,,,,,25,18,Man,Rechts,2,
,xotask,xotask,dotcolour,35,1,95,395,training,negativefb,37,hard,50,0.5665773000000627,['c'],1,left,['9'],5,0.08611560000008467,,,,,,,,25,18,Man,Rechts,2,
,xotask,xotask,dotcolour,36,1,96,396,training,negativefb,59,hard,27,0.4992570999993404,['n'],1,right,['9'],5,0.0950661000006221,,,,,,,,25,18,Man,Rechts,2,
,xotask,xotask,dotcolour,37,1,97,397,training,negativefb,79,average,16,0.8170997000006537,['n'],1,right,['9'],5,0.0673385000000053,,,,,,,,25,18,Man,Rechts,2,
,xotask,xotask,dotcolour,38,1,98,398,training,negativefb,60,hard,27,0.5337595000000874,['c'],0,right,['9'],5,0.08365059999960067,,,,,,,,25,18,Man,Rechts,2,
,xotask,xotask,dotcolour,39,1,99,399,training,negativefb,71,easy,9,0.6169584999997824,['n'],1,right,['9'],5,0.05502260000048409,,,,,,,,25,18,Man,Rechts,2,
,xotask,xotask,dotcolour,40,1,100,400,training,negativefb,82,average,62,0.549181100000169,['c'],1,left,['9'],5,0.06332620000011957,,,,,,,,25,18,Man,Rechts,2,
,xotask,xotask,dotcolour,41,1,101,401,training,negativefb,21,easy,5,0.43391260000043985,['c'],0,right,['8'],4,0.5796160999998392,,,,,,,,25,18,Man,Rechts,2,
,xotask,xotask,dotcolour,42,1,102,402,training,negativefb,51,easy,6,0.5664157999999588,['n'],1,right,['9'],5,0.15032389999942097,,,,,,,,25,18,Man,Rechts,2,
,xotask,xotask,dotcolour,43,1,103,403,training,negativefb,65,hard,27,0.5995082999997976,['c'],0,right,['9'],5,0.08846169999924314,,,,,,,,25,18,Man,Rechts,2,
,xotask,xotask,dotcolour,44,1,104,404,training,negativefb,58,hard,25,0.5168714000001273,['n'],1,right,['9'],5,0.0649782000000414,,,,,,,,25,18,Man,Rechts,2,
,xotask,xotask,dotcolour,45,1,105,405,training,negativefb,37,hard,25,0.3498178999998345,['c'],0,right,['9'],5,0.13577889999942272,,,,,,,,25,18,Man,Rechts,2,
,xotask,xotask,dotcolour,46,1,106,406,training,negativefb,44,hard,54,0.2329546000000846,['n'],0,left,['9'],5,0.07274010000037379,,,,,,,,25,18,Man,Rechts,2,
,xotask,xotask,dotcolour,47,1,107,407,training,negativefb,87,average,17,0.6498904999998558,['n'],1,right,['9'],5,0.3649225999997725,,,,,,,,25,18,Man,Rechts,2,
,xotask,xotask,dotcolour,48,1,108,408,training,negativefb,91,easy,8,0.5504143999996813,['n'],1,right,['9'],5,0.10420739999972284,,,,,,,,25,18,Man,Rechts,2,
,xotask,xotask,dotcolour,49,1,109,409,training,negativefb,69,hard,54,0.5166975000001912,['c'],1,left,['9'],5,0.07971449999968172,,,,,,,,25,18,Man,Rechts,2,
,xotask,xotask,dotcolour,50,1,110,410,training,negativefb,52,average,18,0.38284810000004654,['n'],1,right,['9'],5,0.10123139999996056,,,,,,,,25,18,Man,Rechts,2,
,xotask,xotask,dotcolour,51,1,111,411,training,negativefb,46,easy,9,0.5670356999999058,['n'],1,right,['9'],5,0.08260650000011083,,,,,,,,25,18,Man,Rechts,2,
,xotask,xotask,dotcolour,52,1,112,412,training,negativefb,69,easy,70,0.5169960999992327,['c'],1,left,['9'],5,0.1305544999995618,,,,,,,,25,18,Man,Rechts,2,
,xotask,xotask,dotcolour,53,1,113,413,training,negativefb,64,hard,28,0.5836444999995365,['n'],1,right,['9'],5,0.10212989999945421,,,,,,,,25,18,Man,Rechts,2,
,xotask,xotask,dotcolour,54,1,114,414,training,negativefb,90,hard,54,0.41690770000059274,['c'],1,left,['9'],5,0.11338139999952546,,,,,,,,25,18,Man,Rechts,2,
,xotask,xotask,dotcolour,55,1,115,415,training,negativefb,55,hard,26,0.5835669000007329,['n'],1,right,['9'],5,0.06251179999981105,,,,,,,,25,18,Man,Rechts,2,
,xotask,xotask,dotcolour,56,1,116,416,training,negativefb,50,easy,74,0.4829987000002802,['c'],1,left,['9'],5,0.14544190000015078,,,,,,,,25,18,Man,Rechts,2,
,xotask,xotask,dotcolour,57,1,117,417,training,negativefb,45,average,15,0.46690879999914614,['n'],1,right,['9'],5,0.09721690000060335,,,,,,,,25,18,Man,Rechts,2,
,xotask,xotask,dotcolour,58,1,118,418,training,negativefb,70,hard,51,0.44985759999963193,['c'],1,left,['9'],5,0.060012599999936356,,,,,,,,25,18,Man,Rechts,2,
,xotask,xotask,dotcolour,59,1,119,419,training,negativefb,38,average,18,0.35091019999981654,['c'],0,right,['9'],5,0.3876628999996683,,,,,,,,25,18,Man,Rechts,2,
,xotask,xotask,dotcolour,0,2,120,420,main,negativefb,-99,hard,29,0.7513503999998647,['n'],1,right,['9'],5,0.16183510000064416,,,,,,,,25,18,Man,Rechts,2,
,xotask,xotask,dotcolour,1,2,121,421,main,negativefb,-99,easy,74,0.5679488999994646,['c'],1,left,['9'],5,0.1496311999999307,,,,,,,,25,18,Man,Rechts,2,
,xotask,xotask,dotcolour,2,2,122,422,main,negativefb,-99,easy,73,0.4833741000002192,['c'],1,left,['9'],5,0.10919729999932315,,,,,,,,25,18,Man,Rechts,2,
,xotask,xotask,dotcolour,3,2,123,423,main,negativefb,-99,easy,71,0.5497565000005125,['c'],1,left,['9'],5,0.10784989999956451,,,,,,,,25,18,Man,Rechts,2,
,xotask,xotask,dotcolour,4,2,124,424,main,negativefb,-99,hard,52,0.6683020999998917,['n'],0,left,['9'],5,0.0535370999996303,,,,,,,,25,18,Man,Rechts,2,
,xotask,xotask,dotcolour,5,2,125,425,main,negativefb,-99,hard,53,0.6506238000001758,['c'],1,left,['9'],5,0.14589820000037435,,,,,,,,25,18,Man,Rechts,2,
,xotask,xotask,dotcolour,6,2,126,426,main,negativefb,-99,easy,5,0.7486851999992723,['n'],1,right,['9'],5,0.20701330000065354,,,,,,,,25,18,Man,Rechts,2,
,xotask,xotask,dotcolour,7,2,127,427,main,negativefb,-99,average,18,0.6014873000003718,['n'],1,right,['9'],5,0.0718804000007367,,,,,,,,25,18,Man,Rechts,2,
,xotask,xotask,dotcolour,8,2,128,428,main,negativefb,-99,hard,51,0.5841478000002098,['c'],1,left,['9'],5,0.15064470000015717,,,,,,,,25,18,Man,Rechts,2,
,xotask,xotask,dotcolour,9,2,129,429,main,negativefb,-99,hard,28,0.5178539999997156,['n'],1,right,['9'],5,0.15697420000014972,,,,,,,,25,18,Man,Rechts,2,
,xotask,xotask,dotcolour,10,2,130,430,main,negativefb,-99,hard,26,1.551837300000443,['c'],0,right,['9'],5,0.23309449999942444,,,,,,,,25,18,Man,Rechts,2,
,xotask,xotask,dotcolour,11,2,131,431,main,negativefb,-99,easy,72,0.46738619999996445,['n'],0,left,['9'],5,0.3979628999995839,,,,,,,,25,18,Man,Rechts,2,
,xotask,xotask,dotcolour,12,2,132,432,main,negativefb,-99,average,18,0.9851204000005964,['n'],1,right,['9'],5,0.10369540000010602,,,,,,,,25,18,Man,Rechts,2,
,xotask,xotask,dotcolour,13,2,133,433,main,negativefb,-99,easy,5,0.4504171000007773,['c'],0,right,['9'],5,0.21813230000043404,,,,,,,,25,18,Man,Rechts,2,
,xotask,xotask,dotcolour,14,2,134,434,main,negativefb,-99,easy,8,0.6509368000006361,['n'],1,right,['9'],5,0.2561537000001408,,,,,,,,25,18,Man,Rechts,2,
,xotask,xotask,dotcolour,15,2,135,435,main,negativefb,-99,hard,53,0.6177797999998802,['n'],0,left,['9'],5,0.15790389999983745,,,,,,,,25,18,Man,Rechts,2,
,xotask,xotask,dotcolour,16,2,136,436,main,negativefb,-99,easy,74,0.617787899999712,['c'],1,left,['8'],4,0.2161348999998154,,,,,,,,25,18,Man,Rechts,2,
,xotask,xotask,dotcolour,17,2,137,437,main,negativefb,-99,average,16,0.8515098999996553,['c'],0,right,['8'],4,0.24678929999936372,,,,,,,,25,18,Man,Rechts,2,
,xotask,xotask,dotcolour,18,2,138,438,main,negativefb,-99,easy,74,0.7011614000002737,['c'],1,left,['8'],4,0.20909730000039417,,,,,,,,25,18,Man,Rechts,2,
,xotask,xotask,dotcolour,19,2,139,439,main,negativefb,-99,easy,6,0.6011837000005471,['n'],1,right,['9'],5,0.22627939999983937,,,,,,,,25,18,Man,Rechts,2,
,xotask,xotask,dotcolour,20,2,140,440,main,negativefb,-99,average,63,0.651605600000039,['c'],1,left,['9'],5,0.17643479999969713,,,,,,,,25,18,Man,Rechts,2,
,xotask,xotask,dotcolour,21,2,141,441,main,negativefb,-99,average,60,0.6187367000002268,['c'],1,left,['8'],4,0.1609597999995458,,,,,,,,25,18,Man,Rechts,2,
,xotask,xotask,dotcolour,22,2,142,442,main,negativefb,-99,average,15,0.584244700000454,['n'],1,right,['0'],6,0.2050881000004665,,,,,,,,25,18,Man,Rechts,2,
,xotask,xotask,dotcolour,23,2,143,443,main,negativefb,-99,average,18,0.5839107000001604,['n'],1,right,['9'],5,0.21407559999988734,,,,,,,,25,18,Man,Rechts,2,
,xotask,xotask,dotcolour,24,2,144,444,main,negativefb,-99,average,18,0.5513087999997879,['n'],1,right,['9'],5,0.20927770000071177,,,,,,,,25,18,Man,Rechts,2,
,xotask,xotask,dotcolour,25,2,145,445,main,negativefb,-99,hard,54,0.7678131000002395,['c'],1,left,['9'],5,0.1790112999997291,,,,,,,,25,18,Man,Rechts,2,
,xotask,xotask,dotcolour,26,2,146,446,main,negativefb,-99,easy,74,0.6013160000002244,['c'],1,left,['9'],5,0.16449280000051658,,,,,,,,25,18,Man,Rechts,2,
,xotask,xotask,dotcolour,27,2,147,447,main,negativefb,-99,hard,25,0.7005531000004339,['n'],1,right,['9'],5,0.24249959999997373,,,,,,,,25,18,Man,Rechts,2,
,xotask,xotask,dotcolour,28,2,148,448,main,negativefb,-99,hard,28,0.650743400000465,['c'],0,right,['9'],5,0.18419119999998657,,,,,,,,25,18,Man,Rechts,2,
,xotask,xotask,dotcolour,29,2,149,449,main,negativefb,-99,easy,73,0.5999759000005724,['c'],1,left,['8'],4,0.42527960000006715,,,,,,,,25,18,Man,Rechts,2,
,xotask,xotask,dotcolour,30,2,150,450,main,negativefb,-99,hard,27,0.6342442000004667,['n'],1,right,['9'],5,0.2398020999999062,,,,,,,,25,18,Man,Rechts,2,
,xotask,xotask,dotcolour,31,2,151,451,main,negativefb,-99,average,15,0.8342126999996253,['n'],1,right,['9'],5,0.24577060000046913,,,,,,,,25,18,Man,Rechts,2,
,xotask,xotask,dotcolour,32,2,152,452,main,negativefb,-99,hard,25,1.5013351999996303,['n'],1,right,['8'],4,0.31305150000025606,,,,,,,,25,18,Man,Rechts,2,
,xotask,xotask,dotcolour,33,2,153,453,main,negativefb,-99,easy,9,0.6339889000000767,['n'],1,right,['9'],5,0.3249385999997685,,,,,,,,25,18,Man,Rechts,2,
,xotask,xotask,dotcolour,34,2,154,454,main,negativefb,-99,average,17,0.634775699999409,['n'],1,right,['9'],5,0.24772090000078606,,,,,,,,25,18,Man,Rechts,2,
,xotask,xotask,dotcolour,35,2,155,455,main,negativefb,-99,hard,29,1.0513277000000016,['c'],0,right,['8'],4,0.42819389999931445,,,,,,,,25,18,Man,Rechts,2,
,xotask,xotask,dotcolour,36,2,156,456,main,negativefb,-99,average,63,0.8011628999993263,['c'],1,left,['8'],4,0.3007606000001033,,,,,,,,25,18,Man,Rechts,2,
,xotask,xotask,dotcolour,37,2,157,457,main,negativefb,-99,hard,52,1.4681115000003047,['c'],1,left,['9'],5,0.2947690999999395,,,,,,,,25,18,Man,Rechts,2,
,xotask,xotask,dotcolour,38,2,158,458,main,negativefb,-99,average,64,0.5824063999998543,['c'],1,left,['8'],4,0.2760357999995904,,,,,,,,25,18,Man,Rechts,2,
,xotask,xotask,dotcolour,39,2,159,459,main,negativefb,-99,average,64,0.9670499000003474,['c'],1,left,['9'],5,0.2599708000007013,,,,,,,,25,18,Man,Rechts,2,
,xotask,xotask,dotcolour,40,2,160,460,main,negativefb,-99,average,17,1.0343345999999656,['n'],1,right,['9'],5,0.37698509999972885,,,,,,,,25,18,Man,Rechts,2,
,xotask,xotask,dotcolour,41,2,161,461,main,negativefb,-99,average,15,0.6012971999998626,['c'],0,right,['8'],4,0.5469154000002163,,,,,,,,25,18,Man,Rechts,2,
,xotask,xotask,dotcolour,42,2,162,462,main,negativefb,-99,average,64,0.8185079999993832,['c'],1,left,['0'],6,0.1418585000001258,,,,,,,,25,18,Man,Rechts,2,
,xotask,xotask,dotcolour,43,2,163,463,main,negativefb,-99,hard,51,1.2508829000007609,['c'],1,left,['9'],5,0.15122919999976148,,,,,,,,25,18,Man,Rechts,2,
,xotask,xotask,dotcolour,44,2,164,464,main,negativefb,-99,average,64,0.6002340999993976,['c'],1,left,['9'],5,0.08967809999921883,,,,,,,,25,18,Man,Rechts,2,
,xotask,xotask,dotcolour,45,2,165,465,main,negativefb,-99,easy,5,0.6177810999997746,['n'],1,right,['9'],5,0.15789500000028056,,,,,,,,25,18,Man,Rechts,2,
,xotask,xotask,dotcolour,46,2,166,466,main,negativefb,-99,easy,9,0.5506902000006448,['n'],1,right,['9'],5,0.19524180000007618,,,,,,,,25,18,Man,Rechts,2,
,xotask,xotask,dotcolour,47,2,167,467,main,negativefb,-99,hard,54,0.6009842000003118,['n'],0,left,['9'],5,0.10019699999975273,,,,,,,,25,18,Man,Rechts,2,
,xotask,xotask,dotcolour,48,2,168,468,main,negativefb,-99,average,64,0.43441859999984445,['c'],1,left,['9'],5,0.16774629999963508,,,,,,,,25,18,Man,Rechts,2,
,xotask,xotask,dotcolour,49,2,169,469,main,negativefb,-99,average,64,0.5842492000001585,['c'],1,left,['9'],5,0.18616199999996752,,,,,,,,25,18,Man,Rechts,2,
,xotask,xotask,dotcolour,50,2,170,470,main,negativefb,-99,hard,25,1.367613800000072,['n'],1,right,['9'],5,0.14096749999953317,,,,,,,,25,18,Man,Rechts,2,
,xotask,xotask,dotcolour,51,2,171,471,main,negativefb,-99,average,61,0.7674882999999681,['c'],1,left,['8'],4,0.14557929999955377,,,,,,,,25,18,Man,Rechts,2,
,xotask,xotask,dotcolour,52,2,172,472,main,negativefb,-99,easy,8,0.6341139999994994,['n'],1,right,['9'],5,0.08356029999958992,,,,,,,,25,18,Man,Rechts,2,
,xotask,xotask,dotcolour,53,2,173,473,main,negativefb,-99,easy,74,0.5340869999999995,['c'],1,left,['9'],5,0.19527620000008028,,,,,,,,25,18,Man,Rechts,2,
,xotask,xotask,dotcolour,54,2,174,474,main,negativefb,-99,easy,9,0.7340702000001329,['n'],1,right,['9'],5,0.15180570000029547,,,,,,,,25,18,Man,Rechts,2,
,xotask,xotask,dotcolour,55,2,175,475,main,negativefb,-99,easy,8,0.6839500000005501,['n'],1,right,['9'],5,0.1586753999999928,,,,,,,,25,18,Man,Rechts,2,
,xotask,xotask,dotcolour,56,2,176,476,main,negativefb,-99,hard,54,0.7174069000002419,['c'],1,left,['8'],4,0.19697309999992285,,,,,,,,25,18,Man,Rechts,2,
,xotask,xotask,dotcolour,57,2,177,477,main,negativefb,-99,hard,29,0.5510706000004575,['n'],1,right,['9'],5,0.1681976999998369,,,,,,,,25,18,Man,Rechts,2,
,xotask,xotask,dotcolour,58,2,178,478,main,negativefb,-99,hard,50,0.5999155999998038,['c'],1,left,['9'],5,0.14653830000042944,,,,,,,,25,18,Man,Rechts,2,
,xotask,xotask,dotcolour,59,2,179,479,main,negativefb,-99,easy,70,0.600666999999703,['c'],1,left,['9'],5,0.20542490000025282,,,,,,,,25,18,Man,Rechts,2,
,xotask,xotask,dotcolour,0,3,180,480,main,negativefb,-99,hard,53,0.766620200000034,['c'],1,left,['8'],4,0.13359960000070714,,,,,,,,25,18,Man,Rechts,2,
,xotask,xotask,dotcolour,1,3,181,481,main,negativefb,-99,average,64,0.5673956999999064,['c'],1,left,['8'],4,0.21830470000077185,,,,,,,,25,18,Man,Rechts,2,
,xotask,xotask,dotcolour,2,3,182,482,main,negativefb,-99,hard,27,0.5342275000002701,['c'],0,right,['9'],5,0.1727376999997432,,,,,,,,25,18,Man,Rechts,2,
,xotask,xotask,dotcolour,3,3,183,483,main,negativefb,-99,easy,72,0.5172373000004882,['c'],1,left,['9'],5,0.20279459999983374,,,,,,,,25,18,Man,Rechts,2,
,xotask,xotask,dotcolour,4,3,184,484,main,negativefb,-99,average,63,0.5501987999996345,['c'],1,left,['9'],5,0.10863179999978456,,,,,,,,25,18,Man,Rechts,2,
,xotask,xotask,dotcolour,5,3,185,485,main,negativefb,-99,easy,7,0.50102650000008,['n'],1,right,['9'],5,0.10981080000055954,,,,,,,,25,18,Man,Rechts,2,
,xotask,xotask,dotcolour,6,3,186,486,main,negativefb,-99,hard,29,1.1342536000001928,['n'],1,right,['8'],4,0.1727258000000802,,,,,,,,25,18,Man,Rechts,2,
,xotask,xotask,dotcolour,7,3,187,487,main,negativefb,-99,hard,53,0.5672514999996565,['c'],1,left,['8'],4,0.20831100000032166,,,,,,,,25,18,Man,Rechts,2,
,xotask,xotask,dotcolour,8,3,188,488,main,negativefb,-99,average,62,0.6679937999997492,['c'],1,left,['9'],5,0.12653010000030918,,,,,,,,25,18,Man,Rechts,2,
,xotask,xotask,dotcolour,9,3,189,489,main,negativefb,-99,average,16,0.6004580999997415,['n'],1,right,['9'],5,0.1700461999998879,,,,,,,,25,18,Man,Rechts,2,
,xotask,xotask,dotcolour,10,3,190,490,main,negativefb,-99,average,62,0.6174865000002683,['c'],1,left,['9'],5,0.1477905000001556,,,,,,,,25,18,Man,Rechts,2,
,xotask,xotask,dotcolour,11,3,191,491,main,negativefb,-99,average,18,0.4843916999998328,['n'],1,right,['9'],5,0.20334870000078809,,,,,,,,25,18,Man,Rechts,2,
,xotask,xotask,dotcolour,12,3,192,492,main,negativefb,-99,hard,27,1.317672500000299,['n'],1,right,['9'],5,0.09449640000002546,,,,,,,,25,18,Man,Rechts,2,
,xotask,xotask,dotcolour,13,3,193,493,main,negativefb,-99,average,60,0.6354750000000422,['c'],1,left,['9'],5,0.11462589999973716,,,,,,,,25,18,Man,Rechts,2,
,xotask,xotask,dotcolour,14,3,194,494,main,negativefb,-99,average,17,0.5004978999995728,['n'],1,right,['9'],5,0.17899390000002313,,,,,,,,25,18,Man,Rechts,2,
,xotask,xotask,dotcolour,15,3,195,495,main,negativefb,-99,easy,71,0.7168946000001597,['c'],1,left,['9'],5,0.12845680000009452,,,,,,,,25,18,Man,Rechts,2,
,xotask,xotask,dotcolour,16,3,196,496,main,negativefb,-99,average,61,0.8346801999996387,['c'],1,left,['8'],4,0.21114720000059606,,,,,,,,25,18,Man,Rechts,2,
,xotask,xotask,dotcolour,17,3,197,497,main,negativefb,-99,hard,29,0.6014813000001595,['n'],1,right,['9'],5,0.22797539999919536,,,,,,,,25,18,Man,Rechts,2,
,xotask,xotask,dotcolour,18,3,198,498,main,negativefb,-99,average,15,0.5508905999995477,['n'],1,right,['9'],5,0.349301899999773,,,,,,,,25,18,Man,Rechts,2,
,xotask,xotask,dotcolour,19,3,199,499,main,negativefb,-99,easy,5,0.5677526999998008,['n'],1,right,['9'],5,0.15419869999914226,,,,,,,,25,18,Man,Rechts,2,
,xotask,xotask,dotcolour,20,3,200,500,main,negativefb,-99,easy,7,0.552378200000021,['n'],1,right,['9'],5,0.1340253999997003,,,,,,,,25,18,Man,Rechts,2,
,xotask,xotask,dotcolour,21,3,201,501,main,negativefb,-99,easy,5,0.4678939999994327,['n'],1,right,['9'],5,0.15081199999985984,,,,,,,,25,18,Man,Rechts,2,
,xotask,xotask,dotcolour,22,3,202,502,main,negativefb,-99,hard,51,0.7005763000006482,['c'],1,left,['9'],5,0.1977640999994037,,,,,,,,25,18,Man,Rechts,2,
,xotask,xotask,dotcolour,23,3,203,503,main,negativefb,-99,hard,54,1.0007666000001336,['c'],1,left,['9'],5,0.11849319999964791,,,,,,,,25,18,Man,Rechts,2,
,xotask,xotask,dotcolour,24,3,204,504,main,negativefb,-99,easy,74,0.7174961999999141,['n'],0,left,['1'],1,0.7980598000003738,,,,,,,,25,18,Man,Rechts,2,
,xotask,xotask,dotcolour,25,3,205,505,main,negativefb,-99,easy,74,0.7015509000002567,['c'],1,left,['9'],5,0.3541918999999325,,,,,,,,25,18,Man,Rechts,2,
,xotask,xotask,dotcolour,26,3,206,506,main,negativefb,-99,easy,5,0.5339525999997932,['n'],1,right,['9'],5,0.23213870000017778,,,,,,,,25,18,Man,Rechts,2,
,xotask,xotask,dotcolour,27,3,207,507,main,negativefb,-99,easy,9,0.717722400000639,['n'],1,right,['9'],5,0.17840939999950933,,,,,,,,25,18,Man,Rechts,2,
,xotask,xotask,dotcolour,28,3,208,508,main,negativefb,-99,average,63,0.6347459999997227,['c'],1,left,['9'],5,0.1314098999991984,,,,,,,,25,18,Man,Rechts,2,
,xotask,xotask,dotcolour,29,3,209,509,main,negativefb,-99,average,15,1.000682599999891,['c'],0,right,['9'],5,0.05474970000068424,,,,,,,,25,18,Man,Rechts,2,
,xotask,xotask,dotcolour,30,3,210,510,main,negativefb,-99,average,61,0.5675611000006029,['c'],1,left,['9'],5,0.11067959999945742,,,,,,,,25,18,Man,Rechts,2,
,xotask,xotask,dotcolour,31,3,211,511,main,negativefb,-99,easy,71,0.5841988000001948,['c'],1,left,['9'],5,0.148303400000259,,,,,,,,25,18,Man,Rechts,2,
,xotask,xotask,dotcolour,32,3,212,512,main,negativefb,-99,hard,51,0.7671418999998423,['c'],1,left,['9'],5,0.11154620000070281,,,,,,,,25,18,Man,Rechts,2,
,xotask,xotask,dotcolour,33,3,213,513,main,negativefb,-99,hard,27,1.2008963999996922,['c'],0,right,['9'],5,0.17255349999959435,,,,,,,,25,18,Man,Rechts,2,
,xotask,xotask,dotcolour,34,3,214,514,main,negativefb,-99,average,18,0.5499212000004263,['n'],1,right,['9'],5,0.18497449999995297,,,,,,,,25,18,Man,Rechts,2,
,xotask,xotask,dotcolour,35,3,215,515,main,negativefb,-99,average,16,0.7171257000009064,['n'],1,right,['9'],5,0.25307749999956286,,,,,,,,25,18,Man,Rechts,2,
,xotask,xotask,dotcolour,36,3,216,516,main,negativefb,-99,hard,50,0.9172340999994049,['c'],1,left,['9'],5,0.15917629999967176,,,,,,,,25,18,Man,Rechts,2,
,xotask,xotask,dotcolour,37,3,217,517,main,negativefb,-99,easy,8,0.5512146000000939,['n'],1,right,['9'],5,0.1957141999992018,,,,,,,,25,18,Man,Rechts,2,
,xotask,xotask,dotcolour,38,3,218,518,main,negativefb,-99,average,19,0.4836383999991085,['n'],1,right,['9'],5,0.3460446999997657,,,,,,,,25,18,Man,Rechts,2,
,xotask,xotask,dotcolour,39,3,219,519,main,negativefb,-99,hard,53,0.6010271000013745,['c'],1,left,['9'],5,0.18892369999957737,,,,,,,,25,18,Man,Rechts,2,
,xotask,xotask,dotcolour,40,3,220,520,main,negativefb,-99,hard,27,0.8338793999992049,['n'],1,right,['9'],5,0.2207883999999467,,,,,,,,25,18,Man,Rechts,2,
,xotask,xotask,dotcolour,41,3,221,521,main,negativefb,-99,easy,71,0.5500606000005064,['c'],1,left,['9'],5,0.11090179999882821,,,,,,,,25,18,Man,Rechts,2,
,xotask,xotask,dotcolour,42,3,222,522,main,negativefb,-99,hard,27,1.6166370999999344,['n'],1,right,['9'],5,0.22730040000169538,,,,,,,,25,18,Man,Rechts,2,
,xotask,xotask,dotcolour,43,3,223,523,main,negativefb,-99,easy,9,1.31783440000072,['c'],0,right,['9'],5,0.13497669999924256,,,,,,,,25,18,Man,Rechts,2,
,xotask,xotask,dotcolour,44,3,224,524,main,negativefb,-99,hard,52,0.7167155999995884,['c'],1,left,['9'],5,0.13342289999854984,,,,,,,,25,18,Man,Rechts,2,
,xotask,xotask,dotcolour,45,3,225,525,main,negativefb,-99,hard,29,0.6679970000004687,['n'],1,right,['9'],5,0.1663155000005645,,,,,,,,25,18,Man,Rechts,2,
,xotask,xotask,dotcolour,46,3,226,526,main,negativefb,-99,easy,72,0.5341975999999704,['c'],1,left,['9'],5,0.17827550000038173,,,,,,,,25,18,Man,Rechts,2,
,xotask,xotask,dotcolour,47,3,227,527,main,negativefb,-99,hard,28,0.8177126999999018,['n'],1,right,['9'],5,0.19555339999897114,,,,,,,,25,18,Man,Rechts,2,
,xotask,xotask,dotcolour,48,3,228,528,main,negativefb,-99,average,63,0.6670203000012407,['c'],1,left,['9'],5,0.1300533000012365,,,,,,,,25,18,Man,Rechts,2,
,xotask,xotask,dotcolour,49,3,229,529,main,negativefb,-99,hard,51,0.6997042999992118,['c'],1,left,['9'],5,0.2184293999998772,,,,,,,,25,18,Man,Rechts,2,
,xotask,xotask,dotcolour,50,3,230,530,main,negativefb,-99,easy,73,0.5677046000000701,['c'],1,left,['9'],5,0.0678674000009778,,,,,,,,25,18,Man,Rechts,2,
,xotask,xotask,dotcolour,51,3,231,531,main,negativefb,-99,hard,52,0.6013289999991684,['c'],1,left,['9'],5,0.1221810999995796,,,,,,,,25,18,Man,Rechts,2,
,xotask,xotask,dotcolour,52,3,232,532,main,negativefb,-99,easy,6,0.6508036999985052,['n'],1,right,['9'],5,0.252278900001329,,,,,,,,25,18,Man,Rechts,2,
,xotask,xotask,dotcolour,53,3,233,533,main,negativefb,-99,easy,74,0.6339152999989892,['c'],1,left,['9'],5,0.08174020000114979,,,,,,,,25,18,Man,Rechts,2,
,xotask,xotask,dotcolour,54,3,234,534,main,negativefb,-99,average,64,0.6835260999996535,['c'],1,left,['9'],5,0.22814049999942654,,,,,,,,25,18,Man,Rechts,2,
,xotask,xotask,dotcolour,55,3,235,535,main,negativefb,-99,easy,71,0.6015904999985651,['c'],1,left,['9'],5,0.15568460000031337,,,,,,,,25,18,Man,Rechts,2,
,xotask,xotask,dotcolour,56,3,236,536,main,negativefb,-99,average,19,0.7846078000002308,['n'],1,right,['9'],5,0.1502332000000024,,,,,,,,25,18,Man,Rechts,2,
,xotask,xotask,dotcolour,57,3,237,537,main,negativefb,-99,hard,28,0.9679266999992251,['c'],0,right,['9'],5,0.9946297999995295,,,,,,,,25,18,Man,Rechts,2,
,xotask,xotask,dotcolour,58,3,238,538,main,negativefb,-99,average,17,0.416779499999393,['n'],1,right,['9'],5,0.2035515999996278,,,,,,,,25,18,Man,Rechts,2,
,xotask,xotask,dotcolour,59,3,239,539,main,negativefb,-99,easy,5,0.600321999998414,['n'],1,right,['9'],5,3.4761622000005445,,,,,,,,25,18,Man,Rechts,2,
,xotask,xotask,dotcolour,0,4,240,540,main,negativefb,-99,hard,27,0.6009792999993806,['n'],1,right,['9'],5,0.29601739999998244,,,,,,,,25,18,Man,Rechts,2,
,xotask,xotask,dotcolour,1,4,241,541,main,negativefb,-99,average,62,0.4676247000006697,['c'],1,left,['9'],5,0.1624125999987882,,,,,,,,25,18,Man,Rechts,2,
,xotask,xotask,dotcolour,2,4,242,542,main,negativefb,-99,hard,27,0.8346621000000596,['n'],1,right,['9'],5,0.18748110000160523,,,,,,,,25,18,Man,Rechts,2,
,xotask,xotask,dotcolour,3,4,243,543,main,negativefb,-99,hard,27,0.5853057999993325,['c'],0,right,['9'],5,0.14995070000077249,,,,,,,,25,18,Man,Rechts,2,
,xotask,xotask,dotcolour,4,4,244,544,main,negativefb,-99,easy,70,1.0488968999998178,['c'],1,left,['9'],5,0.11020800000005693,,,,,,,,25,18,Man,Rechts,2,
,xotask,xotask,dotcolour,5,4,245,545,main,negativefb,-99,hard,27,0.8004095000014786,['n'],1,right,['9'],5,0.1313378000013472,,,,,,,,25,18,Man,Rechts,2,
,xotask,xotask,dotcolour,6,4,246,546,main,negativefb,-99,hard,25,0.5511869000001752,['c'],0,right,['9'],5,0.25639010000122653,,,,,,,,25,18,Man,Rechts,2,
,xotask,xotask,dotcolour,7,4,247,547,main,negativefb,-99,easy,9,0.7169171000005008,['n'],1,right,['9'],5,0.1546007999986614,,,,,,,,25,18,Man,Rechts,2,
,xotask,xotask,dotcolour,8,4,248,548,main,negativefb,-99,easy,9,0.6514057000003959,['n'],1,right,['9'],5,0.16366460000062943,,,,,,,,25,18,Man,Rechts,2,
,xotask,xotask,dotcolour,9,4,249,549,main,negativefb,-99,hard,27,0.5849288000008528,['n'],1,right,['9'],5,0.2553795000003447,,,,,,,,25,18,Man,Rechts,2,
,xotask,xotask,dotcolour,10,4,250,550,main,negativefb,-99,easy,71,0.6496404000008624,['c'],1,left,['8'],4,0.2517076000003726,,,,,,,,25,18,Man,Rechts,2,
,xotask,xotask,dotcolour,11,4,251,551,main,negativefb,-99,easy,72,0.667518199999904,['c'],1,left,['8'],4,0.3355252000001201,,,,,,,,25,18,Man,Rechts,2,
,xotask,xotask,dotcolour,12,4,252,552,main,negativefb,-99,hard,52,1.1842508999998245,['c'],1,left,['8'],4,0.29141010000057577,,,,,,,,25,18,Man,Rechts,2,
,xotask,xotask,dotcolour,13,4,253,553,main,negativefb,-99,average,18,0.6174105999998574,['n'],1,right,['9'],5,0.04007949999868288,,,,,,,,25,18,Man,Rechts,2,
,xotask,xotask,dotcolour,14,4,254,554,main,negativefb,-99,average,61,0.6006567000003997,['c'],1,left,['9'],5,0.11900800000148593,,,,,,,,25,18,Man,Rechts,2,
,xotask,xotask,dotcolour,15,4,255,555,main,negativefb,-99,hard,53,0.6674352999998518,['c'],1,left,['9'],5,0.1530652999990707,,,,,,,,25,18,Man,Rechts,2,
,xotask,xotask,dotcolour,16,4,256,556,main,negativefb,-99,easy,72,0.5350791000000754,['c'],1,left,['8'],4,0.18211340000016207,,,,,,,,25,18,Man,Rechts,2,
,xotask,xotask,dotcolour,17,4,257,557,main,negativefb,-99,easy,9,0.5834138999998686,['n'],1,right,['9'],5,0.1758296000007249,,,,,,,,25,18,Man,Rechts,2,
,xotask,xotask,dotcolour,18,4,258,558,main,negativefb,-99,average,62,0.7348939999992581,['c'],1,left,['9'],5,0.14816370000153256,,,,,,,,25,18,Man,Rechts,2,
,xotask,xotask,dotcolour,19,4,259,559,main,negativefb,-99,hard,26,0.6347421999998915,['n'],1,right,['9'],5,0.15799019999940356,,,,,,,,25,18,Man,Rechts,2,
,xotask,xotask,dotcolour,20,4,260,560,main,negativefb,-99,average,64,0.5513670000000275,['c'],1,left,['9'],5,0.131118699999206,,,,,,,,25,18,Man,Rechts,2,
,xotask,xotask,dotcolour,21,4,261,561,main,negativefb,-99,hard,52,0.8512076000006346,['n'],0,left,['9'],5,0.11611949999860371,,,,,,,,25,18,Man,Rechts,2,
,xotask,xotask,dotcolour,22,4,262,562,main,negativefb,-99,easy,73,0.5352772999995068,['c'],1,left,['9'],5,0.20428790000005392,,,,,,,,25,18,Man,Rechts,2,
,xotask,xotask,dotcolour,23,4,263,563,main,negativefb,-99,hard,52,0.7170143000003009,['c'],1,left,['9'],5,0.231799699999101,,,,,,,,25,18,Man,Rechts,2,
,xotask,xotask,dotcolour,24,4,264,564,main,negativefb,-99,hard,52,0.8345445000013569,['n'],0,left,['0'],6,0.21399840000049153,,,,,,,,25,18,Man,Rechts,2,
,xotask,xotask,dotcolour,25,4,265,565,main,negativefb,-99,average,17,0.46688199999880453,['c'],0,right,['9'],5,0.3882938999995531,,,,,,,,25,18,Man,Rechts,2,
,xotask,xotask,dotcolour,26,4,266,566,main,negativefb,-99,easy,71,0.6172271000014007,['c'],1,left,['9'],5,0.24377459999959683,,,,,,,,25,18,Man,Rechts,2,
,xotask,xotask,dotcolour,27,4,267,567,main,negativefb,-99,average,19,0.8514782999991439,['n'],1,right,['8'],4,0.19310949999999139,,,,,,,,25,18,Man,Rechts,2,
,xotask,xotask,dotcolour,28,4,268,568,main,negativefb,-99,hard,50,0.6015586000012263,['c'],1,left,['0'],6,0.2590544000013324,,,,,,,,25,18,Man,Rechts,2,
,xotask,xotask,dotcolour,29,4,269,569,main,negativefb,-99,average,64,0.8169796999991377,['c'],1,left,['9'],5,0.11277610000070126,,,,,,,,25,18,Man,Rechts,2,
,xotask,xotask,dotcolour,30,4,270,570,main,negativefb,-99,average,19,0.5846365999987029,['n'],1,right,['9'],5,0.1657188999997743,,,,,,,,25,18,Man,Rechts,2,
,xotask,xotask,dotcolour,31,4,271,571,main,negativefb,-99,average,60,0.7672747999986314,['c'],1,left,['9'],5,0.241728900000453,,,,,,,,25,18,Man,Rechts,2,
,xotask,xotask,dotcolour,32,4,272,572,main,negativefb,-99,hard,27,0.7680799999998271,['n'],1,right,['9'],5,0.22626090000085242,,,,,,,,25,18,Man,Rechts,2,
,xotask,xotask,dotcolour,33,4,273,573,main,negativefb,-99,hard,53,1.099741100000756,['c'],1,left,['9'],5,0.2705353000001196,,,,,,,,25,18,Man,Rechts,2,
,xotask,xotask,dotcolour,34,4,274,574,main,negativefb,-99,average,17,0.4507689999991271,['n'],1,right,['9'],5,0.14616290000049048,,,,,,,,25,18,Man,Rechts,2,
,xotask,xotask,dotcolour,35,4,275,575,main,negativefb,-99,easy,72,0.5843027000009897,['c'],1,left,['9'],5,0.17390320000049542,,,,,,,,25,18,Man,Rechts,2,
,xotask,xotask,dotcolour,36,4,276,576,main,negativefb,-99,average,17,0.5338890999992145,['n'],1,right,['9'],5,0.1544343999994453,,,,,,,,25,18,Man,Rechts,2,
,xotask,xotask,dotcolour,37,4,277,577,main,negativefb,-99,hard,52,0.7178069999990839,['c'],1,left,['9'],5,0.13691199999993842,,,,,,,,25,18,Man,Rechts,2,
,xotask,xotask,dotcolour,38,4,278,578,main,negativefb,-99,easy,9,0.5675366000014037,['n'],1,right,['9'],5,0.16569700000036391,,,,,,,,25,18,Man,Rechts,2,
,xotask,xotask,dotcolour,39,4,279,579,main,negativefb,-99,hard,25,0.7513609000016004,['n'],1,right,['0'],6,0.20150549999925715,,,,,,,,25,18,Man,Rechts,2,
,xotask,xotask,dotcolour,40,4,280,580,main,negativefb,-99,average,19,0.5841316999994888,['c'],0,right,['0'],6,0.18691409999883035,,,,,,,,25,18,Man,Rechts,2,
,xotask,xotask,dotcolour,41,4,281,581,main,negativefb,-99,easy,72,0.8010278999990987,['c'],1,left,['0'],6,0.1402589999997872,,,,,,,,25,18,Man,Rechts,2,
,xotask,xotask,dotcolour,42,4,282,582,main,negativefb,-99,hard,54,0.9661773000007088,['c'],1,left,['9'],5,0.2409535999995569,,,,,,,,25,18,Man,Rechts,2,
,xotask,xotask,dotcolour,43,4,283,583,main,negativefb,-99,easy,7,0.4177770000005694,['n'],1,right,['9'],5,0.2639256000002206,,,,,,,,25,18,Man,Rechts,2,
,xotask,xotask,dotcolour,44,4,284,584,main,negativefb,-99,easy,8,0.6171517000002495,['c'],0,right,['1'],1,0.7576168999985384,,,,,,,,25,18,Man,Rechts,2,
,xotask,xotask,dotcolour,45,4,285,585,main,negativefb,-99,easy,8,0.6843886999995448,['n'],1,right,['9'],5,0.2773330999989412,,,,,,,,25,18,Man,Rechts,2,
,xotask,xotask,dotcolour,46,4,286,586,main,negativefb,-99,easy,74,0.7351165999989462,['c'],1,left,['0'],6,0.19819959999949788,,,,,,,,25,18,Man,Rechts,2,
,xotask,xotask,dotcolour,47,4,287,587,main,negativefb,-99,average,16,0.5680434000005334,['n'],1,right,['0'],6,0.1356300999996165,,,,,,,,25,18,Man,Rechts,2,
,xotask,xotask,dotcolour,48,4,288,588,main,negativefb,-99,easy,5,0.582902500000273,['n'],1,right,['0'],6,0.17230620000009367,,,,,,,,25,18,Man,Rechts,2,
,xotask,xotask,dotcolour,49,4,289,589,main,negativefb,-99,average,17,0.6328138000008039,['c'],0,right,['8'],4,0.19675420000021404,,,,,,,,25,18,Man,Rechts,2,
,xotask,xotask,dotcolour,50,4,290,590,main,negativefb,-99,easy,74,1.0009430999998585,['c'],1,left,['8'],4,0.38964130000022124,,,,,,,,25,18,Man,Rechts,2,
,xotask,xotask,dotcolour,51,4,291,591,main,negativefb,-99,hard,51,0.9841835999995965,['c'],1,left,['9'],5,0.3039343000000372,,,,,,,,25,18,Man,Rechts,2,
,xotask,xotask,dotcolour,52,4,292,592,main,negativefb,-99,average,17,0.7338796999993065,['n'],1,right,['0'],6,0.43897179999839864,,,,,,,,25,18,Man,Rechts,2,
,xotask,xotask,dotcolour,53,4,293,593,main,negativefb,-99,average,64,0.6010662999997294,['c'],1,left,['0'],6,0.26230329999998503,,,,,,,,25,18,Man,Rechts,2,
,xotask,xotask,dotcolour,54,4,294,594,main,negativefb,-99,hard,25,0.6845574999988457,['c'],0,right,['8'],4,0.5778857999994216,,,,,,,,25,18,Man,Rechts,2,
,xotask,xotask,dotcolour,55,4,295,595,main,negativefb,-99,average,60,0.6681733000004897,['c'],1,left,['9'],5,0.16096250000009604,,,,,,,,25,18,Man,Rechts,2,
,xotask,xotask,dotcolour,56,4,296,596,main,negativefb,-99,average,61,0.7504794999986188,['c'],1,left,['9'],5,0.34176730000035604,,,,,,,,25,18,Man,Rechts,2,
,xotask,xotask,dotcolour,57,4,297,597,main,negativefb,-99,average,63,0.5509799000010389,['c'],1,left,['9'],5,0.17900080000072194,,,,,,,,25,18,Man,Rechts,2,
,xotask,xotask,dotcolour,58,4,298,598,main,negativefb,-99,easy,8,0.5834889999987354,['n'],1,right,['9'],5,0.18964210000012827,,,,,,,,25,18,Man,Rechts,2,
,xotask,xotask,dotcolour,59,4,299,599,main,negativefb,-99,easy,8,0.6179146000013134,['n'],1,right,['9'],5,0.31787439999970957,,,,,,,,25,18,Man,Rechts,2,
,xotask,xotask,dotcolour,0,0,0,600,training,negativefb,48,average,17,0.7347915999998804,['n'],1,right,['9'],5,0.2247181000002456,,,,,,,,25,18,Man,Rechts,2,
,xotask,xotask,dotcolour,1,0,1,601,training,negativefb,58,average,17,0.6174995000001218,['n'],1,right,['9'],5,0.11174660000142467,,,,,,,,25,18,Man,Rechts,2,
,xotask,xotask,dotcolour,2,0,2,602,training,negativefb,68,easy,9,0.5490769000007276,['n'],1,right,['9'],5,0.10959929999989981,,,,,,,,25,18,Man,Rechts,2,
,xotask,xotask,dotcolour,3,0,3,603,training,negativefb,62,easy,70,0.4998696000002383,['c'],1,left,['9'],5,0.08543050000116637,,,,,,,,25,18,Man,Rechts,2,
,xotask,xotask,dotcolour,4,0,4,604,training,negativefb,55,hard,51,0.6331221999989793,['c'],1,left,['9'],5,0.08051640000121552,,,,,,,,25,18,Man,Rechts,2,
,xotask,xotask,dotcolour,5,0,5,605,training,negativefb,80,hard,54,0.48424119999981485,['c'],1,left,['9'],5,0.1540685999989364,,,,,,,,25,18,Man,Rechts,2,
,xotask,xotask,dotcolour,6,0,6,606,training,negativefb,79,hard,27,0.5670436999989761,['n'],1,right,['9'],5,0.1332273999996687,,,,,,,,25,18,Man,Rechts,2,
,xotask,xotask,dotcolour,7,0,7,607,training,negativefb,72,average,61,0.534676600000239,['c'],1,left,['9'],5,0.0752279999996972,,,,,,,,25,18,Man,Rechts,2,
,xotask,xotask,dotcolour,8,0,8,608,training,negativefb,82,easy,7,0.4659783000006428,['n'],1,right,['9'],5,0.1180672999998933,,,,,,,,25,18,Man,Rechts,2,
,xotask,xotask,dotcolour,9,0,9,609,training,negativefb,28,average,19,0.6997365999995964,['n'],1,right,['8'],4,0.19671870000092895,,,,,,,,25,18,Man,Rechts,2,
,xotask,xotask,dotcolour,10,0,10,610,training,negativefb,42,easy,9,0.5508451000005152,['n'],1,right,['9'],5,0.10375569999996515,,,,,,,,25,18,Man,Rechts,2,
,xotask,xotask,dotcolour,11,0,11,611,training,negativefb,64,easy,73,0.46652910000011616,['c'],1,left,['9'],5,0.06506939999962924,,,,,,,,25,18,Man,Rechts,2,
,xotask,xotask,dotcolour,12,0,12,612,training,negativefb,47,hard,52,0.8158538999996381,['c'],1,left,['9'],5,0.10982340000009572,,,,,,,,25,18,Man,Rechts,2,
,xotask,xotask,dotcolour,13,0,13,613,training,negativefb,46,easy,71,0.6675659999982599,['n'],0,left,['8'],4,0.6315470000008645,,,,,,,,25,18,Man,Rechts,2,
,xotask,xotask,dotcolour,14,0,14,614,training,negativefb,45,average,60,0.5678385000010167,['c'],1,left,['9'],5,0.1110236000004079,,,,,,,,25,18,Man,Rechts,2,
,xotask,xotask,dotcolour,15,0,15,615,training,negativefb,42,hard,29,0.65005679999922,['n'],1,right,['9'],5,0.09687350000058359,,,,,,,,25,18,Man,Rechts,2,
,xotask,xotask,dotcolour,16,0,16,616,training,negativefb,44,hard,53,0.5499541000008321,['n'],0,left,['9'],5,0.07944040000074892,,,,,,,,25,18,Man,Rechts,2,
,xotask,xotask,dotcolour,17,0,17,617,training,negativefb,56,hard,25,0.7165995999985171,['n'],1,right,['9'],5,0.07278170000063255,,,,,,,,25,18,Man,Rechts,2,
,xotask,xotask,dotcolour,18,0,18,618,training,negativefb,84,easy,71,0.43374930000027234,['c'],1,left,['9'],5,0.07589759999973467,,,,,,,,25,18,Man,Rechts,2,
,xotask,xotask,dotcolour,19,0,19,619,training,negativefb,58,hard,54,0.6344639999988431,['c'],1,left,['9'],5,0.13680089999979828,,,,,,,,25,18,Man,Rechts,2,
,xotask,xotask,dotcolour,20,0,20,620,training,negativefb,64,easy,6,0.5167799000009836,['n'],1,right,['9'],5,0.1267602000007173,,,,,,,,25,18,Man,Rechts,2,
,xotask,xotask,dotcolour,21,0,21,621,training,negativefb,20,hard,28,0.5165994000017236,['c'],0,right,['9'],5,0.14909400000033202,,,,,,,,25,18,Man,Rechts,2,
,xotask,xotask,dotcolour,22,0,22,622,training,negativefb,61,easy,73,0.5516862999993464,['c'],1,left,['9'],5,0.136951800001043,,,,,,,,25,18,Man,Rechts,2,
,xotask,xotask,dotcolour,23,0,23,623,training,negativefb,90,easy,73,0.5843361999995977,['c'],1,left,['9'],5,0.5572393000002194,,,,,,,,25,18,Man,Rechts,2,
,xotask,xotask,dotcolour,24,0,24,624,training,negativefb,81,average,62,0.46709939999891503,['c'],1,left,['9'],5,0.14005770000039774,,,,,,,,25,18,Man,Rechts,2,
,xotask,xotask,dotcolour,25,0,25,625,training,negativefb,62,easy,9,0.5842623999997159,['n'],1,right,['9'],5,0.11071149999952468,,,,,,,,25,18,Man,Rechts,2,
,xotask,xotask,dotcolour,26,0,26,626,training,negativefb,26,average,16,0.45001349999984086,['n'],1,right,['9'],5,0.09781950000069628,,,,,,,,25,18,Man,Rechts,2,
,xotask,xotask,dotcolour,27,0,27,627,training,negativefb,81,easy,8,0.533495399999083,['n'],1,right,['9'],5,0.0796277999997983,,,,,,,,25,18,Man,Rechts,2,
,xotask,xotask,dotcolour,28,0,28,628,training,negativefb,84,average,60,0.48311569999896165,['c'],1,left,['9'],5,0.10624469999856956,,,,,,,,25,18,Man,Rechts,2,
,xotask,xotask,dotcolour,29,0,29,629,training,negativefb,71,hard,52,0.583287499999642,['c'],1,left,['9'],5,0.0383070999996562,,,,,,,,25,18,Man,Rechts,2,
,xotask,xotask,dotcolour,30,0,30,630,training,negativefb,62,average,18,0.4169614000002184,['n'],1,right,['9'],5,0.07633689999966009,,,,,,,,25,18,Man,Rechts,2,
,xotask,xotask,dotcolour,31,0,31,631,training,negativefb,64,easy,7,0.5503764000004594,['n'],1,right,['9'],5,0.0839403999998467,,,,,,,,25,18,Man,Rechts,2,
,xotask,xotask,dotcolour,32,0,32,632,training,negativefb,74,easy,71,0.4508631000007881,['c'],1,left,['9'],5,0.06266800000048534,,,,,,,,25,18,Man,Rechts,2,
,xotask,xotask,dotcolour,33,0,33,633,training,negativefb,85,easy,70,0.4493024000003061,['c'],1,left,['9'],5,0.09080200000062177,,,,,,,,25,18,Man,Rechts,2,
,xotask,xotask,dotcolour,34,0,34,634,training,negativefb,56,average,19,0.5340933000006771,['n'],1,right,['9'],5,0.07330440000077942,,,,,,,,25,18,Man,Rechts,2,
,xotask,xotask,dotcolour,35,0,35,635,training,negativefb,89,easy,74,0.43291749999843887,['c'],1,left,['9'],5,0.15055579999898328,,,,,,,,25,18,Man,Rechts,2,
,xotask,xotask,dotcolour,36,0,36,636,training,negativefb,85,average,64,0.43400219999966794,['c'],1,left,['9'],5,0.08732790000067325,,,,,,,,25,18,Man,Rechts,2,
,xotask,xotask,dotcolour,37,0,37,637,training,negativefb,6,easy,8,0.40006050000010873,['c'],0,right,['8'],4,0.4988223000000289,,,,,,,,25,18,Man,Rechts,2,
,xotask,xotask,dotcolour,38,0,38,638,training,negativefb,70,average,16,0.6339485000007699,['n'],1,right,['9'],5,0.31008899999869755,,,,,,,,25,18,Man,Rechts,2,
,xotask,xotask,dotcolour,39,0,39,639,training,negativefb,50,hard,26,0.4833218999992823,['c'],0,right,['9'],5,0.1588214000003063,,,,,,,,25,18,Man,Rechts,2,
,xotask,xotask,dotcolour,40,0,40,640,training,negativefb,55,hard,26,1.1170430000001943,['n'],1,right,['9'],5,0.12352239999927406,,,,,,,,25,18,Man,Rechts,2,
,xotask,xotask,dotcolour,41,0,41,641,training,negativefb,58,hard,29,0.7991566000000603,['c'],0,right,['8'],4,0.15147109999998065,,,,,,,,25,18,Man,Rechts,2,
