starttime,task,fbtask,firsttask,withinblocktrial,block,withintasktrial,trial,running,feedback,fbscore,difflevel,n_xes,rt,resp,cor,cresp,conf_press,cj,RTconf,reddots,stoptime,sub,age,gender,handedness,session,
1715076131,xotask,xotask,dotcolour,0,0,0,0,training,positivefb,91,hard,51,1.5999817000001713,['c'],1,left,['3'],4,2.8271251999995,,,33,18,Vrouw,Links,1,
,xotask,xotask,dotcolour,1,0,1,1,training,positivefb,85,hard,27,1.4840350000004037,['n'],1,right,['3'],4,1.3902684999993653,,,33,18,Vrouw,Links,1,
,xotask,xotask,dotcolour,2,0,2,2,training,positivefb,66,average,63,1.466827899999771,['c'],1,left,['2'],5,0.6990341999999146,,,33,18,Vrouw,Links,1,
,xotask,xotask,dotcolour,3,0,3,3,training,positivefb,41,hard,52,1.8004330000003392,['n'],0,left,['3'],4,0.5103238000001511,,,33,18,Vrouw,Links,1,
,xotask,xotask,dotcolour,4,0,4,4,training,positivefb,25,hard,26,1.499007200000051,['c'],0,right,['3'],4,1.0313419000003705,,,33,18,Vrouw,Links,1,
,xotask,xotask,dotcolour,5,0,5,5,training,positivefb,99,average,64,1.5659781000003932,['c'],1,left,['3'],4,1.5351369999998496,,,33,18,Vrouw,Links,1,
,xotask,xotask,dotcolour,6,0,6,6,training,positivefb,87,hard,53,1.5511390000001484,['n'],0,left,['3'],4,2.331478099999913,,,33,18,Vrouw,Links,1,
,xotask,xotask,dotcolour,7,0,7,7,training,positivefb,99,easy,72,0.6334944999998697,['c'],1,left,['3'],4,0.7156980999998268,,,33,18,Vrouw,Links,1,
,xotask,xotask,dotcolour,8,0,8,8,training,positivefb,95,hard,27,0.9829015999994226,['n'],1,right,['3'],4,1.9836687999995775,,,33,18,Vrouw,Links,1,
,xotask,xotask,dotcolour,9,0,9,9,training,positivefb,60,hard,50,0.9677911999997377,['n'],0,left,['3'],4,1.400806100000409,,,33,18,Vrouw,Links,1,
,xotask,xotask,dotcolour,10,0,10,10,training,positivefb,79,easy,5,1.1003994000002422,['c'],0,right,['2'],5,0.5565599000001384,,,33,18,Vrouw,Links,1,
,xotask,xotask,dotcolour,11,0,11,11,training,positivefb,96,easy,5,1.5838161000001492,['n'],1,right,['2'],5,0.4625634000003629,,,33,18,Vrouw,Links,1,
,xotask,xotask,dotcolour,12,0,12,12,training,positivefb,57,easy,74,1.3656332000000475,['c'],1,left,['1'],6,0.950902199999291,,,33,18,Vrouw,Links,1,
,xotask,xotask,dotcolour,13,0,13,13,training,positivefb,76,hard,29,1.4337913999997909,['c'],0,right,['2'],5,0.551456700000017,,,33,18,Vrouw,Links,1,
,xotask,xotask,dotcolour,14,0,14,14,training,positivefb,98,average,60,1.0331950999998298,['c'],1,left,['1'],6,0.77588200000082,,,33,18,Vrouw,Links,1,
,xotask,xotask,dotcolour,15,0,15,15,training,positivefb,86,average,19,0.9995603999996092,['n'],1,right,['2'],5,0.5207061000000976,,,33,18,Vrouw,Links,1,
,xotask,xotask,dotcolour,16,0,16,16,training,positivefb,82,easy,8,0.7653452999993533,['c'],0,right,['2'],5,0.42252989999997226,,,33,18,Vrouw,Links,1,
,xotask,xotask,dotcolour,17,0,17,17,training,positivefb,13,average,19,0.8167388000001665,['c'],0,right,['3'],4,1.1331601000001683,,,33,18,Vrouw,Links,1,
,xotask,xotask,dotcolour,18,0,18,18,training,positivefb,99,easy,73,0.8844317000002775,['c'],1,left,['2'],5,0.9481808999998975,,,33,18,Vrouw,Links,1,
,xotask,xotask,dotcolour,19,0,19,19,training,positivefb,95,average,64,0.6508518999999069,['c'],1,left,['2'],5,0.2520876999997199,,,33,18,Vrouw,Links,1,
,xotask,xotask,dotcolour,20,0,20,20,training,positivefb,59,hard,53,1.2673377999999502,['n'],0,left,['2'],5,0.8639173000001392,,,33,18,Vrouw,Links,1,
,xotask,xotask,dotcolour,21,0,21,21,training,positivefb,83,hard,29,1.018622000000505,['c'],0,right,['2'],5,0.16443320000053063,,,33,18,Vrouw,Links,1,
,xotask,xotask,dotcolour,22,0,22,22,training,positivefb,91,average,19,0.9001170999999886,['c'],0,right,['2'],5,0.2825377999997727,,,33,18,Vrouw,Links,1,
,xotask,xotask,dotcolour,23,0,23,23,training,positivefb,91,easy,73,0.8826318999999785,['c'],1,left,['2'],5,0.11563480000040727,,,33,18,Vrouw,Links,1,
,xotask,xotask,dotcolour,24,0,24,24,training,positivefb,95,average,61,0.7515139999995881,['c'],1,left,['2'],5,0.11272469999948953,,,33,18,Vrouw,Links,1,
,xotask,xotask,dotcolour,25,0,25,25,training,positivefb,90,hard,25,0.6000269000005574,['c'],0,right,['1'],6,0.19613180000033026,,,33,18,Vrouw,Links,1,
,xotask,xotask,dotcolour,26,0,26,26,training,positivefb,96,hard,25,0.8180880999998408,['n'],1,right,['2'],5,0.20420170000033977,,,33,18,Vrouw,Links,1,
,xotask,xotask,dotcolour,27,0,27,27,training,positivefb,90,easy,8,0.6168809000000692,['c'],0,right,['2'],5,0.14815030000045226,,,33,18,Vrouw,Links,1,
,xotask,xotask,dotcolour,28,0,28,28,training,positivefb,95,easy,9,0.8834784999999101,['n'],1,right,['3'],4,0.25045940000018163,,,33,18,Vrouw,Links,1,
,xotask,xotask,dotcolour,29,0,29,29,training,positivefb,85,average,16,1.5665154999996957,['n'],1,right,['2'],5,0.31451839999954245,,,33,18,Vrouw,Links,1,
,xotask,xotask,dotcolour,30,0,30,30,training,positivefb,90,average,64,0.5825316000000385,['c'],1,left,['2'],5,0.21435399999973015,,,33,18,Vrouw,Links,1,
,xotask,xotask,dotcolour,31,0,31,31,training,positivefb,78,average,16,0.6495903000004546,['n'],1,right,['2'],5,0.2204652000000351,,,33,18,Vrouw,Links,1,
,xotask,xotask,dotcolour,32,0,32,32,training,positivefb,94,hard,54,0.7324017999999342,['c'],1,left,['3'],4,0.17441740000049322,,,33,18,Vrouw,Links,1,
,xotask,xotask,dotcolour,33,0,33,33,training,positivefb,87,hard,25,0.8172153999994407,['n'],1,right,['2'],5,0.2226479000000836,,,33,18,Vrouw,Links,1,
,xotask,xotask,dotcolour,34,0,34,34,training,positivefb,96,average,64,0.7511178999993717,['c'],1,left,['2'],5,0.9205277999999453,,,33,18,Vrouw,Links,1,
,xotask,xotask,dotcolour,35,0,35,35,training,positivefb,84,hard,27,0.6179052999996202,['c'],0,right,['2'],5,0.1546173999995517,,,33,18,Vrouw,Links,1,
,xotask,xotask,dotcolour,36,0,36,36,training,positivefb,94,easy,5,0.6335244000001694,['n'],1,right,['3'],4,0.22732660000019678,,,33,18,Vrouw,Links,1,
,xotask,xotask,dotcolour,37,0,37,37,training,positivefb,98,easy,8,0.6174151000004713,['n'],1,right,['2'],5,0.24219210000046587,,,33,18,Vrouw,Links,1,
,xotask,xotask,dotcolour,38,0,38,38,training,positivefb,92,easy,71,1.018180800000664,['c'],1,left,['2'],5,0.12007969999922352,,,33,18,Vrouw,Links,1,
,xotask,xotask,dotcolour,39,0,39,39,training,positivefb,99,easy,5,0.6326014999995095,['n'],1,right,['2'],5,0.23384639999949286,,,33,18,Vrouw,Links,1,
,xotask,xotask,dotcolour,40,0,40,40,training,positivefb,87,hard,50,1.434118799999851,['n'],0,left,['2'],5,0.254859700000452,,,33,18,Vrouw,Links,1,
,xotask,xotask,dotcolour,41,0,41,41,training,positivefb,92,average,63,0.6498589000002539,['c'],1,left,['2'],5,0.2192890999995143,,,33,18,Vrouw,Links,1,
,xotask,xotask,dotcolour,42,0,42,42,training,positivefb,91,hard,51,0.8494670999998561,['c'],1,left,['1'],6,0.21688750000066648,,,33,18,Vrouw,Links,1,
,xotask,xotask,dotcolour,43,0,43,43,training,positivefb,96,average,19,1.0839065999998638,['n'],1,right,['2'],5,0.7166870000000927,,,33,18,Vrouw,Links,1,
,xotask,xotask,dotcolour,44,0,44,44,training,positivefb,79,hard,25,0.6166492000002108,['c'],0,right,['2'],5,0.32699959999990824,,,33,18,Vrouw,Links,1,
,xotask,xotask,dotcolour,45,0,45,45,training,positivefb,88,easy,6,0.6844252000000779,['n'],1,right,['3'],4,0.24745369999982358,,,33,18,Vrouw,Links,1,
,xotask,xotask,dotcolour,46,0,46,46,training,positivefb,99,average,15,0.7341380999996545,['n'],1,right,['2'],5,0.20833769999990182,,,33,18,Vrouw,Links,1,
,xotask,xotask,dotcolour,47,0,47,47,training,positivefb,94,easy,70,0.6002495000002455,['c'],1,left,['2'],5,0.22445460000017192,,,33,18,Vrouw,Links,1,
,xotask,xotask,dotcolour,48,0,48,48,training,positivefb,97,easy,9,0.6341328000007707,['n'],1,right,['3'],4,0.30289600000014616,,,33,18,Vrouw,Links,1,
,xotask,xotask,dotcolour,49,0,49,49,training,positivefb,99,average,19,0.6837354999997842,['n'],1,right,['2'],5,0.2315787999996246,,,33,18,Vrouw,Links,1,
,xotask,xotask,dotcolour,50,0,50,50,training,positivefb,90,average,64,0.6844331000002057,['c'],1,left,['3'],4,0.31487399999969057,,,33,18,Vrouw,Links,1,
,xotask,xotask,dotcolour,51,0,51,51,training,positivefb,93,easy,73,0.551411200000075,['c'],1,left,['3'],4,0.15230140000039682,,,33,18,Vrouw,Links,1,
,xotask,xotask,dotcolour,52,0,52,52,training,positivefb,91,hard,52,0.7997348999997484,['c'],1,left,['2'],5,0.20173969999996189,,,33,18,Vrouw,Links,1,
,xotask,xotask,dotcolour,53,0,53,53,training,positivefb,94,easy,70,1.5502427999999782,['c'],1,left,['1'],6,0.24371380000047793,,,33,18,Vrouw,Links,1,
,xotask,xotask,dotcolour,54,0,54,54,training,positivefb,95,average,60,0.7832609000006414,['c'],1,left,['3'],4,0.21143130000018573,,,33,18,Vrouw,Links,1,
,xotask,xotask,dotcolour,55,0,55,55,training,positivefb,94,easy,71,0.6173203999996986,['c'],1,left,['2'],5,0.30695319999995263,,,33,18,Vrouw,Links,1,
,xotask,xotask,dotcolour,56,0,56,56,training,positivefb,96,hard,52,0.43266049999965617,['c'],1,left,['2'],5,0.05381099999976868,,,33,18,Vrouw,Links,1,
,xotask,xotask,dotcolour,57,0,57,57,training,positivefb,79,average,19,0.751174600000013,['n'],1,right,['2'],5,0.16532489999917743,,,33,18,Vrouw,Links,1,
,xotask,xotask,dotcolour,58,0,58,58,training,positivefb,93,average,16,0.733846000000085,['n'],1,right,['2'],5,0.16097919999992882,,,33,18,Vrouw,Links,1,
,xotask,xotask,dotcolour,59,0,59,59,training,positivefb,97,easy,72,0.5835115999998379,['c'],1,left,['2'],5,0.25148780000017723,,,33,18,Vrouw,Links,1,
,xotask,xotask,dotcolour,0,1,60,60,training,positivefb,92,easy,8,1.618290800000068,['n'],1,right,['2'],5,0.5414215999999215,,,33,18,Vrouw,Links,1,
,xotask,xotask,dotcolour,1,1,61,61,training,positivefb,60,hard,25,0.867570400000659,['n'],1,right,['2'],5,0.18052549999993062,,,33,18,Vrouw,Links,1,
,xotask,xotask,dotcolour,2,1,62,62,training,positivefb,92,hard,25,0.6177317000001494,['n'],1,right,['2'],5,0.06184250000023894,,,33,18,Vrouw,Links,1,
,xotask,xotask,dotcolour,3,1,63,63,training,positivefb,89,hard,54,1.215365400000337,['c'],1,left,['2'],5,0.12249960000008286,,,33,18,Vrouw,Links,1,
,xotask,xotask,dotcolour,4,1,64,64,training,positivefb,92,easy,71,0.5840432000004512,['c'],1,left,['2'],5,0.0947148000004745,,,33,18,Vrouw,Links,1,
,xotask,xotask,dotcolour,5,1,65,65,training,positivefb,97,average,17,0.53305200000068,['n'],1,right,['2'],5,0.10258870000052411,,,33,18,Vrouw,Links,1,
,xotask,xotask,dotcolour,6,1,66,66,training,positivefb,97,average,63,0.7174350999994203,['c'],1,left,['1'],6,0.15769730000010895,,,33,18,Vrouw,Links,1,
,xotask,xotask,dotcolour,7,1,67,67,training,positivefb,98,easy,6,0.5173721000001024,['n'],1,right,['1'],6,0.15434989999994286,,,33,18,Vrouw,Links,1,
,xotask,xotask,dotcolour,8,1,68,68,training,positivefb,98,hard,26,0.5328576000001704,['n'],1,right,['2'],5,0.13515189999998256,,,33,18,Vrouw,Links,1,
,xotask,xotask,dotcolour,9,1,69,69,training,positivefb,94,average,18,0.6340719999998328,['n'],1,right,['1'],6,0.08083540000006906,,,33,18,Vrouw,Links,1,
,xotask,xotask,dotcolour,10,1,70,70,training,positivefb,94,easy,74,0.46725229999992735,['c'],1,left,['2'],5,0.13949509999929433,,,33,18,Vrouw,Links,1,
,xotask,xotask,dotcolour,11,1,71,71,training,positivefb,98,easy,5,0.6336929999997665,['n'],1,right,['1'],6,0.14798830000017915,,,33,18,Vrouw,Links,1,
,xotask,xotask,dotcolour,12,1,72,72,training,positivefb,93,easy,73,0.6169154999997772,['c'],1,left,['1'],6,0.11839169999984733,,,33,18,Vrouw,Links,1,
,xotask,xotask,dotcolour,13,1,73,73,training,positivefb,99,average,18,0.49969030000011116,['n'],1,right,['1'],6,0.11715610000010201,,,33,18,Vrouw,Links,1,
,xotask,xotask,dotcolour,14,1,74,74,training,positivefb,96,average,60,0.6167979000001651,['c'],1,left,['1'],6,0.1596853999999439,,,33,18,Vrouw,Links,1,
,xotask,xotask,dotcolour,15,1,75,75,training,positivefb,93,easy,6,0.767801199999667,['n'],1,right,['1'],6,0.1152764999997089,,,33,18,Vrouw,Links,1,
,xotask,xotask,dotcolour,16,1,76,76,training,positivefb,98,easy,9,0.583801400000084,['n'],1,right,['2'],5,0.2234296999995422,,,33,18,Vrouw,Links,1,
,xotask,xotask,dotcolour,17,1,77,77,training,positivefb,10,easy,73,0.7675481000005675,['n'],0,left,['0'],1,2.471856299999672,,,33,18,Vrouw,Links,1,
,xotask,xotask,dotcolour,18,1,78,78,training,positivefb,91,easy,9,1.7504757000006066,['n'],1,right,['2'],5,0.27885539999988396,,,33,18,Vrouw,Links,1,
,xotask,xotask,dotcolour,19,1,79,79,training,positivefb,95,easy,71,1.5836042000000816,['c'],1,left,['1'],6,0.260909200000242,,,33,18,Vrouw,Links,1,
,xotask,xotask,dotcolour,20,1,80,80,training,positivefb,96,easy,7,1.4667208999999275,['n'],1,right,['2'],5,0.5997663999996803,,,33,18,Vrouw,Links,1,
,xotask,xotask,dotcolour,21,1,81,81,training,positivefb,96,hard,28,0.9992652000000817,['n'],1,right,['2'],5,0.22414649999973335,,,33,18,Vrouw,Links,1,
,xotask,xotask,dotcolour,22,1,82,82,training,positivefb,97,hard,53,0.7845422000000326,['c'],1,left,['1'],6,0.18403140000009444,,,33,18,Vrouw,Links,1,
,xotask,xotask,dotcolour,23,1,83,83,training,positivefb,98,easy,9,0.6677692000002935,['n'],1,right,['1'],6,0.1337543999998161,,,33,18,Vrouw,Links,1,
,xotask,xotask,dotcolour,24,1,84,84,training,positivefb,96,easy,74,0.6168613999998342,['c'],1,left,['1'],6,0.21573650000027556,,,33,18,Vrouw,Links,1,
,xotask,xotask,dotcolour,25,1,85,85,training,positivefb,91,hard,28,1.700666500000807,['n'],1,right,['2'],5,0.32357520000005024,,,33,18,Vrouw,Links,1,
,xotask,xotask,dotcolour,26,1,86,86,training,positivefb,93,average,15,0.782698199999686,['c'],0,right,['1'],6,0.1835397999993802,,,33,18,Vrouw,Links,1,
,xotask,xotask,dotcolour,27,1,87,87,training,positivefb,93,easy,72,1.0664647000003242,['c'],1,left,['1'],6,0.12556229999972857,,,33,18,Vrouw,Links,1,
,xotask,xotask,dotcolour,28,1,88,88,training,positivefb,97,hard,53,0.4670829999995476,['c'],1,left,['1'],6,0.11827379999976984,,,33,18,Vrouw,Links,1,
,xotask,xotask,dotcolour,29,1,89,89,training,positivefb,98,average,16,0.48321549999946,['n'],1,right,['2'],5,0.12612059999992198,,,33,18,Vrouw,Links,1,
,xotask,xotask,dotcolour,30,1,90,90,training,positivefb,91,average,64,0.4840417000004891,['c'],1,left,['1'],6,0.08647969999947236,,,33,18,Vrouw,Links,1,
,xotask,xotask,dotcolour,31,1,91,91,training,positivefb,75,hard,26,0.7009154000006674,['n'],1,right,['2'],5,0.43013599999994767,,,33,18,Vrouw,Links,1,
,xotask,xotask,dotcolour,32,1,92,92,training,positivefb,94,easy,71,0.46756659999937256,['c'],1,left,['2'],5,0.14747210000041377,,,33,18,Vrouw,Links,1,
,xotask,xotask,dotcolour,33,1,93,93,training,positivefb,87,average,17,0.48315610000008746,['n'],1,right,['1'],6,0.08255149999968125,,,33,18,Vrouw,Links,1,
,xotask,xotask,dotcolour,34,1,94,94,training,positivefb,88,hard,27,0.865631000000576,['n'],1,right,['1'],6,0.02877730000000156,,,33,18,Vrouw,Links,1,
,xotask,xotask,dotcolour,35,1,95,95,training,positivefb,91,average,61,0.6013287999994645,['c'],1,left,['1'],6,0.1964099000006172,,,33,18,Vrouw,Links,1,
,xotask,xotask,dotcolour,36,1,96,96,training,positivefb,93,easy,5,0.7324920999999449,['n'],1,right,['2'],5,0.2310790999999881,,,33,18,Vrouw,Links,1,
,xotask,xotask,dotcolour,37,1,97,97,training,positivefb,94,hard,50,0.5666037999999389,['c'],1,left,['1'],6,0.19928210000034596,,,33,18,Vrouw,Links,1,
,xotask,xotask,dotcolour,38,1,98,98,training,positivefb,97,easy,70,0.5336753999999928,['c'],1,left,['1'],6,0.17010649999974703,,,33,18,Vrouw,Links,1,
,xotask,xotask,dotcolour,39,1,99,99,training,positivefb,82,easy,8,2.9505019999996875,['n'],1,right,['1'],6,0.42963500000041677,,,33,18,Vrouw,Links,1,
,xotask,xotask,dotcolour,40,1,100,100,training,positivefb,70,hard,51,0.9335915999999997,['n'],0,left,['2'],5,0.3517489999994723,,,33,18,Vrouw,Links,1,
,xotask,xotask,dotcolour,41,1,101,101,training,positivefb,94,hard,50,0.9664408999997249,['c'],1,left,['3'],4,0.7076557000000321,,,33,18,Vrouw,Links,1,
,xotask,xotask,dotcolour,42,1,102,102,training,positivefb,39,average,63,1.7497984000001452,['n'],0,left,['3'],4,2.0572391000005155,,,33,18,Vrouw,Links,1,
,xotask,xotask,dotcolour,43,1,103,103,training,positivefb,89,hard,54,1.0165772000000288,['c'],1,left,['2'],5,1.189678300000196,,,33,18,Vrouw,Links,1,
,xotask,xotask,dotcolour,44,1,104,104,training,positivefb,98,average,16,0.5993393999997352,['n'],1,right,['2'],5,0.26990159999968455,,,33,18,Vrouw,Links,1,
,xotask,xotask,dotcolour,45,1,105,105,training,positivefb,91,average,60,0.5166984999996203,['c'],1,left,['1'],6,0.19139220000033674,,,33,18,Vrouw,Links,1,
,xotask,xotask,dotcolour,46,1,106,106,training,positivefb,82,hard,26,1.9504591000004439,['n'],1,right,['2'],5,0.5782483000002685,,,33,18,Vrouw,Links,1,
,xotask,xotask,dotcolour,47,1,107,107,training,positivefb,92,average,62,0.5503453000001173,['c'],1,left,['2'],5,0.10853140000017447,,,33,18,Vrouw,Links,1,
,xotask,xotask,dotcolour,48,1,108,108,training,positivefb,92,average,60,1.1996989999997822,['c'],1,left,['1'],6,0.4407443999998577,,,33,18,Vrouw,Links,1,
,xotask,xotask,dotcolour,49,1,109,109,training,positivefb,95,easy,72,0.6173757000005935,['c'],1,left,['1'],6,0.17482269999982236,,,33,18,Vrouw,Links,1,
,xotask,xotask,dotcolour,50,1,110,110,training,positivefb,96,hard,52,0.4673008999998274,['c'],1,left,['2'],5,0.10074119999990216,,,33,18,Vrouw,Links,1,
,xotask,xotask,dotcolour,51,1,111,111,training,positivefb,98,average,15,0.4163973000004262,['n'],1,right,['2'],5,0.1287345999999161,,,33,18,Vrouw,Links,1,
,xotask,xotask,dotcolour,52,1,112,112,training,positivefb,94,average,64,0.5336244000000079,['c'],1,left,['1'],6,0.15092660000027536,,,33,18,Vrouw,Links,1,
,xotask,xotask,dotcolour,53,1,113,113,training,positivefb,100,average,15,0.5671996000000945,['n'],1,right,['1'],6,0.34630159999960597,,,33,18,Vrouw,Links,1,
,xotask,xotask,dotcolour,54,1,114,114,training,positivefb,96,hard,53,0.6171855000002324,['c'],1,left,['1'],6,0.08366690000002563,,,33,18,Vrouw,Links,1,
,xotask,xotask,dotcolour,55,1,115,115,training,positivefb,88,average,18,0.7324230999993233,['n'],1,right,['1'],6,0.2191387000002578,,,33,18,Vrouw,Links,1,
,xotask,xotask,dotcolour,56,1,116,116,training,positivefb,94,hard,28,0.7337870000001203,['n'],1,right,['1'],6,0.17400499999985186,,,33,18,Vrouw,Links,1,
,xotask,xotask,dotcolour,57,1,117,117,training,positivefb,97,hard,53,0.4505591999995886,['n'],0,left,['2'],5,0.14088379999975587,,,33,18,Vrouw,Links,1,
,xotask,xotask,dotcolour,58,1,118,118,training,positivefb,75,average,64,0.5666569000004529,['c'],1,left,['1'],6,0.20875710000018444,,,33,18,Vrouw,Links,1,
,xotask,xotask,dotcolour,59,1,119,119,training,positivefb,91,hard,28,0.6506896000000779,['c'],0,right,['2'],5,0.1669050000000425,,,33,18,Vrouw,Links,1,
,dotcolour,xotask,dotcolour,0,2,120,120,main,positivefb,-99,average,,0.6183630999994421,['n'],1,right,['1'],6,1.3182950000000346,27,,33,18,Vrouw,Links,1,
,dotcolour,xotask,dotcolour,1,2,121,121,main,positivefb,-99,average,,0.6177779999998165,['n'],1,right,['1'],6,0.13707119999980932,27,,33,18,Vrouw,Links,1,
,dotcolour,xotask,dotcolour,2,2,122,122,main,positivefb,-99,average,,0.6180736999995133,['n'],1,right,['1'],6,0.14019900000039343,27,,33,18,Vrouw,Links,1,
,dotcolour,xotask,dotcolour,3,2,123,123,main,positivefb,-99,average,,0.5505161000000953,['c'],1,left,['1'],6,0.3055623000000196,52,,33,18,Vrouw,Links,1,
,dotcolour,xotask,dotcolour,4,2,124,124,main,positivefb,-99,hard,,2.551951899999949,['c'],0,right,['3'],4,0.5117301999998745,39,,33,18,Vrouw,Links,1,
,dotcolour,xotask,dotcolour,5,2,125,125,main,positivefb,-99,hard,,0.8846118999999817,['c'],1,left,['3'],4,0.5131335999994917,41,,33,18,Vrouw,Links,1,
,dotcolour,xotask,dotcolour,6,2,126,126,main,positivefb,-99,easy,,1.134689100000287,['c'],1,left,['1'],6,0.9370404000001145,63,,33,18,Vrouw,Links,1,
,dotcolour,xotask,dotcolour,7,2,127,127,main,positivefb,-99,easy,,0.5504580999995596,['n'],1,right,['1'],6,0.1100390999999945,18,,33,18,Vrouw,Links,1,
,dotcolour,xotask,dotcolour,8,2,128,128,main,positivefb,-99,easy,,0.5850415999993857,['c'],1,left,['3'],4,0.17992109999977401,61,,33,18,Vrouw,Links,1,
,dotcolour,xotask,dotcolour,9,2,129,129,main,positivefb,-99,easy,,1.0513731000000917,['c'],1,left,['1'],6,0.15572049999991577,62,,33,18,Vrouw,Links,1,
,dotcolour,xotask,dotcolour,10,2,130,130,main,positivefb,-99,hard,,1.0840757999994821,['n'],1,right,['1'],6,0.21111460000065563,38,,33,18,Vrouw,Links,1,
,dotcolour,xotask,dotcolour,11,2,131,131,main,positivefb,-99,easy,,0.7340353999998115,['c'],1,left,['1'],6,0.2545079000001351,64,,33,18,Vrouw,Links,1,
,dotcolour,xotask,dotcolour,12,2,132,132,main,positivefb,-99,easy,,0.9176951999997982,['n'],1,right,['2'],5,0.27195709999978135,19,,33,18,Vrouw,Links,1,
,dotcolour,xotask,dotcolour,13,2,133,133,main,positivefb,-99,easy,,0.9169437999998991,['n'],1,right,['1'],6,0.4650890000002619,19,,33,18,Vrouw,Links,1,
,dotcolour,xotask,dotcolour,14,2,134,134,main,positivefb,-99,average,,0.45044420000067475,['n'],1,right,['1'],6,0.16509190000033414,26,,33,18,Vrouw,Links,1,
,dotcolour,xotask,dotcolour,15,2,135,135,main,positivefb,-99,average,,1.2677879000002577,['c'],1,left,['1'],6,0.3574796000002607,51,,33,18,Vrouw,Links,1,
,dotcolour,xotask,dotcolour,16,2,136,136,main,positivefb,-99,average,,3.683931599999596,['n'],0,left,['3'],4,0.2762645999991946,51,,33,18,Vrouw,Links,1,
,dotcolour,xotask,dotcolour,17,2,137,137,main,positivefb,-99,hard,,2.502260899999783,['c'],0,right,['3'],4,0.5902077999999165,35,,33,18,Vrouw,Links,1,
,dotcolour,xotask,dotcolour,18,2,138,138,main,positivefb,-99,easy,,0.8007510999996157,['n'],1,right,['1'],6,0.2155638000003819,16,,33,18,Vrouw,Links,1,
,dotcolour,xotask,dotcolour,19,2,139,139,main,positivefb,-99,hard,,1.217953899999884,['n'],0,left,['1'],6,0.13498679999975138,43,,33,18,Vrouw,Links,1,
,dotcolour,xotask,dotcolour,20,2,140,140,main,positivefb,-99,hard,,1.1672121999999945,['n'],1,right,['2'],5,0.5076419000006354,35,,33,18,Vrouw,Links,1,
,dotcolour,xotask,dotcolour,21,2,141,141,main,positivefb,-99,easy,,0.5676470000007612,['n'],1,right,['1'],6,0.4973878999999215,15,,33,18,Vrouw,Links,1,
,dotcolour,xotask,dotcolour,22,2,142,142,main,positivefb,-99,average,,0.7339079000003039,['n'],1,right,['2'],5,0.15306080000027578,27,,33,18,Vrouw,Links,1,
,dotcolour,xotask,dotcolour,23,2,143,143,main,positivefb,-99,hard,,1.6682014999996682,['c'],0,right,['3'],4,0.16941339999993943,38,,33,18,Vrouw,Links,1,
,dotcolour,xotask,dotcolour,24,2,144,144,main,positivefb,-99,easy,,0.6838575000001583,['n'],1,right,['1'],6,0.19217140000000654,19,,33,18,Vrouw,Links,1,
,dotcolour,xotask,dotcolour,25,2,145,145,main,positivefb,-99,hard,,0.6174779000002673,['n'],1,right,['3'],4,0.24066579999998794,36,,33,18,Vrouw,Links,1,
,dotcolour,xotask,dotcolour,26,2,146,146,main,positivefb,-99,hard,,1.3180437000000893,['c'],1,left,['3'],4,0.46733359999961976,44,,33,18,Vrouw,Links,1,
,dotcolour,xotask,dotcolour,27,2,147,147,main,positivefb,-99,average,,1.584724900000765,['c'],1,left,['1'],6,0.2742861999995512,54,,33,18,Vrouw,Links,1,
,dotcolour,xotask,dotcolour,28,2,148,148,main,positivefb,-99,average,,0.48326129999986733,['n'],1,right,['1'],6,0.1490168000000267,29,,33,18,Vrouw,Links,1,
,dotcolour,xotask,dotcolour,29,2,149,149,main,positivefb,-99,easy,,0.7012904000002891,['c'],1,left,['1'],6,0.12390399999912916,61,,33,18,Vrouw,Links,1,
,dotcolour,xotask,dotcolour,30,2,150,150,main,positivefb,-99,average,,1.6658543000003192,['c'],1,left,['3'],4,0.14056449999952747,51,,33,18,Vrouw,Links,1,
,dotcolour,xotask,dotcolour,31,2,151,151,main,positivefb,-99,hard,,1.3339717999997447,['c'],1,left,['1'],6,0.20345059999999648,44,,33,18,Vrouw,Links,1,
,dotcolour,xotask,dotcolour,32,2,152,152,main,positivefb,-99,average,,0.8009698999994725,['c'],1,left,['1'],6,0.2752074999998513,54,,33,18,Vrouw,Links,1,
,dotcolour,xotask,dotcolour,33,2,153,153,main,positivefb,-99,easy,,1.1506585000006453,['n'],1,right,['1'],6,0.3801862999998775,17,,33,18,Vrouw,Links,1,
,dotcolour,xotask,dotcolour,34,2,154,154,main,positivefb,-99,hard,,0.8341278999996575,['c'],1,left,['1'],6,0.2920452000007572,43,,33,18,Vrouw,Links,1,
,dotcolour,xotask,dotcolour,35,2,155,155,main,positivefb,-99,average,,0.5004107000004296,['c'],1,left,['1'],6,0.157510099999854,52,,33,18,Vrouw,Links,1,
,dotcolour,xotask,dotcolour,36,2,156,156,main,positivefb,-99,average,,0.6505526999999347,['c'],1,left,['1'],6,0.13428290000047127,51,,33,18,Vrouw,Links,1,
,dotcolour,xotask,dotcolour,37,2,157,157,main,positivefb,-99,easy,,0.5836974000003465,['c'],0,right,['0'],1,2.5546834999995554,19,,33,18,Vrouw,Links,1,
,dotcolour,xotask,dotcolour,38,2,158,158,main,positivefb,-99,easy,,0.9670538000000306,['c'],1,left,['1'],6,0.7986191999998482,65,,33,18,Vrouw,Links,1,
,dotcolour,xotask,dotcolour,39,2,159,159,main,positivefb,-99,easy,,0.6343253999993976,['c'],1,left,['1'],6,0.10084169999936421,61,,33,18,Vrouw,Links,1,
,dotcolour,xotask,dotcolour,40,2,160,160,main,positivefb,-99,average,,0.4843919000004462,['c'],1,left,['1'],6,0.1026281000004019,55,,33,18,Vrouw,Links,1,
,dotcolour,xotask,dotcolour,41,2,161,161,main,positivefb,-99,easy,,0.5013435999999274,['c'],1,left,['1'],6,0.12749540000004345,63,,33,18,Vrouw,Links,1,
,dotcolour,xotask,dotcolour,42,2,162,162,main,positivefb,-99,easy,,0.8514365000000907,['n'],1,right,['1'],6,0.1772675000001982,17,,33,18,Vrouw,Links,1,
,dotcolour,xotask,dotcolour,43,2,163,163,main,positivefb,-99,average,,0.5180278999996517,['n'],1,right,['1'],6,0.07063040000048204,25,,33,18,Vrouw,Links,1,
,dotcolour,xotask,dotcolour,44,2,164,164,main,positivefb,-99,hard,,0.8165970999998535,['n'],0,left,['2'],5,0.11615660000006756,45,,33,18,Vrouw,Links,1,
,dotcolour,xotask,dotcolour,45,2,165,165,main,positivefb,-99,easy,,1.0514069999999265,['c'],1,left,['1'],6,0.21380820000013046,62,,33,18,Vrouw,Links,1,
,dotcolour,xotask,dotcolour,46,2,166,166,main,positivefb,-99,hard,,1.1343402999991667,['c'],0,right,['3'],4,0.24936729999990348,39,,33,18,Vrouw,Links,1,
,dotcolour,xotask,dotcolour,47,2,167,167,main,positivefb,-99,hard,,1.0838708999999653,['c'],1,left,['1'],6,0.19647130000066682,43,,33,18,Vrouw,Links,1,
,dotcolour,xotask,dotcolour,48,2,168,168,main,positivefb,-99,average,,0.6511430000000473,['c'],0,right,['1'],6,0.16330130000005738,28,,33,18,Vrouw,Links,1,
,dotcolour,xotask,dotcolour,49,2,169,169,main,positivefb,-99,hard,,0.9355255000000398,['c'],1,left,['3'],4,0.1685525000002599,45,,33,18,Vrouw,Links,1,
,dotcolour,xotask,dotcolour,50,2,170,170,main,positivefb,-99,hard,,0.7500493000006827,['c'],1,left,['3'],4,0.19639330000063637,42,,33,18,Vrouw,Links,1,
,dotcolour,xotask,dotcolour,51,2,171,171,main,positivefb,-99,hard,,0.8340275000000474,['n'],1,right,['3'],4,0.1405561999999918,35,,33,18,Vrouw,Links,1,
,dotcolour,xotask,dotcolour,52,2,172,172,main,positivefb,-99,average,,0.5177811000003203,['n'],1,right,['1'],6,0.2916447999996308,29,,33,18,Vrouw,Links,1,
,dotcolour,xotask,dotcolour,53,2,173,173,main,positivefb,-99,hard,,0.8337381999999707,['n'],1,right,['2'],5,0.14372779999939667,39,,33,18,Vrouw,Links,1,
,dotcolour,xotask,dotcolour,54,2,174,174,main,positivefb,-99,easy,,0.533593899999687,['n'],1,right,['1'],6,0.18981450000046607,15,,33,18,Vrouw,Links,1,
,dotcolour,xotask,dotcolour,55,2,175,175,main,positivefb,-99,hard,,0.9841353000001618,['n'],1,right,['2'],5,1.2477073999998538,35,,33,18,Vrouw,Links,1,
,dotcolour,xotask,dotcolour,56,2,176,176,main,positivefb,-99,hard,,0.7504248999994161,['n'],0,left,['2'],5,0.21631930000057764,43,,33,18,Vrouw,Links,1,
,dotcolour,xotask,dotcolour,57,2,177,177,main,positivefb,-99,average,,0.7331346999999369,['n'],1,right,['2'],5,0.06651930000043649,27,,33,18,Vrouw,Links,1,
,dotcolour,xotask,dotcolour,58,2,178,178,main,positivefb,-99,easy,,1.7173013999999966,['c'],1,left,['1'],6,0.7002646999999342,61,,33,18,Vrouw,Links,1,
,dotcolour,xotask,dotcolour,59,2,179,179,main,positivefb,-99,average,,1.817005799999606,['c'],1,left,['3'],4,0.8082887999999002,52,,33,18,Vrouw,Links,1,
,dotcolour,xotask,dotcolour,0,3,180,180,main,positivefb,-99,average,,2.0845359000004464,['n'],1,right,['1'],6,0.19781280000006518,25,,33,18,Vrouw,Links,1,
,dotcolour,xotask,dotcolour,1,3,181,181,main,positivefb,-99,hard,,0.9021350000002712,['c'],0,right,['1'],6,0.25012729999980365,39,,33,18,Vrouw,Links,1,
,dotcolour,xotask,dotcolour,2,3,182,182,main,positivefb,-99,average,,1.2011677999998938,['c'],0,right,['3'],4,0.20055759999922884,29,,33,18,Vrouw,Links,1,
,dotcolour,xotask,dotcolour,3,3,183,183,main,positivefb,-99,easy,,0.6344238000001496,['n'],1,right,['1'],6,0.1765772000007928,18,,33,18,Vrouw,Links,1,
,dotcolour,xotask,dotcolour,4,3,184,184,main,positivefb,-99,easy,,0.7514466000002358,['c'],1,left,['1'],6,0.2524081000001388,65,,33,18,Vrouw,Links,1,
,dotcolour,xotask,dotcolour,5,3,185,185,main,positivefb,-99,easy,,0.7331758000000264,['c'],1,left,['1'],6,0.10150239999984478,62,,33,18,Vrouw,Links,1,
,dotcolour,xotask,dotcolour,6,3,186,186,main,positivefb,-99,hard,,2.201976499999546,['n'],0,left,['2'],5,0.35434259999965434,41,,33,18,Vrouw,Links,1,
,dotcolour,xotask,dotcolour,7,3,187,187,main,positivefb,-99,easy,,0.9509144999992714,['c'],1,left,['1'],6,0.06259140000020125,64,,33,18,Vrouw,Links,1,
,dotcolour,xotask,dotcolour,8,3,188,188,main,positivefb,-99,average,,0.5328393999998298,['c'],1,left,['1'],6,0.11204229999930249,52,,33,18,Vrouw,Links,1,
,dotcolour,xotask,dotcolour,9,3,189,189,main,positivefb,-99,average,,0.633478799999466,['n'],1,right,['1'],6,0.4117452000000412,28,,33,18,Vrouw,Links,1,
,dotcolour,xotask,dotcolour,10,3,190,190,main,positivefb,-99,hard,,1.5169771999999284,['c'],1,left,['2'],5,0.31970819999969535,41,,33,18,Vrouw,Links,1,
,dotcolour,xotask,dotcolour,11,3,191,191,main,positivefb,-99,average,,0.5682103000008283,['n'],1,right,['1'],6,0.14829050000025745,25,,33,18,Vrouw,Links,1,
,dotcolour,xotask,dotcolour,12,3,192,192,main,positivefb,-99,easy,,0.6664041000003635,['c'],1,left,['1'],6,0.6124942000005831,62,,33,18,Vrouw,Links,1,
,dotcolour,xotask,dotcolour,13,3,193,193,main,positivefb,-99,hard,,1.2670890999997937,['n'],0,left,['3'],4,0.31500099999993836,41,,33,18,Vrouw,Links,1,
,dotcolour,xotask,dotcolour,14,3,194,194,main,positivefb,-99,hard,,0.6839317000003575,['c'],1,left,['3'],4,0.3079373000000487,42,,33,18,Vrouw,Links,1,
,dotcolour,xotask,dotcolour,15,3,195,195,main,positivefb,-99,hard,,0.5677043000005142,['n'],1,right,['3'],4,0.09745420000035665,36,,33,18,Vrouw,Links,1,
,dotcolour,xotask,dotcolour,16,3,196,196,main,positivefb,-99,average,,0.6666373000007297,['n'],1,right,['3'],4,0.09130679999998392,29,,33,18,Vrouw,Links,1,
,dotcolour,xotask,dotcolour,17,3,197,197,main,positivefb,-99,average,,0.6836628000000928,['n'],1,right,['2'],5,0.21338199999991048,27,,33,18,Vrouw,Links,1,
,dotcolour,xotask,dotcolour,18,3,198,198,main,positivefb,-99,average,,0.5684970000002068,['n'],1,right,['1'],6,0.12711269999999786,26,,33,18,Vrouw,Links,1,
,dotcolour,xotask,dotcolour,19,3,199,199,main,positivefb,-99,average,,0.6350523000000976,['n'],0,left,['3'],4,0.39443759999994654,54,,33,18,Vrouw,Links,1,
,dotcolour,xotask,dotcolour,20,3,200,200,main,positivefb,-99,easy,,1.1675003000000288,['c'],1,left,['1'],6,0.5094497000000047,64,,33,18,Vrouw,Links,1,
,dotcolour,xotask,dotcolour,21,3,201,201,main,positivefb,-99,average,,0.4515228999998726,['c'],1,left,['1'],6,0.07963420000032784,51,,33,18,Vrouw,Links,1,
,dotcolour,xotask,dotcolour,22,3,202,202,main,positivefb,-99,average,,0.6006417999997211,['c'],1,left,['2'],5,0.5820147000003999,54,,33,18,Vrouw,Links,1,
,dotcolour,xotask,dotcolour,23,3,203,203,main,positivefb,-99,average,,0.6336458999994647,['c'],1,left,['1'],6,0.23766109999996843,53,,33,18,Vrouw,Links,1,
,dotcolour,xotask,dotcolour,24,3,204,204,main,positivefb,-99,hard,,1.2999409000003652,['n'],1,right,['2'],5,0.16898549999950774,37,,33,18,Vrouw,Links,1,
,dotcolour,xotask,dotcolour,25,3,205,205,main,positivefb,-99,hard,,0.6336925999994492,['c'],0,right,['3'],4,2.2978821000006064,35,,33,18,Vrouw,Links,1,
,dotcolour,xotask,dotcolour,26,3,206,206,main,positivefb,-99,average,,1.118328599999586,['n'],1,right,['1'],6,0.08950880000065808,29,,33,18,Vrouw,Links,1,
,dotcolour,xotask,dotcolour,27,3,207,207,main,positivefb,-99,hard,,0.500717099999747,['n'],1,right,['1'],6,0.09139830000003712,36,,33,18,Vrouw,Links,1,
,dotcolour,xotask,dotcolour,28,3,208,208,main,positivefb,-99,easy,,0.5672676000003776,['n'],1,right,['1'],6,0.06550419999985024,18,,33,18,Vrouw,Links,1,
,dotcolour,xotask,dotcolour,29,3,209,209,main,positivefb,-99,hard,,0.44978900000023714,['n'],1,right,['2'],5,0.38966200000049867,39,,33,18,Vrouw,Links,1,
,dotcolour,xotask,dotcolour,30,3,210,210,main,positivefb,-99,easy,,0.6507083000005878,['n'],1,right,['1'],6,0.08513029999994615,18,,33,18,Vrouw,Links,1,
,dotcolour,xotask,dotcolour,31,3,211,211,main,positivefb,-99,easy,,1.10071009999956,['c'],1,left,['1'],6,0.29397160000007716,62,,33,18,Vrouw,Links,1,
,dotcolour,xotask,dotcolour,32,3,212,212,main,positivefb,-99,hard,,2.135468800000126,['c'],0,right,['1'],6,0.358620000000883,37,,33,18,Vrouw,Links,1,
,dotcolour,xotask,dotcolour,33,3,213,213,main,positivefb,-99,easy,,0.7020242999997208,['c'],1,left,['1'],6,0.10126059999947756,63,,33,18,Vrouw,Links,1,
,dotcolour,xotask,dotcolour,34,3,214,214,main,positivefb,-99,hard,,0.6006938000000446,['n'],1,right,['1'],6,0.11403060000066034,39,,33,18,Vrouw,Links,1,
,dotcolour,xotask,dotcolour,35,3,215,215,main,positivefb,-99,hard,,1.2511115999996036,['c'],1,left,['3'],4,0.580992299999707,42,,33,18,Vrouw,Links,1,
,dotcolour,xotask,dotcolour,36,3,216,216,main,positivefb,-99,easy,,0.6014508999996906,['n'],1,right,['1'],6,0.11771399999997811,16,,33,18,Vrouw,Links,1,
,dotcolour,xotask,dotcolour,37,3,217,217,main,positivefb,-99,hard,,0.934556899999734,['c'],1,left,['3'],4,0.3171850999997332,41,,33,18,Vrouw,Links,1,
,dotcolour,xotask,dotcolour,38,3,218,218,main,positivefb,-99,hard,,1.3342321000000084,['c'],0,right,['3'],4,0.116058300000077,38,,33,18,Vrouw,Links,1,
,dotcolour,xotask,dotcolour,39,3,219,219,main,positivefb,-99,hard,,1.3331480000006195,['c'],1,left,['2'],5,0.37803230000008625,41,,33,18,Vrouw,Links,1,
,dotcolour,xotask,dotcolour,40,3,220,220,main,positivefb,-99,average,,0.7835429000006116,['c'],1,left,['1'],6,0.2773071000001437,54,,33,18,Vrouw,Links,1,
,dotcolour,xotask,dotcolour,41,3,221,221,main,positivefb,-99,hard,,2.0002709000000323,['c'],0,right,['3'],4,0.1556548999997176,38,,33,18,Vrouw,Links,1,
,dotcolour,xotask,dotcolour,42,3,222,222,main,positivefb,-99,average,,0.7684564000001046,['c'],1,left,['3'],4,0.4071938000006412,51,,33,18,Vrouw,Links,1,
,dotcolour,xotask,dotcolour,43,3,223,223,main,positivefb,-99,easy,,1.185515000000123,['n'],1,right,['1'],6,0.10491790000014589,15,,33,18,Vrouw,Links,1,
,dotcolour,xotask,dotcolour,44,3,224,224,main,positivefb,-99,hard,,1.0838966999999684,['c'],1,left,['2'],5,0.2737919999999576,42,,33,18,Vrouw,Links,1,
,dotcolour,xotask,dotcolour,45,3,225,225,main,positivefb,-99,average,,0.8505873000003703,['c'],1,left,['2'],5,0.15771230000063952,53,,33,18,Vrouw,Links,1,
,dotcolour,xotask,dotcolour,46,3,226,226,main,positivefb,-99,easy,,0.9174519999996846,['c'],0,right,['0'],1,1.4839122000003044,17,,33,18,Vrouw,Links,1,
,dotcolour,xotask,dotcolour,47,3,227,227,main,positivefb,-99,easy,,1.2011760999994294,['c'],1,left,['1'],6,0.20052930000019842,64,,33,18,Vrouw,Links,1,
,dotcolour,xotask,dotcolour,48,3,228,228,main,positivefb,-99,easy,,0.6179659999997966,['c'],1,left,['1'],6,0.2409631000000445,61,,33,18,Vrouw,Links,1,
,dotcolour,xotask,dotcolour,49,3,229,229,main,positivefb,-99,average,,0.48485170000003563,['c'],1,left,['1'],6,0.18122589999984484,54,,33,18,Vrouw,Links,1,
,dotcolour,xotask,dotcolour,50,3,230,230,main,positivefb,-99,easy,,0.45041930000024877,['c'],0,right,['0'],1,1.3646882999992158,15,,33,18,Vrouw,Links,1,
,dotcolour,xotask,dotcolour,51,3,231,231,main,positivefb,-99,average,,2.7017205000001923,['c'],1,left,['2'],5,1.4983351000000766,53,,33,18,Vrouw,Links,1,
,dotcolour,xotask,dotcolour,52,3,232,232,main,positivefb,-99,easy,,0.5999758000007205,['n'],1,right,['1'],6,0.2865949000006367,17,,33,18,Vrouw,Links,1,
,dotcolour,xotask,dotcolour,53,3,233,233,main,positivefb,-99,easy,,1.0012353000001895,['c'],1,left,['1'],6,0.15625140000065585,63,,33,18,Vrouw,Links,1,
,dotcolour,xotask,dotcolour,54,3,234,234,main,positivefb,-99,average,,0.5173076999999466,['n'],1,right,['1'],6,0.2819884999998976,28,,33,18,Vrouw,Links,1,
,dotcolour,xotask,dotcolour,55,3,235,235,main,positivefb,-99,easy,,0.5514892000001055,['n'],1,right,['1'],6,0.20150980000016716,19,,33,18,Vrouw,Links,1,
,dotcolour,xotask,dotcolour,56,3,236,236,main,positivefb,-99,hard,,0.7347604999995383,['c'],1,left,['1'],6,0.22933809999994992,45,,33,18,Vrouw,Links,1,
,dotcolour,xotask,dotcolour,57,3,237,237,main,positivefb,-99,average,,1.2683356000006825,['n'],1,right,['1'],6,0.19394790000023931,26,,33,18,Vrouw,Links,1,
,dotcolour,xotask,dotcolour,58,3,238,238,main,positivefb,-99,easy,,0.4348475000006147,['n'],1,right,['1'],6,0.14627950000067358,15,,33,18,Vrouw,Links,1,
,dotcolour,xotask,dotcolour,59,3,239,239,main,positivefb,-99,hard,,0.6838111999995817,['c'],1,left,['1'],6,0.13000889999966603,42,,33,18,Vrouw,Links,1,
,dotcolour,xotask,dotcolour,0,4,240,240,main,positivefb,-99,easy,,0.9175405000005412,['n'],1,right,['1'],6,0.17288209999969695,16,,33,18,Vrouw,Links,1,
,dotcolour,xotask,dotcolour,1,4,241,241,main,positivefb,-99,hard,,0.6339002000004257,['n'],1,right,['1'],6,0.09349399999973684,36,,33,18,Vrouw,Links,1,
,dotcolour,xotask,dotcolour,2,4,242,242,main,positivefb,-99,easy,,1.1676766999999018,['c'],1,left,['1'],6,0.8518779000005452,63,,33,18,Vrouw,Links,1,
,dotcolour,xotask,dotcolour,3,4,243,243,main,positivefb,-99,easy,,0.5846504000001005,['n'],1,right,['1'],6,0.09059870000055525,17,,33,18,Vrouw,Links,1,
,dotcolour,xotask,dotcolour,4,4,244,244,main,positivefb,-99,average,,0.8680264000004172,['c'],1,left,['1'],6,0.05418240000017249,54,,33,18,Vrouw,Links,1,
,dotcolour,xotask,dotcolour,5,4,245,245,main,positivefb,-99,average,,0.5175100999995266,['n'],1,right,['1'],6,0.09622239999953308,29,,33,18,Vrouw,Links,1,
,dotcolour,xotask,dotcolour,6,4,246,246,main,positivefb,-99,hard,,1.1002034000002823,['c'],0,right,['3'],4,0.08110060000035446,38,,33,18,Vrouw,Links,1,
,dotcolour,xotask,dotcolour,7,4,247,247,main,positivefb,-99,hard,,1.0504201000003377,['c'],1,left,['0'],1,1.636182899999767,43,,33,18,Vrouw,Links,1,
,dotcolour,xotask,dotcolour,8,4,248,248,main,positivefb,-99,hard,,0.78433270000005,['n'],1,right,['1'],6,0.13981800000055955,36,,33,18,Vrouw,Links,1,
,dotcolour,xotask,dotcolour,9,4,249,249,main,positivefb,-99,easy,,0.7520338999993328,['c'],1,left,['1'],6,0.25768580000021757,64,,33,18,Vrouw,Links,1,
,dotcolour,xotask,dotcolour,10,4,250,250,main,positivefb,-99,average,,0.7003416999996261,['c'],1,left,['1'],6,0.2369966000005661,54,,33,18,Vrouw,Links,1,
,dotcolour,xotask,dotcolour,11,4,251,251,main,positivefb,-99,average,,0.7508117000006678,['n'],0,left,['1'],6,0.26174249999985477,53,,33,18,Vrouw,Links,1,
,dotcolour,xotask,dotcolour,12,4,252,252,main,positivefb,-99,easy,,0.6011467999996967,['n'],1,right,['1'],6,0.11645010000029288,18,,33,18,Vrouw,Links,1,
,dotcolour,xotask,dotcolour,13,4,253,253,main,positivefb,-99,hard,,0.5508232000001954,['n'],1,right,['1'],6,0.12236430000029941,35,,33,18,Vrouw,Links,1,
,dotcolour,xotask,dotcolour,14,4,254,254,main,positivefb,-99,average,,0.7673396999998658,['n'],1,right,['1'],6,0.5676927000004071,29,,33,18,Vrouw,Links,1,
,dotcolour,xotask,dotcolour,15,4,255,255,main,positivefb,-99,easy,,0.5179260999993858,['n'],1,right,['1'],6,0.1969939999999042,18,,33,18,Vrouw,Links,1,
,dotcolour,xotask,dotcolour,16,4,256,256,main,positivefb,-99,average,,0.8006695000003674,['c'],1,left,['2'],5,2.4141182000003027,53,,33,18,Vrouw,Links,1,
,dotcolour,xotask,dotcolour,17,4,257,257,main,positivefb,-99,easy,,0.7009387000007337,['c'],1,left,['1'],6,0.28188760000011825,64,,33,18,Vrouw,Links,1,
,dotcolour,xotask,dotcolour,18,4,258,258,main,positivefb,-99,average,,0.9180792000006477,['n'],1,right,['3'],4,0.14772999999968306,25,,33,18,Vrouw,Links,1,
,dotcolour,xotask,dotcolour,19,4,259,259,main,positivefb,-99,hard,,1.6337974999996732,['n'],0,left,['2'],5,0.14832299999943643,41,,33,18,Vrouw,Links,1,
,dotcolour,xotask,dotcolour,20,4,260,260,main,positivefb,-99,hard,,0.7018606000001455,['n'],1,right,['3'],4,0.5551100000002407,39,,33,18,Vrouw,Links,1,
,dotcolour,xotask,dotcolour,21,4,261,261,main,positivefb,-99,easy,,0.8678464000004169,['c'],1,left,['1'],6,0.1628700999999637,65,,33,18,Vrouw,Links,1,
,dotcolour,xotask,dotcolour,22,4,262,262,main,positivefb,-99,average,,0.6175772999995388,['n'],1,right,['1'],6,0.1730176000000938,27,,33,18,Vrouw,Links,1,
,dotcolour,xotask,dotcolour,23,4,263,263,main,positivefb,-99,hard,,1.2509663999999248,['n'],0,left,['1'],6,0.08527679999951943,42,,33,18,Vrouw,Links,1,
,dotcolour,xotask,dotcolour,24,4,264,264,main,positivefb,-99,average,,0.9173758999995698,['c'],1,left,['1'],6,0.23741549999976996,55,,33,18,Vrouw,Links,1,
,dotcolour,xotask,dotcolour,25,4,265,265,main,positivefb,-99,easy,,0.601343899999847,['n'],1,right,['1'],6,1.2048274999997375,15,,33,18,Vrouw,Links,1,
,dotcolour,xotask,dotcolour,26,4,266,266,main,positivefb,-99,average,,0.5849538000002212,['c'],1,left,['1'],6,0.23811049999949319,52,,33,18,Vrouw,Links,1,
,dotcolour,xotask,dotcolour,27,4,267,267,main,positivefb,-99,easy,,0.567971999999827,['c'],1,left,['1'],6,0.22346939999988535,62,,33,18,Vrouw,Links,1,
,dotcolour,xotask,dotcolour,28,4,268,268,main,positivefb,-99,easy,,0.4178297999997085,['c'],1,left,['1'],6,0.1905254999992394,64,,33,18,Vrouw,Links,1,
,dotcolour,xotask,dotcolour,29,4,269,269,main,positivefb,-99,easy,,0.450403699999697,['c'],1,left,['1'],6,0.20548280000002705,61,,33,18,Vrouw,Links,1,
,dotcolour,xotask,dotcolour,30,4,270,270,main,positivefb,-99,easy,,0.4180971000005229,['c'],1,left,['1'],6,0.17350919999989856,64,,33,18,Vrouw,Links,1,
,dotcolour,xotask,dotcolour,31,4,271,271,main,positivefb,-99,average,,0.6016681000000972,['n'],1,right,['1'],6,0.2483114000006026,28,,33,18,Vrouw,Links,1,
,dotcolour,xotask,dotcolour,32,4,272,272,main,positivefb,-99,average,,0.416603199999372,['c'],1,left,['1'],6,0.14933320000000094,51,,33,18,Vrouw,Links,1,
,dotcolour,xotask,dotcolour,33,4,273,273,main,positivefb,-99,easy,,0.5507676999995965,['n'],1,right,['1'],6,0.13866570000027423,16,,33,18,Vrouw,Links,1,
,dotcolour,xotask,dotcolour,34,4,274,274,main,positivefb,-99,easy,,0.5505545000005441,['n'],1,right,['1'],6,0.19913919999999052,15,,33,18,Vrouw,Links,1,
,dotcolour,xotask,dotcolour,35,4,275,275,main,positivefb,-99,average,,0.8000803000004453,['n'],1,right,['1'],6,0.9201712000003681,29,,33,18,Vrouw,Links,1,
,dotcolour,xotask,dotcolour,36,4,276,276,main,positivefb,-99,hard,,0.6007970000000569,['n'],0,left,['1'],6,0.08483599999999569,41,,33,18,Vrouw,Links,1,
,dotcolour,xotask,dotcolour,37,4,277,277,main,positivefb,-99,hard,,0.83528860000024,['c'],0,right,['1'],6,0.1607904000002236,35,,33,18,Vrouw,Links,1,
,dotcolour,xotask,dotcolour,38,4,278,278,main,positivefb,-99,hard,,1.317231100000754,['n'],0,left,['3'],4,0.03034990000014659,43,,33,18,Vrouw,Links,1,
,dotcolour,xotask,dotcolour,39,4,279,279,main,positivefb,-99,hard,,1.1665356000003158,['n'],1,right,['1'],6,0.05569140000079642,35,,33,18,Vrouw,Links,1,
,dotcolour,xotask,dotcolour,40,4,280,280,main,positivefb,-99,easy,,0.8186901999997644,['c'],1,left,['1'],6,0.2857795999998416,65,,33,18,Vrouw,Links,1,
,dotcolour,xotask,dotcolour,41,4,281,281,main,positivefb,-99,easy,,0.8333137999998144,['c'],1,left,['1'],6,0.2102301000004445,65,,33,18,Vrouw,Links,1,
,dotcolour,xotask,dotcolour,42,4,282,282,main,positivefb,-99,average,,0.9666375000006155,['n'],1,right,['2'],5,0.548210700000709,26,,33,18,Vrouw,Links,1,
,dotcolour,xotask,dotcolour,43,4,283,283,main,positivefb,-99,hard,,0.6172459999997955,['n'],1,right,['2'],5,0.26136270000006334,35,,33,18,Vrouw,Links,1,
,dotcolour,xotask,dotcolour,44,4,284,284,main,positivefb,-99,average,,1.068731200000002,['c'],1,left,['2'],5,0.10575150000022404,52,,33,18,Vrouw,Links,1,
,dotcolour,xotask,dotcolour,45,4,285,285,main,positivefb,-99,easy,,0.7682480000003125,['n'],1,right,['1'],6,0.1755273999997371,19,,33,18,Vrouw,Links,1,
,dotcolour,xotask,dotcolour,46,4,286,286,main,positivefb,-99,average,,1.3339655999998286,['c'],0,right,['2'],5,0.1321933999997782,25,,33,18,Vrouw,Links,1,
,dotcolour,xotask,dotcolour,47,4,287,287,main,positivefb,-99,hard,,2.1843736000000717,['c'],1,left,['1'],6,0.1599222999993799,42,,33,18,Vrouw,Links,1,
,dotcolour,xotask,dotcolour,48,4,288,288,main,positivefb,-99,hard,,0.6514421000001676,['n'],1,right,['2'],5,0.6251463999997213,36,,33,18,Vrouw,Links,1,
,dotcolour,xotask,dotcolour,49,4,289,289,main,positivefb,-99,easy,,0.5166812999996182,['n'],1,right,['2'],5,0.09205430000019987,15,,33,18,Vrouw,Links,1,
,dotcolour,xotask,dotcolour,50,4,290,290,main,positivefb,-99,average,,0.45160610000039014,['n'],1,right,['1'],6,0.1682109000003038,25,,33,18,Vrouw,Links,1,
,dotcolour,xotask,dotcolour,51,4,291,291,main,positivefb,-99,average,,0.684092800000144,['c'],1,left,['1'],6,0.23034410000036587,54,,33,18,Vrouw,Links,1,
,dotcolour,xotask,dotcolour,52,4,292,292,main,positivefb,-99,hard,,1.501182300000437,['n'],0,left,['3'],4,0.10625119999986055,45,,33,18,Vrouw,Links,1,
,dotcolour,xotask,dotcolour,53,4,293,293,main,positivefb,-99,average,,0.6345294000002468,['c'],1,left,['1'],6,0.18972299999950337,55,,33,18,Vrouw,Links,1,
,dotcolour,xotask,dotcolour,54,4,294,294,main,positivefb,-99,easy,,0.48461309999947844,['n'],1,right,['2'],5,0.20344610000029206,19,,33,18,Vrouw,Links,1,
,dotcolour,xotask,dotcolour,55,4,295,295,main,positivefb,-99,average,,0.5331656999996994,['n'],1,right,['1'],6,0.16722420000041893,26,,33,18,Vrouw,Links,1,
,dotcolour,xotask,dotcolour,56,4,296,296,main,positivefb,-99,hard,,0.7511423000005379,['c'],1,left,['3'],4,0.2514867999998387,45,,33,18,Vrouw,Links,1,
,dotcolour,xotask,dotcolour,57,4,297,297,main,positivefb,-99,hard,,2.268034799999441,['n'],1,right,['2'],5,0.2308788000000277,37,,33,18,Vrouw,Links,1,
,dotcolour,xotask,dotcolour,58,4,298,298,main,positivefb,-99,hard,,0.5346859000001132,['n'],0,left,['2'],5,0.14488799999980984,43,,33,18,Vrouw,Links,1,
,dotcolour,xotask,dotcolour,59,4,299,299,main,positivefb,-99,hard,,0.700826600000255,['c'],1,left,['3'],4,0.20868530000007013,44,,33,18,Vrouw,Links,1,
,xotask,xotask,dotcolour,0,0,0,300,training,positivefb,100,easy,72,0.6846066999996765,['c'],1,left,['2'],5,0.7637007000002995,,,33,18,Vrouw,Links,1,
,xotask,xotask,dotcolour,1,0,1,301,training,positivefb,99,easy,70,0.6677771000004213,['c'],1,left,['1'],6,0.17895390000012412,,,33,18,Vrouw,Links,1,
,xotask,xotask,dotcolour,2,0,2,302,training,positivefb,94,easy,8,0.5505173999999897,['n'],1,right,['2'],5,0.16649950000009994,,,33,18,Vrouw,Links,1,
,xotask,xotask,dotcolour,3,0,3,303,training,positivefb,95,easy,5,0.6002394999995886,['n'],1,right,['2'],5,0.17554639999980282,,,33,18,Vrouw,Links,1,
,xotask,xotask,dotcolour,4,0,4,304,training,positivefb,93,easy,70,0.6832966000001761,['c'],1,left,['2'],5,0.17445799999950395,,,33,18,Vrouw,Links,1,
,xotask,xotask,dotcolour,5,0,5,305,training,positivefb,93,average,15,0.46722090000002936,['c'],0,right,['2'],5,0.20455060000040248,,,33,18,Vrouw,Links,1,
,xotask,xotask,dotcolour,6,0,6,306,training,positivefb,89,hard,28,0.6838922999995702,['c'],0,right,['2'],5,0.2252622000005431,,,33,18,Vrouw,Links,1,
,xotask,xotask,dotcolour,7,0,7,307,training,positivefb,93,hard,28,0.6833464000001186,['c'],0,right,['2'],5,0.08515879999958997,,,33,18,Vrouw,Links,1,
,xotask,xotask,dotcolour,8,0,8,308,training,positivefb,93,easy,5,0.5659122999995816,['n'],1,right,['2'],5,0.10717890000069019,,,33,18,Vrouw,Links,1,
,xotask,xotask,dotcolour,9,0,9,309,training,positivefb,87,hard,50,0.5824357999999847,['n'],0,left,['1'],6,0.10385630000018864,,,33,18,Vrouw,Links,1,
,xotask,xotask,dotcolour,10,0,10,310,training,positivefb,96,average,15,0.7665870999999242,['n'],1,right,['2'],5,0.15688589999990654,,,33,18,Vrouw,Links,1,
,xotask,xotask,dotcolour,11,0,11,311,training,positivefb,67,hard,53,0.8665909000001193,['c'],1,left,['2'],5,0.18078789999981382,,,33,18,Vrouw,Links,1,
,xotask,xotask,dotcolour,12,0,12,312,training,positivefb,99,average,16,0.8167319000003772,['n'],1,right,['3'],4,0.7249774000001707,,,33,18,Vrouw,Links,1,
,xotask,xotask,dotcolour,13,0,13,313,training,positivefb,98,average,18,0.7328796000001603,['n'],1,right,['2'],5,0.10709969999970781,,,33,18,Vrouw,Links,1,
,xotask,xotask,dotcolour,14,0,14,314,training,positivefb,47,easy,72,1.4509080000007089,['c'],1,left,['2'],5,0.17361210000035499,,,33,18,Vrouw,Links,1,
,xotask,xotask,dotcolour,15,0,15,315,training,positivefb,97,average,64,1.2670942000004288,['c'],1,left,['2'],5,0.24378359999991517,,,33,18,Vrouw,Links,1,
,xotask,xotask,dotcolour,16,0,16,316,training,positivefb,92,average,64,0.6503264000002673,['c'],1,left,['3'],4,0.24019310000039695,,,33,18,Vrouw,Links,1,
,xotask,xotask,dotcolour,17,0,17,317,training,positivefb,97,hard,54,0.5002050000002782,['c'],1,left,['2'],5,0.21093689999997878,,,33,18,Vrouw,Links,1,
,xotask,xotask,dotcolour,18,0,18,318,training,positivefb,95,easy,8,0.6008392000003369,['n'],1,right,['2'],5,0.1150247000005038,,,33,18,Vrouw,Links,1,
,xotask,xotask,dotcolour,19,0,19,319,training,positivefb,98,hard,50,0.6502998999994816,['c'],1,left,['2'],5,0.15663889999996172,,,33,18,Vrouw,Links,1,
,xotask,xotask,dotcolour,20,0,20,320,training,positivefb,95,average,61,0.6667897999996057,['c'],1,left,['2'],5,0.1319615000002159,,,33,18,Vrouw,Links,1,
,xotask,xotask,dotcolour,21,0,21,321,training,positivefb,97,easy,73,0.500793999999587,['c'],1,left,['1'],6,0.12283320000005915,,,33,18,Vrouw,Links,1,
,xotask,xotask,dotcolour,22,0,22,322,training,positivefb,82,easy,72,0.46822079999947164,['n'],0,left,['2'],5,0.12342609999996057,,,33,18,Vrouw,Links,1,
,xotask,xotask,dotcolour,23,0,23,323,training,positivefb,92,average,17,0.5845165000000634,['n'],1,right,['2'],5,0.10300160000042524,,,33,18,Vrouw,Links,1,
,xotask,xotask,dotcolour,24,0,24,324,training,positivefb,98,hard,25,0.4991513999993913,['n'],1,right,['1'],6,0.09474339999997028,,,33,18,Vrouw,Links,1,
,xotask,xotask,dotcolour,25,0,25,325,training,positivefb,93,average,64,0.7168254999996861,['c'],1,left,['2'],5,0.2395394999994096,,,33,18,Vrouw,Links,1,
,xotask,xotask,dotcolour,26,0,26,326,training,positivefb,85,easy,71,0.6498156999996354,['c'],1,left,['2'],5,0.17955399999937072,,,33,18,Vrouw,Links,1,
,xotask,xotask,dotcolour,27,0,27,327,training,positivefb,99,average,63,0.6834327999995367,['c'],1,left,['2'],5,0.18631139999979496,,,33,18,Vrouw,Links,1,
,xotask,xotask,dotcolour,28,0,28,328,training,positivefb,96,hard,51,0.7661982999998145,['n'],0,left,['1'],6,0.16344149999986257,,,33,18,Vrouw,Links,1,
,xotask,xotask,dotcolour,29,0,29,329,training,positivefb,95,easy,73,0.6336819999996806,['c'],1,left,['1'],6,0.14052880000053847,,,33,18,Vrouw,Links,1,
,xotask,xotask,dotcolour,30,0,30,330,training,positivefb,94,hard,26,0.6341294000003472,['c'],0,right,['1'],6,0.08594360000006418,,,33,18,Vrouw,Links,1,
,xotask,xotask,dotcolour,31,0,31,331,training,positivefb,97,average,60,0.516071699999884,['c'],1,left,['2'],5,0.35023480000018026,,,33,18,Vrouw,Links,1,
,xotask,xotask,dotcolour,32,0,32,332,training,positivefb,87,easy,7,0.3998786000001928,['c'],0,right,['2'],5,0.18381140000019514,,,33,18,Vrouw,Links,1,
,xotask,xotask,dotcolour,33,0,33,333,training,positivefb,97,average,16,0.6010351999993873,['n'],1,right,['1'],6,0.13614589999997406,,,33,18,Vrouw,Links,1,
,xotask,xotask,dotcolour,34,0,34,334,training,positivefb,86,hard,25,0.6172774999995454,['c'],0,right,['2'],5,0.1308379000001878,,,33,18,Vrouw,Links,1,
,xotask,xotask,dotcolour,35,0,35,335,training,positivefb,93,hard,53,0.5493054999997184,['n'],0,left,['2'],5,0.14396060000035504,,,33,18,Vrouw,Links,1,
,xotask,xotask,dotcolour,36,0,36,336,training,positivefb,95,average,62,0.5003858999998556,['c'],1,left,['2'],5,0.11845979999998235,,,33,18,Vrouw,Links,1,
,xotask,xotask,dotcolour,37,0,37,337,training,positivefb,93,easy,5,0.582744599999387,['n'],1,right,['1'],6,0.15419110000038927,,,33,18,Vrouw,Links,1,
,xotask,xotask,dotcolour,38,0,38,338,training,positivefb,99,average,15,0.5819953999998688,['n'],1,right,['2'],5,0.5977007000001322,,,33,18,Vrouw,Links,1,
,xotask,xotask,dotcolour,39,0,39,339,training,positivefb,86,hard,25,0.7010928000008789,['n'],1,right,['1'],6,0.2098046000000977,,,33,18,Vrouw,Links,1,
,xotask,xotask,dotcolour,40,0,40,340,training,positivefb,93,hard,54,0.8159497000006013,['c'],1,left,['2'],5,0.08012940000025992,,,33,18,Vrouw,Links,1,
,xotask,xotask,dotcolour,41,0,41,341,training,positivefb,88,average,62,1.6172053999998752,['c'],1,left,['2'],5,0.14101639999989857,,,33,18,Vrouw,Links,1,
,xotask,xotask,dotcolour,42,0,42,342,training,positivefb,95,hard,28,0.5668493000002854,['c'],0,right,['2'],5,0.07285649999994348,,,33,18,Vrouw,Links,1,
,xotask,xotask,dotcolour,43,0,43,343,training,positivefb,80,hard,27,0.6655725999999049,['n'],1,right,['2'],5,0.20397800000046118,,,33,18,Vrouw,Links,1,
,xotask,xotask,dotcolour,44,0,44,344,training,positivefb,91,hard,27,0.5837608000001637,['c'],0,right,['1'],6,0.13261469999997644,,,33,18,Vrouw,Links,1,
,xotask,xotask,dotcolour,45,0,45,345,training,positivefb,99,easy,72,0.5496312000004764,['c'],1,left,['2'],5,0.1456118999994942,,,33,18,Vrouw,Links,1,
,xotask,xotask,dotcolour,46,0,46,346,training,positivefb,97,easy,6,0.5995678999997835,['n'],1,right,['2'],5,0.10002620000068418,,,33,18,Vrouw,Links,1,
,xotask,xotask,dotcolour,47,0,47,347,training,positivefb,91,hard,25,0.5675452000004952,['c'],0,right,['1'],6,0.06563999999980297,,,33,18,Vrouw,Links,1,
,xotask,xotask,dotcolour,48,0,48,348,training,positivefb,90,easy,70,0.5674338999997417,['c'],1,left,['2'],5,0.11180580000018381,,,33,18,Vrouw,Links,1,
,xotask,xotask,dotcolour,49,0,49,349,training,positivefb,98,easy,9,0.5669927999997526,['n'],1,right,['1'],6,0.1171967999998742,,,33,18,Vrouw,Links,1,
,xotask,xotask,dotcolour,50,0,50,350,training,positivefb,89,average,15,0.5660018999997192,['n'],1,right,['1'],6,0.16258800000014162,,,33,18,Vrouw,Links,1,
,xotask,xotask,dotcolour,51,0,51,351,training,positivefb,94,hard,54,0.8504075000000739,['c'],1,left,['1'],6,0.18656869999995251,,,33,18,Vrouw,Links,1,
,xotask,xotask,dotcolour,52,0,52,352,training,positivefb,99,easy,8,0.5493513999999777,['n'],1,right,['1'],6,0.14888630000041303,,,33,18,Vrouw,Links,1,
,xotask,xotask,dotcolour,53,0,53,353,training,positivefb,99,easy,6,0.5493084999998246,['n'],1,right,['2'],5,0.20826260000012553,,,33,18,Vrouw,Links,1,
,xotask,xotask,dotcolour,54,0,54,354,training,positivefb,75,hard,53,0.666875899999468,['c'],1,left,['1'],6,0.14995419999922888,,,33,18,Vrouw,Links,1,
,xotask,xotask,dotcolour,55,0,55,355,training,positivefb,92,average,60,0.7660428000008324,['c'],1,left,['2'],5,0.20122170000013284,,,33,18,Vrouw,Links,1,
,xotask,xotask,dotcolour,56,0,56,356,training,positivefb,98,average,64,0.43456979999973555,['c'],1,left,['1'],6,0.13571839999985968,,,33,18,Vrouw,Links,1,
,xotask,xotask,dotcolour,57,0,57,357,training,positivefb,96,average,15,0.5329541999999492,['n'],1,right,['2'],5,0.17372060000070633,,,33,18,Vrouw,Links,1,
,xotask,xotask,dotcolour,58,0,58,358,training,positivefb,97,average,17,0.4169455999999627,['n'],1,right,['1'],6,0.12590069999987463,,,33,18,Vrouw,Links,1,
,xotask,xotask,dotcolour,59,0,59,359,training,positivefb,87,hard,53,1.016319199999998,['c'],1,left,['2'],5,0.2322014000001218,,,33,18,Vrouw,Links,1,
,xotask,xotask,dotcolour,0,1,60,360,training,positivefb,96,average,16,0.7177663000002212,['c'],0,right,['2'],5,0.10520180000003165,,,33,18,Vrouw,Links,1,
,xotask,xotask,dotcolour,1,1,61,361,training,positivefb,97,average,63,0.7176477000002706,['c'],1,left,['2'],5,0.10426989999996295,,,33,18,Vrouw,Links,1,
,xotask,xotask,dotcolour,2,1,62,362,training,positivefb,86,hard,25,1.8176338999992367,['c'],0,right,['2'],5,0.1394111999998131,,,33,18,Vrouw,Links,1,
,xotask,xotask,dotcolour,3,1,63,363,training,positivefb,95,hard,54,0.5173745000001873,['c'],1,left,['2'],5,0.09799320000001899,,,33,18,Vrouw,Links,1,
,xotask,xotask,dotcolour,4,1,64,364,training,positivefb,98,easy,70,0.5003922999994757,['c'],1,left,['1'],6,0.08260549999977229,,,33,18,Vrouw,Links,1,
,xotask,xotask,dotcolour,5,1,65,365,training,positivefb,97,easy,74,0.4329339000005348,['c'],1,left,['1'],6,0.07715929999994842,,,33,18,Vrouw,Links,1,
,xotask,xotask,dotcolour,6,1,66,366,training,positivefb,97,easy,73,0.4839550999995481,['c'],1,left,['1'],6,0.08719860000019253,,,33,18,Vrouw,Links,1,
,xotask,xotask,dotcolour,7,1,67,367,training,positivefb,98,average,16,0.383519900000465,['n'],1,right,['1'],6,0.07674570000017411,,,33,18,Vrouw,Links,1,
,xotask,xotask,dotcolour,8,1,68,368,training,positivefb,92,easy,9,0.4327812999999878,['c'],0,right,['2'],5,0.13719339999988733,,,33,18,Vrouw,Links,1,
,xotask,xotask,dotcolour,9,1,69,369,training,positivefb,98,hard,52,0.3998682000001281,['c'],1,left,['1'],6,0.14772619999985181,,,33,18,Vrouw,Links,1,
,xotask,xotask,dotcolour,10,1,70,370,training,positivefb,99,hard,27,0.6324715000000651,['n'],1,right,['2'],5,0.1559848000006241,,,33,18,Vrouw,Links,1,
,xotask,xotask,dotcolour,11,1,71,371,training,positivefb,93,hard,29,0.5165299000000232,['n'],1,right,['1'],6,0.11299650000000838,,,33,18,Vrouw,Links,1,
,xotask,xotask,dotcolour,12,1,72,372,training,positivefb,87,hard,51,0.5342986999994537,['n'],0,left,['1'],6,0.09627009999985603,,,33,18,Vrouw,Links,1,
,xotask,xotask,dotcolour,13,1,73,373,training,positivefb,96,average,62,0.46831550000024436,['c'],1,left,['1'],6,0.07434220000050118,,,33,18,Vrouw,Links,1,
,xotask,xotask,dotcolour,14,1,74,374,training,positivefb,94,easy,70,0.4501789000005374,['c'],1,left,['2'],5,0.09337700000014593,,,33,18,Vrouw,Links,1,
,xotask,xotask,dotcolour,15,1,75,375,training,positivefb,97,hard,51,0.6000408999998399,['c'],1,left,['2'],5,0.050093800000468036,,,33,18,Vrouw,Links,1,
,xotask,xotask,dotcolour,16,1,76,376,training,positivefb,91,hard,54,0.48406599999998434,['c'],1,left,['2'],5,0.14055629999984376,,,33,18,Vrouw,Links,1,
,xotask,xotask,dotcolour,17,1,77,377,training,positivefb,91,hard,29,0.4666036999997232,['c'],0,right,['1'],6,0.05324010000003909,,,33,18,Vrouw,Links,1,
,xotask,xotask,dotcolour,18,1,78,378,training,positivefb,95,average,62,0.5165348000000449,['c'],1,left,['2'],5,0.02166120000038063,,,33,18,Vrouw,Links,1,
,xotask,xotask,dotcolour,19,1,79,379,training,positivefb,64,average,16,0.3680592999999135,['c'],0,right,['3'],4,0.11907820000033098,,,33,18,Vrouw,Links,1,
,xotask,xotask,dotcolour,20,1,80,380,training,positivefb,96,average,15,0.6009879000002911,['n'],1,right,['2'],5,0.13823190000039176,,,33,18,Vrouw,Links,1,
,xotask,xotask,dotcolour,21,1,81,381,training,positivefb,95,easy,7,0.5165531000002375,['n'],1,right,['2'],5,0.09551839999949152,,,33,18,Vrouw,Links,1,
,xotask,xotask,dotcolour,22,1,82,382,training,positivefb,93,hard,26,0.45047539999995934,['n'],1,right,['1'],6,0.1142982999999731,,,33,18,Vrouw,Links,1,
,xotask,xotask,dotcolour,23,1,83,383,training,positivefb,97,average,63,0.7171562000003178,['c'],1,left,['2'],5,0.1059067000005598,,,33,18,Vrouw,Links,1,
,xotask,xotask,dotcolour,24,1,84,384,training,positivefb,95,average,15,0.43401970000013534,['n'],1,right,['2'],5,0.06013260000054288,,,33,18,Vrouw,Links,1,
,xotask,xotask,dotcolour,25,1,85,385,training,positivefb,96,average,64,0.46702920000007,['n'],0,left,['2'],5,0.10374030000002676,,,33,18,Vrouw,Links,1,
,xotask,xotask,dotcolour,26,1,86,386,training,positivefb,97,average,17,0.3664635000004637,['c'],0,right,['2'],5,0.04478689999996277,,,33,18,Vrouw,Links,1,
,xotask,xotask,dotcolour,27,1,87,387,training,positivefb,90,easy,8,1.0343087999999625,['n'],1,right,['2'],5,0.14562620000015158,,,33,18,Vrouw,Links,1,
,xotask,xotask,dotcolour,28,1,88,388,training,positivefb,95,hard,25,0.5001703999996607,['n'],1,right,['1'],6,0.112963800000216,,,33,18,Vrouw,Links,1,
,xotask,xotask,dotcolour,29,1,89,389,training,positivefb,90,hard,27,0.4662097000000358,['n'],1,right,['1'],6,0.07356309999977384,,,33,18,Vrouw,Links,1,
,xotask,xotask,dotcolour,30,1,90,390,training,positivefb,98,average,60,0.4848856999997224,['c'],1,left,['1'],6,0.10761189999993803,,,33,18,Vrouw,Links,1,
,xotask,xotask,dotcolour,31,1,91,391,training,positivefb,95,easy,7,0.6505651000006765,['n'],1,right,['1'],6,0.10994590000063909,,,33,18,Vrouw,Links,1,
,xotask,xotask,dotcolour,32,1,92,392,training,positivefb,98,easy,74,0.533218499999748,['c'],1,left,['1'],6,0.13297349999993457,,,33,18,Vrouw,Links,1,
,xotask,xotask,dotcolour,33,1,93,393,training,positivefb,62,hard,50,0.5840167999995174,['n'],0,left,['1'],6,0.31934350000028644,,,33,18,Vrouw,Links,1,
,xotask,xotask,dotcolour,34,1,94,394,training,positivefb,95,hard,54,0.4164694999999483,['c'],1,left,['2'],5,0.17062710000027437,,,33,18,Vrouw,Links,1,
,xotask,xotask,dotcolour,35,1,95,395,training,positivefb,95,hard,50,0.4833363999996436,['c'],1,left,['1'],6,0.13670730000012554,,,33,18,Vrouw,Links,1,
,xotask,xotask,dotcolour,36,1,96,396,training,positivefb,98,average,60,0.4000590000005104,['c'],1,left,['2'],5,0.11524310000004334,,,33,18,Vrouw,Links,1,
,xotask,xotask,dotcolour,37,1,97,397,training,positivefb,98,average,60,0.36631260000012844,['c'],1,left,['2'],5,0.11976750000030734,,,33,18,Vrouw,Links,1,
,xotask,xotask,dotcolour,38,1,98,398,training,positivefb,96,hard,28,0.5994233999999778,['n'],1,right,['2'],5,0.11546920000000682,,,33,18,Vrouw,Links,1,
,xotask,xotask,dotcolour,39,1,99,399,training,positivefb,99,easy,73,0.5663792000004833,['c'],1,left,['2'],5,0.10423449999962031,,,33,18,Vrouw,Links,1,
,xotask,xotask,dotcolour,40,1,100,400,training,positivefb,97,easy,72,0.4164195000003019,['c'],1,left,['2'],5,0.09178440000050614,,,33,18,Vrouw,Links,1,
,xotask,xotask,dotcolour,41,1,101,401,training,positivefb,28,easy,5,0.3839738999995461,['c'],0,right,['0'],1,1.6645399999997608,,,33,18,Vrouw,Links,1,
,xotask,xotask,dotcolour,42,1,102,402,training,positivefb,79,average,18,0.6840664000010293,['n'],1,right,['1'],6,0.11390019999998913,,,33,18,Vrouw,Links,1,
,xotask,xotask,dotcolour,43,1,103,403,training,positivefb,98,easy,6,0.5841712999990705,['n'],1,right,['2'],5,0.20583880000049248,,,33,18,Vrouw,Links,1,
,xotask,xotask,dotcolour,44,1,104,404,training,positivefb,96,hard,29,0.7341018000006443,['n'],1,right,['2'],5,0.22461490000023332,,,33,18,Vrouw,Links,1,
,xotask,xotask,dotcolour,45,1,105,405,training,positivefb,95,easy,8,0.45010809999985213,['n'],1,right,['3'],4,0.2222168000007514,,,33,18,Vrouw,Links,1,
,xotask,xotask,dotcolour,46,1,106,406,training,positivefb,95,easy,6,0.5500416000013502,['n'],1,right,['2'],5,0.19178680000004533,,,33,18,Vrouw,Links,1,
,xotask,xotask,dotcolour,47,1,107,407,training,positivefb,92,easy,72,0.5672128999995039,['n'],0,left,['2'],5,0.1854570000014064,,,33,18,Vrouw,Links,1,
,xotask,xotask,dotcolour,48,1,108,408,training,positivefb,90,easy,74,0.39939029999914055,['c'],1,left,['2'],5,0.07365699999900244,,,33,18,Vrouw,Links,1,
,xotask,xotask,dotcolour,49,1,109,409,training,positivefb,97,hard,27,0.6167242999999871,['n'],1,right,['1'],6,0.1585596999993868,,,33,18,Vrouw,Links,1,
,xotask,xotask,dotcolour,50,1,110,410,training,positivefb,99,average,60,0.48295040000084555,['c'],1,left,['1'],6,0.12557220000053348,,,33,18,Vrouw,Links,1,
,xotask,xotask,dotcolour,51,1,111,411,training,positivefb,96,hard,52,0.5833818999999494,['c'],1,left,['1'],6,0.04149669999969774,,,33,18,Vrouw,Links,1,
,xotask,xotask,dotcolour,52,1,112,412,training,positivefb,92,easy,6,0.3504251000013028,['n'],1,right,['2'],5,0.15360689999943133,,,33,18,Vrouw,Links,1,
,xotask,xotask,dotcolour,53,1,113,413,training,positivefb,82,easy,7,0.4660648000008223,['n'],1,right,['2'],5,0.08110750000014377,,,33,18,Vrouw,Links,1,
,xotask,xotask,dotcolour,54,1,114,414,training,positivefb,98,average,17,0.36705590000019583,['n'],1,right,['2'],5,0.0795921000008093,,,33,18,Vrouw,Links,1,
,xotask,xotask,dotcolour,55,1,115,415,training,positivefb,98,average,16,0.4321536000006745,['n'],1,right,['1'],6,0.0511093000004621,,,33,18,Vrouw,Links,1,
,xotask,xotask,dotcolour,56,1,116,416,training,positivefb,91,average,60,0.4838670999997703,['n'],0,left,['1'],6,0.054359300000214716,,,33,18,Vrouw,Links,1,
,xotask,xotask,dotcolour,57,1,117,417,training,positivefb,89,average,17,0.40037500000107684,['c'],0,right,['2'],5,0.18784560000131023,,,33,18,Vrouw,Links,1,
,xotask,xotask,dotcolour,58,1,118,418,training,positivefb,97,hard,50,0.3836578999998892,['n'],0,left,['2'],5,0.09327520000078948,,,33,18,Vrouw,Links,1,
,xotask,xotask,dotcolour,59,1,119,419,training,positivefb,99,easy,72,0.4832036000007065,['c'],1,left,['2'],5,0.09497259999989183,,,33,18,Vrouw,Links,1,
,xotask,xotask,dotcolour,0,2,120,420,main,positivefb,-99,average,63,0.6169909000000189,['c'],1,left,['1'],6,0.23734829999921203,,,33,18,Vrouw,Links,1,
,xotask,xotask,dotcolour,1,2,121,421,main,positivefb,-99,easy,71,0.985073799998645,['c'],1,left,['1'],6,1.1331762000008894,,,33,18,Vrouw,Links,1,
,xotask,xotask,dotcolour,2,2,122,422,main,positivefb,-99,hard,53,0.6336245000002236,['c'],1,left,['2'],5,0.11108570000033069,,,33,18,Vrouw,Links,1,
,xotask,xotask,dotcolour,3,2,123,423,main,positivefb,-99,average,18,0.4995122000000265,['c'],0,right,['1'],6,0.0884371000011015,,,33,18,Vrouw,Links,1,
,xotask,xotask,dotcolour,4,2,124,424,main,positivefb,-99,average,64,1.1005344999994122,['c'],1,left,['2'],5,0.29703840000001946,,,33,18,Vrouw,Links,1,
,xotask,xotask,dotcolour,5,2,125,425,main,positivefb,-99,hard,27,0.5172249999995984,['c'],0,right,['1'],6,0.12203360000057728,,,33,18,Vrouw,Links,1,
,xotask,xotask,dotcolour,6,2,126,426,main,positivefb,-99,average,18,2.651238000000376,['n'],1,right,['3'],4,0.6207383000000846,,,33,18,Vrouw,Links,1,
,xotask,xotask,dotcolour,7,2,127,427,main,positivefb,-99,average,64,0.5841909999999189,['c'],1,left,['1'],6,0.26110329999937676,,,33,18,Vrouw,Links,1,
,xotask,xotask,dotcolour,8,2,128,428,main,positivefb,-99,easy,6,0.5512363000016194,['n'],1,right,['2'],5,0.23733390000052168,,,33,18,Vrouw,Links,1,
,xotask,xotask,dotcolour,9,2,129,429,main,positivefb,-99,easy,74,0.567396499998722,['c'],1,left,['2'],5,0.24602319999939937,,,33,18,Vrouw,Links,1,
,xotask,xotask,dotcolour,10,2,130,430,main,positivefb,-99,easy,8,0.5012993000000279,['n'],1,right,['1'],6,0.17709339999964868,,,33,18,Vrouw,Links,1,
,xotask,xotask,dotcolour,11,2,131,431,main,positivefb,-99,hard,52,0.516977000001134,['c'],1,left,['1'],6,0.08694409999952768,,,33,18,Vrouw,Links,1,
,xotask,xotask,dotcolour,12,2,132,432,main,positivefb,-99,average,19,0.5005477999984578,['c'],0,right,['3'],4,0.631797900001402,,,33,18,Vrouw,Links,1,
,xotask,xotask,dotcolour,13,2,133,433,main,positivefb,-99,easy,8,0.5178230000001349,['n'],1,right,['1'],6,0.16222509999897738,,,33,18,Vrouw,Links,1,
,xotask,xotask,dotcolour,14,2,134,434,main,positivefb,-99,easy,6,0.5010490000004211,['n'],1,right,['1'],6,0.1208277999994607,,,33,18,Vrouw,Links,1,
,xotask,xotask,dotcolour,15,2,135,435,main,positivefb,-99,average,16,0.634038000000146,['n'],1,right,['1'],6,0.09199780000017199,,,33,18,Vrouw,Links,1,
,xotask,xotask,dotcolour,16,2,136,436,main,positivefb,-99,hard,27,0.8005271999991237,['c'],0,right,['1'],6,0.12149099999987811,,,33,18,Vrouw,Links,1,
,xotask,xotask,dotcolour,17,2,137,437,main,positivefb,-99,easy,8,0.584259799999927,['n'],1,right,['2'],5,0.3340779999998631,,,33,18,Vrouw,Links,1,
,xotask,xotask,dotcolour,18,2,138,438,main,positivefb,-99,average,18,0.5508505999987392,['n'],1,right,['1'],6,0.12311500000032538,,,33,18,Vrouw,Links,1,
,xotask,xotask,dotcolour,19,2,139,439,main,positivefb,-99,average,60,0.9507397999987006,['c'],1,left,['1'],6,0.08941890000096464,,,33,18,Vrouw,Links,1,
,xotask,xotask,dotcolour,20,2,140,440,main,positivefb,-99,average,15,0.5683711999990919,['n'],1,right,['1'],6,0.12004530000012892,,,33,18,Vrouw,Links,1,
,xotask,xotask,dotcolour,21,2,141,441,main,positivefb,-99,hard,52,0.6683281999994506,['c'],1,left,['1'],6,0.07378869999956805,,,33,18,Vrouw,Links,1,
,xotask,xotask,dotcolour,22,2,142,442,main,positivefb,-99,hard,54,0.6513281999996252,['c'],1,left,['1'],6,0.31736670000100276,,,33,18,Vrouw,Links,1,
,xotask,xotask,dotcolour,23,2,143,443,main,positivefb,-99,average,18,0.5181838999997126,['n'],1,right,['1'],6,0.3568393000005017,,,33,18,Vrouw,Links,1,
,xotask,xotask,dotcolour,24,2,144,444,main,positivefb,-99,easy,73,0.633435499999905,['c'],1,left,['1'],6,0.18221340000127384,,,33,18,Vrouw,Links,1,
,xotask,xotask,dotcolour,25,2,145,445,main,positivefb,-99,hard,27,0.6498264000001654,['n'],1,right,['2'],5,0.22135530000014114,,,33,18,Vrouw,Links,1,
,xotask,xotask,dotcolour,26,2,146,446,main,positivefb,-99,hard,51,0.5002588000006654,['c'],1,left,['2'],5,0.6178933999999572,,,33,18,Vrouw,Links,1,
,xotask,xotask,dotcolour,27,2,147,447,main,positivefb,-99,hard,27,0.5341568000003463,['n'],1,right,['2'],5,0.13942060000044876,,,33,18,Vrouw,Links,1,
,xotask,xotask,dotcolour,28,2,148,448,main,positivefb,-99,hard,54,0.4676332999988517,['c'],1,left,['2'],5,0.16420790000120178,,,33,18,Vrouw,Links,1,
,xotask,xotask,dotcolour,29,2,149,449,main,positivefb,-99,easy,74,0.6852130000006582,['c'],1,left,['2'],5,0.05115069999919797,,,33,18,Vrouw,Links,1,
,xotask,xotask,dotcolour,30,2,150,450,main,positivefb,-99,average,64,0.6511320999998134,['c'],1,left,['2'],5,0.07210850000046776,,,33,18,Vrouw,Links,1,
,xotask,xotask,dotcolour,31,2,151,451,main,positivefb,-99,easy,71,0.5674263000000792,['c'],1,left,['2'],5,0.08706460000030347,,,33,18,Vrouw,Links,1,
,xotask,xotask,dotcolour,32,2,152,452,main,positivefb,-99,hard,54,0.517549099999087,['c'],1,left,['2'],5,0.09582529999897815,,,33,18,Vrouw,Links,1,
,xotask,xotask,dotcolour,33,2,153,453,main,positivefb,-99,easy,6,0.6511532999993506,['n'],1,right,['2'],5,0.09955940000145347,,,33,18,Vrouw,Links,1,
,xotask,xotask,dotcolour,34,2,154,454,main,positivefb,-99,easy,9,0.5349104999986594,['n'],1,right,['2'],5,0.06705719999990833,,,33,18,Vrouw,Links,1,
,xotask,xotask,dotcolour,35,2,155,455,main,positivefb,-99,hard,25,0.5512532000011561,['n'],1,right,['2'],5,0.0991719000012381,,,33,18,Vrouw,Links,1,
,xotask,xotask,dotcolour,36,2,156,456,main,positivefb,-99,average,61,0.7671850999995513,['c'],1,left,['1'],6,0.13684220000141067,,,33,18,Vrouw,Links,1,
,xotask,xotask,dotcolour,37,2,157,457,main,positivefb,-99,hard,28,0.950973700000759,['c'],0,right,['2'],5,0.31810439999935625,,,33,18,Vrouw,Links,1,
,xotask,xotask,dotcolour,38,2,158,458,main,positivefb,-99,average,64,0.5508783000004769,['c'],1,left,['2'],5,0.10772420000103011,,,33,18,Vrouw,Links,1,
,xotask,xotask,dotcolour,39,2,159,459,main,positivefb,-99,hard,54,0.46728729999995267,['c'],1,left,['2'],5,0.10989379999955418,,,33,18,Vrouw,Links,1,
,xotask,xotask,dotcolour,40,2,160,460,main,positivefb,-99,hard,52,0.4844271000001754,['c'],1,left,['2'],5,0.1596523000007437,,,33,18,Vrouw,Links,1,
,xotask,xotask,dotcolour,41,2,161,461,main,positivefb,-99,hard,25,0.6511313999999402,['c'],0,right,['2'],5,0.08803890000126557,,,33,18,Vrouw,Links,1,
,xotask,xotask,dotcolour,42,2,162,462,main,positivefb,-99,easy,72,0.6838989000007132,['c'],1,left,['2'],5,0.11400599999979022,,,33,18,Vrouw,Links,1,
,xotask,xotask,dotcolour,43,2,163,463,main,positivefb,-99,average,16,0.6019667000000481,['c'],0,right,['0'],1,1.6873546999995597,,,33,18,Vrouw,Links,1,
,xotask,xotask,dotcolour,44,2,164,464,main,positivefb,-99,easy,74,0.5836634000006597,['c'],1,left,['1'],6,0.4287399999993795,,,33,18,Vrouw,Links,1,
,xotask,xotask,dotcolour,45,2,165,465,main,positivefb,-99,easy,71,0.6343737999995938,['c'],1,left,['1'],6,0.36328059999868856,,,33,18,Vrouw,Links,1,
,xotask,xotask,dotcolour,46,2,166,466,main,positivefb,-99,average,64,0.41808689999925264,['c'],1,left,['2'],5,0.17326279999906546,,,33,18,Vrouw,Links,1,
,xotask,xotask,dotcolour,47,2,167,467,main,positivefb,-99,average,62,0.3673564000000624,['c'],1,left,['2'],5,0.16873610000038752,,,33,18,Vrouw,Links,1,
,xotask,xotask,dotcolour,48,2,168,468,main,positivefb,-99,easy,6,0.7336973000001308,['n'],1,right,['2'],5,0.10923229999934847,,,33,18,Vrouw,Links,1,
,xotask,xotask,dotcolour,49,2,169,469,main,positivefb,-99,easy,8,0.5176756000000751,['n'],1,right,['2'],5,0.07758380000086618,,,33,18,Vrouw,Links,1,
,xotask,xotask,dotcolour,50,2,170,470,main,positivefb,-99,average,17,0.6184967999997752,['n'],1,right,['1'],6,0.123129899999185,,,33,18,Vrouw,Links,1,
,xotask,xotask,dotcolour,51,2,171,471,main,positivefb,-99,hard,50,0.46767150000050606,['n'],0,left,['2'],5,0.1560204999987036,,,33,18,Vrouw,Links,1,
,xotask,xotask,dotcolour,52,2,172,472,main,positivefb,-99,easy,8,0.5515466999986529,['n'],1,right,['1'],6,0.15280630000052042,,,33,18,Vrouw,Links,1,
,xotask,xotask,dotcolour,53,2,173,473,main,positivefb,-99,hard,27,0.4851388999995834,['n'],1,right,['2'],5,0.04838899999958812,,,33,18,Vrouw,Links,1,
,xotask,xotask,dotcolour,54,2,174,474,main,positivefb,-99,hard,25,0.48414210000009916,['n'],1,right,['1'],6,0.16312749999997322,,,33,18,Vrouw,Links,1,
,xotask,xotask,dotcolour,55,2,175,475,main,positivefb,-99,easy,71,0.6174117000009574,['c'],1,left,['1'],6,0.20549410000057833,,,33,18,Vrouw,Links,1,
,xotask,xotask,dotcolour,56,2,176,476,main,positivefb,-99,easy,74,0.4505682999988494,['c'],1,left,['1'],6,0.10804939999979979,,,33,18,Vrouw,Links,1,
,xotask,xotask,dotcolour,57,2,177,477,main,positivefb,-99,average,16,0.36754369999835035,['c'],0,right,['0'],1,1.3144310999996378,,,33,18,Vrouw,Links,1,
,xotask,xotask,dotcolour,58,2,178,478,main,positivefb,-99,hard,25,0.7505415999985416,['c'],0,right,['1'],6,0.08933559999968566,,,33,18,Vrouw,Links,1,
,xotask,xotask,dotcolour,59,2,179,479,main,positivefb,-99,average,64,0.7004586999992171,['c'],1,left,['1'],6,0.11372189999929105,,,33,18,Vrouw,Links,1,
,xotask,xotask,dotcolour,0,3,180,480,main,positivefb,-99,easy,5,2.0853800999993837,['n'],1,right,['1'],6,0.05116880000059609,,,33,18,Vrouw,Links,1,
,xotask,xotask,dotcolour,1,3,181,481,main,positivefb,-99,easy,74,0.617609299999458,['c'],1,left,['1'],6,0.10421839999980875,,,33,18,Vrouw,Links,1,
,xotask,xotask,dotcolour,2,3,182,482,main,positivefb,-99,easy,8,0.4344307999999728,['n'],1,right,['1'],6,0.06843860000117274,,,33,18,Vrouw,Links,1,
,xotask,xotask,dotcolour,3,3,183,483,main,positivefb,-99,easy,70,0.4685772000011639,['c'],1,left,['1'],6,0.09529040000052191,,,33,18,Vrouw,Links,1,
,xotask,xotask,dotcolour,4,3,184,484,main,positivefb,-99,hard,26,0.5002272999990964,['n'],1,right,['1'],6,0.19281069999851752,,,33,18,Vrouw,Links,1,
,xotask,xotask,dotcolour,5,3,185,485,main,positivefb,-99,average,17,0.40144060000056925,['c'],0,right,['0'],1,1.1863146999985474,,,33,18,Vrouw,Links,1,
,xotask,xotask,dotcolour,6,3,186,486,main,positivefb,-99,easy,9,0.41794559999834746,['n'],1,right,['1'],6,0.05074400000012247,,,33,18,Vrouw,Links,1,
,xotask,xotask,dotcolour,7,3,187,487,main,positivefb,-99,easy,9,0.5016682999994373,['n'],1,right,['1'],6,0.07013050000023213,,,33,18,Vrouw,Links,1,
,xotask,xotask,dotcolour,8,3,188,488,main,positivefb,-99,hard,29,0.36736560000099416,['n'],1,right,['1'],6,0.7249712000011641,,,33,18,Vrouw,Links,1,
,xotask,xotask,dotcolour,9,3,189,489,main,positivefb,-99,easy,72,1.3346990999998525,['c'],1,left,['1'],6,0.09122159999969881,,,33,18,Vrouw,Links,1,
,xotask,xotask,dotcolour,10,3,190,490,main,positivefb,-99,average,18,0.5344115999996575,['n'],1,right,['1'],6,0.15507489999981772,,,33,18,Vrouw,Links,1,
,xotask,xotask,dotcolour,11,3,191,491,main,positivefb,-99,hard,27,1.2011287999994238,['n'],1,right,['1'],6,0.10228399999868998,,,33,18,Vrouw,Links,1,
,xotask,xotask,dotcolour,12,3,192,492,main,positivefb,-99,hard,51,0.4514564999990398,['n'],0,left,['1'],6,0.11247769999863522,,,33,18,Vrouw,Links,1,
,xotask,xotask,dotcolour,13,3,193,493,main,positivefb,-99,easy,5,0.5161537999993016,['n'],1,right,['1'],6,0.09679780000078608,,,33,18,Vrouw,Links,1,
,xotask,xotask,dotcolour,14,3,194,494,main,positivefb,-99,hard,54,0.6172728999990795,['c'],1,left,['1'],6,0.13392129999920144,,,33,18,Vrouw,Links,1,
,xotask,xotask,dotcolour,15,3,195,495,main,positivefb,-99,hard,50,0.7176798000000417,['c'],1,left,['1'],6,0.06817899999987276,,,33,18,Vrouw,Links,1,
,xotask,xotask,dotcolour,16,3,196,496,main,positivefb,-99,average,62,0.5175928000007843,['c'],1,left,['2'],5,0.11762909999924887,,,33,18,Vrouw,Links,1,
,xotask,xotask,dotcolour,17,3,197,497,main,positivefb,-99,average,61,0.5004494000004343,['c'],1,left,['2'],5,0.11765299999933632,,,33,18,Vrouw,Links,1,
,xotask,xotask,dotcolour,18,3,198,498,main,positivefb,-99,average,15,0.5842016999995394,['n'],1,right,['2'],5,0.06649740000102611,,,33,18,Vrouw,Links,1,
,xotask,xotask,dotcolour,19,3,199,499,main,positivefb,-99,easy,73,0.8846549999998388,['n'],0,left,['2'],5,0.11708899999939604,,,33,18,Vrouw,Links,1,
,xotask,xotask,dotcolour,20,3,200,500,main,positivefb,-99,average,60,0.6507080999999744,['c'],1,left,['2'],5,0.014719600001626532,,,33,18,Vrouw,Links,1,
,xotask,xotask,dotcolour,21,3,201,501,main,positivefb,-99,easy,72,0.4505768999988504,['c'],1,left,['2'],5,0.04469269999935932,,,33,18,Vrouw,Links,1,
,xotask,xotask,dotcolour,22,3,202,502,main,positivefb,-99,easy,6,0.5990930000007211,['n'],1,right,['1'],6,0.14826520000133314,,,33,18,Vrouw,Links,1,
,xotask,xotask,dotcolour,23,3,203,503,main,positivefb,-99,hard,26,1.0332233000008273,['c'],0,right,['2'],5,0.0614770000011049,,,33,18,Vrouw,Links,1,
,xotask,xotask,dotcolour,24,3,204,504,main,positivefb,-99,hard,25,0.7500523999988218,['n'],1,right,['2'],5,0.13390679999974964,,,33,18,Vrouw,Links,1,
,xotask,xotask,dotcolour,25,3,205,505,main,positivefb,-99,easy,5,0.9154552999989392,['n'],1,right,['1'],6,0.10024450000128127,,,33,18,Vrouw,Links,1,
,xotask,xotask,dotcolour,26,3,206,506,main,positivefb,-99,hard,52,0.667152599999099,['n'],0,left,['2'],5,0.03096969999933208,,,33,18,Vrouw,Links,1,
,xotask,xotask,dotcolour,27,3,207,507,main,positivefb,-99,hard,53,0.6334346000003279,['n'],0,left,['2'],5,0.012969299999895156,,,33,18,Vrouw,Links,1,
,xotask,xotask,dotcolour,28,3,208,508,main,positivefb,-99,average,62,0.7006012000001647,['n'],0,left,['2'],5,0.09763989999919431,,,33,18,Vrouw,Links,1,
,xotask,xotask,dotcolour,29,3,209,509,main,positivefb,-99,hard,52,0.5010621000001265,['c'],1,left,['1'],6,0.25847590000012133,,,33,18,Vrouw,Links,1,
,xotask,xotask,dotcolour,30,3,210,510,main,positivefb,-99,easy,9,0.4674431999992521,['c'],0,right,['2'],5,0.1975810999992973,,,33,18,Vrouw,Links,1,
,xotask,xotask,dotcolour,31,3,211,511,main,positivefb,-99,easy,70,1.3179239000000962,['c'],1,left,['2'],5,0.08233540000037465,,,33,18,Vrouw,Links,1,
,xotask,xotask,dotcolour,32,3,212,512,main,positivefb,-99,hard,28,0.6676278000013554,['c'],0,right,['2'],5,0.6845395999989705,,,33,18,Vrouw,Links,1,
,xotask,xotask,dotcolour,33,3,213,513,main,positivefb,-99,hard,25,1.1670343999994657,['n'],1,right,['2'],5,0.11507600000004459,,,33,18,Vrouw,Links,1,
,xotask,xotask,dotcolour,34,3,214,514,main,positivefb,-99,average,60,1.1834961000004114,['c'],1,left,['3'],4,0.5764443000007304,,,33,18,Vrouw,Links,1,
,xotask,xotask,dotcolour,35,3,215,515,main,positivefb,-99,average,19,0.5012944999998581,['n'],1,right,['1'],6,0.2054599999992206,,,33,18,Vrouw,Links,1,
,xotask,xotask,dotcolour,36,3,216,516,main,positivefb,-99,hard,26,0.5683779000009963,['n'],1,right,['3'],4,0.12806569999884232,,,33,18,Vrouw,Links,1,
,xotask,xotask,dotcolour,37,3,217,517,main,positivefb,-99,hard,54,0.7513860999988538,['c'],1,left,['3'],4,0.1264296999997896,,,33,18,Vrouw,Links,1,
,xotask,xotask,dotcolour,38,3,218,518,main,positivefb,-99,hard,52,0.5668275999996695,['c'],1,left,['3'],4,0.13979850000032457,,,33,18,Vrouw,Links,1,
,xotask,xotask,dotcolour,39,3,219,519,main,positivefb,-99,easy,74,0.6347050000003946,['c'],1,left,['1'],6,0.19747389999974985,,,33,18,Vrouw,Links,1,
,xotask,xotask,dotcolour,40,3,220,520,main,positivefb,-99,hard,28,0.6846430000005057,['c'],0,right,['2'],5,0.2519075000000157,,,33,18,Vrouw,Links,1,
,xotask,xotask,dotcolour,41,3,221,521,main,positivefb,-99,hard,50,0.8333708999998635,['c'],1,left,['1'],6,0.16068149999955494,,,33,18,Vrouw,Links,1,
,xotask,xotask,dotcolour,42,3,222,522,main,positivefb,-99,average,17,0.5331845999990037,['c'],0,right,['0'],1,1.4224164000006567,,,33,18,Vrouw,Links,1,
,xotask,xotask,dotcolour,43,3,223,523,main,positivefb,-99,average,64,0.6506042000000889,['c'],1,left,['3'],4,0.15576580000015383,,,33,18,Vrouw,Links,1,
,xotask,xotask,dotcolour,44,3,224,524,main,positivefb,-99,average,16,0.48400500000025204,['c'],0,right,['1'],6,0.2520559999993566,,,33,18,Vrouw,Links,1,
,xotask,xotask,dotcolour,45,3,225,525,main,positivefb,-99,hard,54,0.6503219999995054,['c'],1,left,['2'],5,0.17637399999875925,,,33,18,Vrouw,Links,1,
,xotask,xotask,dotcolour,46,3,226,526,main,positivefb,-99,average,61,0.45060929999999644,['c'],1,left,['2'],5,0.19200439999985974,,,33,18,Vrouw,Links,1,
,xotask,xotask,dotcolour,47,3,227,527,main,positivefb,-99,easy,8,0.9843905000016093,['n'],1,right,['2'],5,0.1061809999991965,,,33,18,Vrouw,Links,1,
,xotask,xotask,dotcolour,48,3,228,528,main,positivefb,-99,average,61,0.4999681999997847,['n'],0,left,['2'],5,0.13149780000094324,,,33,18,Vrouw,Links,1,
,xotask,xotask,dotcolour,49,3,229,529,main,positivefb,-99,easy,70,0.3684287999985827,['c'],1,left,['2'],5,0.13511040000048524,,,33,18,Vrouw,Links,1,
,xotask,xotask,dotcolour,50,3,230,530,main,positivefb,-99,average,19,0.6671869000001607,['n'],1,right,['2'],5,0.07228410000061558,,,33,18,Vrouw,Links,1,
,xotask,xotask,dotcolour,51,3,231,531,main,positivefb,-99,easy,71,0.5839751000003162,['c'],1,left,['1'],6,0.1824415000010049,,,33,18,Vrouw,Links,1,
,xotask,xotask,dotcolour,52,3,232,532,main,positivefb,-99,average,61,0.4332010000016453,['n'],0,left,['3'],4,3.182618500000899,,,33,18,Vrouw,Links,1,
,xotask,xotask,dotcolour,53,3,233,533,main,positivefb,-99,average,19,0.5521795000004204,['n'],1,right,['2'],5,0.11438020000059623,,,33,18,Vrouw,Links,1,
,xotask,xotask,dotcolour,54,3,234,534,main,positivefb,-99,average,63,0.5509382000000187,['n'],0,left,['3'],4,1.8483541000005062,,,33,18,Vrouw,Links,1,
,xotask,xotask,dotcolour,55,3,235,535,main,positivefb,-99,easy,72,0.502005399999689,['c'],1,left,['1'],6,0.10685469999953057,,,33,18,Vrouw,Links,1,
,xotask,xotask,dotcolour,56,3,236,536,main,positivefb,-99,hard,26,0.7677125000009255,['n'],1,right,['1'],6,0.1850973000000522,,,33,18,Vrouw,Links,1,
,xotask,xotask,dotcolour,57,3,237,537,main,positivefb,-99,easy,9,0.5347344000001613,['n'],1,right,['1'],6,0.1649822999988828,,,33,18,Vrouw,Links,1,
,xotask,xotask,dotcolour,58,3,238,538,main,positivefb,-99,average,15,0.38509090000115975,['n'],1,right,['1'],6,0.1914094000003388,,,33,18,Vrouw,Links,1,
,xotask,xotask,dotcolour,59,3,239,539,main,positivefb,-99,average,17,0.40158010000050126,['n'],1,right,['1'],6,0.11257149999983085,,,33,18,Vrouw,Links,1,
,xotask,xotask,dotcolour,0,4,240,540,main,positivefb,-99,hard,29,0.8008193999994546,['n'],1,right,['1'],6,0.0673302999985026,,,33,18,Vrouw,Links,1,
,xotask,xotask,dotcolour,1,4,241,541,main,positivefb,-99,easy,72,0.6335841000000073,['c'],1,left,['1'],6,0.07261490000018966,,,33,18,Vrouw,Links,1,
,xotask,xotask,dotcolour,2,4,242,542,main,positivefb,-99,easy,9,0.5347179999989748,['n'],1,right,['2'],5,0.13711940000030154,,,33,18,Vrouw,Links,1,
,xotask,xotask,dotcolour,3,4,243,543,main,positivefb,-99,hard,53,0.6670228999992105,['n'],0,left,['2'],5,0.5935442000009061,,,33,18,Vrouw,Links,1,
,xotask,xotask,dotcolour,4,4,244,544,main,positivefb,-99,easy,72,0.6004043000011734,['c'],1,left,['2'],5,0.09055609999995795,,,33,18,Vrouw,Links,1,
,xotask,xotask,dotcolour,5,4,245,545,main,positivefb,-99,easy,8,0.4512366999988444,['n'],1,right,['1'],6,0.14194309999948018,,,33,18,Vrouw,Links,1,
,xotask,xotask,dotcolour,6,4,246,546,main,positivefb,-99,average,18,0.49947959999917657,['c'],0,right,['8'],3,2.4383827000001475,,,33,18,Vrouw,Links,1,
,xotask,xotask,dotcolour,7,4,247,547,main,positivefb,-99,easy,9,0.6842242000002443,['n'],1,right,['2'],5,0.21789569999964442,,,33,18,Vrouw,Links,1,
,xotask,xotask,dotcolour,8,4,248,548,main,positivefb,-99,easy,7,0.3837355999985448,['n'],1,right,['2'],5,0.05780100000083621,,,33,18,Vrouw,Links,1,
,xotask,xotask,dotcolour,9,4,249,549,main,positivefb,-99,easy,70,0.7517417999988538,['c'],1,left,['2'],5,0.14689759999964735,,,33,18,Vrouw,Links,1,
,xotask,xotask,dotcolour,10,4,250,550,main,positivefb,-99,hard,53,0.7349526999987575,['c'],1,left,['2'],5,0.07284299999992072,,,33,18,Vrouw,Links,1,
,xotask,xotask,dotcolour,11,4,251,551,main,positivefb,-99,easy,70,0.5823305999983859,['c'],1,left,['2'],5,0.11150699999961944,,,33,18,Vrouw,Links,1,
,xotask,xotask,dotcolour,12,4,252,552,main,positivefb,-99,average,19,0.5509993000014219,['c'],0,right,['1'],6,0.1580048000014358,,,33,18,Vrouw,Links,1,
,xotask,xotask,dotcolour,13,4,253,553,main,positivefb,-99,hard,29,0.5686153000006016,['c'],0,right,['2'],5,0.11441910000030475,,,33,18,Vrouw,Links,1,
,xotask,xotask,dotcolour,14,4,254,554,main,positivefb,-99,easy,73,0.4173334999995859,['c'],1,left,['2'],5,0.11032739999973273,,,33,18,Vrouw,Links,1,
,xotask,xotask,dotcolour,15,4,255,555,main,positivefb,-99,hard,51,0.40105920000132755,['c'],1,left,['8'],3,1.507364499999312,,,33,18,Vrouw,Links,1,
,xotask,xotask,dotcolour,16,4,256,556,main,positivefb,-99,easy,7,0.7847303000016836,['n'],1,right,['2'],5,0.28878029999941646,,,33,18,Vrouw,Links,1,
,xotask,xotask,dotcolour,17,4,257,557,main,positivefb,-99,average,60,0.5844866000006732,['c'],1,left,['2'],5,2.2627933000003395,,,33,18,Vrouw,Links,1,
,xotask,xotask,dotcolour,18,4,258,558,main,positivefb,-99,average,15,1.3187901999990572,['n'],1,right,['2'],5,0.0877624000004289,,,33,18,Vrouw,Links,1,
,xotask,xotask,dotcolour,19,4,259,559,main,positivefb,-99,easy,70,1.2685538999994606,['n'],0,left,['2'],5,0.08253920000061044,,,33,18,Vrouw,Links,1,
,xotask,xotask,dotcolour,20,4,260,560,main,positivefb,-99,hard,27,0.7516615000004094,['n'],1,right,['2'],5,0.08997350000026927,,,33,18,Vrouw,Links,1,
,xotask,xotask,dotcolour,21,4,261,561,main,positivefb,-99,hard,27,0.4836594000007608,['n'],1,right,['2'],5,0.10006760000032955,,,33,18,Vrouw,Links,1,
,xotask,xotask,dotcolour,22,4,262,562,main,positivefb,-99,hard,28,0.5184779999999591,['n'],1,right,['2'],5,0.09207109999988461,,,33,18,Vrouw,Links,1,
,xotask,xotask,dotcolour,23,4,263,563,main,positivefb,-99,average,61,0.4675219999990077,['c'],1,left,['2'],5,0.09536339999976917,,,33,18,Vrouw,Links,1,
,xotask,xotask,dotcolour,24,4,264,564,main,positivefb,-99,hard,52,0.549729300000763,['c'],1,left,['2'],5,0.49485009999989416,,,33,18,Vrouw,Links,1,
,xotask,xotask,dotcolour,25,4,265,565,main,positivefb,-99,average,15,0.4174578999991354,['c'],0,right,['8'],3,1.7709898999983125,,,33,18,Vrouw,Links,1,
,xotask,xotask,dotcolour,26,4,266,566,main,positivefb,-99,easy,6,0.6345963000003394,['n'],1,right,['2'],5,0.13138869999966118,,,33,18,Vrouw,Links,1,
,xotask,xotask,dotcolour,27,4,267,567,main,positivefb,-99,hard,50,0.7183220000006258,['c'],1,left,['2'],5,0.1300656000003073,,,33,18,Vrouw,Links,1,
,xotask,xotask,dotcolour,28,4,268,568,main,positivefb,-99,easy,8,1.1336233000001812,['n'],1,right,['2'],5,0.06438440000056289,,,33,18,Vrouw,Links,1,
,xotask,xotask,dotcolour,29,4,269,569,main,positivefb,-99,average,18,0.768340900000112,['c'],0,right,['2'],5,0.10347600000022794,,,33,18,Vrouw,Links,1,
,xotask,xotask,dotcolour,30,4,270,570,main,positivefb,-99,average,17,0.9005346000012651,['c'],0,right,['3'],4,0.1767902999999933,,,33,18,Vrouw,Links,1,
,xotask,xotask,dotcolour,31,4,271,571,main,positivefb,-99,average,62,0.9164884999991045,['c'],1,left,['2'],5,0.798082000001159,,,33,18,Vrouw,Links,1,
,xotask,xotask,dotcolour,32,4,272,572,main,positivefb,-99,average,61,0.5007224999990285,['c'],1,left,['1'],6,0.20347819999915373,,,33,18,Vrouw,Links,1,
,xotask,xotask,dotcolour,33,4,273,573,main,positivefb,-99,hard,27,0.4173726999997598,['c'],0,right,['2'],5,0.1869181000001845,,,33,18,Vrouw,Links,1,
,xotask,xotask,dotcolour,34,4,274,574,main,positivefb,-99,hard,25,0.4515742000003229,['c'],0,right,['8'],3,1.1704474999987724,,,33,18,Vrouw,Links,1,
,xotask,xotask,dotcolour,35,4,275,575,main,positivefb,-99,hard,28,0.6348326000006637,['n'],1,right,['2'],5,0.059155400000236114,,,33,18,Vrouw,Links,1,
,xotask,xotask,dotcolour,36,4,276,576,main,positivefb,-99,hard,50,0.601369899999554,['c'],1,left,['2'],5,0.10596780000014405,,,33,18,Vrouw,Links,1,
,xotask,xotask,dotcolour,37,4,277,577,main,positivefb,-99,easy,70,0.5002652999992279,['c'],1,left,['2'],5,0.1458139000005758,,,33,18,Vrouw,Links,1,
,xotask,xotask,dotcolour,38,4,278,578,main,positivefb,-99,easy,72,0.535057200000665,['c'],1,left,['1'],6,0.1682173999997758,,,33,18,Vrouw,Links,1,
,xotask,xotask,dotcolour,39,4,279,579,main,positivefb,-99,average,60,0.5844677000004594,['c'],1,left,['2'],5,0.09054190000097151,,,33,18,Vrouw,Links,1,
,xotask,xotask,dotcolour,40,4,280,580,main,positivefb,-99,average,15,0.45185700000001816,['c'],0,right,['1'],6,0.17412119999971765,,,33,18,Vrouw,Links,1,
,xotask,xotask,dotcolour,41,4,281,581,main,positivefb,-99,average,60,0.5673442000006617,['c'],1,left,['1'],6,0.14586419999977807,,,33,18,Vrouw,Links,1,
,xotask,xotask,dotcolour,42,4,282,582,main,positivefb,-99,hard,52,0.45175780000136,['c'],1,left,['1'],6,0.11518309999883058,,,33,18,Vrouw,Links,1,
,xotask,xotask,dotcolour,43,4,283,583,main,positivefb,-99,hard,50,0.5010120999995706,['c'],1,left,['1'],6,0.2433605999995052,,,33,18,Vrouw,Links,1,
,xotask,xotask,dotcolour,44,4,284,584,main,positivefb,-99,average,19,0.5009676999998192,['c'],0,right,['2'],5,0.16591580000022077,,,33,18,Vrouw,Links,1,
,xotask,xotask,dotcolour,45,4,285,585,main,positivefb,-99,average,16,0.5335200999998051,['n'],1,right,['2'],5,0.20289560000128404,,,33,18,Vrouw,Links,1,
,xotask,xotask,dotcolour,46,4,286,586,main,positivefb,-99,average,61,0.7004842999995162,['c'],1,left,['1'],6,0.15948150000076566,,,33,18,Vrouw,Links,1,
,xotask,xotask,dotcolour,47,4,287,587,main,positivefb,-99,hard,50,0.4001502999999502,['c'],1,left,['1'],6,0.08205799999996088,,,33,18,Vrouw,Links,1,
,xotask,xotask,dotcolour,48,4,288,588,main,positivefb,-99,easy,74,0.6012885000000097,['c'],1,left,['1'],6,0.24745609999990847,,,33,18,Vrouw,Links,1,
,xotask,xotask,dotcolour,49,4,289,589,main,positivefb,-99,hard,53,0.45076700000026904,['c'],1,left,['1'],6,0.15626109999902837,,,33,18,Vrouw,Links,1,
,xotask,xotask,dotcolour,50,4,290,590,main,positivefb,-99,easy,70,0.5685892999990756,['c'],1,left,['1'],6,0.19994189999852097,,,33,18,Vrouw,Links,1,
,xotask,xotask,dotcolour,51,4,291,591,main,positivefb,-99,easy,6,0.5503884999998263,['n'],1,right,['2'],5,0.09122100000058708,,,33,18,Vrouw,Links,1,
,xotask,xotask,dotcolour,52,4,292,592,main,positivefb,-99,hard,28,1.5009444999996049,['c'],0,right,['1'],6,0.11604299999999057,,,33,18,Vrouw,Links,1,
,xotask,xotask,dotcolour,53,4,293,593,main,positivefb,-99,average,18,0.6669139000005089,['n'],1,right,['2'],5,0.13326599999891187,,,33,18,Vrouw,Links,1,
,xotask,xotask,dotcolour,54,4,294,594,main,positivefb,-99,average,61,0.8340480999995634,['c'],1,left,['1'],6,0.10390170000027865,,,33,18,Vrouw,Links,1,
,xotask,xotask,dotcolour,55,4,295,595,main,positivefb,-99,easy,5,0.5826456999984657,['n'],1,right,['2'],5,0.0776105999993888,,,33,18,Vrouw,Links,1,
,xotask,xotask,dotcolour,56,4,296,596,main,positivefb,-99,average,64,1.5351477999993222,['c'],1,left,['1'],6,0.06944099999964237,,,33,18,Vrouw,Links,1,
,xotask,xotask,dotcolour,57,4,297,597,main,positivefb,-99,hard,26,1.3670412999999826,['n'],1,right,['2'],5,0.18846929999926942,,,33,18,Vrouw,Links,1,
,xotask,xotask,dotcolour,58,4,298,598,main,positivefb,-99,easy,8,0.41768489999958547,['n'],1,right,['1'],6,0.1254996999996365,,,33,18,Vrouw,Links,1,
,xotask,xotask,dotcolour,59,4,299,599,main,positivefb,-99,average,64,0.6345288000011351,['c'],1,left,['1'],6,0.1924925000002986,,,33,18,Vrouw,Links,1,
,xotask,xotask,dotcolour,0,0,0,600,training,positivefb,100,easy,70,0.6843577999989066,['c'],1,left,['1'],6,1.184685599999284,,,33,18,Vrouw,Links,1,
,xotask,xotask,dotcolour,1,0,1,601,training,positivefb,90,average,62,0.7502364000010857,['c'],1,left,['1'],6,0.17119050000110292,,,33,18,Vrouw,Links,1,
,xotask,xotask,dotcolour,2,0,2,602,training,positivefb,97,average,16,0.6498432999997021,['c'],0,right,['1'],6,0.08226079999985814,,,33,18,Vrouw,Links,1,
,xotask,xotask,dotcolour,3,0,3,603,training,positivefb,93,hard,52,0.48443330000009155,['c'],1,left,['1'],6,0.07592409999961092,,,33,18,Vrouw,Links,1,
,xotask,xotask,dotcolour,4,0,4,604,training,positivefb,94,average,19,0.5170923000005132,['n'],1,right,['1'],6,0.08504299999913201,,,33,18,Vrouw,Links,1,
,xotask,xotask,dotcolour,5,0,5,605,training,positivefb,96,easy,6,0.40072159999908763,['n'],1,right,['1'],6,0.04893900000024587,,,33,18,Vrouw,Links,1,
,xotask,xotask,dotcolour,6,0,6,606,training,positivefb,94,hard,53,0.683416899999429,['c'],1,left,['2'],5,0.09925060000023223,,,33,18,Vrouw,Links,1,
,xotask,xotask,dotcolour,7,0,7,607,training,positivefb,91,hard,51,0.5175885999997263,['c'],1,left,['2'],5,0.12349680000079388,,,33,18,Vrouw,Links,1,
,xotask,xotask,dotcolour,8,0,8,608,training,positivefb,89,hard,53,0.5183200000010402,['c'],1,left,['2'],5,0.17774529999951483,,,33,18,Vrouw,Links,1,
,xotask,xotask,dotcolour,9,0,9,609,training,positivefb,94,easy,71,0.5000228000008065,['c'],1,left,['2'],5,0.08707289999983914,,,33,18,Vrouw,Links,1,
,xotask,xotask,dotcolour,10,0,10,610,training,positivefb,97,hard,26,0.7339900999995734,['n'],1,right,['1'],6,0.07027230000130658,,,33,18,Vrouw,Links,1,
,xotask,xotask,dotcolour,11,0,11,611,training,positivefb,97,easy,74,0.45080589999997756,['c'],1,left,['2'],5,0.08945320000020729,,,33,18,Vrouw,Links,1,
,xotask,xotask,dotcolour,12,0,12,612,training,positivefb,87,hard,25,0.6836328999997932,['n'],1,right,['1'],6,0.09057539999957953,,,33,18,Vrouw,Links,1,
,xotask,xotask,dotcolour,13,0,13,613,training,positivefb,91,average,62,0.45010720000027504,['n'],0,left,['2'],5,0.16566669999883743,,,33,18,Vrouw,Links,1,
,xotask,xotask,dotcolour,14,0,14,614,training,positivefb,94,hard,54,0.6341687999993155,['n'],0,left,['2'],5,0.10966850000113482,,,33,18,Vrouw,Links,1,
,xotask,xotask,dotcolour,15,0,15,615,training,positivefb,97,average,16,0.6831034999995609,['n'],1,right,['2'],5,0.05401200000051176,,,33,18,Vrouw,Links,1,
,xotask,xotask,dotcolour,16,0,16,616,training,positivefb,89,easy,6,0.4987627999998949,['n'],1,right,['2'],5,0.056391999998595566,,,33,18,Vrouw,Links,1,
,xotask,xotask,dotcolour,17,0,17,617,training,positivefb,90,easy,9,0.5160472000006848,['n'],1,right,['1'],6,0.07314840000071854,,,33,18,Vrouw,Links,1,
,xotask,xotask,dotcolour,18,0,18,618,training,positivefb,97,hard,54,0.7337547999995877,['c'],1,left,['2'],5,0.10539670000071055,,,33,18,Vrouw,Links,1,
,xotask,xotask,dotcolour,19,0,19,619,training,positivefb,95,easy,71,0.6172839999999269,['c'],1,left,['2'],5,0.06855910000012955,,,33,18,Vrouw,Links,1,
,xotask,xotask,dotcolour,20,0,20,620,training,positivefb,99,easy,71,0.48314120000031835,['c'],1,left,['2'],5,0.11117530000046827,,,33,18,Vrouw,Links,1,
,xotask,xotask,dotcolour,21,0,21,621,training,positivefb,96,easy,73,0.43375010000090697,['c'],1,left,['3'],4,0.19342090000100143,,,33,18,Vrouw,Links,1,
,xotask,xotask,dotcolour,22,0,22,622,training,positivefb,8,average,19,0.3497108000010485,['c'],0,right,['8'],3,1.580443099999684,,,33,18,Vrouw,Links,1,
,xotask,xotask,dotcolour,23,0,23,623,training,positivefb,91,average,15,0.6499638000004779,['n'],1,right,['2'],5,0.05851919999986421,,,33,18,Vrouw,Links,1,
,xotask,xotask,dotcolour,24,0,24,624,training,positivefb,83,hard,52,0.5662523999999394,['c'],1,left,['1'],6,0.09071440000116127,,,33,18,Vrouw,Links,1,
,xotask,xotask,dotcolour,25,0,25,625,training,positivefb,95,average,62,0.4175562999989779,['c'],1,left,['2'],5,0.09399010000015551,,,33,18,Vrouw,Links,1,
,xotask,xotask,dotcolour,26,0,26,626,training,positivefb,97,easy,73,0.4830980999995518,['c'],1,left,['2'],5,0.07118919999993523,,,33,18,Vrouw,Links,1,
,xotask,xotask,dotcolour,27,0,27,627,training,positivefb,97,average,60,0.4507783000008203,['c'],1,left,['1'],6,0.050950700000612414,,,33,18,Vrouw,Links,1,
,xotask,xotask,dotcolour,28,0,28,628,training,positivefb,100,average,62,0.4834441000002698,['c'],1,left,['2'],5,0.42981780000081926,,,33,18,Vrouw,Links,1,
,xotask,xotask,dotcolour,29,0,29,629,training,positivefb,58,average,17,0.35002350000104343,['c'],0,right,['8'],3,1.3592609999996057,,,33,18,Vrouw,Links,1,
,xotask,xotask,dotcolour,30,0,30,630,training,positivefb,96,average,18,0.5332151000002341,['n'],1,right,['2'],5,0.13175039999987348,,,33,18,Vrouw,Links,1,
,xotask,xotask,dotcolour,31,0,31,631,training,positivefb,94,easy,72,0.5836696999995183,['c'],1,left,['2'],5,0.070853299999726,,,33,18,Vrouw,Links,1,
,xotask,xotask,dotcolour,32,0,32,632,training,positivefb,97,average,61,0.8337597000008827,['c'],1,left,['2'],5,0.08303039999918838,,,33,18,Vrouw,Links,1,
,xotask,xotask,dotcolour,33,0,33,633,training,positivefb,96,average,64,0.6664731000000756,['c'],1,left,['2'],5,0.06164059999900928,,,33,18,Vrouw,Links,1,
,xotask,xotask,dotcolour,34,0,34,634,training,positivefb,94,hard,25,0.6498578000009729,['c'],0,right,['2'],5,0.11300140000093961,,,33,18,Vrouw,Links,1,
,xotask,xotask,dotcolour,35,0,35,635,training,positivefb,88,easy,73,0.5003902000007656,['c'],1,left,['3'],4,0.24118869999983872,,,33,18,Vrouw,Links,1,
,xotask,xotask,dotcolour,36,0,36,636,training,positivefb,96,hard,29,0.4171454999996058,['c'],0,right,['2'],5,0.0945687999992515,,,33,18,Vrouw,Links,1,
,xotask,xotask,dotcolour,37,0,37,637,training,positivefb,85,hard,27,0.5165070999992167,['n'],1,right,['1'],6,0.25476460000027146,,,33,18,Vrouw,Links,1,
,xotask,xotask,dotcolour,38,0,38,638,training,positivefb,98,average,64,0.499505700001464,['c'],1,left,['2'],5,0.12154750000081549,,,33,18,Vrouw,Links,1,
,xotask,xotask,dotcolour,39,0,39,639,training,positivefb,99,hard,28,0.6508233999993536,['n'],1,right,['2'],5,0.12246829999821784,,,33,18,Vrouw,Links,1,
,xotask,xotask,dotcolour,40,0,40,640,training,positivefb,98,easy,8,0.5509200999986206,['n'],1,right,['2'],5,0.07989269999961834,,,33,18,Vrouw,Links,1,
,xotask,xotask,dotcolour,41,0,41,641,training,positivefb,97,easy,6,0.4831395999990491,['n'],1,right,['1'],6,0.10560850000001665,,,33,18,Vrouw,Links,1,
,xotask,xotask,dotcolour,42,0,42,642,training,positivefb,99,easy,9,0.4667504999997618,['n'],1,right,['2'],5,0.1227617000004102,,,33,18,Vrouw,Links,1,
,xotask,xotask,dotcolour,43,0,43,643,training,positivefb,98,easy,6,0.2668659999999363,['n'],1,right,['1'],6,0.09134430000085558,,,33,18,Vrouw,Links,1,
,xotask,xotask,dotcolour,44,0,44,644,training,positivefb,95,easy,5,0.5500704999994923,['n'],1,right,['1'],6,0.042852399999901536,,,33,18,Vrouw,Links,1,
,xotask,xotask,dotcolour,45,0,45,645,training,positivefb,98,hard,25,0.38248489999932644,['n'],1,right,['1'],6,0.025861000000077183,,,33,18,Vrouw,Links,1,
,xotask,xotask,dotcolour,46,0,46,646,training,positivefb,65,easy,71,0.30037430000083987,['n'],0,left,['2'],5,0.6930521999984194,,,33,18,Vrouw,Links,1,
,xotask,xotask,dotcolour,47,0,47,647,training,positivefb,98,average,15,0.482785000000149,['n'],1,right,['2'],5,0.606782499999099,,,33,18,Vrouw,Links,1,
,xotask,xotask,dotcolour,48,0,48,648,training,positivefb,95,average,63,0.49917740000091726,['c'],1,left,['2'],5,0.0426391999990301,,,33,18,Vrouw,Links,1,
,xotask,xotask,dotcolour,49,0,49,649,training,positivefb,94,hard,25,0.5163591000000451,['n'],1,right,['1'],6,0.028718499999740743,,,33,18,Vrouw,Links,1,
,xotask,xotask,dotcolour,50,0,50,650,training,positivefb,97,easy,9,0.5333590999998705,['n'],1,right,['1'],6,0.07830009999997856,,,33,18,Vrouw,Links,1,
,xotask,xotask,dotcolour,51,0,51,651,training,positivefb,96,average,61,0.683999999999287,['c'],1,left,['1'],6,0.11273460000120394,,,33,18,Vrouw,Links,1,
,xotask,xotask,dotcolour,52,0,52,652,training,positivefb,97,hard,25,0.4507371999989118,['c'],0,right,['1'],6,0.05817639999986568,,,33,18,Vrouw,Links,1,
,xotask,xotask,dotcolour,53,0,53,653,training,positivefb,91,average,19,0.5159641999998712,['n'],1,right,['1'],6,0.0751215999989654,,,33,18,Vrouw,Links,1,
,xotask,xotask,dotcolour,54,0,54,654,training,positivefb,68,average,19,0.6655542999997124,['c'],0,right,['2'],5,0.07862139999997453,,,33,18,Vrouw,Links,1,
,xotask,xotask,dotcolour,55,0,55,655,training,positivefb,98,easy,6,0.5332276000008278,['n'],1,right,['2'],5,0.06261070000073232,,,33,18,Vrouw,Links,1,
,xotask,xotask,dotcolour,56,0,56,656,training,positivefb,91,hard,52,0.5347983000010572,['c'],1,left,['1'],6,0.10349010000027192,,,33,18,Vrouw,Links,1,
,xotask,xotask,dotcolour,57,0,57,657,training,positivefb,97,hard,50,0.4671737000007852,['c'],1,left,['2'],5,0.08894160000090778,,,33,18,Vrouw,Links,1,
,xotask,xotask,dotcolour,58,0,58,658,training,positivefb,89,hard,26,0.7664258000004338,['c'],0,right,['2'],5,0.26258620000044175,,,33,18,Vrouw,Links,1,
