starttime,task,fbtask,firsttask,withinblocktrial,block,withintasktrial,trial,running,feedback,fbscore,difflevel,n_xes,rt,resp,cor,cresp,conf_press,cj,RTconf,reddots,post1,post2,post3,post4,post5,stoptime,sub,age,gender,handedness,session,
1715159301,xotask,xotask,dotcolour,0,0,0,0,training,negativefb,80,average,60,1.7667550000001029,['c'],1,left,['2'],5,2.5327319000000443,,,,,,,,1,20,Vrouw,Links,2,
,xotask,xotask,dotcolour,1,0,1,1,training,negativefb,41,average,63,1.1669605000001866,['c'],1,left,['1'],6,0.6080045000001064,,,,,,,,1,20,Vrouw,Links,2,
,xotask,xotask,dotcolour,2,0,2,2,training,negativefb,86,easy,6,0.7667605999999978,['n'],1,right,['1'],6,0.40931330000012167,,,,,,,,1,20,Vrouw,Links,2,
,xotask,xotask,dotcolour,3,0,3,3,training,negativefb,68,hard,26,0.8170546000001195,['n'],1,right,['1'],6,0.12071489999993901,,,,,,,,1,20,Vrouw,Links,2,
,xotask,xotask,dotcolour,4,0,4,4,training,negativefb,78,average,15,0.7660754999999426,['n'],1,right,['1'],6,0.1742021999998542,,,,,,,,1,20,Vrouw,Links,2,
,xotask,xotask,dotcolour,5,0,5,5,training,negativefb,71,easy,70,0.5328187000000071,['c'],1,left,['1'],6,0.10558749999995598,,,,,,,,1,20,Vrouw,Links,2,
,xotask,xotask,dotcolour,6,0,6,6,training,negativefb,73,hard,29,0.7837655000000723,['n'],1,right,['1'],6,0.10973980000017036,,,,,,,,1,20,Vrouw,Links,2,
,xotask,xotask,dotcolour,7,0,7,7,training,negativefb,58,hard,25,0.6991831000000275,['n'],1,right,['2'],5,0.31820760000005066,,,,,,,,1,20,Vrouw,Links,2,
,xotask,xotask,dotcolour,8,0,8,8,training,negativefb,87,hard,54,2.15031799999997,['c'],1,left,['3'],4,0.5794283000000178,,,,,,,,1,20,Vrouw,Links,2,
,xotask,xotask,dotcolour,9,0,9,9,training,negativefb,75,hard,54,2.533940100000109,['c'],1,left,['3'],4,0.43924190000007,,,,,,,,1,20,Vrouw,Links,2,
,xotask,xotask,dotcolour,10,0,10,10,training,negativefb,61,average,61,0.9829681999999593,['c'],1,left,['1'],6,0.18308809999984987,,,,,,,,1,20,Vrouw,Links,2,
,xotask,xotask,dotcolour,11,0,11,11,training,negativefb,58,average,64,1.0496367000000646,['c'],1,left,['1'],6,0.14185569999995096,,,,,,,,1,20,Vrouw,Links,2,
,xotask,xotask,dotcolour,12,0,12,12,training,negativefb,63,easy,5,0.5675327999999809,['n'],1,right,['1'],6,0.3299362000000201,,,,,,,,1,20,Vrouw,Links,2,
,xotask,xotask,dotcolour,13,0,13,13,training,negativefb,88,easy,7,0.4845432999998138,['n'],1,right,['1'],6,0.13736210000001847,,,,,,,,1,20,Vrouw,Links,2,
,xotask,xotask,dotcolour,14,0,14,14,training,negativefb,62,average,61,0.5508246000001691,['c'],1,left,['1'],6,0.11069229999998242,,,,,,,,1,20,Vrouw,Links,2,
,xotask,xotask,dotcolour,15,0,15,15,training,negativefb,86,hard,28,0.7162588999999571,['n'],1,right,['1'],6,0.11794520000012199,,,,,,,,1,20,Vrouw,Links,2,
,xotask,xotask,dotcolour,16,0,16,16,training,negativefb,64,easy,5,0.8335096999999223,['n'],1,right,['1'],6,0.17624250000017128,,,,,,,,1,20,Vrouw,Links,2,
,xotask,xotask,dotcolour,17,0,17,17,training,negativefb,56,average,19,0.5332908000000316,['n'],1,right,['1'],6,0.13173310000001948,,,,,,,,1,20,Vrouw,Links,2,
,xotask,xotask,dotcolour,18,0,18,18,training,negativefb,61,easy,7,0.5841439999999238,['n'],1,right,['1'],6,0.14371039999991808,,,,,,,,1,20,Vrouw,Links,2,
,xotask,xotask,dotcolour,19,0,19,19,training,negativefb,66,hard,29,0.6183292999999139,['n'],1,right,['1'],6,0.10627389999990555,,,,,,,,1,20,Vrouw,Links,2,
,xotask,xotask,dotcolour,20,0,20,20,training,negativefb,70,easy,7,0.6012318999999025,['n'],1,right,['1'],6,0.2299183999998604,,,,,,,,1,20,Vrouw,Links,2,
,xotask,xotask,dotcolour,21,0,21,21,training,negativefb,85,easy,8,0.5336735000000772,['n'],1,right,['1'],6,0.1761128999999073,,,,,,,,1,20,Vrouw,Links,2,
,xotask,xotask,dotcolour,22,0,22,22,training,negativefb,39,hard,50,1.1661251000000448,['n'],0,left,['1'],6,0.23494099999993523,,,,,,,,1,20,Vrouw,Links,2,
,xotask,xotask,dotcolour,23,0,23,23,training,negativefb,36,hard,26,0.682930800000122,['n'],1,right,['2'],5,0.9668359999998302,,,,,,,,1,20,Vrouw,Links,2,
,xotask,xotask,dotcolour,24,0,24,24,training,negativefb,34,average,15,0.531836599999906,['n'],1,right,['1'],6,0.14654489999998077,,,,,,,,1,20,Vrouw,Links,2,
,xotask,xotask,dotcolour,25,0,25,25,training,negativefb,64,average,16,3.0497024999999667,['c'],0,right,['3'],4,0.787083100000018,,,,,,,,1,20,Vrouw,Links,2,
,xotask,xotask,dotcolour,26,0,26,26,training,negativefb,35,average,15,0.8999038000001747,['n'],1,right,['2'],5,0.32744769999999335,,,,,,,,1,20,Vrouw,Links,2,
,xotask,xotask,dotcolour,27,0,27,27,training,negativefb,62,average,16,1.6333947999999054,['n'],1,right,['1'],6,0.2571722999998656,,,,,,,,1,20,Vrouw,Links,2,
,xotask,xotask,dotcolour,28,0,28,28,training,negativefb,35,hard,52,1.5170267999999396,['n'],0,left,['3'],4,0.731528199999957,,,,,,,,1,20,Vrouw,Links,2,
,xotask,xotask,dotcolour,29,0,29,29,training,negativefb,71,easy,73,0.765885199999957,['c'],1,left,['1'],6,0.14452679999999418,,,,,,,,1,20,Vrouw,Links,2,
,xotask,xotask,dotcolour,30,0,30,30,training,negativefb,84,easy,73,0.6334053999999014,['c'],1,left,['1'],6,0.09682980000002317,,,,,,,,1,20,Vrouw,Links,2,
,xotask,xotask,dotcolour,31,0,31,31,training,negativefb,46,easy,70,0.516691099999889,['c'],1,left,['1'],6,0.0888655999999628,,,,,,,,1,20,Vrouw,Links,2,
,xotask,xotask,dotcolour,32,0,32,32,training,negativefb,73,average,18,1.8171621999999843,['n'],1,right,['3'],4,0.2538829000000078,,,,,,,,1,20,Vrouw,Links,2,
,xotask,xotask,dotcolour,33,0,33,33,training,negativefb,87,hard,52,0.9164321999999174,['c'],1,left,['1'],6,0.15860290000000532,,,,,,,,1,20,Vrouw,Links,2,
,xotask,xotask,dotcolour,34,0,34,34,training,negativefb,61,hard,54,0.5332808999999088,['c'],1,left,['1'],6,0.08424349999995684,,,,,,,,1,20,Vrouw,Links,2,
,xotask,xotask,dotcolour,35,0,35,35,training,negativefb,79,easy,72,0.533930699999928,['c'],1,left,['1'],6,0.16299460000004728,,,,,,,,1,20,Vrouw,Links,2,
,xotask,xotask,dotcolour,36,0,36,36,training,negativefb,62,easy,74,0.5664330000001883,['c'],1,left,['1'],6,0.12602319999996325,,,,,,,,1,20,Vrouw,Links,2,
,xotask,xotask,dotcolour,37,0,37,37,training,negativefb,70,easy,73,0.5166033000000425,['c'],1,left,['1'],6,0.10836779999999635,,,,,,,,1,20,Vrouw,Links,2,
,xotask,xotask,dotcolour,38,0,38,38,training,negativefb,19,average,15,0.6827418999998827,['n'],1,right,['1'],6,0.26975210000000516,,,,,,,,1,20,Vrouw,Links,2,
,xotask,xotask,dotcolour,39,0,39,39,training,negativefb,54,average,19,0.6995117000001301,['n'],1,right,['1'],6,0.3589374000000589,,,,,,,,1,20,Vrouw,Links,2,
,xotask,xotask,dotcolour,40,0,40,40,training,negativefb,41,hard,29,0.9162877999999637,['c'],0,right,['1'],6,0.20518240000001242,,,,,,,,1,20,Vrouw,Links,2,
,xotask,xotask,dotcolour,41,0,41,41,training,negativefb,84,easy,73,0.8333458999998129,['c'],1,left,['1'],6,0.11555350000003273,,,,,,,,1,20,Vrouw,Links,2,
,xotask,xotask,dotcolour,42,0,42,42,training,negativefb,69,hard,50,1.1490093999998408,['c'],1,left,['2'],5,0.3689512000000832,,,,,,,,1,20,Vrouw,Links,2,
,xotask,xotask,dotcolour,43,0,43,43,training,negativefb,76,average,60,1.2829719000001205,['c'],1,left,['2'],5,0.367189400000143,,,,,,,,1,20,Vrouw,Links,2,
,xotask,xotask,dotcolour,44,0,44,44,training,negativefb,79,easy,6,0.500445099999979,['n'],1,right,['1'],6,0.20458810000013727,,,,,,,,1,20,Vrouw,Links,2,
,xotask,xotask,dotcolour,45,0,45,45,training,negativefb,51,average,61,2.2835313999999016,['n'],0,left,['8'],3,0.9447797000000264,,,,,,,,1,20,Vrouw,Links,2,
,xotask,xotask,dotcolour,46,0,46,46,training,negativefb,49,average,61,3.550305900000012,['n'],0,left,['8'],3,0.22100380000006226,,,,,,,,1,20,Vrouw,Links,2,
,xotask,xotask,dotcolour,47,0,47,47,training,negativefb,57,average,17,0.9015322000000197,['n'],1,right,['1'],6,0.17693110000004708,,,,,,,,1,20,Vrouw,Links,2,
,xotask,xotask,dotcolour,48,0,48,48,training,negativefb,86,hard,52,1.467330899999979,['c'],1,left,['3'],4,0.7432387000001199,,,,,,,,1,20,Vrouw,Links,2,
,xotask,xotask,dotcolour,49,0,49,49,training,negativefb,56,hard,29,0.9002173999999741,['n'],1,right,['1'],6,0.2466653999999835,,,,,,,,1,20,Vrouw,Links,2,
,xotask,xotask,dotcolour,50,0,50,50,training,negativefb,75,average,62,0.7000264999999217,['c'],1,left,['1'],6,0.11319219999995767,,,,,,,,1,20,Vrouw,Links,2,
,xotask,xotask,dotcolour,51,0,51,51,training,negativefb,76,easy,73,0.6500180000000455,['c'],1,left,['1'],6,0.10686400000008689,,,,,,,,1,20,Vrouw,Links,2,
,xotask,xotask,dotcolour,52,0,52,52,training,negativefb,55,hard,51,0.7997869999999239,['c'],1,left,['1'],6,0.08799009999984264,,,,,,,,1,20,Vrouw,Links,2,
,xotask,xotask,dotcolour,53,0,53,53,training,negativefb,57,hard,28,2.4326760999999806,['c'],0,right,['3'],4,0.4831071000000975,,,,,,,,1,20,Vrouw,Links,2,
,xotask,xotask,dotcolour,54,0,54,54,training,negativefb,70,hard,25,0.6168057999998382,['n'],1,right,['1'],6,0.29519940000000133,,,,,,,,1,20,Vrouw,Links,2,
,xotask,xotask,dotcolour,55,0,55,55,training,negativefb,85,hard,52,2.517324099999996,['c'],1,left,['3'],4,0.7670109000000593,,,,,,,,1,20,Vrouw,Links,2,
,xotask,xotask,dotcolour,56,0,56,56,training,negativefb,52,easy,6,0.565753500000028,['n'],1,right,['1'],6,0.1777052999998432,,,,,,,,1,20,Vrouw,Links,2,
,xotask,xotask,dotcolour,57,0,57,57,training,negativefb,63,easy,70,0.7500634000000446,['c'],1,left,['1'],6,0.1014321000000109,,,,,,,,1,20,Vrouw,Links,2,
,xotask,xotask,dotcolour,58,0,58,58,training,negativefb,91,easy,7,0.5350008999998863,['n'],1,right,['2'],5,0.19505759999992733,,,,,,,,1,20,Vrouw,Links,2,
,xotask,xotask,dotcolour,59,0,59,59,training,negativefb,27,average,61,1.0332837000000836,['c'],1,left,['2'],5,0.43566369999985,,,,,,,,1,20,Vrouw,Links,2,
,xotask,xotask,dotcolour,0,1,60,60,training,negativefb,63,average,16,1.3672796000000744,['n'],1,right,['2'],5,0.44863119999990886,,,,,,,,1,20,Vrouw,Links,2,
,xotask,xotask,dotcolour,1,1,61,61,training,negativefb,43,hard,27,1.2170551000001524,['n'],1,right,['2'],5,0.19820310000000063,,,,,,,,1,20,Vrouw,Links,2,
,xotask,xotask,dotcolour,2,1,62,62,training,negativefb,90,average,18,0.6003416999999445,['n'],1,right,['2'],5,0.27067809999994097,,,,,,,,1,20,Vrouw,Links,2,
,xotask,xotask,dotcolour,3,1,63,63,training,negativefb,68,average,18,0.716643299999987,['n'],1,right,['1'],6,0.3908506000000216,,,,,,,,1,20,Vrouw,Links,2,
,xotask,xotask,dotcolour,4,1,64,64,training,negativefb,98,easy,9,0.5506216000001132,['n'],1,right,['1'],6,0.17794529999991937,,,,,,,,1,20,Vrouw,Links,2,
,xotask,xotask,dotcolour,5,1,65,65,training,negativefb,37,hard,50,0.6330296999999518,['n'],0,left,['1'],6,0.1386038999999073,,,,,,,,1,20,Vrouw,Links,2,
,xotask,xotask,dotcolour,6,1,66,66,training,negativefb,70,easy,6,1.9825418000000354,['n'],1,right,['1'],6,0.22983989999988808,,,,,,,,1,20,Vrouw,Links,2,
,xotask,xotask,dotcolour,7,1,67,67,training,negativefb,61,hard,54,0.9495727000000898,['c'],1,left,['2'],5,0.3751938999998856,,,,,,,,1,20,Vrouw,Links,2,
,xotask,xotask,dotcolour,8,1,68,68,training,negativefb,74,hard,29,1.1677563000000646,['n'],1,right,['2'],5,0.24211050000008072,,,,,,,,1,20,Vrouw,Links,2,
,xotask,xotask,dotcolour,9,1,69,69,training,negativefb,71,average,63,0.8006163000000015,['c'],1,left,['1'],6,0.08017440000003262,,,,,,,,1,20,Vrouw,Links,2,
,xotask,xotask,dotcolour,10,1,70,70,training,negativefb,67,easy,72,0.5504152999999405,['c'],1,left,['1'],6,0.07122960000015155,,,,,,,,1,20,Vrouw,Links,2,
,xotask,xotask,dotcolour,11,1,71,71,training,negativefb,49,easy,8,0.5668209999998908,['n'],1,right,['2'],5,0.22975559999986217,,,,,,,,1,20,Vrouw,Links,2,
,xotask,xotask,dotcolour,12,1,72,72,training,negativefb,65,hard,28,1.7843920000000253,['n'],1,right,['2'],5,0.4308922000000166,,,,,,,,1,20,Vrouw,Links,2,
,xotask,xotask,dotcolour,13,1,73,73,training,negativefb,85,easy,71,0.7682336999998824,['c'],1,left,['2'],5,0.12730520000013712,,,,,,,,1,20,Vrouw,Links,2,
,xotask,xotask,dotcolour,14,1,74,74,training,negativefb,73,hard,51,0.8500446999998985,['c'],1,left,['2'],5,0.2807918000000882,,,,,,,,1,20,Vrouw,Links,2,
,xotask,xotask,dotcolour,15,1,75,75,training,negativefb,81,average,60,0.4995891000000938,['c'],1,left,['1'],6,0.12156740000000354,,,,,,,,1,20,Vrouw,Links,2,
,xotask,xotask,dotcolour,16,1,76,76,training,negativefb,48,average,18,0.9822305999998662,['n'],1,right,['2'],5,0.33366000000000895,,,,,,,,1,20,Vrouw,Links,2,
,xotask,xotask,dotcolour,17,1,77,77,training,negativefb,87,easy,7,0.8998480999998719,['n'],1,right,['2'],5,0.164752000000135,,,,,,,,1,20,Vrouw,Links,2,
,xotask,xotask,dotcolour,18,1,78,78,training,negativefb,67,average,61,0.9995318999999654,['c'],1,left,['1'],6,0.07172379999997247,,,,,,,,1,20,Vrouw,Links,2,
,xotask,xotask,dotcolour,19,1,79,79,training,negativefb,53,easy,73,0.5341522000001078,['c'],1,left,['1'],6,0.09460990000002312,,,,,,,,1,20,Vrouw,Links,2,
,xotask,xotask,dotcolour,20,1,80,80,training,negativefb,78,hard,29,0.783462899999904,['n'],1,right,['2'],5,0.1891441999998733,,,,,,,,1,20,Vrouw,Links,2,
,xotask,xotask,dotcolour,21,1,81,81,training,negativefb,52,easy,71,0.6831871000001684,['c'],1,left,['1'],6,0.13737240000000384,,,,,,,,1,20,Vrouw,Links,2,
,xotask,xotask,dotcolour,22,1,82,82,training,negativefb,73,hard,50,0.7168515999999272,['n'],0,left,['2'],5,0.18354249999993044,,,,,,,,1,20,Vrouw,Links,2,
,xotask,xotask,dotcolour,23,1,83,83,training,negativefb,60,easy,71,0.7842857000000549,['c'],1,left,['1'],6,0.0977588000000651,,,,,,,,1,20,Vrouw,Links,2,
,xotask,xotask,dotcolour,24,1,84,84,training,negativefb,82,easy,5,0.5657568999999967,['n'],1,right,['1'],6,0.15029889999982515,,,,,,,,1,20,Vrouw,Links,2,
,xotask,xotask,dotcolour,25,1,85,85,training,negativefb,27,easy,70,0.6161658999999418,['n'],0,left,['1'],6,0.3283037000001059,,,,,,,,1,20,Vrouw,Links,2,
,xotask,xotask,dotcolour,26,1,86,86,training,negativefb,90,easy,6,0.5992123000000902,['n'],1,right,['1'],6,0.0914196000001084,,,,,,,,1,20,Vrouw,Links,2,
,xotask,xotask,dotcolour,27,1,87,87,training,negativefb,21,hard,53,0.9670921999997972,['c'],1,left,['2'],5,0.3217330999998467,,,,,,,,1,20,Vrouw,Links,2,
,xotask,xotask,dotcolour,28,1,88,88,training,negativefb,4,easy,71,0.7819074000001365,['n'],0,left,['0'],1,2.0300145000001066,,,,,,,,1,20,Vrouw,Links,2,
,xotask,xotask,dotcolour,29,1,89,89,training,negativefb,72,average,61,2.7167162000000644,['c'],1,left,['8'],3,0.9608908000000156,,,,,,,,1,20,Vrouw,Links,2,
,xotask,xotask,dotcolour,30,1,90,90,training,negativefb,78,hard,25,1.9500252000000273,['n'],1,right,['8'],3,1.4283748999998807,,,,,,,,1,20,Vrouw,Links,2,
,xotask,xotask,dotcolour,31,1,91,91,training,negativefb,46,average,61,0.9183464999998705,['c'],1,left,['1'],6,0.0874985000000379,,,,,,,,1,20,Vrouw,Links,2,
,xotask,xotask,dotcolour,32,1,92,92,training,negativefb,71,average,15,0.6671209999999519,['n'],1,right,['1'],6,0.08960359999991852,,,,,,,,1,20,Vrouw,Links,2,
,xotask,xotask,dotcolour,33,1,93,93,training,negativefb,74,easy,72,1.3165105000000494,['c'],1,left,['1'],6,0.11354399999981979,,,,,,,,1,20,Vrouw,Links,2,
,xotask,xotask,dotcolour,34,1,94,94,training,negativefb,61,hard,28,1.7337047000000894,['c'],0,right,['2'],5,0.4726246000000174,,,,,,,,1,20,Vrouw,Links,2,
,xotask,xotask,dotcolour,35,1,95,95,training,negativefb,68,easy,7,0.7177616999999827,['n'],1,right,['1'],6,0.3540047000001323,,,,,,,,1,20,Vrouw,Links,2,
,xotask,xotask,dotcolour,36,1,96,96,training,negativefb,59,average,61,0.867143599999963,['n'],0,left,['1'],6,0.2405648999999812,,,,,,,,1,20,Vrouw,Links,2,
,xotask,xotask,dotcolour,37,1,97,97,training,negativefb,68,easy,8,0.9654433000000608,['n'],1,right,['1'],6,0.26398509999989983,,,,,,,,1,20,Vrouw,Links,2,
,xotask,xotask,dotcolour,38,1,98,98,training,negativefb,78,hard,53,0.566814900000054,['c'],1,left,['1'],6,0.06340000000000146,,,,,,,,1,20,Vrouw,Links,2,
,xotask,xotask,dotcolour,39,1,99,99,training,negativefb,80,average,19,0.7675025000000915,['n'],1,right,['1'],6,0.2066328999999314,,,,,,,,1,20,Vrouw,Links,2,
,xotask,xotask,dotcolour,40,1,100,100,training,negativefb,35,hard,51,1.4320247000000563,['c'],1,left,['1'],6,0.18122790000006717,,,,,,,,1,20,Vrouw,Links,2,
,xotask,xotask,dotcolour,41,1,101,101,training,negativefb,89,easy,9,0.8335678000000826,['n'],1,right,['2'],5,0.37327719999984765,,,,,,,,1,20,Vrouw,Links,2,
,xotask,xotask,dotcolour,42,1,102,102,training,negativefb,67,hard,53,1.8178368999999748,['c'],1,left,['2'],5,0.3736428999998225,,,,,,,,1,20,Vrouw,Links,2,
,xotask,xotask,dotcolour,43,1,103,103,training,negativefb,97,average,63,1.3666334000001825,['c'],1,left,['3'],4,0.6575982000001659,,,,,,,,1,20,Vrouw,Links,2,
,xotask,xotask,dotcolour,44,1,104,104,training,negativefb,69,hard,28,1.3338807000000088,['n'],1,right,['2'],5,0.1449225999999726,,,,,,,,1,20,Vrouw,Links,2,
,xotask,xotask,dotcolour,45,1,105,105,training,negativefb,90,easy,74,1.0661916000001384,['c'],1,left,['1'],6,0.12146120000011251,,,,,,,,1,20,Vrouw,Links,2,
,xotask,xotask,dotcolour,46,1,106,106,training,negativefb,66,average,63,0.7835393000000295,['c'],1,left,['2'],5,0.11782799999991767,,,,,,,,1,20,Vrouw,Links,2,
,xotask,xotask,dotcolour,47,1,107,107,training,negativefb,76,hard,25,1.717065199999979,['n'],1,right,['2'],5,0.6284851999998864,,,,,,,,1,20,Vrouw,Links,2,
,xotask,xotask,dotcolour,48,1,108,108,training,negativefb,63,easy,72,0.8513545999999224,['c'],1,left,['1'],6,0.13049859999978253,,,,,,,,1,20,Vrouw,Links,2,
,xotask,xotask,dotcolour,49,1,109,109,training,negativefb,81,easy,5,0.7004667999999583,['n'],1,right,['2'],5,0.2972859999999855,,,,,,,,1,20,Vrouw,Links,2,
,xotask,xotask,dotcolour,50,1,110,110,training,negativefb,81,average,19,0.7999655999999504,['n'],1,right,['2'],5,0.24629449999997632,,,,,,,,1,20,Vrouw,Links,2,
,xotask,xotask,dotcolour,51,1,111,111,training,negativefb,81,average,19,0.5834433000002264,['n'],1,right,['1'],6,0.19753129999980956,,,,,,,,1,20,Vrouw,Links,2,
,xotask,xotask,dotcolour,52,1,112,112,training,negativefb,60,hard,54,1.5648641000000225,['n'],0,left,['8'],3,0.9436269000000266,,,,,,,,1,20,Vrouw,Links,2,
,xotask,xotask,dotcolour,53,1,113,113,training,negativefb,57,hard,50,0.8499664000000848,['c'],1,left,['2'],5,0.11937109999985296,,,,,,,,1,20,Vrouw,Links,2,
,xotask,xotask,dotcolour,54,1,114,114,training,negativefb,82,hard,25,0.7669412000000193,['n'],1,right,['2'],5,0.1566126999998687,,,,,,,,1,20,Vrouw,Links,2,
,xotask,xotask,dotcolour,55,1,115,115,training,negativefb,43,average,19,3.9322349000001395,['n'],1,right,['2'],5,0.3542846999998801,,,,,,,,1,20,Vrouw,Links,2,
,xotask,xotask,dotcolour,56,1,116,116,training,negativefb,67,average,60,0.8500286999999389,['c'],1,left,['1'],6,0.14582029999996848,,,,,,,,1,20,Vrouw,Links,2,
,xotask,xotask,dotcolour,57,1,117,117,training,negativefb,56,hard,27,0.7491546999999628,['n'],1,right,['2'],5,0.18951289999995424,,,,,,,,1,20,Vrouw,Links,2,
,xotask,xotask,dotcolour,58,1,118,118,training,negativefb,92,average,64,1.3832326000001558,['c'],1,left,['3'],4,2.360526899999968,,,,,,,,1,20,Vrouw,Links,2,
,xotask,xotask,dotcolour,59,1,119,119,training,negativefb,19,average,18,0.7663900999998532,['n'],1,right,['2'],5,0.242868400000134,,,,,,,,1,20,Vrouw,Links,2,
,dotcolour,xotask,dotcolour,0,2,120,120,main,negativefb,-99,average,,1.5837619000001268,['n'],1,right,['3'],4,3.2667802999999367,28,,,,,,,1,20,Vrouw,Links,2,
,dotcolour,xotask,dotcolour,1,2,121,121,main,negativefb,-99,average,,1.6340542000000369,['n'],1,right,['3'],4,0.7118138999999246,29,,,,,,,1,20,Vrouw,Links,2,
,dotcolour,xotask,dotcolour,2,2,122,122,main,negativefb,-99,hard,,0.6330886999999166,['c'],1,left,['2'],5,0.2344849000000977,42,,,,,,,1,20,Vrouw,Links,2,
,dotcolour,xotask,dotcolour,3,2,123,123,main,negativefb,-99,average,,0.5005677999999989,['c'],1,left,['2'],5,0.07742129999996905,55,,,,,,,1,20,Vrouw,Links,2,
,dotcolour,xotask,dotcolour,4,2,124,124,main,negativefb,-99,easy,,0.3840841000001092,['c'],1,left,['1'],6,0.1807246999999279,63,,,,,,,1,20,Vrouw,Links,2,
,dotcolour,xotask,dotcolour,5,2,125,125,main,negativefb,-99,easy,,0.4009091999998873,['c'],1,left,['1'],6,0.14246800000000803,61,,,,,,,1,20,Vrouw,Links,2,
,dotcolour,xotask,dotcolour,6,2,126,126,main,negativefb,-99,average,,0.6179634999998598,['n'],1,right,['2'],5,0.22534200000018245,25,,,,,,,1,20,Vrouw,Links,2,
,dotcolour,xotask,dotcolour,7,2,127,127,main,negativefb,-99,average,,0.5675369000000501,['n'],1,right,['2'],5,0.22652530000004845,28,,,,,,,1,20,Vrouw,Links,2,
,dotcolour,xotask,dotcolour,8,2,128,128,main,negativefb,-99,hard,,0.7837257999999565,['c'],1,left,['1'],6,0.163324300000113,44,,,,,,,1,20,Vrouw,Links,2,
,dotcolour,xotask,dotcolour,9,2,129,129,main,negativefb,-99,average,,0.6173660000001746,['c'],1,left,['1'],6,0.07789899999988847,51,,,,,,,1,20,Vrouw,Links,2,
,dotcolour,xotask,dotcolour,10,2,130,130,main,negativefb,-99,hard,,1.0668080000000373,['n'],1,right,['2'],5,0.6478291999999328,37,,,,,,,1,20,Vrouw,Links,2,
,dotcolour,xotask,dotcolour,11,2,131,131,main,negativefb,-99,hard,,1.0666783000001487,['c'],1,left,['2'],5,0.4693635999999515,45,,,,,,,1,20,Vrouw,Links,2,
,dotcolour,xotask,dotcolour,12,2,132,132,main,negativefb,-99,average,,0.6502199999999903,['n'],1,right,['1'],6,0.24118969999994988,29,,,,,,,1,20,Vrouw,Links,2,
,dotcolour,xotask,dotcolour,13,2,133,133,main,negativefb,-99,hard,,0.7013021000000208,['c'],1,left,['2'],5,0.2048326999999972,45,,,,,,,1,20,Vrouw,Links,2,
,dotcolour,xotask,dotcolour,14,2,134,134,main,negativefb,-99,hard,,1.2507702999998855,['n'],0,left,['3'],4,0.46795159999987845,45,,,,,,,1,20,Vrouw,Links,2,
,dotcolour,xotask,dotcolour,15,2,135,135,main,negativefb,-99,easy,,0.7506599000000733,['c'],1,left,['1'],6,0.12294619999988754,62,,,,,,,1,20,Vrouw,Links,2,
,dotcolour,xotask,dotcolour,16,2,136,136,main,negativefb,-99,hard,,0.7669527999998991,['c'],0,right,['1'],6,0.21690170000010767,36,,,,,,,1,20,Vrouw,Links,2,
,dotcolour,xotask,dotcolour,17,2,137,137,main,negativefb,-99,average,,0.6679119000000355,['c'],1,left,['1'],6,0.14223269999979493,55,,,,,,,1,20,Vrouw,Links,2,
,dotcolour,xotask,dotcolour,18,2,138,138,main,negativefb,-99,average,,0.4674680000000535,['c'],1,left,['1'],6,0.23137990000009268,55,,,,,,,1,20,Vrouw,Links,2,
,dotcolour,xotask,dotcolour,19,2,139,139,main,negativefb,-99,hard,,0.6998413999999684,['c'],1,left,['1'],6,0.13794099999995524,43,,,,,,,1,20,Vrouw,Links,2,
,dotcolour,xotask,dotcolour,20,2,140,140,main,negativefb,-99,easy,,0.5497811999998703,['c'],0,right,['0'],1,1.1520379000000958,19,,,,,,,1,20,Vrouw,Links,2,
,dotcolour,xotask,dotcolour,21,2,141,141,main,negativefb,-99,average,,0.7009943000000476,['c'],1,left,['1'],6,0.11007210000002488,55,,,,,,,1,20,Vrouw,Links,2,
,dotcolour,xotask,dotcolour,22,2,142,142,main,negativefb,-99,hard,,1.1510611999999583,['c'],0,right,['3'],4,0.6608817000001181,39,,,,,,,1,20,Vrouw,Links,2,
,dotcolour,xotask,dotcolour,23,2,143,143,main,negativefb,-99,hard,,1.2337969000000157,['c'],0,right,['1'],6,0.11527780000005805,38,,,,,,,1,20,Vrouw,Links,2,
,dotcolour,xotask,dotcolour,24,2,144,144,main,negativefb,-99,easy,,0.48305409999989024,['n'],1,right,['1'],6,0.21965769999997065,16,,,,,,,1,20,Vrouw,Links,2,
,dotcolour,xotask,dotcolour,25,2,145,145,main,negativefb,-99,average,,0.6011418000000504,['n'],1,right,['1'],6,0.22869549999995797,25,,,,,,,1,20,Vrouw,Links,2,
,dotcolour,xotask,dotcolour,26,2,146,146,main,negativefb,-99,hard,,0.9688392000000476,['n'],0,left,['3'],4,0.20548599999983708,41,,,,,,,1,20,Vrouw,Links,2,
,dotcolour,xotask,dotcolour,27,2,147,147,main,negativefb,-99,easy,,0.4510737999999037,['c'],0,right,['0'],1,0.7162928000000193,19,,,,,,,1,20,Vrouw,Links,2,
,dotcolour,xotask,dotcolour,28,2,148,148,main,negativefb,-99,hard,,0.6487412999999833,['n'],1,right,['1'],6,0.1744048999998995,36,,,,,,,1,20,Vrouw,Links,2,
,dotcolour,xotask,dotcolour,29,2,149,149,main,negativefb,-99,hard,,0.6844119999998384,['n'],1,right,['2'],5,0.2934776999998121,35,,,,,,,1,20,Vrouw,Links,2,
,dotcolour,xotask,dotcolour,30,2,150,150,main,negativefb,-99,easy,,0.5837251000000379,['n'],1,right,['1'],6,0.14722939999978735,16,,,,,,,1,20,Vrouw,Links,2,
,dotcolour,xotask,dotcolour,31,2,151,151,main,negativefb,-99,easy,,0.5016554000001179,['c'],1,left,['1'],6,0.09863589999986289,65,,,,,,,1,20,Vrouw,Links,2,
,dotcolour,xotask,dotcolour,32,2,152,152,main,negativefb,-99,easy,,0.45023270000001503,['c'],1,left,['1'],6,0.13996059999999488,63,,,,,,,1,20,Vrouw,Links,2,
,dotcolour,xotask,dotcolour,33,2,153,153,main,negativefb,-99,easy,,0.5169519999999466,['c'],1,left,['1'],6,0.12368720000017674,63,,,,,,,1,20,Vrouw,Links,2,
,dotcolour,xotask,dotcolour,34,2,154,154,main,negativefb,-99,average,,0.6011109000000943,['c'],1,left,['1'],6,0.11266479999994772,53,,,,,,,1,20,Vrouw,Links,2,
,dotcolour,xotask,dotcolour,35,2,155,155,main,negativefb,-99,average,,0.6005405999999311,['n'],1,right,['2'],5,0.17299830000001748,29,,,,,,,1,20,Vrouw,Links,2,
,dotcolour,xotask,dotcolour,36,2,156,156,main,negativefb,-99,easy,,0.45105750000016087,['n'],1,right,['2'],5,1.6292693000000327,19,,,,,,,1,20,Vrouw,Links,2,
,dotcolour,xotask,dotcolour,37,2,157,157,main,negativefb,-99,easy,,0.4989309999998568,['c'],1,left,['1'],6,0.07218530000000101,61,,,,,,,1,20,Vrouw,Links,2,
,dotcolour,xotask,dotcolour,38,2,158,158,main,negativefb,-99,easy,,0.417775200000051,['c'],1,left,['1'],6,0.0939971999998761,63,,,,,,,1,20,Vrouw,Links,2,
,dotcolour,xotask,dotcolour,39,2,159,159,main,negativefb,-99,easy,,0.500421999999844,['n'],1,right,['2'],5,0.13555999999994128,16,,,,,,,1,20,Vrouw,Links,2,
,dotcolour,xotask,dotcolour,40,2,160,160,main,negativefb,-99,hard,,1.1178827999999612,['n'],1,right,['1'],6,0.12539369999990413,39,,,,,,,1,20,Vrouw,Links,2,
,dotcolour,xotask,dotcolour,41,2,161,161,main,negativefb,-99,average,,0.534330700000055,['c'],1,left,['1'],6,0.08479269999997996,52,,,,,,,1,20,Vrouw,Links,2,
,dotcolour,xotask,dotcolour,42,2,162,162,main,negativefb,-99,hard,,0.7507479000000785,['n'],1,right,['2'],5,0.15536139999994703,37,,,,,,,1,20,Vrouw,Links,2,
,dotcolour,xotask,dotcolour,43,2,163,163,main,negativefb,-99,easy,,0.5507853999999952,['c'],1,left,['1'],6,0.09618890000001556,62,,,,,,,1,20,Vrouw,Links,2,
,dotcolour,xotask,dotcolour,44,2,164,164,main,negativefb,-99,hard,,0.7180226999998922,['c'],1,left,['1'],6,0.10548900000003414,41,,,,,,,1,20,Vrouw,Links,2,
,dotcolour,xotask,dotcolour,45,2,165,165,main,negativefb,-99,hard,,0.9007289000001037,['n'],1,right,['3'],4,0.7387902999998914,37,,,,,,,1,20,Vrouw,Links,2,
,dotcolour,xotask,dotcolour,46,2,166,166,main,negativefb,-99,easy,,0.5508434999999281,['c'],0,right,['1'],6,0.11181170000008933,17,,,,,,,1,20,Vrouw,Links,2,
,dotcolour,xotask,dotcolour,47,2,167,167,main,negativefb,-99,hard,,0.8669356000000334,['n'],1,right,['2'],5,0.25781370000004245,38,,,,,,,1,20,Vrouw,Links,2,
,dotcolour,xotask,dotcolour,48,2,168,168,main,negativefb,-99,average,,0.6671634999997877,['n'],1,right,['1'],6,0.1336648999999852,28,,,,,,,1,20,Vrouw,Links,2,
,dotcolour,xotask,dotcolour,49,2,169,169,main,negativefb,-99,average,,0.4677469000000656,['n'],0,left,['3'],4,0.6546691000000919,52,,,,,,,1,20,Vrouw,Links,2,
,dotcolour,xotask,dotcolour,50,2,170,170,main,negativefb,-99,average,,0.5506445000000895,['c'],1,left,['1'],6,0.0785240000000158,55,,,,,,,1,20,Vrouw,Links,2,
,dotcolour,xotask,dotcolour,51,2,171,171,main,negativefb,-99,easy,,0.6163364999999885,['n'],1,right,['1'],6,0.14032810000003337,17,,,,,,,1,20,Vrouw,Links,2,
,dotcolour,xotask,dotcolour,52,2,172,172,main,negativefb,-99,average,,0.5839184999999816,['n'],1,right,['2'],5,0.21639660000005279,29,,,,,,,1,20,Vrouw,Links,2,
,dotcolour,xotask,dotcolour,53,2,173,173,main,negativefb,-99,hard,,0.4845843999999033,['n'],0,left,['1'],6,0.34878709999998136,41,,,,,,,1,20,Vrouw,Links,2,
,dotcolour,xotask,dotcolour,54,2,174,174,main,negativefb,-99,easy,,0.4837631999998848,['c'],0,right,['0'],1,0.5968589999999949,16,,,,,,,1,20,Vrouw,Links,2,
,dotcolour,xotask,dotcolour,55,2,175,175,main,negativefb,-99,easy,,0.43418689999998605,['n'],1,right,['1'],6,0.17258910000009564,18,,,,,,,1,20,Vrouw,Links,2,
,dotcolour,xotask,dotcolour,56,2,176,176,main,negativefb,-99,average,,0.5171626999999717,['n'],1,right,['1'],6,0.2905510000000504,28,,,,,,,1,20,Vrouw,Links,2,
,dotcolour,xotask,dotcolour,57,2,177,177,main,negativefb,-99,hard,,0.5845896000000721,['c'],1,left,['1'],6,0.10428669999987505,43,,,,,,,1,20,Vrouw,Links,2,
,dotcolour,xotask,dotcolour,58,2,178,178,main,negativefb,-99,average,,0.5168807000000015,['n'],0,left,['9'],2,1.9122135000000071,54,,,,,,,1,20,Vrouw,Links,2,
,dotcolour,xotask,dotcolour,59,2,179,179,main,negativefb,-99,easy,,0.7506559000000834,['c'],1,left,['1'],6,0.06232750000003762,62,,,,,,,1,20,Vrouw,Links,2,
,dotcolour,xotask,dotcolour,0,3,180,180,main,negativefb,-99,easy,,0.9511876000001394,['c'],1,left,['1'],6,0.12752040000009401,61,,,,,,,1,20,Vrouw,Links,2,
,dotcolour,xotask,dotcolour,1,3,181,181,main,negativefb,-99,hard,,1.3168029000000843,['c'],1,left,['2'],5,0.37581219999992754,42,,,,,,,1,20,Vrouw,Links,2,
,dotcolour,xotask,dotcolour,2,3,182,182,main,negativefb,-99,hard,,0.7011393000000226,['n'],1,right,['2'],5,0.1410591999999724,39,,,,,,,1,20,Vrouw,Links,2,
,dotcolour,xotask,dotcolour,3,3,183,183,main,negativefb,-99,easy,,0.7663732000000891,['c'],1,left,['1'],6,0.002248799999961193,63,,,,,,,1,20,Vrouw,Links,2,
,dotcolour,xotask,dotcolour,4,3,184,184,main,negativefb,-99,average,,0.7338439000000108,['n'],1,right,['2'],5,0.1337840999999571,27,,,,,,,1,20,Vrouw,Links,2,
,dotcolour,xotask,dotcolour,5,3,185,185,main,negativefb,-99,hard,,0.9165648000000601,['c'],1,left,['2'],5,2.1566428000000997,45,,,,,,,1,20,Vrouw,Links,2,
,dotcolour,xotask,dotcolour,6,3,186,186,main,negativefb,-99,average,,0.5668527000000267,['n'],1,right,['1'],6,0.13552070000014282,29,,,,,,,1,20,Vrouw,Links,2,
,dotcolour,xotask,dotcolour,7,3,187,187,main,negativefb,-99,average,,0.5009698999999728,['n'],1,right,['2'],5,0.1519181999999546,26,,,,,,,1,20,Vrouw,Links,2,
,dotcolour,xotask,dotcolour,8,3,188,188,main,negativefb,-99,hard,,0.9841719000000921,['n'],1,right,['2'],5,0.11484649999988505,39,,,,,,,1,20,Vrouw,Links,2,
,dotcolour,xotask,dotcolour,9,3,189,189,main,negativefb,-99,easy,,1.7833940000000439,['n'],1,right,['2'],5,0.12891689999992195,15,,,,,,,1,20,Vrouw,Links,2,
,dotcolour,xotask,dotcolour,10,3,190,190,main,negativefb,-99,average,,0.8834220999999616,['n'],1,right,['2'],5,0.23389259999999013,28,,,,,,,1,20,Vrouw,Links,2,
,dotcolour,xotask,dotcolour,11,3,191,191,main,negativefb,-99,easy,,0.5335549000001265,['n'],1,right,['1'],6,0.21851259999994,15,,,,,,,1,20,Vrouw,Links,2,
,dotcolour,xotask,dotcolour,12,3,192,192,main,negativefb,-99,easy,,0.7331208999999035,['c'],1,left,['1'],6,0.14236099999993712,62,,,,,,,1,20,Vrouw,Links,2,
,dotcolour,xotask,dotcolour,13,3,193,193,main,negativefb,-99,easy,,2.3838848999998845,['n'],1,right,['1'],6,0.6500965000000178,19,,,,,,,1,20,Vrouw,Links,2,
,dotcolour,xotask,dotcolour,14,3,194,194,main,negativefb,-99,easy,,0.7834920000000238,['n'],1,right,['1'],6,0.6328470999999354,18,,,,,,,1,20,Vrouw,Links,2,
,dotcolour,xotask,dotcolour,15,3,195,195,main,negativefb,-99,easy,,0.5332698999998229,['n'],1,right,['1'],6,0.10808750000001055,15,,,,,,,1,20,Vrouw,Links,2,
,dotcolour,xotask,dotcolour,16,3,196,196,main,negativefb,-99,easy,,0.6840242999999191,['c'],1,left,['1'],6,0.188355300000012,62,,,,,,,1,20,Vrouw,Links,2,
,dotcolour,xotask,dotcolour,17,3,197,197,main,negativefb,-99,easy,,0.617094699999825,['c'],0,right,['0'],1,0.6533856999999443,19,,,,,,,1,20,Vrouw,Links,2,
,dotcolour,xotask,dotcolour,18,3,198,198,main,negativefb,-99,hard,,1.351167499999974,['n'],0,left,['3'],4,0.36655949999999393,43,,,,,,,1,20,Vrouw,Links,2,
,dotcolour,xotask,dotcolour,19,3,199,199,main,negativefb,-99,average,,0.41643530000010287,['c'],1,left,['1'],6,0.11193419999995058,55,,,,,,,1,20,Vrouw,Links,2,
,dotcolour,xotask,dotcolour,20,3,200,200,main,negativefb,-99,average,,0.6166692000001603,['n'],1,right,['2'],5,0.14695080000001326,28,,,,,,,1,20,Vrouw,Links,2,
,dotcolour,xotask,dotcolour,21,3,201,201,main,negativefb,-99,average,,0.5670153000000937,['c'],1,left,['1'],6,0.13654559999986304,53,,,,,,,1,20,Vrouw,Links,2,
,dotcolour,xotask,dotcolour,22,3,202,202,main,negativefb,-99,hard,,0.6673369000000093,['c'],0,right,['2'],5,0.15988240000001497,37,,,,,,,1,20,Vrouw,Links,2,
,dotcolour,xotask,dotcolour,23,3,203,203,main,negativefb,-99,easy,,0.5348163000001023,['c'],1,left,['1'],6,0.09441399999991518,65,,,,,,,1,20,Vrouw,Links,2,
,dotcolour,xotask,dotcolour,24,3,204,204,main,negativefb,-99,easy,,0.4012679999998454,['c'],1,left,['1'],6,0.19598279999991064,63,,,,,,,1,20,Vrouw,Links,2,
,dotcolour,xotask,dotcolour,25,3,205,205,main,negativefb,-99,hard,,0.6177256999999372,['n'],1,right,['2'],5,0.14807020000012017,37,,,,,,,1,20,Vrouw,Links,2,
,dotcolour,xotask,dotcolour,26,3,206,206,main,negativefb,-99,hard,,0.7504555000000437,['n'],1,right,['3'],4,0.12060980000001109,36,,,,,,,1,20,Vrouw,Links,2,
,dotcolour,xotask,dotcolour,27,3,207,207,main,negativefb,-99,average,,0.40088330000003225,['c'],1,left,['1'],6,0.14216650000003028,51,,,,,,,1,20,Vrouw,Links,2,
,dotcolour,xotask,dotcolour,28,3,208,208,main,negativefb,-99,easy,,0.5670141000000513,['c'],1,left,['1'],6,0.16214590000004137,63,,,,,,,1,20,Vrouw,Links,2,
,dotcolour,xotask,dotcolour,29,3,209,209,main,negativefb,-99,hard,,1.2336359999999331,['c'],1,left,['2'],5,0.21971919999987222,41,,,,,,,1,20,Vrouw,Links,2,
,dotcolour,xotask,dotcolour,30,3,210,210,main,negativefb,-99,average,,0.6179096999999274,['c'],1,left,['1'],6,0.11529489999998077,55,,,,,,,1,20,Vrouw,Links,2,
,dotcolour,xotask,dotcolour,31,3,211,211,main,negativefb,-99,hard,,0.8675894000000426,['c'],1,left,['2'],5,0.16496269999993274,43,,,,,,,1,20,Vrouw,Links,2,
,dotcolour,xotask,dotcolour,32,3,212,212,main,negativefb,-99,average,,1.5007143999998789,['n'],1,right,['2'],5,0.17848189999995157,28,,,,,,,1,20,Vrouw,Links,2,
,dotcolour,xotask,dotcolour,33,3,213,213,main,negativefb,-99,average,,0.617721599999868,['n'],1,right,['2'],5,0.1883772000001045,28,,,,,,,1,20,Vrouw,Links,2,
,dotcolour,xotask,dotcolour,34,3,214,214,main,negativefb,-99,hard,,0.8668840000000273,['n'],1,right,['2'],5,0.17098009999995156,37,,,,,,,1,20,Vrouw,Links,2,
,dotcolour,xotask,dotcolour,35,3,215,215,main,negativefb,-99,average,,0.5833407000000079,['c'],1,left,['1'],6,0.1420957999998791,52,,,,,,,1,20,Vrouw,Links,2,
,dotcolour,xotask,dotcolour,36,3,216,216,main,negativefb,-99,easy,,0.8173883999997997,['c'],1,left,['1'],6,0.664865700000064,63,,,,,,,1,20,Vrouw,Links,2,
,dotcolour,xotask,dotcolour,37,3,217,217,main,negativefb,-99,hard,,0.7668251000000055,['n'],1,right,['2'],5,0.24078020000001743,36,,,,,,,1,20,Vrouw,Links,2,
,dotcolour,xotask,dotcolour,38,3,218,218,main,negativefb,-99,average,,0.8176079999998365,['c'],1,left,['1'],6,0.09524599999986094,52,,,,,,,1,20,Vrouw,Links,2,
,dotcolour,xotask,dotcolour,39,3,219,219,main,negativefb,-99,hard,,0.8003464000000804,['n'],0,left,['2'],5,0.26026969999998073,44,,,,,,,1,20,Vrouw,Links,2,
,dotcolour,xotask,dotcolour,40,3,220,220,main,negativefb,-99,easy,,0.517143199999964,['n'],1,right,['2'],5,0.3586722000000009,19,,,,,,,1,20,Vrouw,Links,2,
,dotcolour,xotask,dotcolour,41,3,221,221,main,negativefb,-99,average,,0.5843251999999666,['n'],1,right,['2'],5,0.28198649999990266,27,,,,,,,1,20,Vrouw,Links,2,
,dotcolour,xotask,dotcolour,42,3,222,222,main,negativefb,-99,easy,,0.6168133999999554,['n'],1,right,['2'],5,0.19077630000015233,18,,,,,,,1,20,Vrouw,Links,2,
,dotcolour,xotask,dotcolour,43,3,223,223,main,negativefb,-99,hard,,0.6194130999999743,['c'],1,left,['1'],6,0.11165609999989101,41,,,,,,,1,20,Vrouw,Links,2,
,dotcolour,xotask,dotcolour,44,3,224,224,main,negativefb,-99,average,,0.6669438999999784,['c'],1,left,['1'],6,0.07368429999996806,52,,,,,,,1,20,Vrouw,Links,2,
,dotcolour,xotask,dotcolour,45,3,225,225,main,negativefb,-99,easy,,0.5174199999999018,['n'],1,right,['2'],5,0.15511890000016137,15,,,,,,,1,20,Vrouw,Links,2,
,dotcolour,xotask,dotcolour,46,3,226,226,main,negativefb,-99,average,,2.134591899999805,['c'],1,left,['1'],6,1.0641153999999915,53,,,,,,,1,20,Vrouw,Links,2,
,dotcolour,xotask,dotcolour,47,3,227,227,main,negativefb,-99,hard,,0.6337362000001576,['n'],0,left,['2'],5,0.1734033999998701,43,,,,,,,1,20,Vrouw,Links,2,
,dotcolour,xotask,dotcolour,48,3,228,228,main,negativefb,-99,hard,,0.66681339999991,['c'],1,left,['1'],6,0.10097889999997278,42,,,,,,,1,20,Vrouw,Links,2,
,dotcolour,xotask,dotcolour,49,3,229,229,main,negativefb,-99,easy,,0.5840425999999752,['n'],1,right,['2'],5,0.07385999999996784,15,,,,,,,1,20,Vrouw,Links,2,
,dotcolour,xotask,dotcolour,50,3,230,230,main,negativefb,-99,easy,,0.5835567999999967,['c'],1,left,['1'],6,0.04907490000005055,63,,,,,,,1,20,Vrouw,Links,2,
,dotcolour,xotask,dotcolour,51,3,231,231,main,negativefb,-99,hard,,0.5156809999998586,['c'],1,left,['1'],6,0.09148639999989427,44,,,,,,,1,20,Vrouw,Links,2,
,dotcolour,xotask,dotcolour,52,3,232,232,main,negativefb,-99,hard,,0.5511771999999837,['n'],1,right,['2'],5,0.07432020000010198,39,,,,,,,1,20,Vrouw,Links,2,
,dotcolour,xotask,dotcolour,53,3,233,233,main,negativefb,-99,hard,,0.5336869000000206,['n'],1,right,['2'],5,0.09184800000002724,39,,,,,,,1,20,Vrouw,Links,2,
,dotcolour,xotask,dotcolour,54,3,234,234,main,negativefb,-99,easy,,0.6992033999999876,['c'],1,left,['1'],6,0.10088760000007824,61,,,,,,,1,20,Vrouw,Links,2,
,dotcolour,xotask,dotcolour,55,3,235,235,main,negativefb,-99,average,,0.5846343000000616,['c'],1,left,['1'],6,0.0811713000000509,51,,,,,,,1,20,Vrouw,Links,2,
,dotcolour,xotask,dotcolour,56,3,236,236,main,negativefb,-99,average,,0.5327935999998772,['c'],1,left,['1'],6,0.09880759999987276,53,,,,,,,1,20,Vrouw,Links,2,
,dotcolour,xotask,dotcolour,57,3,237,237,main,negativefb,-99,hard,,0.7014516000001549,['n'],1,right,['2'],5,0.195116999999982,37,,,,,,,1,20,Vrouw,Links,2,
,dotcolour,xotask,dotcolour,58,3,238,238,main,negativefb,-99,average,,1.0505461000000196,['n'],1,right,['2'],5,0.53012590000003,25,,,,,,,1,20,Vrouw,Links,2,
,dotcolour,xotask,dotcolour,59,3,239,239,main,negativefb,-99,average,,0.5671327000000019,['n'],1,right,['2'],5,0.13640620000001036,26,,,,,,,1,20,Vrouw,Links,2,
,dotcolour,xotask,dotcolour,0,4,240,240,main,negativefb,-99,hard,,1.883899600000177,['n'],1,right,['3'],4,0.8798563000000286,37,,,,,,,1,20,Vrouw,Links,2,
,dotcolour,xotask,dotcolour,1,4,241,241,main,negativefb,-99,average,,1.0504627000000255,['c'],1,left,['1'],6,0.10770230000002812,51,,,,,,,1,20,Vrouw,Links,2,
,dotcolour,xotask,dotcolour,2,4,242,242,main,negativefb,-99,average,,0.46722379999982877,['c'],1,left,['2'],5,0.05429499999991094,51,,,,,,,1,20,Vrouw,Links,2,
,dotcolour,xotask,dotcolour,3,4,243,243,main,negativefb,-99,easy,,0.4680269999998927,['n'],1,right,['2'],5,0.07465430000002016,19,,,,,,,1,20,Vrouw,Links,2,
,dotcolour,xotask,dotcolour,4,4,244,244,main,negativefb,-99,hard,,1.0512430999999651,['n'],1,right,['3'],4,0.14170039999999062,39,,,,,,,1,20,Vrouw,Links,2,
,dotcolour,xotask,dotcolour,5,4,245,245,main,negativefb,-99,hard,,1.3178383000001759,['c'],1,left,['1'],6,0.06879530000014711,41,,,,,,,1,20,Vrouw,Links,2,
,dotcolour,xotask,dotcolour,6,4,246,246,main,negativefb,-99,easy,,0.45029570000019703,['c'],1,left,['1'],6,0.3127665000001798,61,,,,,,,1,20,Vrouw,Links,2,
,dotcolour,xotask,dotcolour,7,4,247,247,main,negativefb,-99,easy,,0.7009567000000061,['n'],1,right,['2'],5,0.11336239999991449,15,,,,,,,1,20,Vrouw,Links,2,
,dotcolour,xotask,dotcolour,8,4,248,248,main,negativefb,-99,easy,,0.43387429999984306,['n'],1,right,['2'],5,0.06865050000010342,17,,,,,,,1,20,Vrouw,Links,2,
,dotcolour,xotask,dotcolour,9,4,249,249,main,negativefb,-99,hard,,0.38380610000012894,['n'],0,left,['0'],1,0.8359535999998116,42,,,,,,,1,20,Vrouw,Links,2,
,dotcolour,xotask,dotcolour,10,4,250,250,main,negativefb,-99,easy,,0.8509473000001435,['c'],0,right,['1'],6,0.0808356999998523,17,,,,,,,1,20,Vrouw,Links,2,
,dotcolour,xotask,dotcolour,11,4,251,251,main,negativefb,-99,easy,,0.8501349000000573,['c'],1,left,['1'],6,0.10076309999999467,62,,,,,,,1,20,Vrouw,Links,2,
,dotcolour,xotask,dotcolour,12,4,252,252,main,negativefb,-99,hard,,0.6679136999998718,['n'],1,right,['2'],5,0.11863049999988107,38,,,,,,,1,20,Vrouw,Links,2,
,dotcolour,xotask,dotcolour,13,4,253,253,main,negativefb,-99,easy,,0.61694650000004,['c'],1,left,['1'],6,0.09758659999988595,62,,,,,,,1,20,Vrouw,Links,2,
,dotcolour,xotask,dotcolour,14,4,254,254,main,negativefb,-99,hard,,0.6830377999999655,['n'],1,right,['8'],3,1.0846977000001061,39,,,,,,,1,20,Vrouw,Links,2,
,dotcolour,xotask,dotcolour,15,4,255,255,main,negativefb,-99,average,,0.5343895999999404,['n'],1,right,['3'],4,0.3889032000001862,29,,,,,,,1,20,Vrouw,Links,2,
,dotcolour,xotask,dotcolour,16,4,256,256,main,negativefb,-99,average,,1.267686200000071,['c'],1,left,['2'],5,0.17205409999996846,52,,,,,,,1,20,Vrouw,Links,2,
,dotcolour,xotask,dotcolour,17,4,257,257,main,negativefb,-99,hard,,0.5517606999999316,['c'],1,left,['2'],5,0.16736939999987044,42,,,,,,,1,20,Vrouw,Links,2,
,dotcolour,xotask,dotcolour,18,4,258,258,main,negativefb,-99,hard,,0.8178892999999334,['c'],0,right,['2'],5,0.12933040000007168,38,,,,,,,1,20,Vrouw,Links,2,
,dotcolour,xotask,dotcolour,19,4,259,259,main,negativefb,-99,hard,,1.0667304999999487,['n'],0,left,['3'],4,0.26647699999989527,44,,,,,,,1,20,Vrouw,Links,2,
,dotcolour,xotask,dotcolour,20,4,260,260,main,negativefb,-99,average,,1.6183624999998756,['n'],1,right,['2'],5,0.13470389999997678,27,,,,,,,1,20,Vrouw,Links,2,
,dotcolour,xotask,dotcolour,21,4,261,261,main,negativefb,-99,easy,,0.6344426000000567,['n'],1,right,['1'],6,0.2982222000000547,15,,,,,,,1,20,Vrouw,Links,2,
,dotcolour,xotask,dotcolour,22,4,262,262,main,negativefb,-99,easy,,0.6332907000000887,['c'],1,left,['1'],6,0.10162930000001325,61,,,,,,,1,20,Vrouw,Links,2,
,dotcolour,xotask,dotcolour,23,4,263,263,main,negativefb,-99,average,,1.200576799999908,['n'],1,right,['1'],6,0.16221350000000712,27,,,,,,,1,20,Vrouw,Links,2,
,dotcolour,xotask,dotcolour,24,4,264,264,main,negativefb,-99,average,,0.6849176000000625,['n'],1,right,['2'],5,0.18506890000003295,26,,,,,,,1,20,Vrouw,Links,2,
,dotcolour,xotask,dotcolour,25,4,265,265,main,negativefb,-99,average,,0.40123940000012226,['n'],1,right,['1'],6,0.17919910000000527,28,,,,,,,1,20,Vrouw,Links,2,
,dotcolour,xotask,dotcolour,26,4,266,266,main,negativefb,-99,easy,,0.566299699999945,['c'],1,left,['1'],6,0.06268780000004881,64,,,,,,,1,20,Vrouw,Links,2,
,dotcolour,xotask,dotcolour,27,4,267,267,main,negativefb,-99,average,,0.8674918000001526,['n'],1,right,['1'],6,0.45092989999989186,26,,,,,,,1,20,Vrouw,Links,2,
,dotcolour,xotask,dotcolour,28,4,268,268,main,negativefb,-99,easy,,0.44928170000002865,['c'],1,left,['1'],6,0.07061410000005708,65,,,,,,,1,20,Vrouw,Links,2,
,dotcolour,xotask,dotcolour,29,4,269,269,main,negativefb,-99,easy,,0.5834557000000586,['c'],1,left,['1'],6,0.05327280000005885,65,,,,,,,1,20,Vrouw,Links,2,
,dotcolour,xotask,dotcolour,30,4,270,270,main,negativefb,-99,easy,,0.6336980000000949,['n'],1,right,['2'],5,0.11511240000004364,19,,,,,,,1,20,Vrouw,Links,2,
,dotcolour,xotask,dotcolour,31,4,271,271,main,negativefb,-99,average,,0.6163324999999986,['c'],1,left,['2'],5,0.18405840000013995,51,,,,,,,1,20,Vrouw,Links,2,
,dotcolour,xotask,dotcolour,32,4,272,272,main,negativefb,-99,hard,,0.8670555000001059,['c'],0,right,['3'],4,0.37373539999998684,38,,,,,,,1,20,Vrouw,Links,2,
,dotcolour,xotask,dotcolour,33,4,273,273,main,negativefb,-99,easy,,0.58316590000004,['n'],1,right,['2'],5,0.08067400000004454,15,,,,,,,1,20,Vrouw,Links,2,
,dotcolour,xotask,dotcolour,34,4,274,274,main,negativefb,-99,average,,0.7344223999998576,['c'],1,left,['1'],6,0.09701919999997699,51,,,,,,,1,20,Vrouw,Links,2,
,dotcolour,xotask,dotcolour,35,4,275,275,main,negativefb,-99,hard,,1.267434699999967,['n'],0,left,['2'],5,0.21973010000010618,45,,,,,,,1,20,Vrouw,Links,2,
,dotcolour,xotask,dotcolour,36,4,276,276,main,negativefb,-99,easy,,0.45058899999980895,['c'],0,right,['0'],1,0.6259358999998312,18,,,,,,,1,20,Vrouw,Links,2,
,dotcolour,xotask,dotcolour,37,4,277,277,main,negativefb,-99,hard,,0.5503232999999454,['n'],1,right,['2'],5,0.2756251999999222,37,,,,,,,1,20,Vrouw,Links,2,
,dotcolour,xotask,dotcolour,38,4,278,278,main,negativefb,-99,average,,0.7516020999999,['n'],1,right,['1'],6,0.2271267999999509,25,,,,,,,1,20,Vrouw,Links,2,
,dotcolour,xotask,dotcolour,39,4,279,279,main,negativefb,-99,average,,1.2343127999999979,['c'],1,left,['2'],5,0.1954608000000917,53,,,,,,,1,20,Vrouw,Links,2,
,dotcolour,xotask,dotcolour,40,4,280,280,main,negativefb,-99,hard,,1.0839157000000341,['c'],0,right,['2'],5,0.15236649999997098,36,,,,,,,1,20,Vrouw,Links,2,
,dotcolour,xotask,dotcolour,41,4,281,281,main,negativefb,-99,average,,0.6681702999999288,['c'],1,left,['2'],5,0.18481139999994411,53,,,,,,,1,20,Vrouw,Links,2,
,dotcolour,xotask,dotcolour,42,4,282,282,main,negativefb,-99,average,,0.7504785999999513,['n'],1,right,['1'],6,0.2030873999999585,28,,,,,,,1,20,Vrouw,Links,2,
,dotcolour,xotask,dotcolour,43,4,283,283,main,negativefb,-99,hard,,0.6514658000000964,['c'],1,left,['2'],5,0.07491619999996146,41,,,,,,,1,20,Vrouw,Links,2,
,dotcolour,xotask,dotcolour,44,4,284,284,main,negativefb,-99,easy,,0.5847642999999607,['n'],1,right,['2'],5,0.12932519999981196,18,,,,,,,1,20,Vrouw,Links,2,
,dotcolour,xotask,dotcolour,45,4,285,285,main,negativefb,-99,average,,0.8505881999999474,['c'],1,left,['2'],5,0.12410559999989346,54,,,,,,,1,20,Vrouw,Links,2,
,dotcolour,xotask,dotcolour,46,4,286,286,main,negativefb,-99,hard,,0.6672986999999466,['n'],0,left,['2'],5,0.19597720000001573,44,,,,,,,1,20,Vrouw,Links,2,
,dotcolour,xotask,dotcolour,47,4,287,287,main,negativefb,-99,easy,,0.6003887000001669,['n'],1,right,['1'],6,0.16596050000021023,15,,,,,,,1,20,Vrouw,Links,2,
,dotcolour,xotask,dotcolour,48,4,288,288,main,negativefb,-99,hard,,1.050163399999974,['c'],0,right,['2'],5,0.19809209999993982,38,,,,,,,1,20,Vrouw,Links,2,
,dotcolour,xotask,dotcolour,49,4,289,289,main,negativefb,-99,easy,,0.6837162000001626,['c'],1,left,['1'],6,0.15649299999995492,64,,,,,,,1,20,Vrouw,Links,2,
,dotcolour,xotask,dotcolour,50,4,290,290,main,negativefb,-99,average,,0.5008283999998184,['c'],1,left,['1'],6,0.10679229999982454,51,,,,,,,1,20,Vrouw,Links,2,
,dotcolour,xotask,dotcolour,51,4,291,291,main,negativefb,-99,average,,0.5685197000000244,['c'],1,left,['1'],6,0.11282829999981914,54,,,,,,,1,20,Vrouw,Links,2,
,dotcolour,xotask,dotcolour,52,4,292,292,main,negativefb,-99,average,,0.5845397000000503,['n'],1,right,['2'],5,0.14213509999990492,27,,,,,,,1,20,Vrouw,Links,2,
,dotcolour,xotask,dotcolour,53,4,293,293,main,negativefb,-99,easy,,0.4667087000000265,['c'],1,left,['1'],6,0.1192518000000291,62,,,,,,,1,20,Vrouw,Links,2,
,dotcolour,xotask,dotcolour,54,4,294,294,main,negativefb,-99,hard,,0.5662794999998368,['c'],1,left,['1'],6,0.14082639999992352,43,,,,,,,1,20,Vrouw,Links,2,
,dotcolour,xotask,dotcolour,55,4,295,295,main,negativefb,-99,easy,,0.8159614999999576,['c'],1,left,['1'],6,1.2067839999999705,61,,,,,,,1,20,Vrouw,Links,2,
,dotcolour,xotask,dotcolour,56,4,296,296,main,negativefb,-99,hard,,1.2009588999999323,['c'],1,left,['2'],5,0.24004280000008293,41,,,,,,,1,20,Vrouw,Links,2,
,dotcolour,xotask,dotcolour,57,4,297,297,main,negativefb,-99,average,,0.8850697000000309,['n'],1,right,['1'],6,1.0366017000001193,25,,,,,,,1,20,Vrouw,Links,2,
,dotcolour,xotask,dotcolour,58,4,298,298,main,negativefb,-99,hard,,1.3337481999999454,['c'],0,right,['3'],4,0.7097859999998946,36,,,,,,,1,20,Vrouw,Links,2,
,dotcolour,xotask,dotcolour,59,4,299,299,main,negativefb,-99,hard,,1.8340140999998766,['n'],0,left,['2'],5,0.2737939000001006,44,,,,,,,1,20,Vrouw,Links,2,
,xotask,xotask,dotcolour,0,0,0,300,training,negativefb,85,easy,74,1.0833526999999776,['c'],1,left,['1'],6,0.10400670000012724,,,,,,,,1,20,Vrouw,Links,2,
,xotask,xotask,dotcolour,1,0,1,301,training,negativefb,64,average,16,0.5494567000000643,['n'],1,right,['3'],4,0.4058905000001687,,,,,,,,1,20,Vrouw,Links,2,
,xotask,xotask,dotcolour,2,0,2,302,training,negativefb,75,hard,28,0.633948799999871,['n'],1,right,['2'],5,0.14130010000008042,,,,,,,,1,20,Vrouw,Links,2,
,xotask,xotask,dotcolour,3,0,3,303,training,negativefb,27,hard,52,1.2155493000000206,['n'],0,left,['2'],5,0.4233441999999741,,,,,,,,1,20,Vrouw,Links,2,
,xotask,xotask,dotcolour,4,0,4,304,training,negativefb,61,average,64,0.6329336999999668,['c'],1,left,['1'],6,0.15767879999998513,,,,,,,,1,20,Vrouw,Links,2,
,xotask,xotask,dotcolour,5,0,5,305,training,negativefb,57,hard,50,2.2160645000001296,['c'],1,left,['3'],4,0.25479999999993197,,,,,,,,1,20,Vrouw,Links,2,
,xotask,xotask,dotcolour,6,0,6,306,training,negativefb,81,easy,7,0.6165536999999404,['n'],1,right,['2'],5,0.14758779999988292,,,,,,,,1,20,Vrouw,Links,2,
,xotask,xotask,dotcolour,7,0,7,307,training,negativefb,96,hard,28,1.0323381999999128,['n'],1,right,['2'],5,0.9338795000001028,,,,,,,,1,20,Vrouw,Links,2,
,xotask,xotask,dotcolour,8,0,8,308,training,negativefb,40,hard,29,0.7832271000002038,['n'],1,right,['1'],6,0.2093069000000014,,,,,,,,1,20,Vrouw,Links,2,
,xotask,xotask,dotcolour,9,0,9,309,training,negativefb,77,average,62,0.9668538999999328,['c'],1,left,['2'],5,0.37071579999997084,,,,,,,,1,20,Vrouw,Links,2,
,xotask,xotask,dotcolour,10,0,10,310,training,negativefb,83,hard,53,0.8501258999999664,['c'],1,left,['1'],6,0.14656739999986712,,,,,,,,1,20,Vrouw,Links,2,
,xotask,xotask,dotcolour,11,0,11,311,training,negativefb,56,hard,28,0.9836619999998675,['c'],0,right,['3'],4,1.029417599999988,,,,,,,,1,20,Vrouw,Links,2,
,xotask,xotask,dotcolour,12,0,12,312,training,negativefb,55,easy,73,0.616351800000075,['c'],1,left,['1'],6,0.1401267999999618,,,,,,,,1,20,Vrouw,Links,2,
,xotask,xotask,dotcolour,13,0,13,313,training,negativefb,55,hard,54,0.5336408000000574,['c'],1,left,['1'],6,0.160446100000172,,,,,,,,1,20,Vrouw,Links,2,
,xotask,xotask,dotcolour,14,0,14,314,training,negativefb,77,average,19,0.6995438999999806,['n'],1,right,['1'],6,0.35083910000003016,,,,,,,,1,20,Vrouw,Links,2,
,xotask,xotask,dotcolour,15,0,15,315,training,negativefb,77,hard,50,0.8489429999999629,['c'],1,left,['1'],6,0.19175019999988763,,,,,,,,1,20,Vrouw,Links,2,
,xotask,xotask,dotcolour,16,0,16,316,training,negativefb,66,easy,74,0.649690800000144,['c'],1,left,['1'],6,0.15014789999986533,,,,,,,,1,20,Vrouw,Links,2,
,xotask,xotask,dotcolour,17,0,17,317,training,negativefb,81,easy,8,0.8005118999999468,['n'],1,right,['1'],6,0.11194960000011633,,,,,,,,1,20,Vrouw,Links,2,
,xotask,xotask,dotcolour,18,0,18,318,training,negativefb,83,hard,26,1.217309699999987,['n'],1,right,['3'],4,0.38678509999999733,,,,,,,,1,20,Vrouw,Links,2,
,xotask,xotask,dotcolour,19,0,19,319,training,negativefb,81,easy,70,0.6672512999998617,['c'],1,left,['1'],6,0.14482060000000274,,,,,,,,1,20,Vrouw,Links,2,
,xotask,xotask,dotcolour,20,0,20,320,training,negativefb,65,hard,25,0.5503137000000606,['n'],1,right,['2'],5,0.16647500000021864,,,,,,,,1,20,Vrouw,Links,2,
,xotask,xotask,dotcolour,21,0,21,321,training,negativefb,22,hard,27,0.8666249000000334,['n'],1,right,['2'],5,0.14004829999998947,,,,,,,,1,20,Vrouw,Links,2,
,xotask,xotask,dotcolour,22,0,22,322,training,negativefb,64,average,16,0.6825346999999056,['n'],1,right,['1'],6,0.22822889999997642,,,,,,,,1,20,Vrouw,Links,2,
,xotask,xotask,dotcolour,23,0,23,323,training,negativefb,80,easy,8,1.133201500000041,['n'],1,right,['3'],4,0.5586640999999872,,,,,,,,1,20,Vrouw,Links,2,
,xotask,xotask,dotcolour,24,0,24,324,training,negativefb,91,average,19,0.6845902000000024,['n'],1,right,['2'],5,0.1567870999999741,,,,,,,,1,20,Vrouw,Links,2,
,xotask,xotask,dotcolour,25,0,25,325,training,negativefb,61,average,63,0.7835005999997975,['c'],1,left,['2'],5,0.14335029999983817,,,,,,,,1,20,Vrouw,Links,2,
,xotask,xotask,dotcolour,26,0,26,326,training,negativefb,48,hard,50,1.3168183999998746,['c'],1,left,['1'],6,0.11786609999990105,,,,,,,,1,20,Vrouw,Links,2,
,xotask,xotask,dotcolour,27,0,27,327,training,negativefb,68,average,64,0.7485483000000386,['c'],1,left,['1'],6,0.14629949999994096,,,,,,,,1,20,Vrouw,Links,2,
,xotask,xotask,dotcolour,28,0,28,328,training,negativefb,59,average,64,1.0667086000000836,['c'],1,left,['1'],6,0.14706040000010034,,,,,,,,1,20,Vrouw,Links,2,
,xotask,xotask,dotcolour,29,0,29,329,training,negativefb,42,average,60,0.7332824000000073,['c'],1,left,['2'],5,0.25659859999996115,,,,,,,,1,20,Vrouw,Links,2,
,xotask,xotask,dotcolour,30,0,30,330,training,negativefb,74,easy,74,0.6683244000000741,['c'],1,left,['2'],5,0.11546789999988505,,,,,,,,1,20,Vrouw,Links,2,
,xotask,xotask,dotcolour,31,0,31,331,training,negativefb,42,average,16,0.6330015000000913,['n'],1,right,['2'],5,0.1657041000000845,,,,,,,,1,20,Vrouw,Links,2,
,xotask,xotask,dotcolour,32,0,32,332,training,negativefb,56,hard,28,0.7497651999999562,['c'],0,right,['3'],4,0.3692888000000494,,,,,,,,1,20,Vrouw,Links,2,
,xotask,xotask,dotcolour,33,0,33,333,training,negativefb,31,hard,28,0.6171194999999443,['n'],1,right,['2'],5,0.24205129999995734,,,,,,,,1,20,Vrouw,Links,2,
,xotask,xotask,dotcolour,34,0,34,334,training,negativefb,57,hard,50,2.0340803000001415,['c'],1,left,['2'],5,0.15205070000001797,,,,,,,,1,20,Vrouw,Links,2,
,xotask,xotask,dotcolour,35,0,35,335,training,negativefb,51,hard,52,1.6326008000000911,['c'],1,left,['3'],4,0.4235380999998597,,,,,,,,1,20,Vrouw,Links,2,
,xotask,xotask,dotcolour,36,0,36,336,training,negativefb,72,average,62,0.8657686999999896,['c'],1,left,['1'],6,0.24544510000009723,,,,,,,,1,20,Vrouw,Links,2,
,xotask,xotask,dotcolour,37,0,37,337,training,negativefb,77,easy,9,0.3663227000001825,['n'],1,right,['3'],4,0.6453227000001789,,,,,,,,1,20,Vrouw,Links,2,
,xotask,xotask,dotcolour,38,0,38,338,training,negativefb,62,easy,5,0.6015878999999131,['n'],1,right,['1'],6,0.1963351000001694,,,,,,,,1,20,Vrouw,Links,2,
,xotask,xotask,dotcolour,39,0,39,339,training,negativefb,70,average,62,0.750443500000074,['c'],1,left,['1'],6,0.23014820000003056,,,,,,,,1,20,Vrouw,Links,2,
,xotask,xotask,dotcolour,40,0,40,340,training,negativefb,74,easy,9,0.6006199999999353,['n'],1,right,['1'],6,0.18993319999981395,,,,,,,,1,20,Vrouw,Links,2,
,xotask,xotask,dotcolour,41,0,41,341,training,negativefb,71,easy,7,0.5831196000001455,['n'],1,right,['1'],6,0.1033649000000878,,,,,,,,1,20,Vrouw,Links,2,
,xotask,xotask,dotcolour,42,0,42,342,training,negativefb,44,easy,74,0.6339938999999504,['c'],1,left,['1'],6,0.1383412000000135,,,,,,,,1,20,Vrouw,Links,2,
,xotask,xotask,dotcolour,43,0,43,343,training,negativefb,27,average,16,1.7000353999999334,['c'],0,right,['3'],4,0.5289103000000068,,,,,,,,1,20,Vrouw,Links,2,
,xotask,xotask,dotcolour,44,0,44,344,training,negativefb,24,easy,71,0.765546299999869,['c'],1,left,['2'],5,0.14966400000002977,,,,,,,,1,20,Vrouw,Links,2,
,xotask,xotask,dotcolour,45,0,45,345,training,negativefb,59,easy,71,0.7674182000000656,['c'],1,left,['2'],5,0.12881319999996776,,,,,,,,1,20,Vrouw,Links,2,
,xotask,xotask,dotcolour,46,0,46,346,training,negativefb,37,easy,8,0.8832476999998562,['c'],0,right,['3'],4,0.44026929999995446,,,,,,,,1,20,Vrouw,Links,2,
,xotask,xotask,dotcolour,47,0,47,347,training,negativefb,85,hard,50,0.6328448000001572,['n'],0,left,['9'],2,1.07795729999998,,,,,,,,1,20,Vrouw,Links,2,
,xotask,xotask,dotcolour,48,0,48,348,training,negativefb,70,average,60,1.7493655000000672,['c'],1,left,['2'],5,0.22189789999993081,,,,,,,,1,20,Vrouw,Links,2,
,xotask,xotask,dotcolour,49,0,49,349,training,negativefb,49,average,17,0.733566699999983,['n'],1,right,['1'],6,0.12748809999993682,,,,,,,,1,20,Vrouw,Links,2,
,xotask,xotask,dotcolour,50,0,50,350,training,negativefb,82,average,17,0.5999340999999276,['n'],1,right,['1'],6,0.08251769999992575,,,,,,,,1,20,Vrouw,Links,2,
,xotask,xotask,dotcolour,51,0,51,351,training,negativefb,42,hard,54,0.5652726999999231,['n'],0,left,['1'],6,0.08873300000004747,,,,,,,,1,20,Vrouw,Links,2,
,xotask,xotask,dotcolour,52,0,52,352,training,negativefb,80,easy,74,0.5831871000000319,['c'],1,left,['2'],5,0.1499416999999994,,,,,,,,1,20,Vrouw,Links,2,
,xotask,xotask,dotcolour,53,0,53,353,training,negativefb,56,average,16,0.6659703000000263,['n'],1,right,['1'],6,0.22156070000005457,,,,,,,,1,20,Vrouw,Links,2,
,xotask,xotask,dotcolour,54,0,54,354,training,negativefb,78,easy,5,0.6842125999999098,['n'],1,right,['1'],6,0.22555099999999584,,,,,,,,1,20,Vrouw,Links,2,
,xotask,xotask,dotcolour,55,0,55,355,training,negativefb,71,average,63,0.6491883999999573,['c'],1,left,['2'],5,0.15873950000013792,,,,,,,,1,20,Vrouw,Links,2,
,xotask,xotask,dotcolour,56,0,56,356,training,negativefb,31,hard,26,0.5828619999999773,['n'],1,right,['1'],6,0.19330039999999826,,,,,,,,1,20,Vrouw,Links,2,
,xotask,xotask,dotcolour,57,0,57,357,training,negativefb,96,easy,70,0.8667120000000068,['c'],1,left,['2'],5,0.40019359999996595,,,,,,,,1,20,Vrouw,Links,2,
,xotask,xotask,dotcolour,58,0,58,358,training,negativefb,91,average,15,0.6669348000000355,['n'],1,right,['1'],6,0.27714480000008734,,,,,,,,1,20,Vrouw,Links,2,
,xotask,xotask,dotcolour,59,0,59,359,training,negativefb,24,easy,6,0.5494936000000052,['n'],1,right,['1'],6,0.18881289999990258,,,,,,,,1,20,Vrouw,Links,2,
,xotask,xotask,dotcolour,0,1,60,360,training,negativefb,75,average,62,2.2497752000001583,['c'],1,left,['2'],5,0.3511321000000862,,,,,,,,1,20,Vrouw,Links,2,
,xotask,xotask,dotcolour,1,1,61,361,training,negativefb,49,easy,71,0.8163171999999577,['c'],1,left,['1'],6,0.13674429999991844,,,,,,,,1,20,Vrouw,Links,2,
,xotask,xotask,dotcolour,2,1,62,362,training,negativefb,42,average,16,0.6999367999999322,['n'],1,right,['1'],6,0.1424015000000054,,,,,,,,1,20,Vrouw,Links,2,
,xotask,xotask,dotcolour,3,1,63,363,training,negativefb,73,average,63,0.9497438999999304,['c'],1,left,['1'],6,0.05204029999981685,,,,,,,,1,20,Vrouw,Links,2,
,xotask,xotask,dotcolour,4,1,64,364,training,negativefb,47,hard,26,0.5667911000000458,['n'],1,right,['1'],6,0.12290819999998348,,,,,,,,1,20,Vrouw,Links,2,
,xotask,xotask,dotcolour,5,1,65,365,training,negativefb,24,easy,74,0.6999601999998504,['c'],1,left,['1'],6,0.11482829999999922,,,,,,,,1,20,Vrouw,Links,2,
,xotask,xotask,dotcolour,6,1,66,366,training,negativefb,77,easy,7,0.616265599999906,['n'],1,right,['1'],6,0.09398179999993772,,,,,,,,1,20,Vrouw,Links,2,
,xotask,xotask,dotcolour,7,1,67,367,training,negativefb,57,hard,28,1.1834989000001315,['n'],1,right,['2'],5,0.2035347000000911,,,,,,,,1,20,Vrouw,Links,2,
,xotask,xotask,dotcolour,8,1,68,368,training,negativefb,69,average,63,0.5000135000000228,['c'],1,left,['1'],6,0.0718543000000409,,,,,,,,1,20,Vrouw,Links,2,
,xotask,xotask,dotcolour,9,1,69,369,training,negativefb,58,average,19,0.8998693000000912,['c'],0,right,['1'],6,0.17720319999989442,,,,,,,,1,20,Vrouw,Links,2,
,xotask,xotask,dotcolour,10,1,70,370,training,negativefb,66,easy,74,0.5330896000000394,['c'],1,left,['1'],6,0.11628429999996115,,,,,,,,1,20,Vrouw,Links,2,
,xotask,xotask,dotcolour,11,1,71,371,training,negativefb,56,hard,51,0.9164746000001287,['c'],1,left,['1'],6,0.07601779999981773,,,,,,,,1,20,Vrouw,Links,2,
,xotask,xotask,dotcolour,12,1,72,372,training,negativefb,64,easy,71,0.683554999999842,['c'],1,left,['1'],6,0.06978800000001684,,,,,,,,1,20,Vrouw,Links,2,
,xotask,xotask,dotcolour,13,1,73,373,training,negativefb,79,easy,5,0.7825450000000274,['n'],1,right,['2'],5,0.14704840000013064,,,,,,,,1,20,Vrouw,Links,2,
,xotask,xotask,dotcolour,14,1,74,374,training,negativefb,90,hard,29,0.5834532999999738,['n'],1,right,['2'],5,0.174234800000022,,,,,,,,1,20,Vrouw,Links,2,
,xotask,xotask,dotcolour,15,1,75,375,training,negativefb,23,average,17,0.6177121999999144,['c'],0,right,['9'],2,1.1364690000000337,,,,,,,,1,20,Vrouw,Links,2,
,xotask,xotask,dotcolour,16,1,76,376,training,negativefb,42,easy,72,0.7665956000000733,['c'],1,left,['1'],6,0.07563140000002022,,,,,,,,1,20,Vrouw,Links,2,
,xotask,xotask,dotcolour,17,1,77,377,training,negativefb,79,easy,74,0.6171498999999585,['c'],1,left,['1'],6,0.10433420000003935,,,,,,,,1,20,Vrouw,Links,2,
,xotask,xotask,dotcolour,18,1,78,378,training,negativefb,57,average,60,0.7495790000000397,['c'],1,left,['1'],6,0.046685999999908745,,,,,,,,1,20,Vrouw,Links,2,
,xotask,xotask,dotcolour,19,1,79,379,training,negativefb,56,easy,72,0.6659021000000394,['c'],1,left,['2'],5,0.11493480000012823,,,,,,,,1,20,Vrouw,Links,2,
,xotask,xotask,dotcolour,20,1,80,380,training,negativefb,66,hard,27,0.7505665999999565,['c'],0,right,['2'],5,0.2725490999998783,,,,,,,,1,20,Vrouw,Links,2,
,xotask,xotask,dotcolour,21,1,81,381,training,negativefb,55,easy,9,0.4824295999999322,['n'],1,right,['1'],6,0.3066094000000703,,,,,,,,1,20,Vrouw,Links,2,
,xotask,xotask,dotcolour,22,1,82,382,training,negativefb,56,hard,28,1.5339989999999943,['n'],1,right,['2'],5,0.19391010000003917,,,,,,,,1,20,Vrouw,Links,2,
,xotask,xotask,dotcolour,23,1,83,383,training,negativefb,81,average,18,0.6996649999998681,['n'],1,right,['2'],5,0.23847249999994347,,,,,,,,1,20,Vrouw,Links,2,
,xotask,xotask,dotcolour,24,1,84,384,training,negativefb,88,easy,9,0.5652921000000788,['n'],1,right,['1'],6,0.17420390000006591,,,,,,,,1,20,Vrouw,Links,2,
,xotask,xotask,dotcolour,25,1,85,385,training,negativefb,84,average,19,0.5843822999997883,['n'],1,right,['1'],6,0.2081724000001941,,,,,,,,1,20,Vrouw,Links,2,
,xotask,xotask,dotcolour,26,1,86,386,training,negativefb,57,average,16,0.6669842999999673,['n'],1,right,['1'],6,0.14074600000003556,,,,,,,,1,20,Vrouw,Links,2,
,xotask,xotask,dotcolour,27,1,87,387,training,negativefb,75,average,62,0.48345640000002277,['c'],1,left,['1'],6,0.1016196000000491,,,,,,,,1,20,Vrouw,Links,2,
,xotask,xotask,dotcolour,28,1,88,388,training,negativefb,46,hard,27,0.6670277999999144,['n'],1,right,['1'],6,0.1499185000000125,,,,,,,,1,20,Vrouw,Links,2,
,xotask,xotask,dotcolour,29,1,89,389,training,negativefb,76,easy,6,0.53385430000003,['n'],1,right,['1'],6,0.2033088000000589,,,,,,,,1,20,Vrouw,Links,2,
,xotask,xotask,dotcolour,30,1,90,390,training,negativefb,83,easy,9,0.4666566999999304,['n'],1,right,['1'],6,0.15271959999995488,,,,,,,,1,20,Vrouw,Links,2,
,xotask,xotask,dotcolour,31,1,91,391,training,negativefb,69,hard,54,0.6169350000000122,['c'],1,left,['2'],5,0.16139659999998912,,,,,,,,1,20,Vrouw,Links,2,
,xotask,xotask,dotcolour,32,1,92,392,training,negativefb,77,hard,51,1.0994069999999283,['c'],1,left,['3'],4,0.8402353999999832,,,,,,,,1,20,Vrouw,Links,2,
,xotask,xotask,dotcolour,33,1,93,393,training,negativefb,83,easy,7,0.6157866000000922,['n'],1,right,['1'],6,0.2536419999998998,,,,,,,,1,20,Vrouw,Links,2,
,xotask,xotask,dotcolour,34,1,94,394,training,negativefb,62,hard,26,0.6175276999999824,['n'],1,right,['2'],5,0.1876631999998608,,,,,,,,1,20,Vrouw,Links,2,
,xotask,xotask,dotcolour,35,1,95,395,training,negativefb,57,easy,72,0.6166754999999284,['c'],1,left,['2'],5,0.12392100000010942,,,,,,,,1,20,Vrouw,Links,2,
,xotask,xotask,dotcolour,36,1,96,396,training,negativefb,36,hard,53,0.801198500000055,['n'],0,left,['3'],4,0.5672171999999591,,,,,,,,1,20,Vrouw,Links,2,
,xotask,xotask,dotcolour,37,1,97,397,training,negativefb,33,easy,5,1.3003314000000046,['c'],0,right,['0'],1,0.6277719999998226,,,,,,,,1,20,Vrouw,Links,2,
,xotask,xotask,dotcolour,38,1,98,398,training,negativefb,36,easy,72,0.7338297999999668,['n'],0,left,['2'],5,0.2057927999999265,,,,,,,,1,20,Vrouw,Links,2,
,xotask,xotask,dotcolour,39,1,99,399,training,negativefb,47,hard,51,1.082964499999889,['n'],0,left,['3'],4,0.2505298999999468,,,,,,,,1,20,Vrouw,Links,2,
,xotask,xotask,dotcolour,40,1,100,400,training,negativefb,83,hard,28,1.5680662999998276,['n'],1,right,['3'],4,0.2185901999998805,,,,,,,,1,20,Vrouw,Links,2,
,xotask,xotask,dotcolour,41,1,101,401,training,negativefb,43,hard,54,0.782748999999967,['c'],1,left,['1'],6,0.16282929999988482,,,,,,,,1,20,Vrouw,Links,2,
,xotask,xotask,dotcolour,42,1,102,402,training,negativefb,89,average,62,1.1331817000000228,['c'],1,left,['2'],5,0.1830514000000676,,,,,,,,1,20,Vrouw,Links,2,
,xotask,xotask,dotcolour,43,1,103,403,training,negativefb,73,average,60,0.8664472999998907,['c'],1,left,['2'],5,0.2610767000001033,,,,,,,,1,20,Vrouw,Links,2,
,xotask,xotask,dotcolour,44,1,104,404,training,negativefb,75,average,64,0.5839184000001296,['c'],1,left,['2'],5,0.11611930000003667,,,,,,,,1,20,Vrouw,Links,2,
,xotask,xotask,dotcolour,45,1,105,405,training,negativefb,64,average,17,0.6495322999999189,['n'],1,right,['2'],5,0.09307950000015808,,,,,,,,1,20,Vrouw,Links,2,
,xotask,xotask,dotcolour,46,1,106,406,training,negativefb,62,average,63,0.6828017000000273,['c'],1,left,"['1', '2']",6,0.078769100000045,,,,,,,,1,20,Vrouw,Links,2,
,xotask,xotask,dotcolour,47,1,107,407,training,negativefb,76,average,15,0.6000431999998455,['n'],1,right,['1'],6,0.11613350000015998,,,,,,,,1,20,Vrouw,Links,2,
,xotask,xotask,dotcolour,48,1,108,408,training,negativefb,35,hard,52,0.8988712000000305,['c'],1,left,['1'],6,0.13186079999991307,,,,,,,,1,20,Vrouw,Links,2,
,xotask,xotask,dotcolour,49,1,109,409,training,negativefb,40,average,64,0.715795000000071,['c'],1,left,['1'],6,0.2261141999999836,,,,,,,,1,20,Vrouw,Links,2,
,xotask,xotask,dotcolour,50,1,110,410,training,negativefb,82,easy,71,0.5501126000001477,['c'],1,left,['2'],5,0.1232791999998426,,,,,,,,1,20,Vrouw,Links,2,
,xotask,xotask,dotcolour,51,1,111,411,training,negativefb,56,hard,53,0.9176810999999816,['c'],1,left,['2'],5,0.09801050000010036,,,,,,,,1,20,Vrouw,Links,2,
,xotask,xotask,dotcolour,52,1,112,412,training,negativefb,61,easy,5,0.4993761999999151,['n'],1,right,['2'],5,0.1542330000002039,,,,,,,,1,20,Vrouw,Links,2,
,xotask,xotask,dotcolour,53,1,113,413,training,negativefb,60,hard,53,1.1327289000000746,['c'],1,left,['3'],4,0.42307580000010603,,,,,,,,1,20,Vrouw,Links,2,
,xotask,xotask,dotcolour,54,1,114,414,training,negativefb,26,hard,51,0.7826486000001296,['n'],0,left,['3'],4,0.41643790000011904,,,,,,,,1,20,Vrouw,Links,2,
,xotask,xotask,dotcolour,55,1,115,415,training,negativefb,41,average,17,0.8166885000000548,['n'],1,right,['2'],5,0.18276779999996506,,,,,,,,1,20,Vrouw,Links,2,
,xotask,xotask,dotcolour,56,1,116,416,training,negativefb,88,easy,8,0.6335833000000548,['n'],1,right,['1'],6,0.17424800000003415,,,,,,,,1,20,Vrouw,Links,2,
,xotask,xotask,dotcolour,57,1,117,417,training,negativefb,88,average,19,0.6494542999998885,['n'],1,right,['2'],5,0.14161619999981667,,,,,,,,1,20,Vrouw,Links,2,
,xotask,xotask,dotcolour,58,1,118,418,training,negativefb,58,hard,25,1.78225899999984,['n'],1,right,['3'],4,0.5930620999999974,,,,,,,,1,20,Vrouw,Links,2,
,xotask,xotask,dotcolour,59,1,119,419,training,negativefb,48,hard,28,0.6323623999999199,['n'],1,right,['2'],5,0.2558349000000817,,,,,,,,1,20,Vrouw,Links,2,
,xotask,xotask,dotcolour,0,2,120,420,main,negativefb,-99,hard,28,1.2003639999998086,['n'],1,right,['1'],6,0.11184319999983927,,,,,,,,1,20,Vrouw,Links,2,
,xotask,xotask,dotcolour,1,2,121,421,main,negativefb,-99,average,60,0.7174153999999362,['c'],1,left,['1'],6,0.12009590000025128,,,,,,,,1,20,Vrouw,Links,2,
,xotask,xotask,dotcolour,2,2,122,422,main,negativefb,-99,average,60,0.5669530999998642,['c'],1,left,['1'],6,0.1256788000000597,,,,,,,,1,20,Vrouw,Links,2,
,xotask,xotask,dotcolour,3,2,123,423,main,negativefb,-99,easy,74,0.4174235000000408,['c'],1,left,['1'],6,0.07983169999988604,,,,,,,,1,20,Vrouw,Links,2,
,xotask,xotask,dotcolour,4,2,124,424,main,negativefb,-99,hard,28,0.48497839999981807,['n'],1,right,['1'],6,0.06738700000005338,,,,,,,,1,20,Vrouw,Links,2,
,xotask,xotask,dotcolour,5,2,125,425,main,negativefb,-99,easy,73,0.4671352000000297,['c'],1,left,['1'],6,0.1268780999998853,,,,,,,,1,20,Vrouw,Links,2,
,xotask,xotask,dotcolour,6,2,126,426,main,negativefb,-99,hard,26,0.3841793999999936,['n'],1,right,['1'],6,0.1398601000000781,,,,,,,,1,20,Vrouw,Links,2,
,xotask,xotask,dotcolour,7,2,127,427,main,negativefb,-99,easy,74,0.46727069999997184,['c'],1,left,['1'],6,0.09262659999967582,,,,,,,,1,20,Vrouw,Links,2,
,xotask,xotask,dotcolour,8,2,128,428,main,negativefb,-99,average,15,0.46711899999991147,['n'],1,right,['2'],5,0.12716609999961292,,,,,,,,1,20,Vrouw,Links,2,
,xotask,xotask,dotcolour,9,2,129,429,main,negativefb,-99,easy,8,0.5503389000000425,['n'],1,right,['1'],6,0.22880369999984396,,,,,,,,1,20,Vrouw,Links,2,
,xotask,xotask,dotcolour,10,2,130,430,main,negativefb,-99,average,17,0.5493523000000096,['n'],1,right,['1'],6,0.12612339999986943,,,,,,,,1,20,Vrouw,Links,2,
,xotask,xotask,dotcolour,11,2,131,431,main,negativefb,-99,average,17,0.39931330000035814,['n'],1,right,['1'],6,0.10720989999981612,,,,,,,,1,20,Vrouw,Links,2,
,xotask,xotask,dotcolour,12,2,132,432,main,negativefb,-99,easy,5,0.38365350000003673,['n'],1,right,['1'],6,0.10386139999991428,,,,,,,,1,20,Vrouw,Links,2,
,xotask,xotask,dotcolour,13,2,133,433,main,negativefb,-99,average,15,0.36611660000016855,['n'],1,right,['1'],6,0.20563330000004498,,,,,,,,1,20,Vrouw,Links,2,
,xotask,xotask,dotcolour,14,2,134,434,main,negativefb,-99,easy,74,0.41564919999973426,['c'],1,left,['1'],6,0.022699399999964953,,,,,,,,1,20,Vrouw,Links,2,
,xotask,xotask,dotcolour,15,2,135,435,main,negativefb,-99,average,19,1.417540999999801,['n'],1,right,['2'],5,0.3893793000002006,,,,,,,,1,20,Vrouw,Links,2,
,xotask,xotask,dotcolour,16,2,136,436,main,negativefb,-99,easy,72,0.7500894999998309,['c'],1,left,['1'],6,1.8335501999999906,,,,,,,,1,20,Vrouw,Links,2,
,xotask,xotask,dotcolour,17,2,137,437,main,negativefb,-99,average,15,0.6508418000003076,['n'],1,right,['1'],6,0.1816063999999642,,,,,,,,1,20,Vrouw,Links,2,
,xotask,xotask,dotcolour,18,2,138,438,main,negativefb,-99,hard,53,0.7680307000000539,['c'],1,left,['2'],5,0.16081229999963398,,,,,,,,1,20,Vrouw,Links,2,
,xotask,xotask,dotcolour,19,2,139,439,main,negativefb,-99,average,18,0.6012779000002411,['n'],1,right,['2'],5,0.17928149999988818,,,,,,,,1,20,Vrouw,Links,2,
,xotask,xotask,dotcolour,20,2,140,440,main,negativefb,-99,easy,9,0.5342392000002292,['n'],1,right,['2'],5,0.16812179999988075,,,,,,,,1,20,Vrouw,Links,2,
,xotask,xotask,dotcolour,21,2,141,441,main,negativefb,-99,hard,29,0.48441189999994094,['n'],1,right,['1'],6,0.16671550000000934,,,,,,,,1,20,Vrouw,Links,2,
,xotask,xotask,dotcolour,22,2,142,442,main,negativefb,-99,hard,51,0.7500869000000421,['c'],1,left,['2'],5,0.17904249999992317,,,,,,,,1,20,Vrouw,Links,2,
,xotask,xotask,dotcolour,23,2,143,443,main,negativefb,-99,easy,7,0.5679038999996919,['c'],0,right,['0'],1,0.8138444999999592,,,,,,,,1,20,Vrouw,Links,2,
,xotask,xotask,dotcolour,24,2,144,444,main,negativefb,-99,average,18,0.6157690000000002,['n'],1,right,['2'],5,0.16642589999992197,,,,,,,,1,20,Vrouw,Links,2,
,xotask,xotask,dotcolour,25,2,145,445,main,negativefb,-99,hard,29,1.784288899999865,['n'],1,right,['2'],5,0.25742110000010143,,,,,,,,1,20,Vrouw,Links,2,
,xotask,xotask,dotcolour,26,2,146,446,main,negativefb,-99,easy,9,0.6832860000004075,['n'],1,right,['2'],5,0.10859750000008717,,,,,,,,1,20,Vrouw,Links,2,
,xotask,xotask,dotcolour,27,2,147,447,main,negativefb,-99,easy,9,0.5835713000001306,['n'],1,right,['2'],5,0.12995449999971243,,,,,,,,1,20,Vrouw,Links,2,
,xotask,xotask,dotcolour,28,2,148,448,main,negativefb,-99,hard,52,0.7504076999998688,['c'],1,left,['2'],5,0.2474280000001272,,,,,,,,1,20,Vrouw,Links,2,
,xotask,xotask,dotcolour,29,2,149,449,main,negativefb,-99,hard,25,1.2338874000001852,['n'],1,right,['3'],4,0.22186479999982112,,,,,,,,1,20,Vrouw,Links,2,
,xotask,xotask,dotcolour,30,2,150,450,main,negativefb,-99,hard,53,1.0339939999998933,['c'],1,left,['2'],5,0.17191820000016378,,,,,,,,1,20,Vrouw,Links,2,
,xotask,xotask,dotcolour,31,2,151,451,main,negativefb,-99,hard,52,1.1674407999998948,['c'],1,left,['9'],2,1.207538900000145,,,,,,,,1,20,Vrouw,Links,2,
,xotask,xotask,dotcolour,32,2,152,452,main,negativefb,-99,easy,73,1.2842474999997648,['c'],1,left,['1'],6,0.19766649999974106,,,,,,,,1,20,Vrouw,Links,2,
,xotask,xotask,dotcolour,33,2,153,453,main,negativefb,-99,average,62,1.2173840999998902,['n'],0,left,['2'],5,0.32625919999964026,,,,,,,,1,20,Vrouw,Links,2,
,xotask,xotask,dotcolour,34,2,154,454,main,negativefb,-99,hard,50,2.533058600000004,['c'],1,left,['1'],6,0.16565630000013698,,,,,,,,1,20,Vrouw,Links,2,
,xotask,xotask,dotcolour,35,2,155,455,main,negativefb,-99,average,61,0.8159601000002112,['c'],1,left,['1'],6,0.0862793999999667,,,,,,,,1,20,Vrouw,Links,2,
,xotask,xotask,dotcolour,36,2,156,456,main,negativefb,-99,average,17,0.6005287999996654,['n'],1,right,['2'],5,0.1479580000000169,,,,,,,,1,20,Vrouw,Links,2,
,xotask,xotask,dotcolour,37,2,157,457,main,negativefb,-99,average,60,0.7009313999997175,['c'],1,left,['1'],6,0.12296239999977843,,,,,,,,1,20,Vrouw,Links,2,
,xotask,xotask,dotcolour,38,2,158,458,main,negativefb,-99,hard,25,2.0173540999999204,['n'],1,right,['3'],4,0.10952159999987998,,,,,,,,1,20,Vrouw,Links,2,
,xotask,xotask,dotcolour,39,2,159,459,main,negativefb,-99,average,61,0.600398099999893,['c'],1,left,['1'],6,0.09831609999991997,,,,,,,,1,20,Vrouw,Links,2,
,xotask,xotask,dotcolour,40,2,160,460,main,negativefb,-99,easy,72,0.7339817000001858,['c'],1,left,['1'],6,0.10685750000038752,,,,,,,,1,20,Vrouw,Links,2,
,xotask,xotask,dotcolour,41,2,161,461,main,negativefb,-99,hard,28,0.6508481000000756,['n'],1,right,['2'],5,0.1015994999997929,,,,,,,,1,20,Vrouw,Links,2,
,xotask,xotask,dotcolour,42,2,162,462,main,negativefb,-99,average,62,0.6001421000000846,['c'],1,left,['1'],6,0.7383208999999624,,,,,,,,1,20,Vrouw,Links,2,
,xotask,xotask,dotcolour,43,2,163,463,main,negativefb,-99,hard,26,0.4509666999997535,['n'],1,right,['1'],6,0.0670906999998806,,,,,,,,1,20,Vrouw,Links,2,
,xotask,xotask,dotcolour,44,2,164,464,main,negativefb,-99,hard,52,0.6506702000001496,['c'],1,left,['2'],5,0.09456300000010742,,,,,,,,1,20,Vrouw,Links,2,
,xotask,xotask,dotcolour,45,2,165,465,main,negativefb,-99,hard,51,0.917736700000205,['n'],0,left,['3'],4,0.26384070000040083,,,,,,,,1,20,Vrouw,Links,2,
,xotask,xotask,dotcolour,46,2,166,466,main,negativefb,-99,easy,9,0.617793200000051,['n'],1,right,['2'],5,0.17425589999993463,,,,,,,,1,20,Vrouw,Links,2,
,xotask,xotask,dotcolour,47,2,167,467,main,negativefb,-99,hard,25,0.6678955000002134,['c'],0,right,['9'],2,0.7259692999996332,,,,,,,,1,20,Vrouw,Links,2,
,xotask,xotask,dotcolour,48,2,168,468,main,negativefb,-99,easy,72,0.8498750999997355,['c'],1,left,['1'],6,0.17557269999997516,,,,,,,,1,20,Vrouw,Links,2,
,xotask,xotask,dotcolour,49,2,169,469,main,negativefb,-99,average,17,0.6003584000000046,['n'],1,right,['2'],5,0.12907129999985045,,,,,,,,1,20,Vrouw,Links,2,
,xotask,xotask,dotcolour,50,2,170,470,main,negativefb,-99,average,63,0.6343022999999448,['c'],1,left,['1'],6,0.13210299999991548,,,,,,,,1,20,Vrouw,Links,2,
,xotask,xotask,dotcolour,51,2,171,471,main,negativefb,-99,easy,70,0.650159899999835,['c'],1,left,['1'],6,0.14061130000027333,,,,,,,,1,20,Vrouw,Links,2,
,xotask,xotask,dotcolour,52,2,172,472,main,negativefb,-99,average,62,0.5675021000001834,['c'],1,left,['1'],6,0.13817919999974038,,,,,,,,1,20,Vrouw,Links,2,
,xotask,xotask,dotcolour,53,2,173,473,main,negativefb,-99,hard,53,0.8842045000001235,['c'],1,left,['1'],6,0.06566550000025018,,,,,,,,1,20,Vrouw,Links,2,
,xotask,xotask,dotcolour,54,2,174,474,main,negativefb,-99,hard,51,1.4004100000001927,['n'],0,left,['3'],4,0.2559398000003057,,,,,,,,1,20,Vrouw,Links,2,
,xotask,xotask,dotcolour,55,2,175,475,main,negativefb,-99,easy,5,0.5500996000000669,['n'],1,right,['2'],5,0.20885669999961465,,,,,,,,1,20,Vrouw,Links,2,
,xotask,xotask,dotcolour,56,2,176,476,main,negativefb,-99,easy,73,0.41677809999964666,['n'],0,left,['0'],1,0.7048143000001801,,,,,,,,1,20,Vrouw,Links,2,
,xotask,xotask,dotcolour,57,2,177,477,main,negativefb,-99,easy,5,0.750853300000017,['n'],1,right,['1'],6,0.09562079999977868,,,,,,,,1,20,Vrouw,Links,2,
,xotask,xotask,dotcolour,58,2,178,478,main,negativefb,-99,easy,8,0.5346910000002936,['n'],1,right,['1'],6,0.04753359999995155,,,,,,,,1,20,Vrouw,Links,2,
,xotask,xotask,dotcolour,59,2,179,479,main,negativefb,-99,average,60,0.4349150000002737,['n'],0,left,['1'],6,0.06895369999983814,,,,,,,,1,20,Vrouw,Links,2,
,xotask,xotask,dotcolour,0,3,180,480,main,negativefb,-99,hard,27,1.8509616999999707,['n'],1,right,['8'],3,0.723919499999738,,,,,,,,1,20,Vrouw,Links,2,
,xotask,xotask,dotcolour,1,3,181,481,main,negativefb,-99,hard,51,1.3504969000000528,['c'],1,left,['3'],4,0.4020026999996844,,,,,,,,1,20,Vrouw,Links,2,
,xotask,xotask,dotcolour,2,3,182,482,main,negativefb,-99,hard,52,0.8181973000000653,['c'],1,left,['2'],5,0.19393700000000536,,,,,,,,1,20,Vrouw,Links,2,
,xotask,xotask,dotcolour,3,3,183,483,main,negativefb,-99,average,61,0.48390100000005987,['c'],1,left,['1'],6,0.09612070000002859,,,,,,,,1,20,Vrouw,Links,2,
,xotask,xotask,dotcolour,4,3,184,484,main,negativefb,-99,hard,26,0.7006157999999232,['c'],0,right,['2'],5,0.0889207999998689,,,,,,,,1,20,Vrouw,Links,2,
,xotask,xotask,dotcolour,5,3,185,485,main,negativefb,-99,average,61,0.9179584999997132,['c'],1,left,['3'],4,0.1614875000000211,,,,,,,,1,20,Vrouw,Links,2,
,xotask,xotask,dotcolour,6,3,186,486,main,negativefb,-99,average,16,0.8687739000001784,['n'],1,right,['2'],5,0.1936913999998069,,,,,,,,1,20,Vrouw,Links,2,
,xotask,xotask,dotcolour,7,3,187,487,main,negativefb,-99,average,16,0.4846692000000985,['n'],1,right,['2'],5,0.2878288999995675,,,,,,,,1,20,Vrouw,Links,2,
,xotask,xotask,dotcolour,8,3,188,488,main,negativefb,-99,hard,51,1.050270400000045,['c'],1,left,['2'],5,0.10685319999993226,,,,,,,,1,20,Vrouw,Links,2,
,xotask,xotask,dotcolour,9,3,189,489,main,negativefb,-99,average,16,2.784231599999657,['n'],1,right,['2'],5,0.18452639999986786,,,,,,,,1,20,Vrouw,Links,2,
,xotask,xotask,dotcolour,10,3,190,490,main,negativefb,-99,average,63,0.617402100000163,['c'],1,left,['2'],5,0.16960930000004737,,,,,,,,1,20,Vrouw,Links,2,
,xotask,xotask,dotcolour,11,3,191,491,main,negativefb,-99,hard,25,0.46715679999988424,['n'],1,right,['2'],5,0.22497549999980038,,,,,,,,1,20,Vrouw,Links,2,
,xotask,xotask,dotcolour,12,3,192,492,main,negativefb,-99,average,18,0.38504920000013954,['c'],0,right,['3'],4,1.1936883000003036,,,,,,,,1,20,Vrouw,Links,2,
,xotask,xotask,dotcolour,13,3,193,493,main,negativefb,-99,average,19,0.6003298000000541,['n'],1,right,['1'],6,0.1552881000002344,,,,,,,,1,20,Vrouw,Links,2,
,xotask,xotask,dotcolour,14,3,194,494,main,negativefb,-99,hard,52,0.8999372999996922,['c'],1,left,['1'],6,0.17807830000037939,,,,,,,,1,20,Vrouw,Links,2,
,xotask,xotask,dotcolour,15,3,195,495,main,negativefb,-99,average,17,0.43248229999971954,['n'],1,right,['1'],6,0.10682919999999285,,,,,,,,1,20,Vrouw,Links,2,
,xotask,xotask,dotcolour,16,3,196,496,main,negativefb,-99,hard,54,0.5347731000001659,['n'],0,left,['2'],5,0.6256902000000082,,,,,,,,1,20,Vrouw,Links,2,
,xotask,xotask,dotcolour,17,3,197,497,main,negativefb,-99,average,63,0.8515315999998165,['c'],1,left,['1'],6,0.11982339999985925,,,,,,,,1,20,Vrouw,Links,2,
,xotask,xotask,dotcolour,18,3,198,498,main,negativefb,-99,easy,7,1.4671113999997942,['n'],1,right,['3'],4,1.1608338999999432,,,,,,,,1,20,Vrouw,Links,2,
,xotask,xotask,dotcolour,19,3,199,499,main,negativefb,-99,average,19,0.9516970999998193,['n'],1,right,['2'],5,0.17302349999999933,,,,,,,,1,20,Vrouw,Links,2,
,xotask,xotask,dotcolour,20,3,200,500,main,negativefb,-99,easy,70,0.8830370999999104,['c'],1,left,['2'],5,0.17180430000007618,,,,,,,,1,20,Vrouw,Links,2,
,xotask,xotask,dotcolour,21,3,201,501,main,negativefb,-99,easy,73,0.6838204000000587,['c'],1,left,['1'],6,0.06727120000005016,,,,,,,,1,20,Vrouw,Links,2,
,xotask,xotask,dotcolour,22,3,202,502,main,negativefb,-99,easy,73,0.6002198999999564,['c'],1,left,['1'],6,0.12224930000002132,,,,,,,,1,20,Vrouw,Links,2,
,xotask,xotask,dotcolour,23,3,203,503,main,negativefb,-99,easy,7,0.7660980999999083,['n'],1,right,['2'],5,1.039170799999738,,,,,,,,1,20,Vrouw,Links,2,
,xotask,xotask,dotcolour,24,3,204,504,main,negativefb,-99,easy,72,0.8676606999997603,['c'],1,left,['2'],5,0.1555970000003981,,,,,,,,1,20,Vrouw,Links,2,
,xotask,xotask,dotcolour,25,3,205,505,main,negativefb,-99,hard,51,1.199812700000166,['n'],0,left,['2'],5,0.12593809999998484,,,,,,,,1,20,Vrouw,Links,2,
,xotask,xotask,dotcolour,26,3,206,506,main,negativefb,-99,hard,25,1.1161167000000205,['n'],1,right,['2'],5,0.07752500000015061,,,,,,,,1,20,Vrouw,Links,2,
,xotask,xotask,dotcolour,27,3,207,507,main,negativefb,-99,easy,74,0.6008914999997614,['c'],1,left,['2'],5,0.13141519999999218,,,,,,,,1,20,Vrouw,Links,2,
,xotask,xotask,dotcolour,28,3,208,508,main,negativefb,-99,average,61,0.9171507999999449,['n'],0,left,['2'],5,0.14695630000005622,,,,,,,,1,20,Vrouw,Links,2,
,xotask,xotask,dotcolour,29,3,209,509,main,negativefb,-99,average,15,0.5830277000000024,['c'],0,right,['2'],5,0.07881369999995513,,,,,,,,1,20,Vrouw,Links,2,
,xotask,xotask,dotcolour,30,3,210,510,main,negativefb,-99,easy,7,0.5506468000003224,['c'],0,right,['2'],5,0.0786606000001484,,,,,,,,1,20,Vrouw,Links,2,
,xotask,xotask,dotcolour,31,3,211,511,main,negativefb,-99,hard,54,1.2493501000003562,['n'],0,left,['2'],5,0.13088850000031016,,,,,,,,1,20,Vrouw,Links,2,
,xotask,xotask,dotcolour,32,3,212,512,main,negativefb,-99,easy,73,0.9667665000001762,['n'],0,left,['0'],1,0.5364245000000665,,,,,,,,1,20,Vrouw,Links,2,
,xotask,xotask,dotcolour,33,3,213,513,main,negativefb,-99,easy,72,0.7681368999997176,['c'],1,left,['2'],5,0.08505120000017996,,,,,,,,1,20,Vrouw,Links,2,
,xotask,xotask,dotcolour,34,3,214,514,main,negativefb,-99,hard,27,0.7164245999997547,['n'],1,right,['1'],6,0.22951519999969605,,,,,,,,1,20,Vrouw,Links,2,
,xotask,xotask,dotcolour,35,3,215,515,main,negativefb,-99,hard,29,0.7334430000000793,['n'],1,right,['2'],5,0.7684768000003714,,,,,,,,1,20,Vrouw,Links,2,
,xotask,xotask,dotcolour,36,3,216,516,main,negativefb,-99,easy,7,0.7008982000002106,['n'],1,right,['2'],5,0.12640009999995527,,,,,,,,1,20,Vrouw,Links,2,
,xotask,xotask,dotcolour,37,3,217,517,main,negativefb,-99,hard,53,0.7998382000000674,['n'],0,left,['2'],5,0.11470719999988432,,,,,,,,1,20,Vrouw,Links,2,
,xotask,xotask,dotcolour,38,3,218,518,main,negativefb,-99,easy,5,0.6675302000003285,['n'],1,right,['2'],5,0.06884360000003653,,,,,,,,1,20,Vrouw,Links,2,
,xotask,xotask,dotcolour,39,3,219,519,main,negativefb,-99,average,64,0.6677792000000409,['c'],1,left,['1'],6,0.16005660000018906,,,,,,,,1,20,Vrouw,Links,2,
,xotask,xotask,dotcolour,40,3,220,520,main,negativefb,-99,hard,25,1.3663768000001255,['c'],0,right,['3'],4,0.45274079999990136,,,,,,,,1,20,Vrouw,Links,2,
,xotask,xotask,dotcolour,41,3,221,521,main,negativefb,-99,easy,7,0.5828350000001592,['n'],1,right,['2'],5,0.15538000000015018,,,,,,,,1,20,Vrouw,Links,2,
,xotask,xotask,dotcolour,42,3,222,522,main,negativefb,-99,average,61,1.9825831000002836,['n'],0,left,['3'],4,0.3020518999996966,,,,,,,,1,20,Vrouw,Links,2,
,xotask,xotask,dotcolour,43,3,223,523,main,negativefb,-99,hard,27,0.6180840000001808,['n'],1,right,['2'],5,0.17770789999985936,,,,,,,,1,20,Vrouw,Links,2,
,xotask,xotask,dotcolour,44,3,224,524,main,negativefb,-99,hard,25,0.9010572000001957,['n'],1,right,['2'],5,0.11254890000009254,,,,,,,,1,20,Vrouw,Links,2,
,xotask,xotask,dotcolour,45,3,225,525,main,negativefb,-99,average,62,0.8504623000003448,['c'],1,left,['1'],6,0.13139049999972485,,,,,,,,1,20,Vrouw,Links,2,
,xotask,xotask,dotcolour,46,3,226,526,main,negativefb,-99,easy,72,0.832441199999721,['c'],1,left,['1'],6,0.013501299999916228,,,,,,,,1,20,Vrouw,Links,2,
,xotask,xotask,dotcolour,47,3,227,527,main,negativefb,-99,hard,52,0.6170305000000553,['c'],1,left,['1'],6,0.1021203999998761,,,,,,,,1,20,Vrouw,Links,2,
,xotask,xotask,dotcolour,48,3,228,528,main,negativefb,-99,easy,7,0.7008785000002717,['n'],1,right,['2'],5,0.310843499999919,,,,,,,,1,20,Vrouw,Links,2,
,xotask,xotask,dotcolour,49,3,229,529,main,negativefb,-99,average,15,0.6007445999998708,['n'],1,right,['2'],5,0.1384704000001875,,,,,,,,1,20,Vrouw,Links,2,
,xotask,xotask,dotcolour,50,3,230,530,main,negativefb,-99,average,61,1.050765599999977,['c'],1,left,['2'],5,0.1001789000001736,,,,,,,,1,20,Vrouw,Links,2,
,xotask,xotask,dotcolour,51,3,231,531,main,negativefb,-99,easy,6,0.6002109999999448,['n'],1,right,['2'],5,0.06508600000006481,,,,,,,,1,20,Vrouw,Links,2,
,xotask,xotask,dotcolour,52,3,232,532,main,negativefb,-99,easy,7,0.6176006000000598,['n'],1,right,['2'],5,0.13435260000005655,,,,,,,,1,20,Vrouw,Links,2,
,xotask,xotask,dotcolour,53,3,233,533,main,negativefb,-99,easy,70,0.9512546999999358,['c'],1,left,['2'],5,0.11611949999996796,,,,,,,,1,20,Vrouw,Links,2,
,xotask,xotask,dotcolour,54,3,234,534,main,negativefb,-99,easy,71,0.6512788,['c'],1,left,['2'],5,0.06144529999983206,,,,,,,,1,20,Vrouw,Links,2,
,xotask,xotask,dotcolour,55,3,235,535,main,negativefb,-99,hard,26,0.6844496000003346,['n'],1,right,['2'],5,0.08082539999986693,,,,,,,,1,20,Vrouw,Links,2,
,xotask,xotask,dotcolour,56,3,236,536,main,negativefb,-99,easy,9,0.5677342000003591,['n'],1,right,['2'],5,0.08046370000010938,,,,,,,,1,20,Vrouw,Links,2,
,xotask,xotask,dotcolour,57,3,237,537,main,negativefb,-99,average,61,0.5667821000001823,['n'],0,left,['0'],1,0.672624100000121,,,,,,,,1,20,Vrouw,Links,2,
,xotask,xotask,dotcolour,58,3,238,538,main,negativefb,-99,hard,52,1.0335701999997582,['c'],1,left,['3'],4,0.1965778999997383,,,,,,,,1,20,Vrouw,Links,2,
,xotask,xotask,dotcolour,59,3,239,539,main,negativefb,-99,average,19,0.7340020999999979,['n'],1,right,['2'],5,0.17653679999966698,,,,,,,,1,20,Vrouw,Links,2,
,xotask,xotask,dotcolour,0,4,240,540,main,negativefb,-99,hard,25,1.0507501000001866,['n'],1,right,['2'],5,0.12185970000018642,,,,,,,,1,20,Vrouw,Links,2,
,xotask,xotask,dotcolour,1,4,241,541,main,negativefb,-99,average,63,1.6341019000001324,['c'],1,left,['3'],4,0.20529510000005757,,,,,,,,1,20,Vrouw,Links,2,
,xotask,xotask,dotcolour,2,4,242,542,main,negativefb,-99,hard,27,0.6841027000000395,['n'],1,right,['2'],5,0.08233979999977237,,,,,,,,1,20,Vrouw,Links,2,
,xotask,xotask,dotcolour,3,4,243,543,main,negativefb,-99,easy,8,0.5839697999999771,['n'],1,right,['2'],5,0.08830390000002808,,,,,,,,1,20,Vrouw,Links,2,
,xotask,xotask,dotcolour,4,4,244,544,main,negativefb,-99,average,18,0.2998557000000801,['n'],1,right,['1'],6,0.12152689999993527,,,,,,,,1,20,Vrouw,Links,2,
,xotask,xotask,dotcolour,5,4,245,545,main,negativefb,-99,average,19,0.9175049999998919,['c'],0,right,['3'],4,0.13630419999981314,,,,,,,,1,20,Vrouw,Links,2,
,xotask,xotask,dotcolour,6,4,246,546,main,negativefb,-99,hard,51,0.6845395000000281,['n'],0,left,['2'],5,0.13642049999998562,,,,,,,,1,20,Vrouw,Links,2,
,xotask,xotask,dotcolour,7,4,247,547,main,negativefb,-99,easy,9,0.6497583999998824,['n'],1,right,['2'],5,0.1299113000000034,,,,,,,,1,20,Vrouw,Links,2,
,xotask,xotask,dotcolour,8,4,248,548,main,negativefb,-99,easy,7,0.6008429000003161,['n'],1,right,['2'],5,0.14258719999997993,,,,,,,,1,20,Vrouw,Links,2,
,xotask,xotask,dotcolour,9,4,249,549,main,negativefb,-99,easy,71,2.6001037999999426,['n'],0,left,['0'],1,1.5536972000004425,,,,,,,,1,20,Vrouw,Links,2,
,xotask,xotask,dotcolour,10,4,250,550,main,negativefb,-99,hard,28,1.1329079000001911,['n'],1,right,['8'],3,0.32646669999985534,,,,,,,,1,20,Vrouw,Links,2,
,xotask,xotask,dotcolour,11,4,251,551,main,negativefb,-99,easy,5,0.7176125000000866,['n'],1,right,['2'],5,0.0945888000001105,,,,,,,,1,20,Vrouw,Links,2,
,xotask,xotask,dotcolour,12,4,252,552,main,negativefb,-99,hard,28,0.40027720000034606,['n'],1,right,['1'],6,0.09988279999970473,,,,,,,,1,20,Vrouw,Links,2,
,xotask,xotask,dotcolour,13,4,253,553,main,negativefb,-99,average,19,0.5669864999999845,['n'],1,right,['1'],6,0.09769469999991998,,,,,,,,1,20,Vrouw,Links,2,
,xotask,xotask,dotcolour,14,4,254,554,main,negativefb,-99,hard,28,0.566624800000227,['n'],1,right,['1'],6,0.10467760000028647,,,,,,,,1,20,Vrouw,Links,2,
,xotask,xotask,dotcolour,15,4,255,555,main,negativefb,-99,easy,5,0.5345565999996325,['n'],1,right,['1'],6,0.17619609999974273,,,,,,,,1,20,Vrouw,Links,2,
,xotask,xotask,dotcolour,16,4,256,556,main,negativefb,-99,hard,54,0.36764320000020234,['n'],0,left,['1'],6,0.18740319999960775,,,,,,,,1,20,Vrouw,Links,2,
,xotask,xotask,dotcolour,17,4,257,557,main,negativefb,-99,easy,73,0.40032460000020365,['c'],1,left,['1'],6,0.06848300000001473,,,,,,,,1,20,Vrouw,Links,2,
,xotask,xotask,dotcolour,18,4,258,558,main,negativefb,-99,hard,52,0.533836699999938,['c'],1,left,['1'],6,0.09361140000009982,,,,,,,,1,20,Vrouw,Links,2,
,xotask,xotask,dotcolour,19,4,259,559,main,negativefb,-99,hard,52,0.684691599999951,['c'],1,left,['1'],6,0.0629877999999735,,,,,,,,1,20,Vrouw,Links,2,
,xotask,xotask,dotcolour,20,4,260,560,main,negativefb,-99,easy,74,0.584436099999948,['c'],1,left,['2'],5,0.14210320000029242,,,,,,,,1,20,Vrouw,Links,2,
,xotask,xotask,dotcolour,21,4,261,561,main,negativefb,-99,average,62,0.5498626000003242,['c'],1,left,['1'],6,0.10811569999987114,,,,,,,,1,20,Vrouw,Links,2,
,xotask,xotask,dotcolour,22,4,262,562,main,negativefb,-99,average,64,0.4679284999997435,['c'],1,left,['2'],5,0.06202230000008058,,,,,,,,1,20,Vrouw,Links,2,
,xotask,xotask,dotcolour,23,4,263,563,main,negativefb,-99,easy,71,0.7010439999999107,['c'],1,left,['2'],5,0.08088939999970535,,,,,,,,1,20,Vrouw,Links,2,
,xotask,xotask,dotcolour,24,4,264,564,main,negativefb,-99,average,64,0.5675406999998813,['c'],1,left,['2'],5,0.10419419999971069,,,,,,,,1,20,Vrouw,Links,2,
,xotask,xotask,dotcolour,25,4,265,565,main,negativefb,-99,hard,54,0.45054909999998927,['c'],1,left,['2'],5,0.06707039999992048,,,,,,,,1,20,Vrouw,Links,2,
,xotask,xotask,dotcolour,26,4,266,566,main,negativefb,-99,hard,27,0.36754359999986264,['c'],0,right,['8'],3,0.6822068999999829,,,,,,,,1,20,Vrouw,Links,2,
,xotask,xotask,dotcolour,27,4,267,567,main,negativefb,-99,hard,54,1.8504617999997208,['c'],1,left,['2'],5,0.5582323000003271,,,,,,,,1,20,Vrouw,Links,2,
,xotask,xotask,dotcolour,28,4,268,568,main,negativefb,-99,easy,72,0.9666836999999759,['c'],1,left,['2'],5,0.0737967000000026,,,,,,,,1,20,Vrouw,Links,2,
,xotask,xotask,dotcolour,29,4,269,569,main,negativefb,-99,hard,27,0.8497566999999435,['n'],1,right,['3'],4,0.5092156999999133,,,,,,,,1,20,Vrouw,Links,2,
,xotask,xotask,dotcolour,30,4,270,570,main,negativefb,-99,average,15,0.6659674000002269,['n'],1,right,['3'],4,0.39170540000031906,,,,,,,,1,20,Vrouw,Links,2,
,xotask,xotask,dotcolour,31,4,271,571,main,negativefb,-99,easy,73,1.4507665999999517,['c'],1,left,['1'],6,0.462710799999968,,,,,,,,1,20,Vrouw,Links,2,
,xotask,xotask,dotcolour,32,4,272,572,main,negativefb,-99,easy,74,1.6335524000000987,['c'],1,left,['2'],5,0.3801536999999371,,,,,,,,1,20,Vrouw,Links,2,
,xotask,xotask,dotcolour,33,4,273,573,main,negativefb,-99,average,61,0.6516056999998909,['c'],1,left,['2'],5,0.10848140000007334,,,,,,,,1,20,Vrouw,Links,2,
,xotask,xotask,dotcolour,34,4,274,574,main,negativefb,-99,average,15,1.0667771999997058,['n'],1,right,['2'],5,0.1501072999999451,,,,,,,,1,20,Vrouw,Links,2,
,xotask,xotask,dotcolour,35,4,275,575,main,negativefb,-99,average,64,0.6678251999996974,['c'],1,left,['2'],5,0.09506280000005063,,,,,,,,1,20,Vrouw,Links,2,
,xotask,xotask,dotcolour,36,4,276,576,main,negativefb,-99,easy,70,1.299824499999886,['c'],1,left,['2'],5,0.05621689999998125,,,,,,,,1,20,Vrouw,Links,2,
,xotask,xotask,dotcolour,37,4,277,577,main,negativefb,-99,easy,73,0.5489603000000898,['c'],1,left,['2'],5,0.10439289999976609,,,,,,,,1,20,Vrouw,Links,2,
,xotask,xotask,dotcolour,38,4,278,578,main,negativefb,-99,easy,9,0.6674023000000489,['n'],1,right,['2'],5,0.12275659999977506,,,,,,,,1,20,Vrouw,Links,2,
,xotask,xotask,dotcolour,39,4,279,579,main,negativefb,-99,hard,52,1.0164551000002575,['c'],1,left,['1'],6,0.11721399999987625,,,,,,,,1,20,Vrouw,Links,2,
,xotask,xotask,dotcolour,40,4,280,580,main,negativefb,-99,average,62,0.5004755999998451,['c'],1,left,['1'],6,0.08637649999991481,,,,,,,,1,20,Vrouw,Links,2,
,xotask,xotask,dotcolour,41,4,281,581,main,negativefb,-99,average,15,0.7343743999999788,['n'],1,right,['2'],5,0.20572340000035183,,,,,,,,1,20,Vrouw,Links,2,
,xotask,xotask,dotcolour,42,4,282,582,main,negativefb,-99,hard,50,0.6345789000001787,['c'],1,left,['1'],6,0.11703409999972791,,,,,,,,1,20,Vrouw,Links,2,
,xotask,xotask,dotcolour,43,4,283,583,main,negativefb,-99,hard,25,1.1009189999999762,['c'],0,right,['1'],6,0.061197099999844795,,,,,,,,1,20,Vrouw,Links,2,
,xotask,xotask,dotcolour,44,4,284,584,main,negativefb,-99,easy,5,0.5509010999999191,['n'],1,right,['2'],5,0.06956000000036511,,,,,,,,1,20,Vrouw,Links,2,
,xotask,xotask,dotcolour,45,4,285,585,main,negativefb,-99,easy,8,0.8337295999999697,['n'],1,right,['2'],5,0.12237279999999373,,,,,,,,1,20,Vrouw,Links,2,
,xotask,xotask,dotcolour,46,4,286,586,main,negativefb,-99,average,17,0.5504394999998112,['n'],1,right,['2'],5,0.04925009999988106,,,,,,,,1,20,Vrouw,Links,2,
,xotask,xotask,dotcolour,47,4,287,587,main,negativefb,-99,hard,54,0.6172265999998672,['c'],1,left,['1'],6,0.1831905000003644,,,,,,,,1,20,Vrouw,Links,2,
,xotask,xotask,dotcolour,48,4,288,588,main,negativefb,-99,easy,70,2.0498219000000972,['c'],1,left,['1'],6,0.16595649999999296,,,,,,,,1,20,Vrouw,Links,2,
,xotask,xotask,dotcolour,49,4,289,589,main,negativefb,-99,easy,9,0.5505220000000008,['n'],1,right,['2'],5,0.20211380000000645,,,,,,,,1,20,Vrouw,Links,2,
,xotask,xotask,dotcolour,50,4,290,590,main,negativefb,-99,hard,52,0.5179157000002306,['n'],0,left,['2'],5,0.12644019999970624,,,,,,,,1,20,Vrouw,Links,2,
,xotask,xotask,dotcolour,51,4,291,591,main,negativefb,-99,easy,5,0.6664918000001308,['n'],1,right,['2'],5,0.10375300000032439,,,,,,,,1,20,Vrouw,Links,2,
,xotask,xotask,dotcolour,52,4,292,592,main,negativefb,-99,average,62,0.7168844999996509,['c'],1,left,['1'],6,0.1036722999997437,,,,,,,,1,20,Vrouw,Links,2,
,xotask,xotask,dotcolour,53,4,293,593,main,negativefb,-99,average,16,3.9665635000001203,['n'],1,right,['1'],6,0.12555680000014036,,,,,,,,1,20,Vrouw,Links,2,
,xotask,xotask,dotcolour,54,4,294,594,main,negativefb,-99,average,62,1.0340801000002102,['c'],1,left,['2'],5,0.17608760000030088,,,,,,,,1,20,Vrouw,Links,2,
,xotask,xotask,dotcolour,55,4,295,595,main,negativefb,-99,average,63,0.600857299999916,['c'],1,left,['2'],5,0.0991863999997804,,,,,,,,1,20,Vrouw,Links,2,
,xotask,xotask,dotcolour,56,4,296,596,main,negativefb,-99,hard,29,1.384169699999802,['n'],1,right,['3'],4,0.66425769999978,,,,,,,,1,20,Vrouw,Links,2,
,xotask,xotask,dotcolour,57,4,297,597,main,negativefb,-99,hard,26,0.9506893999996464,['n'],1,right,['3'],4,0.20852279999962775,,,,,,,,1,20,Vrouw,Links,2,
,xotask,xotask,dotcolour,58,4,298,598,main,negativefb,-99,average,19,1.0667041000001518,['n'],1,right,['2'],5,0.24703939999972135,,,,,,,,1,20,Vrouw,Links,2,
,xotask,xotask,dotcolour,59,4,299,599,main,negativefb,-99,average,16,0.6998099000002185,['n'],1,right,['2'],5,0.20200740000018413,,,,,,,,1,20,Vrouw,Links,2,
,xotask,xotask,dotcolour,0,0,0,600,training,negativefb,66,hard,29,0.6498463999996602,['n'],1,right,['2'],5,0.106601199999659,,,,,,,,1,20,Vrouw,Links,2,
,xotask,xotask,dotcolour,1,0,1,601,training,negativefb,75,average,16,0.4668413000003966,['n'],1,right,['2'],5,0.09139009999989867,,,,,,,,1,20,Vrouw,Links,2,
,xotask,xotask,dotcolour,2,0,2,602,training,negativefb,92,average,19,0.4495548999998391,['n'],1,right,['1'],6,0.16639570000006643,,,,,,,,1,20,Vrouw,Links,2,
,xotask,xotask,dotcolour,3,0,3,603,training,negativefb,55,hard,26,0.6499726000001829,['n'],1,right,['2'],5,0.1735570999999254,,,,,,,,1,20,Vrouw,Links,2,
,xotask,xotask,dotcolour,4,0,4,604,training,negativefb,58,easy,74,0.8008800000002338,['c'],1,left,['1'],6,0.08654360000036831,,,,,,,,1,20,Vrouw,Links,2,
,xotask,xotask,dotcolour,5,0,5,605,training,negativefb,51,easy,73,0.6169775000003028,['c'],1,left,['1'],6,0.07556119999981092,,,,,,,,1,20,Vrouw,Links,2,
,xotask,xotask,dotcolour,6,0,6,606,training,negativefb,70,average,19,0.6338183000002573,['n'],1,right,['2'],5,0.11170290000018213,,,,,,,,1,20,Vrouw,Links,2,
,xotask,xotask,dotcolour,7,0,7,607,training,negativefb,70,average,18,0.6170028999999886,['n'],1,right,['2'],5,0.13030339999977514,,,,,,,,1,20,Vrouw,Links,2,
,xotask,xotask,dotcolour,8,0,8,608,training,negativefb,63,easy,5,0.5328445000000102,['n'],1,right,['2'],5,0.00847169999997277,,,,,,,,1,20,Vrouw,Links,2,
,xotask,xotask,dotcolour,9,0,9,609,training,negativefb,57,hard,52,1.0330086999997548,['n'],0,left,['2'],5,0.08793429999968794,,,,,,,,1,20,Vrouw,Links,2,
,xotask,xotask,dotcolour,10,0,10,610,training,negativefb,52,easy,73,0.6495405999999093,['c'],1,left,['1'],6,0.11409939999975904,,,,,,,,1,20,Vrouw,Links,2,
,xotask,xotask,dotcolour,11,0,11,611,training,negativefb,82,average,64,0.6001811999999518,['c'],1,left,"['1', '2']",6,0.13474049999967974,,,,,,,,1,20,Vrouw,Links,2,
,xotask,xotask,dotcolour,12,0,12,612,training,negativefb,65,hard,51,0.6841701000003013,['n'],0,left,['2'],5,0.44605830000000424,,,,,,,,1,20,Vrouw,Links,2,
,xotask,xotask,dotcolour,13,0,13,613,training,negativefb,3,average,63,0.6168530999998438,['n'],0,left,['9'],2,2.307608199999777,,,,,,,,1,20,Vrouw,Links,2,
,xotask,xotask,dotcolour,14,0,14,614,training,negativefb,80,easy,5,2.298999900000126,['n'],1,right,['8'],3,0.5788454999997157,,,,,,,,1,20,Vrouw,Links,2,
,xotask,xotask,dotcolour,15,0,15,615,training,negativefb,53,easy,74,0.5674334999998791,['c'],1,left,['1'],6,0.09399249999978565,,,,,,,,1,20,Vrouw,Links,2,
,xotask,xotask,dotcolour,16,0,16,616,training,negativefb,46,easy,71,0.7334670000000187,['c'],1,left,['2'],5,0.10048449999976583,,,,,,,,1,20,Vrouw,Links,2,
,xotask,xotask,dotcolour,17,0,17,617,training,negativefb,62,average,61,0.798527599999943,['c'],1,left,['1'],6,0.20170939999979964,,,,,,,,1,20,Vrouw,Links,2,
,xotask,xotask,dotcolour,18,0,18,618,training,negativefb,44,easy,6,0.8831859000001714,['n'],1,right,['2'],5,0.2305903000001308,,,,,,,,1,20,Vrouw,Links,2,
,xotask,xotask,dotcolour,19,0,19,619,training,negativefb,77,hard,29,1.6002415999996629,['n'],1,right,['8'],3,0.3576148000001922,,,,,,,,1,20,Vrouw,Links,2,
,xotask,xotask,dotcolour,20,0,20,620,training,negativefb,44,hard,29,0.817565100000138,['c'],0,right,['2'],5,0.1906835999998293,,,,,,,,1,20,Vrouw,Links,2,
,xotask,xotask,dotcolour,21,0,21,621,training,negativefb,69,average,62,0.8172260000001188,['c'],1,left,['1'],6,0.08693540000012945,,,,,,,,1,20,Vrouw,Links,2,
,xotask,xotask,dotcolour,22,0,22,622,training,negativefb,71,hard,54,0.6499625000001288,['c'],1,left,['2'],5,0.12971070000003238,,,,,,,,1,20,Vrouw,Links,2,
,xotask,xotask,dotcolour,23,0,23,623,training,negativefb,56,average,16,0.6006228000001101,['n'],1,right,['2'],5,0.06026479999991352,,,,,,,,1,20,Vrouw,Links,2,
,xotask,xotask,dotcolour,24,0,24,624,training,negativefb,49,easy,71,0.6832475000001068,['c'],1,left,['1'],6,0.09566709999990053,,,,,,,,1,20,Vrouw,Links,2,
,xotask,xotask,dotcolour,25,0,25,625,training,negativefb,58,average,16,0.9842777999997452,['n'],1,right,['3'],4,0.18883510000023307,,,,,,,,1,20,Vrouw,Links,2,
,xotask,xotask,dotcolour,26,0,26,626,training,negativefb,41,easy,7,0.5493288000002394,['c'],0,right,['1'],6,0.13529449999987264,,,,,,,,1,20,Vrouw,Links,2,
,xotask,xotask,dotcolour,27,0,27,627,training,negativefb,53,easy,70,0.650054000000182,['n'],0,left,['2'],5,0.15248180000025968,,,,,,,,1,20,Vrouw,Links,2,
,xotask,xotask,dotcolour,28,0,28,628,training,negativefb,53,hard,53,0.517551899999944,['n'],0,left,['2'],5,0.0860237000001689,,,,,,,,1,20,Vrouw,Links,2,
,xotask,xotask,dotcolour,29,0,29,629,training,negativefb,39,easy,9,0.518286900000021,['n'],1,right,['1'],6,0.32602700000006735,,,,,,,,1,20,Vrouw,Links,2,
,xotask,xotask,dotcolour,30,0,30,630,training,negativefb,64,easy,73,0.7503921999996237,['c'],1,left,['1'],6,0.13975770000024568,,,,,,,,1,20,Vrouw,Links,2,
,xotask,xotask,dotcolour,31,0,31,631,training,negativefb,79,average,60,0.5676248000004307,['c'],1,left,['1'],6,0.10321419999991122,,,,,,,,1,20,Vrouw,Links,2,
,xotask,xotask,dotcolour,32,0,32,632,training,negativefb,9,easy,7,0.7489771999998993,['c'],0,right,['0'],1,1.0298582000000351,,,,,,,,1,20,Vrouw,Links,2,
,xotask,xotask,dotcolour,33,0,33,633,training,negativefb,72,hard,52,0.6835547999999108,['c'],1,left,['1'],6,0.08921760000021095,,,,,,,,1,20,Vrouw,Links,2,
,xotask,xotask,dotcolour,34,0,34,634,training,negativefb,33,hard,51,0.8997490000001562,['n'],0,left,['9'],2,0.8902682000002642,,,,,,,,1,20,Vrouw,Links,2,
,xotask,xotask,dotcolour,35,0,35,635,training,negativefb,74,average,17,0.6835683999997855,['n'],1,right,['2'],5,0.17990469999995184,,,,,,,,1,20,Vrouw,Links,2,
,xotask,xotask,dotcolour,36,0,36,636,training,negativefb,69,average,60,0.7669921000001523,['c'],1,left,['2'],5,0.12653800000043702,,,,,,,,1,20,Vrouw,Links,2,
,xotask,xotask,dotcolour,37,0,37,637,training,negativefb,60,hard,25,1.083277299999736,['n'],1,right,['2'],5,0.03808630000003177,,,,,,,,1,20,Vrouw,Links,2,
,xotask,xotask,dotcolour,38,0,38,638,training,negativefb,43,hard,26,0.6662679000000935,['n'],1,right,['2'],5,1.2182380000003832,,,,,,,,1,20,Vrouw,Links,2,
,xotask,xotask,dotcolour,39,0,39,639,training,negativefb,73,hard,51,0.9327146000000539,['c'],1,left,['2'],5,0.14782830000012837,,,,,,,,1,20,Vrouw,Links,2,
,xotask,xotask,dotcolour,40,0,40,640,training,negativefb,81,average,19,0.9673518000004151,['n'],1,right,['2'],5,0.13672410000026503,,,,,,,,1,20,Vrouw,Links,2,
,xotask,xotask,dotcolour,41,0,41,641,training,negativefb,69,easy,9,0.7164832999997088,['n'],1,right,['2'],5,0.18279589999974633,,,,,,,,1,20,Vrouw,Links,2,
