starttime,task,fbtask,firsttask,withinblocktrial,block,withintasktrial,trial,running,feedback,fbscore,difflevel,n_xes,rt,resp,cor,cresp,conf_press,cj,RTconf,reddots,post1,post2,post3,post4,post5,stoptime,sub,age,gender,handedness,session,
1715680878,xotask,xotask,xotask,0,0,0,0,training,negativefb,59,hard,53,2.018600499999593,['n'],0,left,['3'],4,0.3159288999995624,,,,,,,,32,18,Man,Rechts,2,
,xotask,xotask,xotask,1,0,1,1,training,negativefb,67,average,19,0.8843471000000136,['n'],1,right,['1'],6,0.23561479999989388,,,,,,,,32,18,Man,Rechts,2,
,xotask,xotask,xotask,2,0,2,2,training,negativefb,88,easy,71,0.6843155000005936,['c'],1,left,['1'],6,0.34254580000015267,,,,,,,,32,18,Man,Rechts,2,
,xotask,xotask,xotask,3,0,3,3,training,negativefb,85,average,19,0.4825890000010986,['n'],1,right,['1'],6,0.27914409999903,,,,,,,,32,18,Man,Rechts,2,
,xotask,xotask,xotask,4,0,4,4,training,negativefb,38,average,15,0.6161078999994061,['n'],1,right,['1'],6,0.2589441000000079,,,,,,,,32,18,Man,Rechts,2,
,xotask,xotask,xotask,5,0,5,5,training,negativefb,68,average,17,0.5163198999998713,['n'],1,right,['1'],6,0.1409122999993997,,,,,,,,32,18,Man,Rechts,2,
,xotask,xotask,xotask,6,0,6,6,training,negativefb,84,hard,26,0.9333798999996361,['n'],1,right,['2'],5,0.19414590000087628,,,,,,,,32,18,Man,Rechts,2,
,xotask,xotask,xotask,7,0,7,7,training,negativefb,72,average,64,1.5845161999986885,['c'],1,left,['3'],4,0.34738499999912165,,,,,,,,32,18,Man,Rechts,2,
,xotask,xotask,xotask,8,0,8,8,training,negativefb,77,easy,74,0.8337470000005851,['c'],1,left,['2'],5,0.21248489999925368,,,,,,,,32,18,Man,Rechts,2,
,xotask,xotask,xotask,9,0,9,9,training,negativefb,35,hard,50,1.0485664999996516,['c'],1,left,['3'],4,0.48268499999903725,,,,,,,,32,18,Man,Rechts,2,
,xotask,xotask,xotask,10,0,10,10,training,negativefb,75,easy,7,0.549582300000111,['n'],1,right,['1'],6,0.19381690000045637,,,,,,,,32,18,Man,Rechts,2,
,xotask,xotask,xotask,11,0,11,11,training,negativefb,58,average,64,0.6666397999997571,['c'],1,left,['1'],6,0.20742579999932786,,,,,,,,32,18,Man,Rechts,2,
,xotask,xotask,xotask,12,0,12,12,training,negativefb,77,hard,50,1.033192800001416,['n'],0,left,['3'],4,0.5253794000000198,,,,,,,,32,18,Man,Rechts,2,
,xotask,xotask,xotask,13,0,13,13,training,negativefb,49,hard,25,0.6174488999986352,['n'],1,right,['2'],5,0.16884780000145838,,,,,,,,32,18,Man,Rechts,2,
,xotask,xotask,xotask,14,0,14,14,training,negativefb,84,average,62,0.7501565999991726,['c'],1,left,['2'],5,0.21248170000035316,,,,,,,,32,18,Man,Rechts,2,
,xotask,xotask,xotask,15,0,15,15,training,negativefb,62,easy,73,0.8660538000003726,['c'],1,left,['2'],5,0.14551209999990533,,,,,,,,32,18,Man,Rechts,2,
,xotask,xotask,xotask,16,0,16,16,training,negativefb,65,easy,74,0.8001017999995383,['c'],1,left,['2'],5,0.3476547999998729,,,,,,,,32,18,Man,Rechts,2,
,xotask,xotask,xotask,17,0,17,17,training,negativefb,11,easy,9,0.5508791000011115,['n'],1,right,['1'],6,0.16830579999987094,,,,,,,,32,18,Man,Rechts,2,
,xotask,xotask,xotask,18,0,18,18,training,negativefb,54,hard,25,0.9005224000011367,['n'],1,right,['1'],6,0.22955090000141354,,,,,,,,32,18,Man,Rechts,2,
,xotask,xotask,xotask,19,0,19,19,training,negativefb,38,hard,50,0.7178882999996858,['c'],1,left,['2'],5,0.711305299999367,,,,,,,,32,18,Man,Rechts,2,
,xotask,xotask,xotask,20,0,20,20,training,negativefb,85,average,64,0.7164389999998093,['c'],1,left,['1'],6,0.3196117999996204,,,,,,,,32,18,Man,Rechts,2,
,xotask,xotask,xotask,21,0,21,21,training,negativefb,62,hard,51,0.9513137999983883,['c'],1,left,['2'],5,0.5487384999996721,,,,,,,,32,18,Man,Rechts,2,
,xotask,xotask,xotask,22,0,22,22,training,negativefb,92,average,64,1.416837000000669,['c'],1,left,['2'],5,0.9651771000008011,,,,,,,,32,18,Man,Rechts,2,
,xotask,xotask,xotask,23,0,23,23,training,negativefb,67,easy,7,0.9167064000012033,['n'],1,right,['1'],6,0.6824472999996942,,,,,,,,32,18,Man,Rechts,2,
,xotask,xotask,xotask,24,0,24,24,training,negativefb,59,easy,70,0.6681586999984575,['c'],1,left,['1'],6,0.22803950000161421,,,,,,,,32,18,Man,Rechts,2,
,xotask,xotask,xotask,25,0,25,25,training,negativefb,37,average,61,0.967894499999602,['n'],0,left,['3'],4,0.7644932999992307,,,,,,,,32,18,Man,Rechts,2,
,xotask,xotask,xotask,26,0,26,26,training,negativefb,77,easy,74,0.6163887999991857,['c'],1,left,['2'],5,0.22164739999971061,,,,,,,,32,18,Man,Rechts,2,
,xotask,xotask,xotask,27,0,27,27,training,negativefb,66,hard,51,1.3172734999989189,['c'],1,left,['3'],4,0.45688850000078673,,,,,,,,32,18,Man,Rechts,2,
,xotask,xotask,xotask,28,0,28,28,training,negativefb,80,average,63,0.7519786000011663,['c'],1,left,['2'],5,0.2324945000000298,,,,,,,,32,18,Man,Rechts,2,
,xotask,xotask,xotask,29,0,29,29,training,negativefb,81,easy,5,0.7336345999992773,['n'],1,right,['1'],6,0.1218310999993264,,,,,,,,32,18,Man,Rechts,2,
,xotask,xotask,xotask,30,0,30,30,training,negativefb,35,hard,50,0.6326284999995551,['c'],1,left,['2'],5,0.28421960000014224,,,,,,,,32,18,Man,Rechts,2,
,xotask,xotask,xotask,31,0,31,31,training,negativefb,34,average,17,0.799134499999127,['n'],1,right,['1'],6,0.3607549000007566,,,,,,,,32,18,Man,Rechts,2,
,xotask,xotask,xotask,32,0,32,32,training,negativefb,62,average,62,0.849545400000352,['c'],1,left,['2'],5,0.2649896999992052,,,,,,,,32,18,Man,Rechts,2,
,xotask,xotask,xotask,33,0,33,33,training,negativefb,21,average,17,0.6491392999996606,['n'],1,right,['1'],6,0.2606245000006311,,,,,,,,32,18,Man,Rechts,2,
,xotask,xotask,xotask,34,0,34,34,training,negativefb,76,average,18,0.6658474999985629,['n'],1,right,['1'],6,0.21562339999945834,,,,,,,,32,18,Man,Rechts,2,
,xotask,xotask,xotask,35,0,35,35,training,negativefb,82,hard,27,0.8497044999985519,['n'],1,right,['2'],5,0.26037210000140476,,,,,,,,32,18,Man,Rechts,2,
,xotask,xotask,xotask,36,0,36,36,training,negativefb,37,hard,27,0.8010515000005398,['n'],1,right,['2'],5,0.33003090000056545,,,,,,,,32,18,Man,Rechts,2,
,xotask,xotask,xotask,37,0,37,37,training,negativefb,52,easy,9,0.6002259999986563,['n'],1,right,['1'],6,0.1904712000014115,,,,,,,,32,18,Man,Rechts,2,
,xotask,xotask,xotask,38,0,38,38,training,negativefb,75,average,15,0.6512368999992759,['n'],1,right,['1'],6,0.7800146999998105,,,,,,,,32,18,Man,Rechts,2,
,xotask,xotask,xotask,39,0,39,39,training,negativefb,91,easy,73,0.8663071999999374,['c'],1,left,['2'],5,0.4358462000000145,,,,,,,,32,18,Man,Rechts,2,
,xotask,xotask,xotask,40,0,40,40,training,negativefb,55,easy,5,0.9170311000016227,['n'],1,right,['1'],6,0.18879290000040783,,,,,,,,32,18,Man,Rechts,2,
,xotask,xotask,xotask,41,0,41,41,training,negativefb,69,hard,25,0.7833011999991868,['n'],1,right,['2'],5,0.17490410000027623,,,,,,,,32,18,Man,Rechts,2,
,xotask,xotask,xotask,42,0,42,42,training,negativefb,80,easy,70,0.8828117000011844,['c'],1,left,['1'],6,0.1728638000004139,,,,,,,,32,18,Man,Rechts,2,
,xotask,xotask,xotask,43,0,43,43,training,negativefb,93,easy,8,0.6005812000003061,['n'],1,right,['1'],6,0.4944869999999355,,,,,,,,32,18,Man,Rechts,2,
,xotask,xotask,xotask,44,0,44,44,training,negativefb,63,hard,27,1.7990581000012753,['n'],1,right,['1'],6,1.2109299000003375,,,,,,,,32,18,Man,Rechts,2,
,xotask,xotask,xotask,45,0,45,45,training,negativefb,99,hard,53,1.3840049999998882,['c'],1,left,['1'],6,1.2759198999992805,,,,,,,,32,18,Man,Rechts,2,
,xotask,xotask,xotask,46,0,46,46,training,negativefb,74,average,61,2.9495885000014823,['n'],0,left,['3'],4,1.1071556999995664,,,,,,,,32,18,Man,Rechts,2,
,xotask,xotask,xotask,47,0,47,47,training,negativefb,99,easy,5,0.7667815000004339,['n'],1,right,['2'],5,1.6238678000008804,,,,,,,,32,18,Man,Rechts,2,
,xotask,xotask,xotask,48,0,48,48,training,negativefb,81,average,16,0.9011778000003687,['n'],1,right,['2'],5,0.7868345000006229,,,,,,,,32,18,Man,Rechts,2,
,xotask,xotask,xotask,49,0,49,49,training,negativefb,60,easy,5,0.6006288999997196,['n'],1,right,['1'],6,0.21134669999992184,,,,,,,,32,18,Man,Rechts,2,
,xotask,xotask,xotask,50,0,50,50,training,negativefb,61,hard,29,0.6171307000004163,['n'],1,right,['2'],5,0.5306662000002689,,,,,,,,32,18,Man,Rechts,2,
,xotask,xotask,xotask,51,0,51,51,training,negativefb,19,average,61,0.6001702000012301,['n'],0,left,['1'],6,0.32587989999956335,,,,,,,,32,18,Man,Rechts,2,
,xotask,xotask,xotask,52,0,52,52,training,negativefb,70,hard,29,0.9507289999983186,['n'],1,right,['2'],5,0.7150579999997717,,,,,,,,32,18,Man,Rechts,2,
,xotask,xotask,xotask,53,0,53,53,training,negativefb,50,hard,27,2.316724400001476,['n'],1,right,['2'],5,0.37818549999974493,,,,,,,,32,18,Man,Rechts,2,
,xotask,xotask,xotask,54,0,54,54,training,negativefb,87,easy,73,0.8505824000003486,['c'],1,left,['1'],6,0.41706599999997707,,,,,,,,32,18,Man,Rechts,2,
,xotask,xotask,xotask,55,0,55,55,training,negativefb,29,hard,51,1.533710899999278,['n'],0,left,['2'],5,0.3150470000000496,,,,,,,,32,18,Man,Rechts,2,
,xotask,xotask,xotask,56,0,56,56,training,negativefb,55,easy,8,0.6340099999997619,['n'],1,right,['1'],6,0.21322329999929934,,,,,,,,32,18,Man,Rechts,2,
,xotask,xotask,xotask,57,0,57,57,training,negativefb,75,easy,74,0.5675893999996333,['c'],1,left,['1'],6,0.16595109999980195,,,,,,,,32,18,Man,Rechts,2,
,xotask,xotask,xotask,58,0,58,58,training,negativefb,77,average,19,0.6836435000004712,['n'],1,right,['2'],5,0.31721119999929215,,,,,,,,32,18,Man,Rechts,2,
,xotask,xotask,xotask,59,0,59,59,training,negativefb,92,hard,54,1.2497433999997156,['n'],0,left,['3'],4,0.34212920000027225,,,,,,,,32,18,Man,Rechts,2,
,xotask,xotask,xotask,0,1,60,60,training,negativefb,68,easy,72,0.7334489000004396,['c'],1,left,['1'],6,0.2884001000002172,,,,,,,,32,18,Man,Rechts,2,
,xotask,xotask,xotask,1,1,61,61,training,negativefb,71,hard,52,0.566135299999587,['n'],0,left,['2'],5,0.2224616999992577,,,,,,,,32,18,Man,Rechts,2,
,xotask,xotask,xotask,2,1,62,62,training,negativefb,86,easy,70,0.617733799999769,['c'],1,left,['1'],6,0.2529837000001862,,,,,,,,32,18,Man,Rechts,2,
,xotask,xotask,xotask,3,1,63,63,training,negativefb,75,average,19,0.6841122000005271,['n'],1,right,['3'],4,0.33549259999927017,,,,,,,,32,18,Man,Rechts,2,
,xotask,xotask,xotask,4,1,64,64,training,negativefb,47,easy,7,0.6999135000005481,['n'],1,right,['1'],6,0.20579439999892202,,,,,,,,32,18,Man,Rechts,2,
,xotask,xotask,xotask,5,1,65,65,training,negativefb,84,average,17,0.6170442000002367,['n'],1,right,['2'],5,0.27756090000002587,,,,,,,,32,18,Man,Rechts,2,
,xotask,xotask,xotask,6,1,66,66,training,negativefb,66,average,63,0.5505790999995952,['c'],1,left,['1'],6,0.18123879999984638,,,,,,,,32,18,Man,Rechts,2,
,xotask,xotask,xotask,7,1,67,67,training,negativefb,68,easy,74,0.5834847999994963,['c'],1,left,['1'],6,0.27935579999939364,,,,,,,,32,18,Man,Rechts,2,
,xotask,xotask,xotask,8,1,68,68,training,negativefb,84,hard,25,1.133608500000264,['n'],1,right,['2'],5,0.3507497999999032,,,,,,,,32,18,Man,Rechts,2,
,xotask,xotask,xotask,9,1,69,69,training,negativefb,75,easy,70,1.1512385000005452,['c'],1,left,['1'],6,0.3470297000003484,,,,,,,,32,18,Man,Rechts,2,
,xotask,xotask,xotask,10,1,70,70,training,negativefb,47,easy,6,0.633718900000531,['n'],1,right,['1'],6,0.12335380000149598,,,,,,,,32,18,Man,Rechts,2,
,xotask,xotask,xotask,11,1,71,71,training,negativefb,49,average,61,0.8334063000002061,['n'],0,left,['2'],5,0.09429369999998016,,,,,,,,32,18,Man,Rechts,2,
,xotask,xotask,xotask,12,1,72,72,training,negativefb,32,average,15,0.6162574000009045,['n'],1,right,['2'],5,0.2658501999994769,,,,,,,,32,18,Man,Rechts,2,
,xotask,xotask,xotask,13,1,73,73,training,negativefb,75,average,61,0.6491309000011825,['c'],1,left,['1'],6,0.14173889999983658,,,,,,,,32,18,Man,Rechts,2,
,xotask,xotask,xotask,14,1,74,74,training,negativefb,54,average,60,0.5507613999998284,['c'],1,left,['1'],6,0.12179590000050666,,,,,,,,32,18,Man,Rechts,2,
,xotask,xotask,xotask,15,1,75,75,training,negativefb,37,average,64,1.2337526000010257,['c'],1,left,['3'],4,0.708012700000836,,,,,,,,32,18,Man,Rechts,2,
,xotask,xotask,xotask,16,1,76,76,training,negativefb,24,easy,72,0.717273500000374,['c'],1,left,['1'],6,0.5712201000005734,,,,,,,,32,18,Man,Rechts,2,
,xotask,xotask,xotask,17,1,77,77,training,negativefb,83,easy,9,0.7667044999998325,['n'],1,right,['1'],6,0.3183336000001873,,,,,,,,32,18,Man,Rechts,2,
,xotask,xotask,xotask,18,1,78,78,training,negativefb,57,easy,6,0.5332062999987102,['n'],1,right,['1'],6,0.13180190000093717,,,,,,,,32,18,Man,Rechts,2,
,xotask,xotask,xotask,19,1,79,79,training,negativefb,86,easy,72,0.515818500000023,['c'],1,left,['1'],6,0.23434160000033444,,,,,,,,32,18,Man,Rechts,2,
,xotask,xotask,xotask,20,1,80,80,training,negativefb,64,easy,70,0.5493394000004628,['c'],1,left,['1'],6,0.16317109999909007,,,,,,,,32,18,Man,Rechts,2,
,xotask,xotask,xotask,21,1,81,81,training,negativefb,82,average,62,0.6009959000002709,['c'],1,left,['1'],6,0.12516209999921557,,,,,,,,32,18,Man,Rechts,2,
,xotask,xotask,xotask,22,1,82,82,training,negativefb,66,easy,8,0.5513193999995565,['n'],1,right,['1'],6,0.12254499999835389,,,,,,,,32,18,Man,Rechts,2,
,xotask,xotask,xotask,23,1,83,83,training,negativefb,9,hard,50,0.6673382000008132,['c'],1,left,['1'],6,0.28296760000012,,,,,,,,32,18,Man,Rechts,2,
,xotask,xotask,xotask,24,1,84,84,training,negativefb,76,hard,27,1.3343449000003602,['n'],1,right,['3'],4,0.9225015000010899,,,,,,,,32,18,Man,Rechts,2,
,xotask,xotask,xotask,25,1,85,85,training,negativefb,40,hard,50,0.8172707000012451,['c'],1,left,['2'],5,0.30117559999962396,,,,,,,,32,18,Man,Rechts,2,
,xotask,xotask,xotask,26,1,86,86,training,negativefb,32,hard,54,0.5499761000010039,['c'],1,left,['2'],5,0.3311673000007431,,,,,,,,32,18,Man,Rechts,2,
,xotask,xotask,xotask,27,1,87,87,training,negativefb,71,hard,29,0.882768199999191,['n'],1,right,['3'],4,0.4905194000002666,,,,,,,,32,18,Man,Rechts,2,
,xotask,xotask,xotask,28,1,88,88,training,negativefb,65,hard,26,1.0004604000005202,['n'],1,right,['3'],4,0.35921830000006594,,,,,,,,32,18,Man,Rechts,2,
,xotask,xotask,xotask,29,1,89,89,training,negativefb,84,hard,28,0.6996570999999676,['n'],1,right,['3'],4,0.3494700000010198,,,,,,,,32,18,Man,Rechts,2,
,xotask,xotask,xotask,30,1,90,90,training,negativefb,66,easy,5,0.7680744999997842,['n'],1,right,['1'],6,0.09718459999930928,,,,,,,,32,18,Man,Rechts,2,
,xotask,xotask,xotask,31,1,91,91,training,negativefb,82,easy,8,0.46688929999982065,['n'],1,right,['1'],6,0.12280490000011923,,,,,,,,32,18,Man,Rechts,2,
,xotask,xotask,xotask,32,1,92,92,training,negativefb,69,hard,50,1.183841099998972,['c'],1,left,['2'],5,0.8945985999998811,,,,,,,,32,18,Man,Rechts,2,
,xotask,xotask,xotask,33,1,93,93,training,negativefb,50,hard,28,0.5667391999995743,['n'],1,right,['1'],6,0.09245320000081847,,,,,,,,32,18,Man,Rechts,2,
,xotask,xotask,xotask,34,1,94,94,training,negativefb,37,easy,5,0.4658421999993152,['n'],1,right,['1'],6,0.11903549999988172,,,,,,,,32,18,Man,Rechts,2,
,xotask,xotask,xotask,35,1,95,95,training,negativefb,98,average,64,1.0822158999999374,['c'],1,left,['2'],5,1.0550432,,,,,,,,32,18,Man,Rechts,2,
,xotask,xotask,xotask,36,1,96,96,training,negativefb,98,easy,70,0.8663823000006232,['c'],1,left,['1'],6,0.6745585999997274,,,,,,,,32,18,Man,Rechts,2,
,xotask,xotask,xotask,37,1,97,97,training,negativefb,66,hard,28,0.5668019999993703,['n'],1,right,['1'],6,0.11301900000034948,,,,,,,,32,18,Man,Rechts,2,
,xotask,xotask,xotask,38,1,98,98,training,negativefb,62,average,15,0.6004085999993549,['n'],1,right,['1'],6,0.11718699999983073,,,,,,,,32,18,Man,Rechts,2,
,xotask,xotask,xotask,39,1,99,99,training,negativefb,84,average,19,0.4654241999996884,['n'],1,right,['1'],6,0.12578209999992396,,,,,,,,32,18,Man,Rechts,2,
,xotask,xotask,xotask,40,1,100,100,training,negativefb,84,average,19,0.4675651999987167,['n'],1,right,['1'],6,0.04666009999891685,,,,,,,,32,18,Man,Rechts,2,
,xotask,xotask,xotask,41,1,101,101,training,negativefb,49,easy,5,0.3995565999994142,['n'],1,right,['1'],6,0.07662250000066706,,,,,,,,32,18,Man,Rechts,2,
,xotask,xotask,xotask,42,1,102,102,training,negativefb,3,average,64,0.6001676000014413,['n'],0,left,['3'],4,1.4819001000014396,,,,,,,,32,18,Man,Rechts,2,
,xotask,xotask,xotask,43,1,103,103,training,negativefb,58,average,61,0.7171239999988757,['c'],1,left,['2'],5,0.3058510999999271,,,,,,,,32,18,Man,Rechts,2,
,xotask,xotask,xotask,44,1,104,104,training,negativefb,35,easy,72,0.3995804999995016,['c'],1,left,['1'],6,0.20530039999903238,,,,,,,,32,18,Man,Rechts,2,
,xotask,xotask,xotask,45,1,105,105,training,negativefb,55,average,15,1.4503936000000976,['n'],1,right,['1'],6,0.5239249000005657,,,,,,,,32,18,Man,Rechts,2,
,xotask,xotask,xotask,46,1,106,106,training,negativefb,50,average,18,0.5160175000000891,['n'],1,right,['1'],6,0.06642990000000282,,,,,,,,32,18,Man,Rechts,2,
,xotask,xotask,xotask,47,1,107,107,training,negativefb,80,hard,54,0.7002158999985113,['n'],0,left,['3'],4,0.36390600000049744,,,,,,,,32,18,Man,Rechts,2,
,xotask,xotask,xotask,48,1,108,108,training,negativefb,86,average,17,0.5498174999993353,['n'],1,right,['2'],5,0.16752989999986312,,,,,,,,32,18,Man,Rechts,2,
,xotask,xotask,xotask,49,1,109,109,training,negativefb,72,hard,50,1.0338733999997203,['c'],1,left,['3'],4,0.4873885999986669,,,,,,,,32,18,Man,Rechts,2,
,xotask,xotask,xotask,50,1,110,110,training,negativefb,54,hard,27,0.6491064999991067,['n'],1,right,['1'],6,0.1224339999989752,,,,,,,,32,18,Man,Rechts,2,
,xotask,xotask,xotask,51,1,111,111,training,negativefb,89,hard,26,0.9344796999994287,['n'],1,right,['2'],5,0.47224420000020473,,,,,,,,32,18,Man,Rechts,2,
,xotask,xotask,xotask,52,1,112,112,training,negativefb,41,hard,52,0.5664926999997988,['n'],0,left,['1'],6,0.11930729999949108,,,,,,,,32,18,Man,Rechts,2,
,xotask,xotask,xotask,53,1,113,113,training,negativefb,72,hard,27,0.5667346999998699,['n'],1,right,['1'],6,0.12395719999949506,,,,,,,,32,18,Man,Rechts,2,
,xotask,xotask,xotask,54,1,114,114,training,negativefb,52,hard,50,0.7671301999998832,['c'],1,left,['3'],4,0.4166445000009844,,,,,,,,32,18,Man,Rechts,2,
,xotask,xotask,xotask,55,1,115,115,training,negativefb,90,average,63,0.5502895999998145,['c'],1,left,['2'],5,0.17739500000061525,,,,,,,,32,18,Man,Rechts,2,
,xotask,xotask,xotask,56,1,116,116,training,negativefb,62,easy,5,0.5009071000004042,['n'],1,right,['1'],6,0.1352190999987215,,,,,,,,32,18,Man,Rechts,2,
,xotask,xotask,xotask,57,1,117,117,training,negativefb,82,average,17,0.5008545000000595,['n'],1,right,['1'],6,0.1093548999997438,,,,,,,,32,18,Man,Rechts,2,
,xotask,xotask,xotask,58,1,118,118,training,negativefb,42,easy,74,0.6170038000000204,['c'],1,left,['1'],6,0.11309459999938554,,,,,,,,32,18,Man,Rechts,2,
,xotask,xotask,xotask,59,1,119,119,training,negativefb,85,hard,54,0.9175803999987693,['c'],1,left,['2'],5,0.48841320000065025,,,,,,,,32,18,Man,Rechts,2,
,xotask,xotask,xotask,0,2,120,120,main,negativefb,-99,hard,28,0.6677180999995471,['n'],1,right,['2'],5,0.24414210000031744,,,,,,,,32,18,Man,Rechts,2,
,xotask,xotask,xotask,1,2,121,121,main,negativefb,-99,hard,54,0.9844972000009875,['n'],0,left,['3'],4,0.2919932999993762,,,,,,,,32,18,Man,Rechts,2,
,xotask,xotask,xotask,2,2,122,122,main,negativefb,-99,average,63,0.6849700000002485,['c'],1,left,['2'],5,0.16602030000103696,,,,,,,,32,18,Man,Rechts,2,
,xotask,xotask,xotask,3,2,123,123,main,negativefb,-99,easy,7,0.5509793000001082,['n'],1,right,['1'],6,0.09775660000013886,,,,,,,,32,18,Man,Rechts,2,
,xotask,xotask,xotask,4,2,124,124,main,negativefb,-99,average,16,0.5172440000005736,['n'],1,right,['1'],6,0.13815210000029765,,,,,,,,32,18,Man,Rechts,2,
,xotask,xotask,xotask,5,2,125,125,main,negativefb,-99,hard,26,0.5005051999996795,['n'],1,right,['1'],6,0.05699000000095111,,,,,,,,32,18,Man,Rechts,2,
,xotask,xotask,xotask,6,2,126,126,main,negativefb,-99,average,61,0.6188102000014624,['c'],1,left,['1'],6,0.17542719999983092,,,,,,,,32,18,Man,Rechts,2,
,xotask,xotask,xotask,7,2,127,127,main,negativefb,-99,easy,8,0.5010439999987284,['n'],1,right,['1'],6,0.07729309999922407,,,,,,,,32,18,Man,Rechts,2,
,xotask,xotask,xotask,8,2,128,128,main,negativefb,-99,easy,7,0.6173285999993823,['n'],1,right,['1'],6,0.05076759999974456,,,,,,,,32,18,Man,Rechts,2,
,xotask,xotask,xotask,9,2,129,129,main,negativefb,-99,average,64,0.9666984000014054,['c'],1,left,['2'],5,0.14629099999910977,,,,,,,,32,18,Man,Rechts,2,
,xotask,xotask,xotask,10,2,130,130,main,negativefb,-99,hard,51,1.6347338999985368,['c'],1,left,['3'],4,0.42882119999921997,,,,,,,,32,18,Man,Rechts,2,
,xotask,xotask,xotask,11,2,131,131,main,negativefb,-99,easy,6,0.6346414999989065,['n'],1,right,['1'],6,0.05916539999998349,,,,,,,,32,18,Man,Rechts,2,
,xotask,xotask,xotask,12,2,132,132,main,negativefb,-99,hard,52,0.7510349000003771,['c'],1,left,['2'],5,0.22776800000065123,,,,,,,,32,18,Man,Rechts,2,
,xotask,xotask,xotask,13,2,133,133,main,negativefb,-99,average,16,0.5837896000011824,['n'],1,right,['2'],5,0.42889540000032866,,,,,,,,32,18,Man,Rechts,2,
,xotask,xotask,xotask,14,2,134,134,main,negativefb,-99,easy,74,0.618605399999069,['c'],1,left,['1'],6,0.08401299999968614,,,,,,,,32,18,Man,Rechts,2,
,xotask,xotask,xotask,15,2,135,135,main,negativefb,-99,average,63,0.41779050000150164,['c'],1,left,['1'],6,0.13719920000039565,,,,,,,,32,18,Man,Rechts,2,
,xotask,xotask,xotask,16,2,136,136,main,negativefb,-99,easy,6,0.5011352999990777,['n'],1,right,['1'],6,0.12796909999997297,,,,,,,,32,18,Man,Rechts,2,
,xotask,xotask,xotask,17,2,137,137,main,negativefb,-99,average,64,1.6514999000009993,['n'],0,left,['2'],5,0.2018975999999384,,,,,,,,32,18,Man,Rechts,2,
,xotask,xotask,xotask,18,2,138,138,main,negativefb,-99,easy,72,0.7682626999994682,['c'],1,left,['1'],6,0.10810909999963769,,,,,,,,32,18,Man,Rechts,2,
,xotask,xotask,xotask,19,2,139,139,main,negativefb,-99,easy,5,0.5344453999987309,['n'],1,right,['1'],6,0.06743149999965681,,,,,,,,32,18,Man,Rechts,2,
,xotask,xotask,xotask,20,2,140,140,main,negativefb,-99,average,19,0.73412289999942,['n'],1,right,['2'],5,0.37257040000076813,,,,,,,,32,18,Man,Rechts,2,
,xotask,xotask,xotask,21,2,141,141,main,negativefb,-99,easy,5,0.6011113000004116,['n'],1,right,['1'],6,0.05404140000064217,,,,,,,,32,18,Man,Rechts,2,
,xotask,xotask,xotask,22,2,142,142,main,negativefb,-99,hard,25,0.5507675000008021,['n'],1,right,['1'],6,0.07042609999916749,,,,,,,,32,18,Man,Rechts,2,
,xotask,xotask,xotask,23,2,143,143,main,negativefb,-99,hard,50,0.8323072000002867,['n'],0,left,['2'],5,0.2749898999991274,,,,,,,,32,18,Man,Rechts,2,
,xotask,xotask,xotask,24,2,144,144,main,negativefb,-99,easy,70,0.8000986999995803,['c'],1,left,['1'],6,0.08166470000105619,,,,,,,,32,18,Man,Rechts,2,
,xotask,xotask,xotask,25,2,145,145,main,negativefb,-99,easy,71,1.0005564999992203,['c'],1,left,['2'],5,0.46255270000074233,,,,,,,,32,18,Man,Rechts,2,
,xotask,xotask,xotask,26,2,146,146,main,negativefb,-99,average,64,1.3843591999993805,['n'],0,left,['3'],4,0.7978698999995686,,,,,,,,32,18,Man,Rechts,2,
,xotask,xotask,xotask,27,2,147,147,main,negativefb,-99,easy,72,0.7848372000007657,['c'],1,left,['2'],5,0.023915499999930034,,,,,,,,32,18,Man,Rechts,2,
,xotask,xotask,xotask,28,2,148,148,main,negativefb,-99,average,19,0.6844696000007389,['n'],1,right,['1'],6,0.09199890000127198,,,,,,,,32,18,Man,Rechts,2,
,xotask,xotask,xotask,29,2,149,149,main,negativefb,-99,hard,27,0.968289200000072,['n'],1,right,['2'],5,1.1393602999996801,,,,,,,,32,18,Man,Rechts,2,
,xotask,xotask,xotask,30,2,150,150,main,negativefb,-99,hard,28,0.7516716999998607,['n'],1,right,['2'],5,0.4083639000000403,,,,,,,,32,18,Man,Rechts,2,
,xotask,xotask,xotask,31,2,151,151,main,negativefb,-99,easy,5,0.5675281000003451,['n'],1,right,['1'],6,0.3621037000011711,,,,,,,,32,18,Man,Rechts,2,
,xotask,xotask,xotask,32,2,152,152,main,negativefb,-99,average,17,0.7010371000014857,['n'],1,right,['1'],6,0.2005047000002378,,,,,,,,32,18,Man,Rechts,2,
,xotask,xotask,xotask,33,2,153,153,main,negativefb,-99,hard,27,0.7175162000003183,['n'],1,right,['1'],6,0.14849320000030275,,,,,,,,32,18,Man,Rechts,2,
,xotask,xotask,xotask,34,2,154,154,main,negativefb,-99,hard,28,0.5171755999999732,['n'],1,right,['1'],6,0.1307488000002195,,,,,,,,32,18,Man,Rechts,2,
,xotask,xotask,xotask,35,2,155,155,main,negativefb,-99,easy,74,0.6344338999988395,['c'],1,left,['1'],6,0.11788720000004105,,,,,,,,32,18,Man,Rechts,2,
,xotask,xotask,xotask,36,2,156,156,main,negativefb,-99,hard,52,0.6349398000002111,['n'],0,left,['1'],6,0.07215929999983928,,,,,,,,32,18,Man,Rechts,2,
,xotask,xotask,xotask,37,2,157,157,main,negativefb,-99,easy,8,0.6347246000004816,['n'],1,right,['1'],6,0.012608600000021397,,,,,,,,32,18,Man,Rechts,2,
,xotask,xotask,xotask,38,2,158,158,main,negativefb,-99,easy,72,0.6999716999998782,['c'],1,left,['1'],6,0.0009756999988894677,,,,,,,,32,18,Man,Rechts,2,
,xotask,xotask,xotask,39,2,159,159,main,negativefb,-99,average,18,0.6008529999999155,['n'],1,right,['1'],6,0.042102299999896786,,,,,,,,32,18,Man,Rechts,2,
,xotask,xotask,xotask,40,2,160,160,main,negativefb,-99,average,64,1.7341070999991643,['c'],1,left,['3'],4,0.6121681999993598,,,,,,,,32,18,Man,Rechts,2,
,xotask,xotask,xotask,41,2,161,161,main,negativefb,-99,average,63,1.2837974999983999,['n'],0,left,['3'],4,0.36142690000087896,,,,,,,,32,18,Man,Rechts,2,
,xotask,xotask,xotask,42,2,162,162,main,negativefb,-99,hard,27,0.933524000000034,['n'],1,right,['3'],4,0.22294570000121894,,,,,,,,32,18,Man,Rechts,2,
,xotask,xotask,xotask,43,2,163,163,main,negativefb,-99,easy,74,0.8510516999995161,['c'],1,left,['3'],4,0.7489566999993258,,,,,,,,32,18,Man,Rechts,2,
,xotask,xotask,xotask,44,2,164,164,main,negativefb,-99,hard,53,0.9173850999995921,['c'],1,left,['3'],4,0.19465670000136015,,,,,,,,32,18,Man,Rechts,2,
,xotask,xotask,xotask,45,2,165,165,main,negativefb,-99,easy,74,0.5833029999994324,['c'],1,left,['3'],4,0.09277020000081393,,,,,,,,32,18,Man,Rechts,2,
,xotask,xotask,xotask,46,2,166,166,main,negativefb,-99,average,16,0.8006853999995656,['n'],1,right,['1'],6,0.5783092000001488,,,,,,,,32,18,Man,Rechts,2,
,xotask,xotask,xotask,47,2,167,167,main,negativefb,-99,hard,52,0.9336672000008548,['c'],1,left,['2'],5,0.687068300001556,,,,,,,,32,18,Man,Rechts,2,
,xotask,xotask,xotask,48,2,168,168,main,negativefb,-99,average,17,0.5010462000009284,['n'],1,right,['1'],6,0.32851149999987683,,,,,,,,32,18,Man,Rechts,2,
,xotask,xotask,xotask,49,2,169,169,main,negativefb,-99,easy,5,0.5837606000004598,['n'],1,right,['1'],6,0.1408527999992657,,,,,,,,32,18,Man,Rechts,2,
,xotask,xotask,xotask,50,2,170,170,main,negativefb,-99,hard,27,0.6497835999998642,['n'],1,right,['1'],6,0.15781739999874844,,,,,,,,32,18,Man,Rechts,2,
,xotask,xotask,xotask,51,2,171,171,main,negativefb,-99,hard,52,0.7179032000003644,['c'],1,left,['2'],5,0.09153189999960887,,,,,,,,32,18,Man,Rechts,2,
,xotask,xotask,xotask,52,2,172,172,main,negativefb,-99,average,17,0.5348255999997491,['n'],1,right,['1'],6,0.08369440000024042,,,,,,,,32,18,Man,Rechts,2,
,xotask,xotask,xotask,53,2,173,173,main,negativefb,-99,average,60,0.801213300001109,['c'],1,left,['1'],6,0.15313120000064373,,,,,,,,32,18,Man,Rechts,2,
,xotask,xotask,xotask,54,2,174,174,main,negativefb,-99,hard,53,0.6011691000003339,['c'],1,left,['1'],6,0.13238369999999122,,,,,,,,32,18,Man,Rechts,2,
,xotask,xotask,xotask,55,2,175,175,main,negativefb,-99,average,15,0.6674865000004502,['n'],1,right,['1'],6,0.06104520000008051,,,,,,,,32,18,Man,Rechts,2,
,xotask,xotask,xotask,56,2,176,176,main,negativefb,-99,hard,53,0.9997832999997627,['c'],1,left,['2'],5,0.43531369999982417,,,,,,,,32,18,Man,Rechts,2,
,xotask,xotask,xotask,57,2,177,177,main,negativefb,-99,hard,25,0.6515142000007472,['n'],1,right,['1'],6,0.10481499999877997,,,,,,,,32,18,Man,Rechts,2,
,xotask,xotask,xotask,58,2,178,178,main,negativefb,-99,easy,71,0.6682599999985541,['c'],1,left,['1'],6,0.14683849999892118,,,,,,,,32,18,Man,Rechts,2,
,xotask,xotask,xotask,59,2,179,179,main,negativefb,-99,average,62,0.6003841000001557,['c'],1,left,['1'],6,0.1664560999997775,,,,,,,,32,18,Man,Rechts,2,
,xotask,xotask,xotask,0,3,180,180,main,negativefb,-99,hard,26,1.4169421000005968,['n'],1,right,['3'],4,0.42894259999957285,,,,,,,,32,18,Man,Rechts,2,
,xotask,xotask,xotask,1,3,181,181,main,negativefb,-99,average,60,0.6178546999999526,['c'],1,left,['2'],5,0.46899970000049507,,,,,,,,32,18,Man,Rechts,2,
,xotask,xotask,xotask,2,3,182,182,main,negativefb,-99,hard,52,0.5508694000000105,['c'],1,left,['1'],6,0.10987440000099014,,,,,,,,32,18,Man,Rechts,2,
,xotask,xotask,xotask,3,3,183,183,main,negativefb,-99,average,18,0.3504592000008415,['c'],0,right,['0'],1,2.267884499999127,,,,,,,,32,18,Man,Rechts,2,
,xotask,xotask,xotask,4,3,184,184,main,negativefb,-99,hard,29,2.300013100000797,['n'],1,right,['3'],4,0.7976268000002165,,,,,,,,32,18,Man,Rechts,2,
,xotask,xotask,xotask,5,3,185,185,main,negativefb,-99,average,62,0.68423249999978,['c'],1,left,['2'],5,0.27443180000045686,,,,,,,,32,18,Man,Rechts,2,
,xotask,xotask,xotask,6,3,186,186,main,negativefb,-99,hard,26,1.201358899999832,['n'],1,right,['3'],4,0.3769504000010784,,,,,,,,32,18,Man,Rechts,2,
,xotask,xotask,xotask,7,3,187,187,main,negativefb,-99,easy,6,0.5678255000002537,['n'],1,right,['1'],6,0.18812199999956647,,,,,,,,32,18,Man,Rechts,2,
,xotask,xotask,xotask,8,3,188,188,main,negativefb,-99,average,18,0.7995649999993475,['n'],1,right,['2'],5,0.5658588000005693,,,,,,,,32,18,Man,Rechts,2,
,xotask,xotask,xotask,9,3,189,189,main,negativefb,-99,easy,74,0.6007879000007961,['c'],1,left,['1'],6,0.1590955000010581,,,,,,,,32,18,Man,Rechts,2,
,xotask,xotask,xotask,10,3,190,190,main,negativefb,-99,average,15,0.6347284000003128,['n'],1,right,['1'],6,0.12916629999926954,,,,,,,,32,18,Man,Rechts,2,
,xotask,xotask,xotask,11,3,191,191,main,negativefb,-99,easy,8,0.5498196000007738,['n'],1,right,['1'],6,0.08710179999980028,,,,,,,,32,18,Man,Rechts,2,
,xotask,xotask,xotask,12,3,192,192,main,negativefb,-99,average,63,0.6174114999994345,['c'],1,left,['1'],6,0.13915850000012142,,,,,,,,32,18,Man,Rechts,2,
,xotask,xotask,xotask,13,3,193,193,main,negativefb,-99,hard,51,0.7002938000005088,['c'],1,left,['1'],6,0.1390017000012449,,,,,,,,32,18,Man,Rechts,2,
,xotask,xotask,xotask,14,3,194,194,main,negativefb,-99,hard,53,0.6001474999993661,['c'],1,left,['1'],6,0.20679609999933746,,,,,,,,32,18,Man,Rechts,2,
,xotask,xotask,xotask,15,3,195,195,main,negativefb,-99,average,19,0.6179899999988265,['n'],1,right,['1'],6,0.08650829999896814,,,,,,,,32,18,Man,Rechts,2,
,xotask,xotask,xotask,16,3,196,196,main,negativefb,-99,hard,52,1.0848131000002468,['c'],1,left,['3'],4,0.656627499998649,,,,,,,,32,18,Man,Rechts,2,
,xotask,xotask,xotask,17,3,197,197,main,negativefb,-99,average,16,0.5675457999986975,['n'],1,right,['1'],6,0.08044329999938782,,,,,,,,32,18,Man,Rechts,2,
,xotask,xotask,xotask,18,3,198,198,main,negativefb,-99,easy,71,0.7173706000012317,['c'],1,left,['1'],6,0.06561730000066746,,,,,,,,32,18,Man,Rechts,2,
,xotask,xotask,xotask,19,3,199,199,main,negativefb,-99,easy,71,0.7006522000010591,['c'],1,left,['1'],6,0.13168659999973897,,,,,,,,32,18,Man,Rechts,2,
,xotask,xotask,xotask,20,3,200,200,main,negativefb,-99,hard,52,0.7005417000000307,['c'],1,left,['2'],5,0.2508756999995967,,,,,,,,32,18,Man,Rechts,2,
,xotask,xotask,xotask,21,3,201,201,main,negativefb,-99,hard,25,1.1505732999994507,['n'],1,right,['1'],6,0.08289920000061102,,,,,,,,32,18,Man,Rechts,2,
,xotask,xotask,xotask,22,3,202,202,main,negativefb,-99,easy,9,0.9015529999996943,['n'],1,right,['2'],5,0.4845519999998942,,,,,,,,32,18,Man,Rechts,2,
,xotask,xotask,xotask,23,3,203,203,main,negativefb,-99,hard,51,1.0341542999995,['n'],0,left,['2'],5,0.42491850000078557,,,,,,,,32,18,Man,Rechts,2,
,xotask,xotask,xotask,24,3,204,204,main,negativefb,-99,easy,74,0.8174455000007583,['c'],1,left,['1'],6,0.12763669999912963,,,,,,,,32,18,Man,Rechts,2,
,xotask,xotask,xotask,25,3,205,205,main,negativefb,-99,hard,27,1.2170561000002635,['n'],1,right,['2'],5,0.6034651999998459,,,,,,,,32,18,Man,Rechts,2,
,xotask,xotask,xotask,26,3,206,206,main,negativefb,-99,easy,5,0.8844420000004902,['n'],1,right,['1'],6,0.06553440000061528,,,,,,,,32,18,Man,Rechts,2,
,xotask,xotask,xotask,27,3,207,207,main,negativefb,-99,easy,9,0.43399909999970987,['n'],1,right,['1'],6,0.10994270000082906,,,,,,,,32,18,Man,Rechts,2,
,xotask,xotask,xotask,28,3,208,208,main,negativefb,-99,easy,7,0.4676409000003332,['n'],1,right,['1'],6,0.10295320000113861,,,,,,,,32,18,Man,Rechts,2,
,xotask,xotask,xotask,29,3,209,209,main,negativefb,-99,average,61,1.3008759999993345,['c'],1,left,['3'],4,1.2088540000004286,,,,,,,,32,18,Man,Rechts,2,
,xotask,xotask,xotask,30,3,210,210,main,negativefb,-99,hard,25,0.8012358999985736,['n'],1,right,['1'],6,0.18477979999988747,,,,,,,,32,18,Man,Rechts,2,
,xotask,xotask,xotask,31,3,211,211,main,negativefb,-99,hard,27,0.9011173999988387,['n'],1,right,['2'],5,0.2624593000000459,,,,,,,,32,18,Man,Rechts,2,
,xotask,xotask,xotask,32,3,212,212,main,negativefb,-99,easy,74,0.634717200000523,['c'],1,left,['2'],5,0.1157855000001291,,,,,,,,32,18,Man,Rechts,2,
,xotask,xotask,xotask,33,3,213,213,main,negativefb,-99,average,64,0.6832728000008501,['c'],1,left,['2'],5,0.14805469999919296,,,,,,,,32,18,Man,Rechts,2,
,xotask,xotask,xotask,34,3,214,214,main,negativefb,-99,easy,70,1.1007246999997733,['c'],1,left,['3'],4,0.4510590999998385,,,,,,,,32,18,Man,Rechts,2,
,xotask,xotask,xotask,35,3,215,215,main,negativefb,-99,average,62,0.6844351999989158,['c'],1,left,['1'],6,0.16624320000119042,,,,,,,,32,18,Man,Rechts,2,
,xotask,xotask,xotask,36,3,216,216,main,negativefb,-99,hard,29,0.8342353000007279,['n'],1,right,['2'],5,0.2710473000006459,,,,,,,,32,18,Man,Rechts,2,
,xotask,xotask,xotask,37,3,217,217,main,negativefb,-99,easy,5,0.5510092999993503,['n'],1,right,['1'],6,0.08691170000020065,,,,,,,,32,18,Man,Rechts,2,
,xotask,xotask,xotask,38,3,218,218,main,negativefb,-99,hard,28,0.7005105000007461,['n'],1,right,['1'],6,0.38491810000050464,,,,,,,,32,18,Man,Rechts,2,
,xotask,xotask,xotask,39,3,219,219,main,negativefb,-99,average,17,0.5006325999984256,['n'],1,right,['1'],6,0.11748099999931583,,,,,,,,32,18,Man,Rechts,2,
,xotask,xotask,xotask,40,3,220,220,main,negativefb,-99,average,60,0.950326899999709,['n'],0,left,['2'],5,0.13149069999963103,,,,,,,,32,18,Man,Rechts,2,
,xotask,xotask,xotask,41,3,221,221,main,negativefb,-99,average,19,1.0667888999996649,['n'],1,right,['2'],5,0.1725642000001244,,,,,,,,32,18,Man,Rechts,2,
,xotask,xotask,xotask,42,3,222,222,main,negativefb,-99,easy,70,0.7353471000005811,['c'],1,left,['2'],5,0.15249279999989085,,,,,,,,32,18,Man,Rechts,2,
,xotask,xotask,xotask,43,3,223,223,main,negativefb,-99,average,64,1.8182070000002568,['c'],1,left,['3'],4,0.48339950000081444,,,,,,,,32,18,Man,Rechts,2,
,xotask,xotask,xotask,44,3,224,224,main,negativefb,-99,easy,71,0.9349729000005027,['c'],1,left,['2'],5,1.363056800000777,,,,,,,,32,18,Man,Rechts,2,
,xotask,xotask,xotask,45,3,225,225,main,negativefb,-99,easy,71,0.6334232999997766,['c'],1,left,['1'],6,0.3244269999995595,,,,,,,,32,18,Man,Rechts,2,
,xotask,xotask,xotask,46,3,226,226,main,negativefb,-99,average,15,0.6016856000005646,['n'],1,right,['1'],6,0.14397660000031465,,,,,,,,32,18,Man,Rechts,2,
,xotask,xotask,xotask,47,3,227,227,main,negativefb,-99,easy,6,0.4842590999996901,['n'],1,right,['1'],6,0.08782359999895561,,,,,,,,32,18,Man,Rechts,2,
,xotask,xotask,xotask,48,3,228,228,main,negativefb,-99,average,15,0.4509832000003371,['n'],1,right,['1'],6,0.09951030000047467,,,,,,,,32,18,Man,Rechts,2,
,xotask,xotask,xotask,49,3,229,229,main,negativefb,-99,easy,74,0.7513663999998244,['c'],1,left,['1'],6,0.24227480000081414,,,,,,,,32,18,Man,Rechts,2,
,xotask,xotask,xotask,50,3,230,230,main,negativefb,-99,hard,52,0.6009848000012425,['c'],1,left,['1'],6,0.04921140000078594,,,,,,,,32,18,Man,Rechts,2,
,xotask,xotask,xotask,51,3,231,231,main,negativefb,-99,average,62,0.5336438999984239,['c'],1,left,['1'],6,0.14690300000074785,,,,,,,,32,18,Man,Rechts,2,
,xotask,xotask,xotask,52,3,232,232,main,negativefb,-99,hard,51,0.6169934999998077,['n'],0,left,['1'],6,0.1415391999998974,,,,,,,,32,18,Man,Rechts,2,
,xotask,xotask,xotask,53,3,233,233,main,negativefb,-99,average,16,0.8668563999999606,['c'],0,right,['0'],1,1.9188947000002372,,,,,,,,32,18,Man,Rechts,2,
,xotask,xotask,xotask,54,3,234,234,main,negativefb,-99,hard,28,1.733977000001687,['n'],1,right,['1'],6,0.5089821000001393,,,,,,,,32,18,Man,Rechts,2,
,xotask,xotask,xotask,55,3,235,235,main,negativefb,-99,hard,52,1.1680214999996679,['n'],0,left,['2'],5,0.11466959999961546,,,,,,,,32,18,Man,Rechts,2,
,xotask,xotask,xotask,56,3,236,236,main,negativefb,-99,easy,7,0.5182298999989143,['n'],1,right,['1'],6,0.11441050000030373,,,,,,,,32,18,Man,Rechts,2,
,xotask,xotask,xotask,57,3,237,237,main,negativefb,-99,easy,6,0.5174280000010185,['n'],1,right,['1'],6,0.08960930000102962,,,,,,,,32,18,Man,Rechts,2,
,xotask,xotask,xotask,58,3,238,238,main,negativefb,-99,hard,52,1.16789129999961,['c'],1,left,['3'],4,0.7047781000001123,,,,,,,,32,18,Man,Rechts,2,
,xotask,xotask,xotask,59,3,239,239,main,negativefb,-99,average,64,0.9507464000016626,['c'],1,left,['2'],5,0.15859180000006745,,,,,,,,32,18,Man,Rechts,2,
,xotask,xotask,xotask,0,4,240,240,main,negativefb,-99,easy,7,0.6345524999996996,['n'],1,right,['2'],5,1.0594516000001022,,,,,,,,32,18,Man,Rechts,2,
,xotask,xotask,xotask,1,4,241,241,main,negativefb,-99,easy,71,0.6506623000004765,['c'],1,left,['1'],6,0.8715965999999753,,,,,,,,32,18,Man,Rechts,2,
,xotask,xotask,xotask,2,4,242,242,main,negativefb,-99,average,60,4.36812959999952,['c'],1,left,['2'],5,1.223032300000341,,,,,,,,32,18,Man,Rechts,2,
,xotask,xotask,xotask,3,4,243,243,main,negativefb,-99,easy,8,0.8843013999994582,['n'],1,right,['2'],5,0.9314080000003742,,,,,,,,32,18,Man,Rechts,2,
,xotask,xotask,xotask,4,4,244,244,main,negativefb,-99,average,18,0.7009453000009671,['n'],1,right,['2'],5,0.45931259999997565,,,,,,,,32,18,Man,Rechts,2,
,xotask,xotask,xotask,5,4,245,245,main,negativefb,-99,hard,54,1.167640499999834,['c'],1,left,['2'],5,0.5470879999993485,,,,,,,,32,18,Man,Rechts,2,
,xotask,xotask,xotask,6,4,246,246,main,negativefb,-99,hard,52,1.217399999999543,['n'],0,left,['3'],4,0.5810461000000942,,,,,,,,32,18,Man,Rechts,2,
,xotask,xotask,xotask,7,4,247,247,main,negativefb,-99,hard,26,1.0340283000005002,['n'],1,right,['2'],5,0.32614550000107556,,,,,,,,32,18,Man,Rechts,2,
,xotask,xotask,xotask,8,4,248,248,main,negativefb,-99,average,60,0.8841811000002053,['c'],1,left,['1'],6,0.3019551999987016,,,,,,,,32,18,Man,Rechts,2,
,xotask,xotask,xotask,9,4,249,249,main,negativefb,-99,average,17,0.6513109000006807,['n'],1,right,['1'],6,0.24844359999951848,,,,,,,,32,18,Man,Rechts,2,
,xotask,xotask,xotask,10,4,250,250,main,negativefb,-99,hard,53,0.8500488000008772,['c'],1,left,['1'],6,0.4372427999987849,,,,,,,,32,18,Man,Rechts,2,
,xotask,xotask,xotask,11,4,251,251,main,negativefb,-99,easy,73,0.768508600000132,['c'],1,left,['2'],5,0.33424080000077083,,,,,,,,32,18,Man,Rechts,2,
,xotask,xotask,xotask,12,4,252,252,main,negativefb,-99,hard,52,0.8847803999997268,['c'],1,left,['1'],6,0.17449149999993097,,,,,,,,32,18,Man,Rechts,2,
,xotask,xotask,xotask,13,4,253,253,main,negativefb,-99,average,62,0.6512008999998216,['c'],1,left,['2'],5,0.27854280000065046,,,,,,,,32,18,Man,Rechts,2,
,xotask,xotask,xotask,14,4,254,254,main,negativefb,-99,easy,6,0.6003591999997298,['n'],1,right,['1'],6,0.22804759999962698,,,,,,,,32,18,Man,Rechts,2,
,xotask,xotask,xotask,15,4,255,255,main,negativefb,-99,hard,29,1.2006332999990263,['c'],0,right,['2'],5,0.5079960000002757,,,,,,,,32,18,Man,Rechts,2,
,xotask,xotask,xotask,16,4,256,256,main,negativefb,-99,average,18,0.86705880000045,['c'],0,right,['2'],5,0.2945999999992637,,,,,,,,32,18,Man,Rechts,2,
,xotask,xotask,xotask,17,4,257,257,main,negativefb,-99,hard,27,1.200216499999442,['n'],1,right,['2'],5,0.33997570000065025,,,,,,,,32,18,Man,Rechts,2,
,xotask,xotask,xotask,18,4,258,258,main,negativefb,-99,easy,9,0.6844648000005691,['n'],1,right,['1'],6,0.17160390000026382,,,,,,,,32,18,Man,Rechts,2,
,xotask,xotask,xotask,19,4,259,259,main,negativefb,-99,easy,71,0.7175661000001128,['c'],1,left,['1'],6,0.12953610000113258,,,,,,,,32,18,Man,Rechts,2,
,xotask,xotask,xotask,20,4,260,260,main,negativefb,-99,average,63,0.8509878999993816,['c'],1,left,['2'],5,0.3628033000004507,,,,,,,,32,18,Man,Rechts,2,
,xotask,xotask,xotask,21,4,261,261,main,negativefb,-99,hard,52,1.4841519000001426,['n'],0,left,['2'],5,0.5225133999992977,,,,,,,,32,18,Man,Rechts,2,
,xotask,xotask,xotask,22,4,262,262,main,negativefb,-99,hard,50,0.9840160999992804,['c'],1,left,['2'],5,0.19879089999994903,,,,,,,,32,18,Man,Rechts,2,
,xotask,xotask,xotask,23,4,263,263,main,negativefb,-99,average,15,0.5510769000011351,['n'],1,right,['1'],6,0.1698443999994197,,,,,,,,32,18,Man,Rechts,2,
,xotask,xotask,xotask,24,4,264,264,main,negativefb,-99,easy,5,0.5842936000008194,['n'],1,right,['1'],6,0.18901700000060373,,,,,,,,32,18,Man,Rechts,2,
,xotask,xotask,xotask,25,4,265,265,main,negativefb,-99,easy,5,0.4506485999991128,['n'],1,right,['1'],6,0.13967070000035164,,,,,,,,32,18,Man,Rechts,2,
,xotask,xotask,xotask,26,4,266,266,main,negativefb,-99,average,64,0.6665477999995346,['c'],1,left,['1'],6,0.10865920000105689,,,,,,,,32,18,Man,Rechts,2,
,xotask,xotask,xotask,27,4,267,267,main,negativefb,-99,easy,74,0.7502581999997346,['c'],1,left,['1'],6,0.1468241999991733,,,,,,,,32,18,Man,Rechts,2,
,xotask,xotask,xotask,28,4,268,268,main,negativefb,-99,hard,26,1.100717999999688,['n'],1,right,['2'],5,0.4664764999997715,,,,,,,,32,18,Man,Rechts,2,
,xotask,xotask,xotask,29,4,269,269,main,negativefb,-99,hard,28,0.7014022000003024,['n'],1,right,['2'],5,0.10807199999908335,,,,,,,,32,18,Man,Rechts,2,
,xotask,xotask,xotask,30,4,270,270,main,negativefb,-99,easy,74,0.917453399999431,['c'],1,left,['1'],6,0.02029740000034508,,,,,,,,32,18,Man,Rechts,2,
,xotask,xotask,xotask,31,4,271,271,main,negativefb,-99,hard,51,0.8004912999986118,['n'],0,left,['1'],6,0.1243359000000055,,,,,,,,32,18,Man,Rechts,2,
,xotask,xotask,xotask,32,4,272,272,main,negativefb,-99,average,62,0.8342285000017,['n'],0,left,['2'],5,0.09471159999884549,,,,,,,,32,18,Man,Rechts,2,
,xotask,xotask,xotask,33,4,273,273,main,negativefb,-99,average,19,0.6003459999992629,['n'],1,right,['2'],5,0.11671749999914027,,,,,,,,32,18,Man,Rechts,2,
,xotask,xotask,xotask,34,4,274,274,main,negativefb,-99,average,64,1.0674039000004996,['c'],1,left,['2'],5,0.1181518999983382,,,,,,,,32,18,Man,Rechts,2,
,xotask,xotask,xotask,35,4,275,275,main,negativefb,-99,easy,71,0.8508949999995821,['c'],1,left,['2'],5,0.6640356999996584,,,,,,,,32,18,Man,Rechts,2,
,xotask,xotask,xotask,36,4,276,276,main,negativefb,-99,easy,9,0.5665929000006145,['n'],1,right,['2'],5,0.1114398000008805,,,,,,,,32,18,Man,Rechts,2,
,xotask,xotask,xotask,37,4,277,277,main,negativefb,-99,average,17,0.5846521000003122,['n'],1,right,['1'],6,0.1087667000010697,,,,,,,,32,18,Man,Rechts,2,
,xotask,xotask,xotask,38,4,278,278,main,negativefb,-99,average,61,1.1854495000006864,['c'],1,left,['2'],5,0.09843539999928907,,,,,,,,32,18,Man,Rechts,2,
,xotask,xotask,xotask,39,4,279,279,main,negativefb,-99,easy,6,0.6001748999988195,['n'],1,right,['1'],6,0.055051699999239645,,,,,,,,32,18,Man,Rechts,2,
,xotask,xotask,xotask,40,4,280,280,main,negativefb,-99,hard,51,1.1353300999999192,['c'],1,left,['1'],6,0.16874599999937345,,,,,,,,32,18,Man,Rechts,2,
,xotask,xotask,xotask,41,4,281,281,main,negativefb,-99,easy,6,0.6668740000004618,['n'],1,right,['1'],6,0.12736480000057782,,,,,,,,32,18,Man,Rechts,2,
,xotask,xotask,xotask,42,4,282,282,main,negativefb,-99,average,15,0.7840759999999136,['n'],1,right,['2'],5,0.2765393999998196,,,,,,,,32,18,Man,Rechts,2,
,xotask,xotask,xotask,43,4,283,283,main,negativefb,-99,easy,74,0.8015610000002198,['c'],1,left,['1'],6,0.16187950000130513,,,,,,,,32,18,Man,Rechts,2,
,xotask,xotask,xotask,44,4,284,284,main,negativefb,-99,average,60,0.7674514000009367,['c'],1,left,['2'],5,0.2380429999993794,,,,,,,,32,18,Man,Rechts,2,
,xotask,xotask,xotask,45,4,285,285,main,negativefb,-99,average,16,1.0002387000004092,['c'],0,right,['2'],5,0.1657666999999492,,,,,,,,32,18,Man,Rechts,2,
,xotask,xotask,xotask,46,4,286,286,main,negativefb,-99,hard,50,1.5511685000001307,['c'],1,left,['2'],5,0.034079900000506314,,,,,,,,32,18,Man,Rechts,2,
,xotask,xotask,xotask,47,4,287,287,main,negativefb,-99,hard,25,0.684258499999487,['n'],1,right,['1'],6,0.48505110000041896,,,,,,,,32,18,Man,Rechts,2,
,xotask,xotask,xotask,48,4,288,288,main,negativefb,-99,easy,74,0.5506478999996034,['c'],1,left,['1'],6,0.1654091000000335,,,,,,,,32,18,Man,Rechts,2,
,xotask,xotask,xotask,49,4,289,289,main,negativefb,-99,average,18,1.1174554999997781,['n'],1,right,['1'],6,0.1703882000001613,,,,,,,,32,18,Man,Rechts,2,
,xotask,xotask,xotask,50,4,290,290,main,negativefb,-99,average,16,1.2510096000005433,['n'],1,right,['1'],6,0.1542300000000978,,,,,,,,32,18,Man,Rechts,2,
,xotask,xotask,xotask,51,4,291,291,main,negativefb,-99,easy,7,1.217455500000142,['n'],1,right,['2'],5,0.14845419999983278,,,,,,,,32,18,Man,Rechts,2,
,xotask,xotask,xotask,52,4,292,292,main,negativefb,-99,hard,51,1.2333020999994915,['n'],0,left,['2'],5,0.197195599999759,,,,,,,,32,18,Man,Rechts,2,
,xotask,xotask,xotask,53,4,293,293,main,negativefb,-99,easy,73,0.9167449999986275,['c'],1,left,['1'],6,0.2814331999998103,,,,,,,,32,18,Man,Rechts,2,
,xotask,xotask,xotask,54,4,294,294,main,negativefb,-99,average,60,1.4022108000008302,['c'],1,left,['2'],5,0.20735380000041914,,,,,,,,32,18,Man,Rechts,2,
,xotask,xotask,xotask,55,4,295,295,main,negativefb,-99,hard,26,0.7847688999991078,['n'],1,right,['1'],6,0.16866209999898274,,,,,,,,32,18,Man,Rechts,2,
,xotask,xotask,xotask,56,4,296,296,main,negativefb,-99,hard,29,1.0170553000007203,['n'],1,right,['2'],5,0.23308750000069267,,,,,,,,32,18,Man,Rechts,2,
,xotask,xotask,xotask,57,4,297,297,main,negativefb,-99,easy,74,0.8015710999989096,['c'],1,left,['1'],6,0.4010882999991736,,,,,,,,32,18,Man,Rechts,2,
,xotask,xotask,xotask,58,4,298,298,main,negativefb,-99,hard,26,0.7504994000009901,['n'],1,right,['1'],6,0.2193308000005345,,,,,,,,32,18,Man,Rechts,2,
,xotask,xotask,xotask,59,4,299,299,main,negativefb,-99,hard,28,0.9019914000000426,['n'],1,right,['2'],5,0.11950450000040291,,,,,,,,32,18,Man,Rechts,2,
,xotask,xotask,xotask,0,0,0,300,training,negativefb,11,average,16,4.316849599999841,['c'],0,right,['3'],4,0.8016387999996368,,,,,,,,32,18,Man,Rechts,2,
,xotask,xotask,xotask,1,0,1,301,training,negativefb,83,average,15,1.0342906000005314,['n'],1,right,['2'],5,0.28824080000049435,,,,,,,,32,18,Man,Rechts,2,
,xotask,xotask,xotask,2,0,2,302,training,negativefb,83,easy,70,0.7505551999984164,['c'],1,left,['2'],5,0.17391519999910088,,,,,,,,32,18,Man,Rechts,2,
,xotask,xotask,xotask,3,0,3,303,training,negativefb,35,hard,25,0.5009253999996872,['n'],1,right,['1'],6,0.1641364999995858,,,,,,,,32,18,Man,Rechts,2,
,xotask,xotask,xotask,4,0,4,304,training,negativefb,23,average,62,0.6162633000003552,['n'],0,left,['2'],5,0.20508309999968333,,,,,,,,32,18,Man,Rechts,2,
,xotask,xotask,xotask,5,0,5,305,training,negativefb,44,hard,29,0.5338408999996318,['n'],1,right,['2'],5,0.25542680000035034,,,,,,,,32,18,Man,Rechts,2,
,xotask,xotask,xotask,6,0,6,306,training,negativefb,61,easy,72,0.6329575999989174,['c'],1,left,['2'],5,0.10050889999911305,,,,,,,,32,18,Man,Rechts,2,
,xotask,xotask,xotask,7,0,7,307,training,negativefb,72,easy,7,0.5498391000000993,['n'],1,right,['2'],5,0.07410720000007132,,,,,,,,32,18,Man,Rechts,2,
,xotask,xotask,xotask,8,0,8,308,training,negativefb,10,average,63,0.41693540000051144,['n'],0,left,['9'],2,1.9757526000012149,,,,,,,,32,18,Man,Rechts,2,
,xotask,xotask,xotask,9,0,9,309,training,negativefb,66,average,60,1.2500892999996722,['n'],0,left,['3'],4,1.2300167000012152,,,,,,,,32,18,Man,Rechts,2,
,xotask,xotask,xotask,10,0,10,310,training,negativefb,97,hard,29,0.7672074000001885,['n'],1,right,['2'],5,0.2629226999997627,,,,,,,,32,18,Man,Rechts,2,
,xotask,xotask,xotask,11,0,11,311,training,negativefb,72,average,17,0.666838999999527,['n'],1,right,['1'],6,0.1533619000001636,,,,,,,,32,18,Man,Rechts,2,
,xotask,xotask,xotask,12,0,12,312,training,negativefb,68,easy,9,0.7010086999998748,['n'],1,right,['1'],6,0.10372449999886157,,,,,,,,32,18,Man,Rechts,2,
,xotask,xotask,xotask,13,0,13,313,training,negativefb,88,average,60,1.0340611999999965,['c'],1,left,['2'],5,0.2821375999992597,,,,,,,,32,18,Man,Rechts,2,
,xotask,xotask,xotask,14,0,14,314,training,negativefb,82,easy,6,0.5337027000005037,['n'],1,right,['2'],5,0.12194559999988996,,,,,,,,32,18,Man,Rechts,2,
,xotask,xotask,xotask,15,0,15,315,training,negativefb,45,hard,54,0.7013485999996192,['c'],1,left,['1'],6,0.15329160000146658,,,,,,,,32,18,Man,Rechts,2,
,xotask,xotask,xotask,16,0,16,316,training,negativefb,66,average,15,2.4836403999997856,['n'],1,right,['1'],6,0.8955574999999953,,,,,,,,32,18,Man,Rechts,2,
,xotask,xotask,xotask,17,0,17,317,training,negativefb,67,easy,5,0.7163602000000537,['n'],1,right,['1'],6,0.0882739999997284,,,,,,,,32,18,Man,Rechts,2,
,xotask,xotask,xotask,18,0,18,318,training,negativefb,49,average,62,0.9345341000007465,['c'],1,left,['1'],6,0.046946000000389176,,,,,,,,32,18,Man,Rechts,2,
,xotask,xotask,xotask,19,0,19,319,training,negativefb,28,hard,52,1.4003968999986682,['c'],1,left,['2'],5,0.2293890000000829,,,,,,,,32,18,Man,Rechts,2,
,xotask,xotask,xotask,20,0,20,320,training,negativefb,52,easy,9,0.8000294000012218,['n'],1,right,['1'],6,0.20502719999967667,,,,,,,,32,18,Man,Rechts,2,
,xotask,xotask,xotask,21,0,21,321,training,negativefb,50,average,62,0.8828598000000056,['c'],1,left,['1'],6,0.09835569999995641,,,,,,,,32,18,Man,Rechts,2,
,xotask,xotask,xotask,22,0,22,322,training,negativefb,71,easy,8,0.7331107999998494,['n'],1,right,['1'],6,0.1449929999998858,,,,,,,,32,18,Man,Rechts,2,
,xotask,xotask,xotask,23,0,23,323,training,negativefb,87,average,18,0.6008947000009357,['n'],1,right,['1'],6,0.09096620000127587,,,,,,,,32,18,Man,Rechts,2,
,xotask,xotask,xotask,24,0,24,324,training,negativefb,63,easy,70,0.6011885999996593,['c'],1,left,['1'],6,0.12004720000004454,,,,,,,,32,18,Man,Rechts,2,
,xotask,xotask,xotask,25,0,25,325,training,negativefb,49,hard,28,0.6005742999986978,['n'],1,right,['1'],6,0.04275140000027022,,,,,,,,32,18,Man,Rechts,2,
,xotask,xotask,xotask,26,0,26,326,training,negativefb,75,easy,73,0.6164540000008856,['c'],1,left,['1'],6,0.08866500000112865,,,,,,,,32,18,Man,Rechts,2,
,xotask,xotask,xotask,27,0,27,327,training,negativefb,86,hard,54,0.9011504000009154,['c'],1,left,['2'],5,0.20181890000094427,,,,,,,,32,18,Man,Rechts,2,
,xotask,xotask,xotask,28,0,28,328,training,negativefb,23,hard,53,0.7162595999998302,['c'],1,left,['2'],5,0.14107349999903818,,,,,,,,32,18,Man,Rechts,2,
,xotask,xotask,xotask,29,0,29,329,training,negativefb,40,hard,26,0.6667852999999013,['n'],1,right,['1'],6,0.08587079999961134,,,,,,,,32,18,Man,Rechts,2,
,xotask,xotask,xotask,30,0,30,330,training,negativefb,96,hard,54,0.9674515999995492,['n'],0,left,['2'],5,0.7796618000011222,,,,,,,,32,18,Man,Rechts,2,
,xotask,xotask,xotask,31,0,31,331,training,negativefb,42,average,63,0.7838828000003559,['n'],0,left,['3'],4,0.7650503000004392,,,,,,,,32,18,Man,Rechts,2,
,xotask,xotask,xotask,32,0,32,332,training,negativefb,76,average,19,0.5343506999997771,['n'],1,right,['1'],6,0.34527759999946284,,,,,,,,32,18,Man,Rechts,2,
,xotask,xotask,xotask,33,0,33,333,training,negativefb,77,average,18,1.0169879000004585,['n'],1,right,['1'],6,0.29969809999965946,,,,,,,,32,18,Man,Rechts,2,
,xotask,xotask,xotask,34,0,34,334,training,negativefb,59,easy,73,0.8505607999995846,['n'],0,left,['1'],6,0.6615345999998681,,,,,,,,32,18,Man,Rechts,2,
,xotask,xotask,xotask,35,0,35,335,training,negativefb,75,average,60,1.8677528000007442,['c'],1,left,['1'],6,0.6482598999991751,,,,,,,,32,18,Man,Rechts,2,
,xotask,xotask,xotask,36,0,36,336,training,negativefb,83,easy,71,0.9513582000017777,['c'],1,left,['1'],6,0.3291356999998243,,,,,,,,32,18,Man,Rechts,2,
,xotask,xotask,xotask,37,0,37,337,training,negativefb,18,hard,28,1.0504731000000902,['c'],0,right,['1'],6,0.5858772999999928,,,,,,,,32,18,Man,Rechts,2,
,xotask,xotask,xotask,38,0,38,338,training,negativefb,84,hard,50,0.9834976999991341,['c'],1,left,['2'],5,1.3871093999987352,,,,,,,,32,18,Man,Rechts,2,
,xotask,xotask,xotask,39,0,39,339,training,negativefb,90,average,17,0.8834063000012975,['n'],1,right,['1'],6,0.24085399999967194,,,,,,,,32,18,Man,Rechts,2,
,xotask,xotask,xotask,40,0,40,340,training,negativefb,34,hard,27,1.066323299999567,['c'],0,right,['1'],6,0.2929493999999977,,,,,,,,32,18,Man,Rechts,2,
,xotask,xotask,xotask,41,0,41,341,training,negativefb,50,hard,54,0.8003353999993124,['c'],1,left,['1'],6,0.2650022000016179,,,,,,,,32,18,Man,Rechts,2,
,xotask,xotask,xotask,42,0,42,342,training,negativefb,48,easy,73,0.7332160999994812,['c'],1,left,['1'],6,0.16126509999958216,,,,,,,,32,18,Man,Rechts,2,
,xotask,xotask,xotask,43,0,43,343,training,negativefb,82,easy,5,1.2167905000005703,['n'],1,right,['1'],6,0.19459030000143684,,,,,,,,32,18,Man,Rechts,2,
,xotask,xotask,xotask,44,0,44,344,training,negativefb,70,average,63,0.867136599999867,['c'],1,left,['1'],6,0.09599100000014005,,,,,,,,32,18,Man,Rechts,2,
,xotask,xotask,xotask,45,0,45,345,training,negativefb,85,hard,51,0.8001254999999219,['n'],0,left,['2'],5,0.38123430000086955,,,,,,,,32,18,Man,Rechts,2,
,xotask,xotask,xotask,46,0,46,346,training,negativefb,64,hard,29,0.6998128000013821,['n'],1,right,['1'],6,0.3705699000001914,,,,,,,,32,18,Man,Rechts,2,
,xotask,xotask,xotask,47,0,47,347,training,negativefb,69,easy,74,0.6676496000000043,['c'],1,left,['2'],5,0.3369256000005407,,,,,,,,32,18,Man,Rechts,2,
,xotask,xotask,xotask,48,0,48,348,training,negativefb,74,hard,26,0.9834723999993003,['n'],1,right,['2'],5,0.29989279999972496,,,,,,,,32,18,Man,Rechts,2,
,xotask,xotask,xotask,49,0,49,349,training,negativefb,64,hard,52,0.6167977999994037,['n'],0,left,['2'],5,0.1430342000003293,,,,,,,,32,18,Man,Rechts,2,
,xotask,xotask,xotask,50,0,50,350,training,negativefb,72,hard,25,0.6172121000017796,['n'],1,right,['2'],5,0.12124330000006012,,,,,,,,32,18,Man,Rechts,2,
,xotask,xotask,xotask,51,0,51,351,training,negativefb,59,easy,7,0.5665996000006999,['n'],1,right,['2'],5,0.11813280000023951,,,,,,,,32,18,Man,Rechts,2,
,xotask,xotask,xotask,52,0,52,352,training,negativefb,66,average,16,0.5166257999990194,['n'],1,right,['2'],5,0.10861939999995229,,,,,,,,32,18,Man,Rechts,2,
,xotask,xotask,xotask,53,0,53,353,training,negativefb,57,easy,73,0.7845741000000999,['c'],1,left,['2'],5,0.0009757000007084571,,,,,,,,32,18,Man,Rechts,2,
,xotask,xotask,xotask,54,0,54,354,training,negativefb,69,average,18,0.5338246999999683,['n'],1,right,['2'],5,0.03566789999968023,,,,,,,,32,18,Man,Rechts,2,
,xotask,xotask,xotask,55,0,55,355,training,negativefb,63,hard,54,0.7331942000000709,['c'],1,left,['2'],5,0.013547200000175508,,,,,,,,32,18,Man,Rechts,2,
,xotask,xotask,xotask,56,0,56,356,training,negativefb,57,easy,7,0.7667443999998795,['n'],1,right,['1'],6,0.14253649999955087,,,,,,,,32,18,Man,Rechts,2,
,xotask,xotask,xotask,57,0,57,357,training,negativefb,56,easy,70,0.6336086999999679,['c'],1,left,['1'],6,0.10361620000003313,,,,,,,,32,18,Man,Rechts,2,
,xotask,xotask,xotask,58,0,58,358,training,negativefb,30,average,60,0.9829910000007658,['n'],0,left,['2'],5,0.22815239999908954,,,,,,,,32,18,Man,Rechts,2,
,xotask,xotask,xotask,59,0,59,359,training,negativefb,82,easy,7,0.5665334000004805,['n'],1,right,['1'],6,0.0849197000006825,,,,,,,,32,18,Man,Rechts,2,
,xotask,xotask,xotask,0,1,60,360,training,negativefb,51,average,17,0.6519533000009687,['n'],1,right,['1'],6,0.18478669999967678,,,,,,,,32,18,Man,Rechts,2,
,xotask,xotask,xotask,1,1,61,361,training,negativefb,67,hard,25,1.5171708999987459,['n'],1,right,['1'],6,0.29232560000127705,,,,,,,,32,18,Man,Rechts,2,
,xotask,xotask,xotask,2,1,62,362,training,negativefb,60,average,63,1.1176083000009385,['c'],1,left,['2'],5,0.2608180999995966,,,,,,,,32,18,Man,Rechts,2,
,xotask,xotask,xotask,3,1,63,363,training,negativefb,91,easy,6,1.0671245000012277,['n'],1,right,['1'],6,0.3681825999992725,,,,,,,,32,18,Man,Rechts,2,
,xotask,xotask,xotask,4,1,64,364,training,negativefb,33,hard,25,0.5325935000000754,['n'],1,right,['1'],6,0.24378710000019055,,,,,,,,32,18,Man,Rechts,2,
,xotask,xotask,xotask,5,1,65,365,training,negativefb,44,hard,25,0.5004186999995,['n'],1,right,['1'],6,0.12736270000095828,,,,,,,,32,18,Man,Rechts,2,
,xotask,xotask,xotask,6,1,66,366,training,negativefb,87,easy,71,0.5662964999992255,['n'],0,left,['1'],6,0.13904009999896516,,,,,,,,32,18,Man,Rechts,2,
,xotask,xotask,xotask,7,1,67,367,training,negativefb,62,easy,5,0.4667829999998503,['n'],1,right,['1'],6,0.14745399999992514,,,,,,,,32,18,Man,Rechts,2,
,xotask,xotask,xotask,8,1,68,368,training,negativefb,16,average,63,0.3675463999989006,['n'],0,left,['2'],5,0.4945836999995663,,,,,,,,32,18,Man,Rechts,2,
,xotask,xotask,xotask,9,1,69,369,training,negativefb,24,easy,70,0.43346030000066094,['n'],0,left,['2'],5,0.3935899000007339,,,,,,,,32,18,Man,Rechts,2,
,xotask,xotask,xotask,10,1,70,370,training,negativefb,62,average,17,0.4997927000003983,['n'],1,right,['1'],6,0.1988839999994525,,,,,,,,32,18,Man,Rechts,2,
,xotask,xotask,xotask,11,1,71,371,training,negativefb,76,hard,28,0.5170547000016086,['n'],1,right,['1'],6,0.08227919999990263,,,,,,,,32,18,Man,Rechts,2,
,xotask,xotask,xotask,12,1,72,372,training,negativefb,57,average,18,0.5161674999999377,['n'],1,right,['1'],6,0.017899800001032418,,,,,,,,32,18,Man,Rechts,2,
,xotask,xotask,xotask,13,1,73,373,training,negativefb,46,easy,74,0.7504365999993752,['c'],1,left,['1'],6,0.09926200000154495,,,,,,,,32,18,Man,Rechts,2,
,xotask,xotask,xotask,14,1,74,374,training,negativefb,47,average,16,0.6174647999996523,['n'],1,right,['2'],5,0.3345891999997548,,,,,,,,32,18,Man,Rechts,2,
,xotask,xotask,xotask,15,1,75,375,training,negativefb,53,average,16,0.566955099999177,['n'],1,right,['1'],6,0.09859300000061921,,,,,,,,32,18,Man,Rechts,2,
,xotask,xotask,xotask,16,1,76,376,training,negativefb,72,hard,26,0.767301399999269,['n'],1,right,['2'],5,0.535845700000209,,,,,,,,32,18,Man,Rechts,2,
,xotask,xotask,xotask,17,1,77,377,training,negativefb,63,easy,73,0.6669117999990704,['c'],1,left,['1'],6,0.04759529999864753,,,,,,,,32,18,Man,Rechts,2,
,xotask,xotask,xotask,18,1,78,378,training,negativefb,44,average,63,1.3006862000002002,['c'],1,left,['2'],5,0.29001720000087516,,,,,,,,32,18,Man,Rechts,2,
,xotask,xotask,xotask,19,1,79,379,training,negativefb,36,average,62,0.6658450000013545,['c'],1,left,['2'],5,0.33191290000104345,,,,,,,,32,18,Man,Rechts,2,
,xotask,xotask,xotask,20,1,80,380,training,negativefb,23,hard,50,0.8167231000006723,['n'],0,left,['2'],5,0.7504484999990382,,,,,,,,32,18,Man,Rechts,2,
,xotask,xotask,xotask,21,1,81,381,training,negativefb,45,easy,8,0.6008759000014834,['n'],1,right,['1'],6,0.43202500000006694,,,,,,,,32,18,Man,Rechts,2,
,xotask,xotask,xotask,22,1,82,382,training,negativefb,75,average,64,1.3664189999999508,['c'],1,left,['2'],5,1.0405417999991187,,,,,,,,32,18,Man,Rechts,2,
,xotask,xotask,xotask,23,1,83,383,training,negativefb,48,hard,51,1.300298099999054,['c'],1,left,['2'],5,0.7466172000004008,,,,,,,,32,18,Man,Rechts,2,
,xotask,xotask,xotask,24,1,84,384,training,negativefb,97,easy,70,0.7506038999999873,['c'],1,left,['3'],4,0.7668508999995538,,,,,,,,32,18,Man,Rechts,2,
,xotask,xotask,xotask,25,1,85,385,training,negativefb,60,average,63,0.749994499999957,['c'],1,left,['3'],4,0.4183733999998367,,,,,,,,32,18,Man,Rechts,2,
,xotask,xotask,xotask,26,1,86,386,training,negativefb,65,easy,73,0.7333743999988656,['c'],1,left,['2'],5,0.6524620000000141,,,,,,,,32,18,Man,Rechts,2,
,xotask,xotask,xotask,27,1,87,387,training,negativefb,77,hard,54,0.716701399998783,['c'],1,left,['2'],5,0.19798719999926107,,,,,,,,32,18,Man,Rechts,2,
,xotask,xotask,xotask,28,1,88,388,training,negativefb,84,average,63,1.1176431000003504,['c'],1,left,['3'],4,0.4894522999984474,,,,,,,,32,18,Man,Rechts,2,
,xotask,xotask,xotask,29,1,89,389,training,negativefb,97,easy,6,0.7163271000008535,['n'],1,right,['1'],6,0.3132394000003842,,,,,,,,32,18,Man,Rechts,2,
,xotask,xotask,xotask,30,1,90,390,training,negativefb,90,easy,9,0.5169803999997384,['n'],1,right,['1'],6,0.09657589999915217,,,,,,,,32,18,Man,Rechts,2,
,xotask,xotask,xotask,31,1,91,391,training,negativefb,29,hard,52,0.6667902000008326,['n'],0,left,['2'],5,0.578876699999455,,,,,,,,32,18,Man,Rechts,2,
,xotask,xotask,xotask,32,1,92,392,training,negativefb,65,hard,51,0.7669251000006625,['n'],0,left,['1'],6,0.26132089999919117,,,,,,,,32,18,Man,Rechts,2,
,xotask,xotask,xotask,33,1,93,393,training,negativefb,71,hard,28,0.8496050000012474,['n'],1,right,['2'],5,0.31371089999993274,,,,,,,,32,18,Man,Rechts,2,
,xotask,xotask,xotask,34,1,94,394,training,negativefb,76,hard,29,0.6669934000001376,['n'],1,right,['1'],6,0.3147642000003543,,,,,,,,32,18,Man,Rechts,2,
,xotask,xotask,xotask,35,1,95,395,training,negativefb,70,hard,29,0.63276709999991,['n'],1,right,['1'],6,0.22072369999841612,,,,,,,,32,18,Man,Rechts,2,
,xotask,xotask,xotask,36,1,96,396,training,negativefb,57,average,17,1.2008679999999003,['n'],1,right,['1'],6,0.18812380000053963,,,,,,,,32,18,Man,Rechts,2,
,xotask,xotask,xotask,37,1,97,397,training,negativefb,37,average,62,0.9834864000004018,['c'],1,left,['1'],6,0.16552149999915855,,,,,,,,32,18,Man,Rechts,2,
,xotask,xotask,xotask,38,1,98,398,training,negativefb,65,average,62,0.7340907999987394,['c'],1,left,['1'],6,0.42561810000006517,,,,,,,,32,18,Man,Rechts,2,
,xotask,xotask,xotask,39,1,99,399,training,negativefb,36,average,17,0.9334005000000616,['c'],0,right,['1'],6,0.20368580000103975,,,,,,,,32,18,Man,Rechts,2,
,xotask,xotask,xotask,40,1,100,400,training,negativefb,49,easy,8,0.5663352999999915,['c'],0,right,['1'],6,0.06927680000080727,,,,,,,,32,18,Man,Rechts,2,
,xotask,xotask,xotask,41,1,101,401,training,negativefb,3,easy,9,0.6168071000010968,['c'],0,right,['9'],2,2.0339729999996052,,,,,,,,32,18,Man,Rechts,2,
,xotask,xotask,xotask,42,1,102,402,training,negativefb,94,easy,74,0.9672797000002902,['c'],1,left,['1'],6,0.5932668000004924,,,,,,,,32,18,Man,Rechts,2,
,xotask,xotask,xotask,43,1,103,403,training,negativefb,84,average,16,0.5666651000010461,['n'],1,right,['1'],6,0.27532760000030976,,,,,,,,32,18,Man,Rechts,2,
,xotask,xotask,xotask,44,1,104,404,training,negativefb,80,hard,53,0.6330656000009185,['c'],1,left,['1'],6,0.12683900000047288,,,,,,,,32,18,Man,Rechts,2,
,xotask,xotask,xotask,45,1,105,405,training,negativefb,76,easy,7,0.666349099999934,['n'],1,right,['1'],6,0.12762750000001688,,,,,,,,32,18,Man,Rechts,2,
,xotask,xotask,xotask,46,1,106,406,training,negativefb,38,easy,72,4.250284499999907,['c'],1,left,['2'],5,1.0646088000012242,,,,,,,,32,18,Man,Rechts,2,
,xotask,xotask,xotask,47,1,107,407,training,negativefb,74,easy,5,0.5000429000010627,['n'],1,right,['1'],6,0.19367379999857803,,,,,,,,32,18,Man,Rechts,2,
,xotask,xotask,xotask,48,1,108,408,training,negativefb,74,average,16,0.4990586000003532,['n'],1,right,['1'],6,0.15879059999861056,,,,,,,,32,18,Man,Rechts,2,
,xotask,xotask,xotask,49,1,109,409,training,negativefb,71,hard,25,0.5516989000007015,['n'],1,right,['1'],6,0.10654100000101607,,,,,,,,32,18,Man,Rechts,2,
,xotask,xotask,xotask,50,1,110,410,training,negativefb,81,easy,8,1.0830998999990697,['n'],1,right,['1'],6,0.24406140000064624,,,,,,,,32,18,Man,Rechts,2,
,xotask,xotask,xotask,51,1,111,411,training,negativefb,46,hard,50,0.8829925000009098,['n'],0,left,['2'],5,0.11886149999918416,,,,,,,,32,18,Man,Rechts,2,
,xotask,xotask,xotask,52,1,112,412,training,negativefb,63,easy,70,0.816146099999969,['c'],1,left,['1'],6,0.12155799999891315,,,,,,,,32,18,Man,Rechts,2,
,xotask,xotask,xotask,53,1,113,413,training,negativefb,65,average,17,1.2169902000005095,['n'],1,right,['2'],5,0.2924345999999787,,,,,,,,32,18,Man,Rechts,2,
,xotask,xotask,xotask,54,1,114,414,training,negativefb,32,easy,70,0.7166573000013159,['c'],1,left,['2'],5,0.18805800000154704,,,,,,,,32,18,Man,Rechts,2,
,xotask,xotask,xotask,55,1,115,415,training,negativefb,45,average,61,0.6673181999994995,['n'],0,left,['2'],5,0.22606439999981376,,,,,,,,32,18,Man,Rechts,2,
,xotask,xotask,xotask,56,1,116,416,training,negativefb,72,hard,52,0.583656400000109,['n'],0,left,['2'],5,0.26602510000157054,,,,,,,,32,18,Man,Rechts,2,
,xotask,xotask,xotask,57,1,117,417,training,negativefb,76,hard,25,1.065692799998942,['n'],1,right,['2'],5,0.30033480000020063,,,,,,,,32,18,Man,Rechts,2,
,xotask,xotask,xotask,58,1,118,418,training,negativefb,71,hard,51,1.8010193999998592,['c'],1,left,['3'],4,0.23231699999996636,,,,,,,,32,18,Man,Rechts,2,
,xotask,xotask,xotask,59,1,119,419,training,negativefb,66,hard,53,1.5002826999989338,['n'],0,left,['2'],5,0.5230348000004597,,,,,,,,32,18,Man,Rechts,2,
,dotcolour,xotask,xotask,0,2,120,420,main,negativefb,-99,hard,,0.8168721999991249,['n'],1,right,['2'],5,1.2464228000008006,36,,,,,,,32,18,Man,Rechts,2,
,dotcolour,xotask,xotask,1,2,121,421,main,negativefb,-99,average,,1.100914599999669,['c'],1,left,['2'],5,0.20988620000025549,51,,,,,,,32,18,Man,Rechts,2,
,dotcolour,xotask,xotask,2,2,122,422,main,negativefb,-99,hard,,1.3177912999999535,['n'],1,right,['2'],5,0.2534881999999925,39,,,,,,,32,18,Man,Rechts,2,
,dotcolour,xotask,xotask,3,2,123,423,main,negativefb,-99,average,,0.9852731000009953,['n'],1,right,['3'],4,0.5729770000016288,29,,,,,,,32,18,Man,Rechts,2,
,dotcolour,xotask,xotask,4,2,124,424,main,negativefb,-99,hard,,1.2174898000012035,['n'],1,right,['3'],4,0.22204899999996996,35,,,,,,,32,18,Man,Rechts,2,
,dotcolour,xotask,xotask,5,2,125,425,main,negativefb,-99,hard,,0.9011398000002373,['c'],0,right,['2'],5,0.14615279999998165,38,,,,,,,32,18,Man,Rechts,2,
,dotcolour,xotask,xotask,6,2,126,426,main,negativefb,-99,easy,,0.5837436999991041,['c'],1,left,['2'],5,0.42170510000141803,61,,,,,,,32,18,Man,Rechts,2,
,dotcolour,xotask,xotask,7,2,127,427,main,negativefb,-99,average,,0.6010869999990973,['c'],1,left,['1'],6,0.18262899999899673,52,,,,,,,32,18,Man,Rechts,2,
,dotcolour,xotask,xotask,8,2,128,428,main,negativefb,-99,easy,,0.9350215000013122,['c'],1,left,['1'],6,0.2979285000001255,62,,,,,,,32,18,Man,Rechts,2,
,dotcolour,xotask,xotask,9,2,129,429,main,negativefb,-99,hard,,0.7172136999997747,['n'],1,right,['2'],5,0.2587073999984568,36,,,,,,,32,18,Man,Rechts,2,
,dotcolour,xotask,xotask,10,2,130,430,main,negativefb,-99,easy,,0.8016306999998051,['c'],1,left,['1'],6,0.23286130000087724,64,,,,,,,32,18,Man,Rechts,2,
,dotcolour,xotask,xotask,11,2,131,431,main,negativefb,-99,average,,0.7339829000011378,['c'],1,left,['1'],6,0.22672369999963848,54,,,,,,,32,18,Man,Rechts,2,
,dotcolour,xotask,xotask,12,2,132,432,main,negativefb,-99,easy,,0.6174746999986382,['n'],1,right,['1'],6,0.21000269999967713,15,,,,,,,32,18,Man,Rechts,2,
,dotcolour,xotask,xotask,13,2,133,433,main,negativefb,-99,hard,,0.7346051000004081,['c'],1,left,['2'],5,0.42949249999946915,42,,,,,,,32,18,Man,Rechts,2,
,dotcolour,xotask,xotask,14,2,134,434,main,negativefb,-99,hard,,0.8517734999986715,['n'],0,left,['2'],5,0.5950142000001506,42,,,,,,,32,18,Man,Rechts,2,
,dotcolour,xotask,xotask,15,2,135,435,main,negativefb,-99,hard,,0.734480999999505,['n'],0,left,['2'],5,0.27895410000019183,43,,,,,,,32,18,Man,Rechts,2,
,dotcolour,xotask,xotask,16,2,136,436,main,negativefb,-99,average,,0.6839869000014005,['c'],1,left,['1'],6,0.23386089999985415,53,,,,,,,32,18,Man,Rechts,2,
,dotcolour,xotask,xotask,17,2,137,437,main,negativefb,-99,hard,,0.7164295000002312,['c'],1,left,['2'],5,0.1808043999990332,45,,,,,,,32,18,Man,Rechts,2,
,dotcolour,xotask,xotask,18,2,138,438,main,negativefb,-99,easy,,0.6338973000001715,['c'],1,left,['1'],6,0.47831419999965874,61,,,,,,,32,18,Man,Rechts,2,
,dotcolour,xotask,xotask,19,2,139,439,main,negativefb,-99,average,,0.700572399999146,['n'],1,right,['2'],5,0.670912399998997,28,,,,,,,32,18,Man,Rechts,2,
,dotcolour,xotask,xotask,20,2,140,440,main,negativefb,-99,easy,,0.7509580000005371,['n'],1,right,['1'],6,0.25559079999948153,16,,,,,,,32,18,Man,Rechts,2,
,dotcolour,xotask,xotask,21,2,141,441,main,negativefb,-99,average,,0.7337686000009853,['c'],1,left,['1'],6,0.18531229999825882,54,,,,,,,32,18,Man,Rechts,2,
,dotcolour,xotask,xotask,22,2,142,442,main,negativefb,-99,easy,,0.6511454999999842,['n'],1,right,['1'],6,0.12782510000033653,18,,,,,,,32,18,Man,Rechts,2,
,dotcolour,xotask,xotask,23,2,143,443,main,negativefb,-99,easy,,0.6671898000004148,['c'],1,left,['1'],6,0.14554359999965527,64,,,,,,,32,18,Man,Rechts,2,
,dotcolour,xotask,xotask,24,2,144,444,main,negativefb,-99,hard,,1.0838937999997142,['c'],1,left,['1'],6,0.21024779999970633,42,,,,,,,32,18,Man,Rechts,2,
,dotcolour,xotask,xotask,25,2,145,445,main,negativefb,-99,hard,,1.084491600000547,['c'],1,left,['2'],5,0.6068498999993608,41,,,,,,,32,18,Man,Rechts,2,
,dotcolour,xotask,xotask,26,2,146,446,main,negativefb,-99,easy,,0.7678636000000552,['n'],1,right,['1'],6,0.13664470000003348,19,,,,,,,32,18,Man,Rechts,2,
,dotcolour,xotask,xotask,27,2,147,447,main,negativefb,-99,easy,,0.7174200999997993,['c'],1,left,['1'],6,0.12695589999930235,62,,,,,,,32,18,Man,Rechts,2,
,dotcolour,xotask,xotask,28,2,148,448,main,negativefb,-99,hard,,1.1671822999996948,['n'],0,left,['2'],5,0.30064970000057656,44,,,,,,,32,18,Man,Rechts,2,
,dotcolour,xotask,xotask,29,2,149,449,main,negativefb,-99,average,,0.66723920000004,['n'],1,right,['1'],6,0.09416319999945699,25,,,,,,,32,18,Man,Rechts,2,
,dotcolour,xotask,xotask,30,2,150,450,main,negativefb,-99,easy,,0.6346603000001778,['n'],1,right,['1'],6,0.2670022999991488,18,,,,,,,32,18,Man,Rechts,2,
,dotcolour,xotask,xotask,31,2,151,451,main,negativefb,-99,hard,,0.8353587000001426,['n'],1,right,['2'],5,0.21624879999944824,37,,,,,,,32,18,Man,Rechts,2,
,dotcolour,xotask,xotask,32,2,152,452,main,negativefb,-99,average,,0.5681841000005079,['n'],1,right,['2'],5,0.08871750000071188,26,,,,,,,32,18,Man,Rechts,2,
,dotcolour,xotask,xotask,33,2,153,453,main,negativefb,-99,hard,,1.0002363999992667,['c'],1,left,['2'],5,0.20607729999937874,44,,,,,,,32,18,Man,Rechts,2,
,dotcolour,xotask,xotask,34,2,154,454,main,negativefb,-99,easy,,0.7175697999991826,['n'],1,right,['1'],6,0.017997399998421315,15,,,,,,,32,18,Man,Rechts,2,
,dotcolour,xotask,xotask,35,2,155,455,main,negativefb,-99,easy,,0.6010298999990482,['c'],1,left,['1'],6,0.20226799999909417,65,,,,,,,32,18,Man,Rechts,2,
,dotcolour,xotask,xotask,36,2,156,456,main,negativefb,-99,easy,,0.8837885000011738,['c'],1,left,['1'],6,0.15963560000091093,62,,,,,,,32,18,Man,Rechts,2,
,dotcolour,xotask,xotask,37,2,157,457,main,negativefb,-99,easy,,1.0183255000010831,['c'],1,left,['1'],6,0.1295867000008002,61,,,,,,,32,18,Man,Rechts,2,
,dotcolour,xotask,xotask,38,2,158,458,main,negativefb,-99,average,,0.6009047999996255,['c'],1,left,['1'],6,0.12490259999867703,52,,,,,,,32,18,Man,Rechts,2,
,dotcolour,xotask,xotask,39,2,159,459,main,negativefb,-99,easy,,1.5348085000005085,['n'],1,right,['1'],6,0.29163859999971464,18,,,,,,,32,18,Man,Rechts,2,
,dotcolour,xotask,xotask,40,2,160,460,main,negativefb,-99,easy,,0.7335853000004136,['n'],0,left,['0'],1,2.9242763000002014,63,,,,,,,32,18,Man,Rechts,2,
,dotcolour,xotask,xotask,41,2,161,461,main,negativefb,-99,average,,2.716854800000874,['n'],0,left,['8'],3,2.5716324000004533,52,,,,,,,32,18,Man,Rechts,2,
,dotcolour,xotask,xotask,42,2,162,462,main,negativefb,-99,average,,0.7331135999993421,['n'],1,right,['1'],6,0.2644304999994347,29,,,,,,,32,18,Man,Rechts,2,
,dotcolour,xotask,xotask,43,2,163,463,main,negativefb,-99,average,,0.834784500000751,['n'],1,right,['1'],6,0.25325619999966875,29,,,,,,,32,18,Man,Rechts,2,
,dotcolour,xotask,xotask,44,2,164,464,main,negativefb,-99,easy,,0.5338326000000961,['n'],1,right,['1'],6,0.12688189999971655,17,,,,,,,32,18,Man,Rechts,2,
,dotcolour,xotask,xotask,45,2,165,465,main,negativefb,-99,average,,0.518022899999778,['n'],1,right,['1'],6,0.13324960000136343,26,,,,,,,32,18,Man,Rechts,2,
,dotcolour,xotask,xotask,46,2,166,466,main,negativefb,-99,average,,0.666658300000563,['c'],1,left,['1'],6,0.11012610000034329,51,,,,,,,32,18,Man,Rechts,2,
,dotcolour,xotask,xotask,47,2,167,467,main,negativefb,-99,average,,0.6676331999988179,['c'],1,left,['1'],6,0.3121682000000874,54,,,,,,,32,18,Man,Rechts,2,
,dotcolour,xotask,xotask,48,2,168,468,main,negativefb,-99,hard,,0.9346088000002055,['n'],1,right,['2'],5,0.3035325000000739,38,,,,,,,32,18,Man,Rechts,2,
,dotcolour,xotask,xotask,49,2,169,469,main,negativefb,-99,easy,,0.5013992000003782,['n'],1,right,['1'],6,0.10474489999978687,17,,,,,,,32,18,Man,Rechts,2,
,dotcolour,xotask,xotask,50,2,170,470,main,negativefb,-99,easy,,0.46758129999943776,['n'],1,right,['1'],6,0.1064922999994451,18,,,,,,,32,18,Man,Rechts,2,
,dotcolour,xotask,xotask,51,2,171,471,main,negativefb,-99,hard,,0.750714900001185,['c'],1,left,['1'],6,0.15327239999896847,43,,,,,,,32,18,Man,Rechts,2,
,dotcolour,xotask,xotask,52,2,172,472,main,negativefb,-99,average,,0.7341382000013255,['c'],1,left,['1'],6,0.07829029999993509,55,,,,,,,32,18,Man,Rechts,2,
,dotcolour,xotask,xotask,53,2,173,473,main,negativefb,-99,average,,0.7007764000009047,['n'],1,right,['1'],6,0.08812240000042948,25,,,,,,,32,18,Man,Rechts,2,
,dotcolour,xotask,xotask,54,2,174,474,main,negativefb,-99,hard,,0.6166682000002766,['n'],1,right,['1'],6,0.10091260000081093,38,,,,,,,32,18,Man,Rechts,2,
,dotcolour,xotask,xotask,55,2,175,475,main,negativefb,-99,hard,,0.6005920999996306,['n'],0,left,['1'],6,0.10550429999966582,43,,,,,,,32,18,Man,Rechts,2,
,dotcolour,xotask,xotask,56,2,176,476,main,negativefb,-99,average,,0.7010470999994141,['n'],1,right,['1'],6,0.05013610000059998,29,,,,,,,32,18,Man,Rechts,2,
,dotcolour,xotask,xotask,57,2,177,477,main,negativefb,-99,hard,,1.2339666999996552,['n'],1,right,['2'],5,0.19120980000116106,39,,,,,,,32,18,Man,Rechts,2,
,dotcolour,xotask,xotask,58,2,178,478,main,negativefb,-99,average,,0.6168416000000434,['n'],1,right,['1'],6,0.11958640000011656,25,,,,,,,32,18,Man,Rechts,2,
,dotcolour,xotask,xotask,59,2,179,479,main,negativefb,-99,hard,,1.0006706999993185,['n'],1,right,['1'],6,0.164545999999973,39,,,,,,,32,18,Man,Rechts,2,
,dotcolour,xotask,xotask,0,3,180,480,main,negativefb,-99,hard,,1.101027200000317,['n'],0,left,['2'],5,0.36221389999991516,41,,,,,,,32,18,Man,Rechts,2,
,dotcolour,xotask,xotask,1,3,181,481,main,negativefb,-99,average,,0.6509473999994952,['c'],1,left,['2'],5,0.09075480000137759,54,,,,,,,32,18,Man,Rechts,2,
,dotcolour,xotask,xotask,2,3,182,482,main,negativefb,-99,easy,,0.4996364000016911,['c'],1,left,['2'],5,0.08388709999962884,64,,,,,,,32,18,Man,Rechts,2,
,dotcolour,xotask,xotask,3,3,183,483,main,negativefb,-99,average,,0.6178357999997388,['c'],1,left,['1'],6,0.1133815000011964,54,,,,,,,32,18,Man,Rechts,2,
,dotcolour,xotask,xotask,4,3,184,484,main,negativefb,-99,easy,,0.5002435999995214,['c'],1,left,['1'],6,0.08182749999832595,65,,,,,,,32,18,Man,Rechts,2,
,dotcolour,xotask,xotask,5,3,185,485,main,negativefb,-99,easy,,0.684555799998634,['n'],1,right,['1'],6,0.05982460000086576,18,,,,,,,32,18,Man,Rechts,2,
,dotcolour,xotask,xotask,6,3,186,486,main,negativefb,-99,average,,2.417406700000356,['n'],1,right,['3'],4,1.2013409999999567,29,,,,,,,32,18,Man,Rechts,2,
,dotcolour,xotask,xotask,7,3,187,487,main,negativefb,-99,easy,,1.2338285000005271,['c'],1,left,['3'],4,0.20052430000032473,64,,,,,,,32,18,Man,Rechts,2,
,dotcolour,xotask,xotask,8,3,188,488,main,negativefb,-99,average,,0.8839153000008082,['n'],1,right,['1'],6,0.18253729999923962,28,,,,,,,32,18,Man,Rechts,2,
,dotcolour,xotask,xotask,9,3,189,489,main,negativefb,-99,easy,,0.634607899999537,['c'],1,left,['1'],6,0.1347888000000239,64,,,,,,,32,18,Man,Rechts,2,
,dotcolour,xotask,xotask,10,3,190,490,main,negativefb,-99,easy,,0.4996244000012666,['n'],1,right,['1'],6,0.20580410000002303,18,,,,,,,32,18,Man,Rechts,2,
,dotcolour,xotask,xotask,11,3,191,491,main,negativefb,-99,average,,0.6844084000003932,['c'],1,left,['1'],6,0.0825129000004381,55,,,,,,,32,18,Man,Rechts,2,
,dotcolour,xotask,xotask,12,3,192,492,main,negativefb,-99,average,,0.6328688000012335,['n'],1,right,['2'],5,0.6550811999986763,27,,,,,,,32,18,Man,Rechts,2,
,dotcolour,xotask,xotask,13,3,193,493,main,negativefb,-99,hard,,0.684780799998407,['n'],0,left,['2'],5,0.5706025999988924,42,,,,,,,32,18,Man,Rechts,2,
,dotcolour,xotask,xotask,14,3,194,494,main,negativefb,-99,easy,,0.7673384999998234,['n'],1,right,['1'],6,0.28575090000049386,18,,,,,,,32,18,Man,Rechts,2,
,dotcolour,xotask,xotask,15,3,195,495,main,negativefb,-99,hard,,0.7344181000007666,['n'],1,right,['1'],6,0.09412669999983336,37,,,,,,,32,18,Man,Rechts,2,
,dotcolour,xotask,xotask,16,3,196,496,main,negativefb,-99,easy,,0.7016538999996556,['n'],1,right,['1'],6,0.014883699999700184,19,,,,,,,32,18,Man,Rechts,2,
,dotcolour,xotask,xotask,17,3,197,497,main,negativefb,-99,hard,,1.1829109999998764,['n'],1,right,['2'],5,0.19115460000102757,38,,,,,,,32,18,Man,Rechts,2,
,dotcolour,xotask,xotask,18,3,198,498,main,negativefb,-99,average,,0.732949400000507,['n'],1,right,['1'],6,0.1476647999988927,25,,,,,,,32,18,Man,Rechts,2,
,dotcolour,xotask,xotask,19,3,199,499,main,negativefb,-99,average,,0.5668238999987807,['n'],1,right,['2'],5,0.4557542000002286,25,,,,,,,32,18,Man,Rechts,2,
,dotcolour,xotask,xotask,20,3,200,500,main,negativefb,-99,easy,,1.0850509000010788,['c'],1,left,['1'],6,1.2347930999985692,62,,,,,,,32,18,Man,Rechts,2,
,dotcolour,xotask,xotask,21,3,201,501,main,negativefb,-99,average,,0.63465240000005,['n'],1,right,['1'],6,0.2805570999989868,25,,,,,,,32,18,Man,Rechts,2,
,dotcolour,xotask,xotask,22,3,202,502,main,negativefb,-99,hard,,1.2671763999987888,['n'],0,left,['2'],5,0.3398515999997471,45,,,,,,,32,18,Man,Rechts,2,
,dotcolour,xotask,xotask,23,3,203,503,main,negativefb,-99,hard,,0.7174293999996735,['n'],1,right,['1'],6,0.26585960000011255,36,,,,,,,32,18,Man,Rechts,2,
,dotcolour,xotask,xotask,24,3,204,504,main,negativefb,-99,average,,1.417464199999813,['c'],1,left,['1'],6,0.17522429999917222,51,,,,,,,32,18,Man,Rechts,2,
,dotcolour,xotask,xotask,25,3,205,505,main,negativefb,-99,easy,,0.81757700000162,['n'],1,right,['1'],6,0.20030450000012934,18,,,,,,,32,18,Man,Rechts,2,
,dotcolour,xotask,xotask,26,3,206,506,main,negativefb,-99,easy,,0.6018543000009231,['n'],1,right,['1'],6,0.10499390000040876,18,,,,,,,32,18,Man,Rechts,2,
,dotcolour,xotask,xotask,27,3,207,507,main,negativefb,-99,average,,0.7010996000008163,['n'],1,right,['2'],5,0.554181299999982,28,,,,,,,32,18,Man,Rechts,2,
,dotcolour,xotask,xotask,28,3,208,508,main,negativefb,-99,hard,,0.96732879999945,['n'],0,left,['3'],4,0.5746472999999241,43,,,,,,,32,18,Man,Rechts,2,
,dotcolour,xotask,xotask,29,3,209,509,main,negativefb,-99,hard,,1.11765270000069,['n'],0,left,['3'],4,0.2191395999998349,44,,,,,,,32,18,Man,Rechts,2,
,dotcolour,xotask,xotask,30,3,210,510,main,negativefb,-99,average,,0.7169028999996954,['c'],1,left,['1'],6,0.19870649999938905,54,,,,,,,32,18,Man,Rechts,2,
,dotcolour,xotask,xotask,31,3,211,511,main,negativefb,-99,hard,,1.2680168000006233,['n'],0,left,['3'],4,0.6051611000002595,45,,,,,,,32,18,Man,Rechts,2,
,dotcolour,xotask,xotask,32,3,212,512,main,negativefb,-99,average,,0.7343238000012207,['c'],1,left,['1'],6,0.1608974999999191,55,,,,,,,32,18,Man,Rechts,2,
,dotcolour,xotask,xotask,33,3,213,513,main,negativefb,-99,hard,,1.3678054000010889,['c'],0,right,['3'],4,0.25217650000013236,39,,,,,,,32,18,Man,Rechts,2,
,dotcolour,xotask,xotask,34,3,214,514,main,negativefb,-99,easy,,0.8003034000012121,['c'],1,left,['1'],6,0.45851260000017646,63,,,,,,,32,18,Man,Rechts,2,
,dotcolour,xotask,xotask,35,3,215,515,main,negativefb,-99,average,,0.7508650999989186,['n'],1,right,['1'],6,0.6274417999993602,28,,,,,,,32,18,Man,Rechts,2,
,dotcolour,xotask,xotask,36,3,216,516,main,negativefb,-99,easy,,1.2349365999998554,['n'],1,right,['1'],6,0.3381000999997923,18,,,,,,,32,18,Man,Rechts,2,
,dotcolour,xotask,xotask,37,3,217,517,main,negativefb,-99,hard,,1.9686708000008366,['n'],0,left,['3'],4,0.4468230999991647,45,,,,,,,32,18,Man,Rechts,2,
,dotcolour,xotask,xotask,38,3,218,518,main,negativefb,-99,average,,0.6183544999985315,['n'],1,right,['1'],6,0.2855395000005956,25,,,,,,,32,18,Man,Rechts,2,
,dotcolour,xotask,xotask,39,3,219,519,main,negativefb,-99,average,,0.7173813999997947,['c'],1,left,['1'],6,0.1423082000001159,55,,,,,,,32,18,Man,Rechts,2,
,dotcolour,xotask,xotask,40,3,220,520,main,negativefb,-99,easy,,0.48416159999942465,['n'],1,right,['1'],6,0.2778387999987899,16,,,,,,,32,18,Man,Rechts,2,
,dotcolour,xotask,xotask,41,3,221,521,main,negativefb,-99,hard,,0.5839141999986168,['n'],1,right,['3'],4,0.5886580999995203,38,,,,,,,32,18,Man,Rechts,2,
,dotcolour,xotask,xotask,42,3,222,522,main,negativefb,-99,easy,,0.5671473000002152,['c'],1,left,['1'],6,0.13559730000088166,62,,,,,,,32,18,Man,Rechts,2,
,dotcolour,xotask,xotask,43,3,223,523,main,negativefb,-99,hard,,0.9511429000012868,['c'],1,left,['2'],5,0.6689069000003656,41,,,,,,,32,18,Man,Rechts,2,
,dotcolour,xotask,xotask,44,3,224,524,main,negativefb,-99,hard,,0.6174666999995679,['n'],1,right,['1'],6,0.10632450000048266,38,,,,,,,32,18,Man,Rechts,2,
,dotcolour,xotask,xotask,45,3,225,525,main,negativefb,-99,hard,,0.9012082999997801,['c'],1,left,['2'],5,0.25082409999959054,42,,,,,,,32,18,Man,Rechts,2,
,dotcolour,xotask,xotask,46,3,226,526,main,negativefb,-99,easy,,0.5838250999986485,['c'],1,left,['1'],6,0.2819257999999536,61,,,,,,,32,18,Man,Rechts,2,
,dotcolour,xotask,xotask,47,3,227,527,main,negativefb,-99,average,,0.6158821999997599,['n'],1,right,['1'],6,0.12703609999880427,27,,,,,,,32,18,Man,Rechts,2,
,dotcolour,xotask,xotask,48,3,228,528,main,negativefb,-99,easy,,0.6834410999999818,['c'],1,left,['1'],6,0.1756251999995584,62,,,,,,,32,18,Man,Rechts,2,
,dotcolour,xotask,xotask,49,3,229,529,main,negativefb,-99,easy,,0.6503950000005716,['c'],1,left,['1'],6,0.07183529999929306,64,,,,,,,32,18,Man,Rechts,2,
,dotcolour,xotask,xotask,50,3,230,530,main,negativefb,-99,hard,,0.6679533000005904,['n'],0,left,['2'],5,0.6835387999999512,45,,,,,,,32,18,Man,Rechts,2,
,dotcolour,xotask,xotask,51,3,231,531,main,negativefb,-99,hard,,1.6344967000004544,['c'],0,right,['2'],5,0.5189924999995128,35,,,,,,,32,18,Man,Rechts,2,
,dotcolour,xotask,xotask,52,3,232,532,main,negativefb,-99,average,,0.9503487000001769,['c'],1,left,['2'],5,0.6045876999996835,54,,,,,,,32,18,Man,Rechts,2,
,dotcolour,xotask,xotask,53,3,233,533,main,negativefb,-99,hard,,0.6347237000009045,['n'],1,right,['2'],5,0.31603999999970256,36,,,,,,,32,18,Man,Rechts,2,
,dotcolour,xotask,xotask,54,3,234,534,main,negativefb,-99,easy,,0.6172630999990361,['n'],1,right,['1'],6,0.19948139999905834,18,,,,,,,32,18,Man,Rechts,2,
,dotcolour,xotask,xotask,55,3,235,535,main,negativefb,-99,easy,,0.484082999999373,['n'],1,right,['1'],6,0.1324611999989429,19,,,,,,,32,18,Man,Rechts,2,
,dotcolour,xotask,xotask,56,3,236,536,main,negativefb,-99,hard,,1.0672318000015366,['c'],0,right,['2'],5,0.17368329999953858,38,,,,,,,32,18,Man,Rechts,2,
,dotcolour,xotask,xotask,57,3,237,537,main,negativefb,-99,average,,0.9172283000007155,['c'],1,left,['1'],6,0.10690820000127133,51,,,,,,,32,18,Man,Rechts,2,
,dotcolour,xotask,xotask,58,3,238,538,main,negativefb,-99,average,,0.6012661999993725,['c'],1,left,['1'],6,0.08745690000068862,51,,,,,,,32,18,Man,Rechts,2,
,dotcolour,xotask,xotask,59,3,239,539,main,negativefb,-99,hard,,0.7332989999995334,['n'],1,right,['2'],5,0.31211280000025,35,,,,,,,32,18,Man,Rechts,2,
,dotcolour,xotask,xotask,0,4,240,540,main,negativefb,-99,average,,0.6832322000009299,['n'],1,right,['2'],5,0.298436799999763,25,,,,,,,32,18,Man,Rechts,2,
,dotcolour,xotask,xotask,1,4,241,541,main,negativefb,-99,easy,,0.550436699999409,['n'],1,right,['1'],6,0.1679309999999532,17,,,,,,,32,18,Man,Rechts,2,
,dotcolour,xotask,xotask,2,4,242,542,main,negativefb,-99,average,,0.6010992999999871,['n'],1,right,['1'],6,0.2179047999998147,27,,,,,,,32,18,Man,Rechts,2,
,dotcolour,xotask,xotask,3,4,243,543,main,negativefb,-99,hard,,1.199958900000638,['n'],0,left,['2'],5,0.17794030000004568,42,,,,,,,32,18,Man,Rechts,2,
,dotcolour,xotask,xotask,4,4,244,544,main,negativefb,-99,hard,,0.9012334999988525,['c'],1,left,['1'],6,0.18478109999887238,45,,,,,,,32,18,Man,Rechts,2,
,dotcolour,xotask,xotask,5,4,245,545,main,negativefb,-99,average,,0.6675653000002058,['n'],1,right,['1'],6,0.15885309999976016,27,,,,,,,32,18,Man,Rechts,2,
,dotcolour,xotask,xotask,6,4,246,546,main,negativefb,-99,average,,1.3008492999997543,['n'],1,right,['1'],6,0.26173060000110127,27,,,,,,,32,18,Man,Rechts,2,
,dotcolour,xotask,xotask,7,4,247,547,main,negativefb,-99,hard,,3.7508954999993875,['n'],1,right,['2'],5,0.4459761999987677,37,,,,,,,32,18,Man,Rechts,2,
,dotcolour,xotask,xotask,8,4,248,548,main,negativefb,-99,average,,0.6178933999999572,['n'],1,right,['2'],5,0.19700639999973646,29,,,,,,,32,18,Man,Rechts,2,
,dotcolour,xotask,xotask,9,4,249,549,main,negativefb,-99,easy,,0.5342295999998896,['n'],1,right,['1'],6,0.1452268000011827,15,,,,,,,32,18,Man,Rechts,2,
,dotcolour,xotask,xotask,10,4,250,550,main,negativefb,-99,easy,,0.7346514000000752,['n'],1,right,['2'],5,0.19118859999980486,19,,,,,,,32,18,Man,Rechts,2,
,dotcolour,xotask,xotask,11,4,251,551,main,negativefb,-99,hard,,1.351193599999533,['n'],1,right,['2'],5,0.17037270000037097,37,,,,,,,32,18,Man,Rechts,2,
,dotcolour,xotask,xotask,12,4,252,552,main,negativefb,-99,hard,,1.234042900001441,['n'],0,left,['3'],4,0.563024699999005,42,,,,,,,32,18,Man,Rechts,2,
,dotcolour,xotask,xotask,13,4,253,553,main,negativefb,-99,easy,,0.550773200000549,['c'],1,left,['1'],6,0.1842622999993182,64,,,,,,,32,18,Man,Rechts,2,
,dotcolour,xotask,xotask,14,4,254,554,main,negativefb,-99,easy,,0.5334289999991597,['n'],1,right,['1'],6,0.1475047000003542,17,,,,,,,32,18,Man,Rechts,2,
,dotcolour,xotask,xotask,15,4,255,555,main,negativefb,-99,easy,,0.5840571999997337,['n'],1,right,['1'],6,0.22302510000008624,15,,,,,,,32,18,Man,Rechts,2,
,dotcolour,xotask,xotask,16,4,256,556,main,negativefb,-99,average,,0.5839514999988751,['n'],1,right,['1'],6,0.07186270000056538,29,,,,,,,32,18,Man,Rechts,2,
,dotcolour,xotask,xotask,17,4,257,557,main,negativefb,-99,easy,,0.5341112000005523,['n'],1,right,['1'],6,0.09585420000075828,19,,,,,,,32,18,Man,Rechts,2,
,dotcolour,xotask,xotask,18,4,258,558,main,negativefb,-99,easy,,0.41740740000022925,['n'],1,right,['1'],6,0.1331970999999612,16,,,,,,,32,18,Man,Rechts,2,
,dotcolour,xotask,xotask,19,4,259,559,main,negativefb,-99,average,,0.9011487999996461,['c'],1,left,['1'],6,0.16434209999897575,55,,,,,,,32,18,Man,Rechts,2,
,dotcolour,xotask,xotask,20,4,260,560,main,negativefb,-99,average,,0.5832446999993408,['c'],1,left,['1'],6,0.15875039999991714,55,,,,,,,32,18,Man,Rechts,2,
,dotcolour,xotask,xotask,21,4,261,561,main,negativefb,-99,hard,,0.7155476999996608,['c'],1,left,['2'],5,0.4610377000008157,43,,,,,,,32,18,Man,Rechts,2,
,dotcolour,xotask,xotask,22,4,262,562,main,negativefb,-99,hard,,0.967649899999742,['c'],1,left,['2'],5,0.1173982000000251,42,,,,,,,32,18,Man,Rechts,2,
,dotcolour,xotask,xotask,23,4,263,563,main,negativefb,-99,easy,,0.5676717000005738,['c'],1,left,['1'],6,0.1060034000001906,62,,,,,,,32,18,Man,Rechts,2,
,dotcolour,xotask,xotask,24,4,264,564,main,negativefb,-99,average,,0.5493514999998297,['c'],1,left,['1'],6,0.15309720000004745,53,,,,,,,32,18,Man,Rechts,2,
,dotcolour,xotask,xotask,25,4,265,565,main,negativefb,-99,average,,0.6516695000009349,['c'],1,left,['1'],6,0.1460110000007262,51,,,,,,,32,18,Man,Rechts,2,
,dotcolour,xotask,xotask,26,4,266,566,main,negativefb,-99,average,,0.867549799999324,['n'],1,right,['1'],6,0.10584019999987504,27,,,,,,,32,18,Man,Rechts,2,
,dotcolour,xotask,xotask,27,4,267,567,main,negativefb,-99,easy,,0.6345502000003762,['c'],1,left,['1'],6,0.1576789999999164,61,,,,,,,32,18,Man,Rechts,2,
,dotcolour,xotask,xotask,28,4,268,568,main,negativefb,-99,average,,0.6184331999993447,['c'],1,left,['1'],6,0.11931100000037986,52,,,,,,,32,18,Man,Rechts,2,
,dotcolour,xotask,xotask,29,4,269,569,main,negativefb,-99,hard,,1.1663683999995555,['c'],1,left,['2'],5,0.16435790000105044,41,,,,,,,32,18,Man,Rechts,2,
,dotcolour,xotask,xotask,30,4,270,570,main,negativefb,-99,average,,0.6172156000011455,['c'],1,left,['1'],6,0.1346427999997104,53,,,,,,,32,18,Man,Rechts,2,
,dotcolour,xotask,xotask,31,4,271,571,main,negativefb,-99,easy,,0.7013112999993609,['n'],1,right,['1'],6,0.12513589999980468,19,,,,,,,32,18,Man,Rechts,2,
,dotcolour,xotask,xotask,32,4,272,572,main,negativefb,-99,easy,,0.6340657000000647,['c'],1,left,['1'],6,0.11287210000045889,61,,,,,,,32,18,Man,Rechts,2,
,dotcolour,xotask,xotask,33,4,273,573,main,negativefb,-99,average,,0.683586600000126,['n'],1,right,['1'],6,0.16142539999964356,29,,,,,,,32,18,Man,Rechts,2,
,dotcolour,xotask,xotask,34,4,274,574,main,negativefb,-99,average,,0.6339014000004681,['c'],1,left,['1'],6,0.1387475000010454,54,,,,,,,32,18,Man,Rechts,2,
,dotcolour,xotask,xotask,35,4,275,575,main,negativefb,-99,hard,,1.2998673000001872,['n'],1,right,['3'],4,0.3301436999990983,36,,,,,,,32,18,Man,Rechts,2,
,dotcolour,xotask,xotask,36,4,276,576,main,negativefb,-99,average,,0.717172999999093,['c'],0,right,['0'],1,2.5535841999990225,28,,,,,,,32,18,Man,Rechts,2,
,dotcolour,xotask,xotask,37,4,277,577,main,negativefb,-99,hard,,0.7510854000011022,['n'],1,right,['3'],4,0.5268111000004865,35,,,,,,,32,18,Man,Rechts,2,
,dotcolour,xotask,xotask,38,4,278,578,main,negativefb,-99,hard,,0.7347333999987313,['n'],1,right,['3'],4,0.3254282999987481,36,,,,,,,32,18,Man,Rechts,2,
,dotcolour,xotask,xotask,39,4,279,579,main,negativefb,-99,hard,,1.1680958999986615,['n'],0,left,['3'],4,0.40203680000013264,44,,,,,,,32,18,Man,Rechts,2,
,dotcolour,xotask,xotask,40,4,280,580,main,negativefb,-99,average,,0.7016059000015957,['c'],1,left,['3'],4,0.2556633000003785,54,,,,,,,32,18,Man,Rechts,2,
,dotcolour,xotask,xotask,41,4,281,581,main,negativefb,-99,average,,0.6161558999992849,['n'],1,right,['3'],4,0.2855632999999216,26,,,,,,,32,18,Man,Rechts,2,
,dotcolour,xotask,xotask,42,4,282,582,main,negativefb,-99,hard,,0.8677604000004067,['n'],1,right,['2'],5,0.16795269999965967,36,,,,,,,32,18,Man,Rechts,2,
,dotcolour,xotask,xotask,43,4,283,583,main,negativefb,-99,easy,,0.6513382000011916,['c'],1,left,['2'],5,0.18355280000105267,63,,,,,,,32,18,Man,Rechts,2,
,dotcolour,xotask,xotask,44,4,284,584,main,negativefb,-99,easy,,0.6187907000003179,['c'],1,left,['1'],6,0.16059580000001006,65,,,,,,,32,18,Man,Rechts,2,
,dotcolour,xotask,xotask,45,4,285,585,main,negativefb,-99,average,,0.6008308000000397,['c'],1,left,['1'],6,0.10735580000073242,53,,,,,,,32,18,Man,Rechts,2,
,dotcolour,xotask,xotask,46,4,286,586,main,negativefb,-99,hard,,0.9177529999997205,['c'],0,right,['2'],5,0.13154079999912938,38,,,,,,,32,18,Man,Rechts,2,
,dotcolour,xotask,xotask,47,4,287,587,main,negativefb,-99,easy,,0.551132200000211,['c'],1,left,['1'],6,0.21592319999945175,61,,,,,,,32,18,Man,Rechts,2,
,dotcolour,xotask,xotask,48,4,288,588,main,negativefb,-99,easy,,0.5842742999993789,['c'],1,left,['1'],6,0.2254238000004989,65,,,,,,,32,18,Man,Rechts,2,
,dotcolour,xotask,xotask,49,4,289,589,main,negativefb,-99,hard,,0.9675255000001926,['n'],0,left,['2'],5,0.33067359999949986,41,,,,,,,32,18,Man,Rechts,2,
,dotcolour,xotask,xotask,50,4,290,590,main,negativefb,-99,hard,,0.6344861000015953,['n'],1,right,['2'],5,0.44532409999919764,37,,,,,,,32,18,Man,Rechts,2,
,dotcolour,xotask,xotask,51,4,291,591,main,negativefb,-99,hard,,1.5682538000000932,['n'],1,right,['3'],4,0.32595320000109496,39,,,,,,,32,18,Man,Rechts,2,
,dotcolour,xotask,xotask,52,4,292,592,main,negativefb,-99,hard,,0.6509649999989051,['n'],1,right,['2'],5,1.504165500000454,39,,,,,,,32,18,Man,Rechts,2,
,dotcolour,xotask,xotask,53,4,293,593,main,negativefb,-99,average,,1.5511394999994081,['c'],1,left,['2'],5,0.7343232000002899,51,,,,,,,32,18,Man,Rechts,2,
,dotcolour,xotask,xotask,54,4,294,594,main,negativefb,-99,easy,,0.7005217999994784,['c'],1,left,['2'],5,0.14951079999991634,61,,,,,,,32,18,Man,Rechts,2,
,dotcolour,xotask,xotask,55,4,295,595,main,negativefb,-99,easy,,0.6013137999998435,['n'],1,right,['1'],6,0.14443430000028457,15,,,,,,,32,18,Man,Rechts,2,
,dotcolour,xotask,xotask,56,4,296,596,main,negativefb,-99,easy,,0.701071100000263,['c'],1,left,['1'],6,0.16757909999978438,63,,,,,,,32,18,Man,Rechts,2,
,dotcolour,xotask,xotask,57,4,297,597,main,negativefb,-99,hard,,0.8998977999999624,['c'],1,left,['2'],5,0.13393960000030347,43,,,,,,,32,18,Man,Rechts,2,
,dotcolour,xotask,xotask,58,4,298,598,main,negativefb,-99,hard,,0.8514735999997356,['n'],0,left,['2'],5,0.311204199999338,41,,,,,,,32,18,Man,Rechts,2,
,dotcolour,xotask,xotask,59,4,299,599,main,negativefb,-99,easy,,0.5504830999998376,['c'],0,right,['0'],1,2.1014111999993474,18,,,,,,,32,18,Man,Rechts,2,
,xotask,xotask,xotask,0,0,0,600,training,negativefb,85,easy,5,0.7171175999992556,['n'],1,right,['1'],6,0.5115865999996458,,,,,,,,32,18,Man,Rechts,2,
,xotask,xotask,xotask,1,0,1,601,training,negativefb,87,easy,74,0.6171154000003298,['c'],1,left,['1'],6,0.21923429999878863,,,,,,,,32,18,Man,Rechts,2,
,xotask,xotask,xotask,2,0,2,602,training,negativefb,58,average,61,0.6335439000013139,['c'],1,left,['1'],6,0.21706320000157575,,,,,,,,32,18,Man,Rechts,2,
,xotask,xotask,xotask,3,0,3,603,training,negativefb,54,average,16,0.5331888000000617,['n'],1,right,['1'],6,0.17171740000048885,,,,,,,,32,18,Man,Rechts,2,
,xotask,xotask,xotask,4,0,4,604,training,negativefb,51,average,18,0.4341744000012113,['n'],1,right,['1'],6,0.1553727999998955,,,,,,,,32,18,Man,Rechts,2,
,xotask,xotask,xotask,5,0,5,605,training,negativefb,73,hard,50,1.1838332999996055,['c'],1,left,['2'],5,0.493870500000412,,,,,,,,32,18,Man,Rechts,2,
,xotask,xotask,xotask,6,0,6,606,training,negativefb,75,average,16,0.6338245999995706,['n'],1,right,['1'],6,0.08943050000016228,,,,,,,,32,18,Man,Rechts,2,
,xotask,xotask,xotask,7,0,7,607,training,negativefb,75,easy,7,0.5335125000001426,['n'],1,right,['1'],6,0.07233119999909832,,,,,,,,32,18,Man,Rechts,2,
,xotask,xotask,xotask,8,0,8,608,training,negativefb,43,hard,53,0.8832636999995884,['n'],0,left,['2'],5,0.3225518999988708,,,,,,,,32,18,Man,Rechts,2,
,xotask,xotask,xotask,9,0,9,609,training,negativefb,75,easy,9,0.5838251000004675,['n'],1,right,['1'],6,0.19054730000061681,,,,,,,,32,18,Man,Rechts,2,
,xotask,xotask,xotask,10,0,10,610,training,negativefb,85,easy,74,0.9007712000002357,['c'],1,left,['2'],5,0.290592999999717,,,,,,,,32,18,Man,Rechts,2,
,xotask,xotask,xotask,11,0,11,611,training,negativefb,61,hard,53,0.817427800000587,['c'],1,left,['3'],4,0.12742080000134592,,,,,,,,32,18,Man,Rechts,2,
,xotask,xotask,xotask,12,0,12,612,training,negativefb,64,easy,72,0.8332525999994687,['n'],0,left,['2'],5,0.22564349999993283,,,,,,,,32,18,Man,Rechts,2,
,xotask,xotask,xotask,13,0,13,613,training,negativefb,53,hard,50,0.6679320000002917,['c'],1,left,['2'],5,0.11793580000085058,,,,,,,,32,18,Man,Rechts,2,
,xotask,xotask,xotask,14,0,14,614,training,negativefb,38,hard,25,0.8166090000013355,['n'],1,right,['2'],5,0.0961568000002444,,,,,,,,32,18,Man,Rechts,2,
,xotask,xotask,xotask,15,0,15,615,training,negativefb,92,easy,72,0.7661891999996442,['c'],1,left,['2'],5,0.1263479000008374,,,,,,,,32,18,Man,Rechts,2,
,xotask,xotask,xotask,16,0,16,616,training,negativefb,69,hard,27,0.7499972999994498,['n'],1,right,['2'],5,0.17960429999948246,,,,,,,,32,18,Man,Rechts,2,
,xotask,xotask,xotask,17,0,17,617,training,negativefb,88,average,16,0.6831122000003234,['n'],1,right,['1'],6,0.3214295999987371,,,,,,,,32,18,Man,Rechts,2,
,xotask,xotask,xotask,18,0,18,618,training,negativefb,70,hard,52,0.8327941999996256,['c'],1,left,['2'],5,0.2123704000005091,,,,,,,,32,18,Man,Rechts,2,
,xotask,xotask,xotask,19,0,19,619,training,negativefb,64,easy,71,1.6667235999993864,['c'],1,left,['1'],6,0.3048753000002762,,,,,,,,32,18,Man,Rechts,2,
,xotask,xotask,xotask,20,0,20,620,training,negativefb,66,hard,26,1.583175099998698,['n'],1,right,['1'],6,0.6934572999998636,,,,,,,,32,18,Man,Rechts,2,
,xotask,xotask,xotask,21,0,21,621,training,negativefb,39,easy,9,1.0826601999997365,['n'],1,right,['1'],6,0.3188155999996525,,,,,,,,32,18,Man,Rechts,2,
,xotask,xotask,xotask,22,0,22,622,training,negativefb,43,easy,6,0.5344865999995818,['n'],1,right,['1'],6,0.21312829999988026,,,,,,,,32,18,Man,Rechts,2,
,xotask,xotask,xotask,23,0,23,623,training,negativefb,64,easy,70,0.8837504000002809,['c'],1,left,['2'],5,0.6979391999993823,,,,,,,,32,18,Man,Rechts,2,
,xotask,xotask,xotask,24,0,24,624,training,negativefb,68,hard,50,1.0171800000007352,['c'],1,left,['2'],5,0.26868280000053346,,,,,,,,32,18,Man,Rechts,2,
,xotask,xotask,xotask,25,0,25,625,training,negativefb,73,hard,26,0.5167930000006891,['n'],1,right,['1'],6,0.19765410000036354,,,,,,,,32,18,Man,Rechts,2,
,xotask,xotask,xotask,26,0,26,626,training,negativefb,40,average,62,0.4509123999996518,['n'],0,left,['2'],5,0.3959370000011404,,,,,,,,32,18,Man,Rechts,2,
,xotask,xotask,xotask,27,0,27,627,training,negativefb,59,average,63,0.9832769999993616,['n'],0,left,['2'],5,0.26077989999976126,,,,,,,,32,18,Man,Rechts,2,
,xotask,xotask,xotask,28,0,28,628,training,negativefb,67,easy,72,0.6490033999998559,['c'],1,left,['2'],5,0.16150889999880746,,,,,,,,32,18,Man,Rechts,2,
,xotask,xotask,xotask,29,0,29,629,training,negativefb,25,easy,70,1.232738299999255,['n'],0,left,['3'],4,0.7221891999997752,,,,,,,,32,18,Man,Rechts,2,
,xotask,xotask,xotask,30,0,30,630,training,negativefb,61,average,60,0.7328777000002447,['c'],1,left,['3'],4,0.2561387999994622,,,,,,,,32,18,Man,Rechts,2,
,xotask,xotask,xotask,31,0,31,631,training,negativefb,69,hard,53,0.6171978000002127,['c'],1,left,['2'],5,0.26881179999872984,,,,,,,,32,18,Man,Rechts,2,
,xotask,xotask,xotask,32,0,32,632,training,negativefb,51,hard,51,0.634286800001064,['c'],1,left,['2'],5,0.11271699999997509,,,,,,,,32,18,Man,Rechts,2,
,xotask,xotask,xotask,33,0,33,633,training,negativefb,68,easy,74,1.367234900000767,['c'],1,left,"['1', '2']",6,0.3747648999997182,,,,,,,,32,18,Man,Rechts,2,
,xotask,xotask,xotask,34,0,34,634,training,negativefb,91,average,63,0.8827309999996942,['c'],1,left,['1'],6,0.8451801999999589,,,,,,,,32,18,Man,Rechts,2,
,xotask,xotask,xotask,35,0,35,635,training,negativefb,71,average,16,1.7672615999999834,['n'],1,right,['1'],6,0.6279384000008577,,,,,,,,32,18,Man,Rechts,2,
,xotask,xotask,xotask,36,0,36,636,training,negativefb,81,average,17,1.2162865999998758,['n'],1,right,['1'],6,0.6754415000013978,,,,,,,,32,18,Man,Rechts,2,
,xotask,xotask,xotask,37,0,37,637,training,negativefb,72,hard,29,0.866907399999036,['n'],1,right,['2'],5,0.2612637000001996,,,,,,,,32,18,Man,Rechts,2,
,xotask,xotask,xotask,38,0,38,638,training,negativefb,57,easy,6,0.6004583999983879,['n'],1,right,['1'],6,0.20404579999922134,,,,,,,,32,18,Man,Rechts,2,
,xotask,xotask,xotask,39,0,39,639,training,negativefb,82,hard,29,0.49948509999921953,['n'],1,right,['1'],6,0.23172540000086883,,,,,,,,32,18,Man,Rechts,2,
,xotask,xotask,xotask,40,0,40,640,training,negativefb,90,average,63,0.6837838999999803,['c'],1,left,['1'],6,0.19589450000057695,,,,,,,,32,18,Man,Rechts,2,
,xotask,xotask,xotask,41,0,41,641,training,negativefb,38,hard,26,0.8506308999985777,['c'],0,right,['2'],5,0.24947729999985313,,,,,,,,32,18,Man,Rechts,2,
,xotask,xotask,xotask,42,0,42,642,training,negativefb,78,easy,7,0.5174072000008891,['n'],1,right,['1'],6,0.21163479999995616,,,,,,,,32,18,Man,Rechts,2,
,xotask,xotask,xotask,43,0,43,643,training,negativefb,57,easy,5,0.582504500000141,['n'],1,right,['1'],6,0.1322627999998076,,,,,,,,32,18,Man,Rechts,2,
,xotask,xotask,xotask,44,0,44,644,training,negativefb,59,average,62,0.549956500000917,['n'],0,left,['1'],6,0.18502020000050834,,,,,,,,32,18,Man,Rechts,2,
,xotask,xotask,xotask,45,0,45,645,training,negativefb,76,easy,74,0.9008890999994037,['c'],1,left,['2'],5,0.3087792999995145,,,,,,,,32,18,Man,Rechts,2,
,xotask,xotask,xotask,46,0,46,646,training,negativefb,66,average,64,1.0013105999987602,['c'],1,left,['2'],5,0.5618454999985261,,,,,,,,32,18,Man,Rechts,2,
,xotask,xotask,xotask,47,0,47,647,training,negativefb,31,hard,50,0.9841273999991245,['n'],0,left,['2'],5,0.24392189999889524,,,,,,,,32,18,Man,Rechts,2,
,xotask,xotask,xotask,48,0,48,648,training,negativefb,52,hard,26,1.5836022999992565,['n'],1,right,['1'],6,0.24321749999944586,,,,,,,,32,18,Man,Rechts,2,
,xotask,xotask,xotask,49,0,49,649,training,negativefb,68,easy,8,0.7827158999989479,['n'],1,right,['2'],5,0.19432710000000952,,,,,,,,32,18,Man,Rechts,2,
,xotask,xotask,xotask,50,0,50,650,training,negativefb,35,average,15,0.5997631000009278,['n'],1,right,['1'],6,0.5233943999992334,,,,,,,,32,18,Man,Rechts,2,
,xotask,xotask,xotask,51,0,51,651,training,negativefb,27,hard,53,0.9676632999999129,['n'],0,left,['2'],5,0.3202792000010959,,,,,,,,32,18,Man,Rechts,2,
,xotask,xotask,xotask,52,0,52,652,training,negativefb,50,easy,5,0.7001068999998097,['n'],1,right,['1'],6,0.17524309999862453,,,,,,,,32,18,Man,Rechts,2,
,xotask,xotask,xotask,53,0,53,653,training,negativefb,51,average,64,1.7671496999992087,['n'],0,left,['2'],5,0.4184371999999712,,,,,,,,32,18,Man,Rechts,2,
,xotask,xotask,xotask,54,0,54,654,training,negativefb,42,hard,28,0.7335507000007055,['n'],1,right,['2'],5,0.2279128000009223,,,,,,,,32,18,Man,Rechts,2,
