starttime,task,fbtask,firsttask,withinblocktrial,block,withintasktrial,trial,running,feedback,fbscore,difflevel,reddots,rt,resp,cor,cresp,conf_press,cj,RTconf,n_xes,stoptime,sub,age,gender,handedness,session,
1716448014,dotcolour,dotcolour,xotask,0,0,0,0,training,negativefb,30,hard,39,5.584013699999787,['n'],1,right,['9'],2,6.453858700000183,,,38,24,Vrouw,Rechts,1,
,dotcolour,dotcolour,xotask,1,0,1,1,training,negativefb,42,hard,41,4.41717860000017,['n'],0,left,['3'],4,2.673827600000095,,,38,24,Vrouw,Rechts,1,
,dotcolour,dotcolour,xotask,2,0,2,2,training,negativefb,17,hard,37,1.850962700000082,['c'],0,right,['2'],5,2.723697099999981,,,38,24,Vrouw,Rechts,1,
,dotcolour,dotcolour,xotask,3,0,3,3,training,negativefb,89,average,28,3.0334897999998702,['n'],1,right,['3'],4,2.5972971999999572,,,38,24,Vrouw,Rechts,1,
,dotcolour,dotcolour,xotask,4,0,4,4,training,negativefb,85,easy,62,1.8677216999999473,['c'],1,left,['1'],6,0.6107530000001589,,,38,24,Vrouw,Rechts,1,
,dotcolour,dotcolour,xotask,5,0,5,5,training,negativefb,78,hard,41,3.0666731999999683,['c'],1,left,['2'],5,1.304589599999872,,,38,24,Vrouw,Rechts,1,
,dotcolour,dotcolour,xotask,6,0,6,6,training,negativefb,93,average,27,3.117567800000188,['n'],1,right,['3'],4,2.112079499999936,,,38,24,Vrouw,Rechts,1,
,dotcolour,dotcolour,xotask,7,0,7,7,training,negativefb,29,hard,35,3.4013194999999996,['n'],1,right,['8'],3,2.4032512000001134,,,38,24,Vrouw,Rechts,1,
,dotcolour,dotcolour,xotask,8,0,8,8,training,negativefb,95,average,26,1.2007250000001477,['n'],1,right,['2'],5,0.9067362999999204,,,38,24,Vrouw,Rechts,1,
,dotcolour,dotcolour,xotask,9,0,9,9,training,negativefb,78,average,26,3.7992777999997998,['n'],1,right,['3'],4,1.5665420000000267,,,38,24,Vrouw,Rechts,1,
,dotcolour,dotcolour,xotask,10,0,10,10,training,negativefb,98,average,26,1.6338757999999416,['n'],1,right,['2'],5,1.573307899999918,,,38,24,Vrouw,Rechts,1,
,dotcolour,dotcolour,xotask,11,0,11,11,training,negativefb,94,easy,65,1.5172757000000274,['c'],1,left,['1'],6,1.1130273000001125,,,38,24,Vrouw,Rechts,1,
,dotcolour,dotcolour,xotask,12,0,12,12,training,negativefb,51,hard,42,1.8500429999999142,['c'],1,left,['2'],5,0.5796046000000388,,,38,24,Vrouw,Rechts,1,
,dotcolour,dotcolour,xotask,13,0,13,13,training,negativefb,99,easy,15,1.649369500000148,['n'],1,right,['1'],6,1.483701099999962,,,38,24,Vrouw,Rechts,1,
,dotcolour,dotcolour,xotask,14,0,14,14,training,negativefb,65,hard,45,3.8342417999999725,['c'],1,left,['3'],4,1.3894982000001619,,,38,24,Vrouw,Rechts,1,
,dotcolour,dotcolour,xotask,15,0,15,15,training,negativefb,50,easy,62,1.1668039999999564,['c'],1,left,['1'],6,0.4071214999999029,,,38,24,Vrouw,Rechts,1,
,dotcolour,dotcolour,xotask,16,0,16,16,training,negativefb,83,easy,61,1.350160599999981,['c'],1,left,['1'],6,0.6486315999998169,,,38,24,Vrouw,Rechts,1,
,dotcolour,dotcolour,xotask,17,0,17,17,training,negativefb,55,hard,44,5.51849580000021,['n'],0,left,['3'],4,2.3781002000000626,,,38,24,Vrouw,Rechts,1,
,dotcolour,dotcolour,xotask,18,0,18,18,training,negativefb,74,easy,65,1.3165263000000778,['c'],1,left,['1'],6,1.1664700999999695,,,38,24,Vrouw,Rechts,1,
,dotcolour,dotcolour,xotask,19,0,19,19,training,negativefb,92,average,26,2.4166212000000087,['n'],1,right,['3'],4,1.4472023999999237,,,38,24,Vrouw,Rechts,1,
,dotcolour,dotcolour,xotask,20,0,20,20,training,negativefb,68,average,53,1.134587300000021,['c'],1,left,['2'],5,1.1210928000000422,,,38,24,Vrouw,Rechts,1,
,dotcolour,dotcolour,xotask,21,0,21,21,training,negativefb,47,hard,38,1.884250800000018,['c'],0,right,['3'],4,4.080492000000049,,,38,24,Vrouw,Rechts,1,
,dotcolour,dotcolour,xotask,22,0,22,22,training,negativefb,87,easy,15,1.1665382999999565,['n'],1,right,['1'],6,0.4378976000000421,,,38,24,Vrouw,Rechts,1,
,dotcolour,dotcolour,xotask,23,0,23,23,training,negativefb,64,average,25,2.0664785000001302,['n'],1,right,['2'],5,0.9215591999998196,,,38,24,Vrouw,Rechts,1,
,dotcolour,dotcolour,xotask,24,0,24,24,training,negativefb,98,easy,16,1.3503035000001091,['n'],1,right,['1'],6,1.1673221000000922,,,38,24,Vrouw,Rechts,1,
,dotcolour,dotcolour,xotask,25,0,25,25,training,negativefb,33,hard,37,2.0994323999998414,['n'],1,right,['2'],5,1.0603920999999445,,,38,24,Vrouw,Rechts,1,
,dotcolour,dotcolour,xotask,26,0,26,26,training,negativefb,85,easy,19,1.4163155999999617,['n'],1,right,['2'],5,1.0098084999999628,,,38,24,Vrouw,Rechts,1,
,dotcolour,dotcolour,xotask,27,0,27,27,training,negativefb,75,easy,15,0.900273900000002,['n'],1,right,['2'],5,0.7501781999999366,,,38,24,Vrouw,Rechts,1,
,dotcolour,dotcolour,xotask,28,0,28,28,training,negativefb,94,average,51,1.18401619999986,['c'],1,left,['1'],6,0.3764286999999058,,,38,24,Vrouw,Rechts,1,
,dotcolour,dotcolour,xotask,29,0,29,29,training,negativefb,64,easy,16,1.0996198999998796,['n'],1,right,['1'],6,0.35825899999986177,,,38,24,Vrouw,Rechts,1,
,dotcolour,dotcolour,xotask,30,0,30,30,training,negativefb,90,average,28,2.0493360000000393,['n'],1,right,['2'],5,2.421640600000046,,,38,24,Vrouw,Rechts,1,
,dotcolour,dotcolour,xotask,31,0,31,31,training,negativefb,63,hard,42,0.8510331999998471,['c'],1,left,['2'],5,0.8264432000000852,,,38,24,Vrouw,Rechts,1,
,dotcolour,dotcolour,xotask,32,0,32,32,training,negativefb,46,hard,38,2.283053599999903,['c'],0,right,['3'],4,0.6227678999998716,,,38,24,Vrouw,Rechts,1,
,dotcolour,dotcolour,xotask,33,0,33,33,training,negativefb,94,easy,17,0.9172659000000749,['n'],1,right,['2'],5,0.6171962000000804,,,38,24,Vrouw,Rechts,1,
,dotcolour,dotcolour,xotask,34,0,34,34,training,negativefb,82,average,53,1.0509283999999752,['c'],1,left,['1'],6,0.4070397000000412,,,38,24,Vrouw,Rechts,1,
,dotcolour,dotcolour,xotask,35,0,35,35,training,negativefb,86,easy,17,1.1838224000000537,['n'],1,right,['1'],6,0.5117156999999679,,,38,24,Vrouw,Rechts,1,
,dotcolour,dotcolour,xotask,36,0,36,36,training,negativefb,81,average,51,0.9169031999999788,['c'],1,left,['1'],6,0.36752849999993487,,,38,24,Vrouw,Rechts,1,
,dotcolour,dotcolour,xotask,37,0,37,37,training,negativefb,27,hard,35,1.1513680000000477,['n'],1,right,['3'],4,2.330158999999867,,,38,24,Vrouw,Rechts,1,
,dotcolour,dotcolour,xotask,38,0,38,38,training,negativefb,62,hard,44,2.0496206000000257,['c'],1,left,['2'],5,0.8756639999999152,,,38,24,Vrouw,Rechts,1,
,dotcolour,dotcolour,xotask,39,0,39,39,training,negativefb,57,hard,45,2.1161314999999377,['c'],1,left,['3'],4,0.5792484000000968,,,38,24,Vrouw,Rechts,1,
,dotcolour,dotcolour,xotask,40,0,40,40,training,negativefb,23,hard,41,5.583106100000123,['n'],0,left,['8'],3,1.0537753000000976,,,38,24,Vrouw,Rechts,1,
,dotcolour,dotcolour,xotask,41,0,41,41,training,negativefb,62,easy,64,1.0827257000000827,['c'],1,left,['1'],6,0.32827180000003864,,,38,24,Vrouw,Rechts,1,
,dotcolour,dotcolour,xotask,42,0,42,42,training,negativefb,29,easy,64,1.166433999999981,['c'],1,left,['1'],6,0.3972653000000719,,,38,24,Vrouw,Rechts,1,
,dotcolour,dotcolour,xotask,43,0,43,43,training,negativefb,86,average,28,1.7667598000000453,['n'],1,right,['3'],4,1.3590394999998807,,,38,24,Vrouw,Rechts,1,
,dotcolour,dotcolour,xotask,44,0,44,44,training,negativefb,26,hard,36,1.4331292999997913,['n'],1,right,['2'],5,1.6644160999999258,,,38,24,Vrouw,Rechts,1,
,dotcolour,dotcolour,xotask,45,0,45,45,training,negativefb,91,average,51,1.316407399999889,['c'],1,left,['2'],5,0.6325196999998752,,,38,24,Vrouw,Rechts,1,
,dotcolour,dotcolour,xotask,46,0,46,46,training,negativefb,98,hard,41,1.2173033999999916,['c'],1,left,['3'],4,1.3339148000000023,,,38,24,Vrouw,Rechts,1,
,dotcolour,dotcolour,xotask,47,0,47,47,training,negativefb,49,average,54,0.7838150000000041,['c'],1,left,['1'],6,0.3779068000001189,,,38,24,Vrouw,Rechts,1,
,dotcolour,dotcolour,xotask,48,0,48,48,training,negativefb,57,easy,18,0.8668613000002097,['n'],1,right,['1'],6,0.4327623000001495,,,38,24,Vrouw,Rechts,1,
,dotcolour,dotcolour,xotask,49,0,49,49,training,negativefb,41,hard,36,2.117302100000188,['c'],0,right,['3'],4,0.9544092000001001,,,38,24,Vrouw,Rechts,1,
,dotcolour,dotcolour,xotask,50,0,50,50,training,negativefb,89,hard,36,0.9835602999999082,['n'],1,right,['3'],4,1.069110500000079,,,38,24,Vrouw,Rechts,1,
,dotcolour,dotcolour,xotask,51,0,51,51,training,negativefb,56,average,51,0.9160272000001441,['c'],1,left,['1'],6,0.2861348999999791,,,38,24,Vrouw,Rechts,1,
,dotcolour,dotcolour,xotask,52,0,52,52,training,negativefb,78,average,53,1.3334365000000616,['c'],1,left,['2'],5,0.7650215999999546,,,38,24,Vrouw,Rechts,1,
,dotcolour,dotcolour,xotask,53,0,53,53,training,negativefb,82,average,25,1.3161479000000327,['n'],1,right,['2'],5,0.890116899999839,,,38,24,Vrouw,Rechts,1,
,dotcolour,dotcolour,xotask,54,0,54,54,training,negativefb,72,easy,64,0.8828263000000334,['c'],1,left,['1'],6,0.2915158999999221,,,38,24,Vrouw,Rechts,1,
,dotcolour,dotcolour,xotask,55,0,55,55,training,negativefb,79,easy,61,0.9511298999998417,['c'],1,left,['1'],6,0.3460651999998845,,,38,24,Vrouw,Rechts,1,
,dotcolour,dotcolour,xotask,56,0,56,56,training,negativefb,68,average,51,0.8337289000000965,['c'],1,left,['1'],6,0.2111449999999877,,,38,24,Vrouw,Rechts,1,
,dotcolour,dotcolour,xotask,57,0,57,57,training,negativefb,52,average,55,1.3675342999999884,['c'],1,left,['2'],5,0.4125945999999203,,,38,24,Vrouw,Rechts,1,
,dotcolour,dotcolour,xotask,58,0,58,58,training,negativefb,99,easy,64,0.7164602000000286,['c'],1,left,['1'],6,0.6154111000000739,,,38,24,Vrouw,Rechts,1,
,dotcolour,dotcolour,xotask,59,0,59,59,training,negativefb,95,easy,15,0.899895000000015,['n'],1,right,['2'],5,1.0828060000001187,,,38,24,Vrouw,Rechts,1,
,dotcolour,dotcolour,xotask,0,1,60,60,training,negativefb,93,easy,16,1.5681402000000162,['n'],1,right,['1'],6,0.79775810000001,,,38,24,Vrouw,Rechts,1,
,dotcolour,dotcolour,xotask,1,1,61,61,training,negativefb,91,easy,18,0.6665146000000277,['n'],1,right,['1'],6,0.4515484999999444,,,38,24,Vrouw,Rechts,1,
,dotcolour,dotcolour,xotask,2,1,62,62,training,negativefb,89,average,27,1.0834828000001835,['n'],1,right,['2'],5,0.3414930000001277,,,38,24,Vrouw,Rechts,1,
,dotcolour,dotcolour,xotask,3,1,63,63,training,negativefb,52,hard,36,1.9004302999999254,['c'],0,right,['3'],4,1.1967999000000873,,,38,24,Vrouw,Rechts,1,
,dotcolour,dotcolour,xotask,4,1,64,64,training,negativefb,81,easy,65,0.8337167999998201,['c'],1,left,['1'],6,0.33191900000019814,,,38,24,Vrouw,Rechts,1,
,dotcolour,dotcolour,xotask,5,1,65,65,training,negativefb,34,hard,39,1.366888999999901,['c'],0,right,['2'],5,0.6554920999999467,,,38,24,Vrouw,Rechts,1,
,dotcolour,dotcolour,xotask,6,1,66,66,training,negativefb,58,hard,41,2.000583400000096,['c'],1,left,['3'],4,0.4856604999999945,,,38,24,Vrouw,Rechts,1,
,dotcolour,dotcolour,xotask,7,1,67,67,training,negativefb,28,average,55,0.7669888000000356,['c'],1,left,['2'],5,0.3484653000000435,,,38,24,Vrouw,Rechts,1,
,dotcolour,dotcolour,xotask,8,1,68,68,training,negativefb,23,hard,39,3.666631400000142,['c'],0,right,['8'],3,0.8599899999999252,,,38,24,Vrouw,Rechts,1,
,dotcolour,dotcolour,xotask,9,1,69,69,training,negativefb,52,hard,44,2.033172400000012,['c'],1,left,['8'],3,0.46457149999992,,,38,24,Vrouw,Rechts,1,
,dotcolour,dotcolour,xotask,10,1,70,70,training,negativefb,52,hard,43,1.7342130999998062,['c'],1,left,['3'],4,0.2637423999999555,,,38,24,Vrouw,Rechts,1,
,dotcolour,dotcolour,xotask,11,1,71,71,training,negativefb,92,easy,63,0.8667818999999781,['c'],1,left,['2'],5,0.7150773000000754,,,38,24,Vrouw,Rechts,1,
,dotcolour,dotcolour,xotask,12,1,72,72,training,negativefb,69,average,26,1.3672194999999192,['n'],1,right,['3'],4,0.5761145000001306,,,38,24,Vrouw,Rechts,1,
,dotcolour,dotcolour,xotask,13,1,73,73,training,negativefb,44,hard,44,2.8347519999999804,['c'],1,left,['3'],4,0.31969180000010056,,,38,24,Vrouw,Rechts,1,
,dotcolour,dotcolour,xotask,14,1,74,74,training,negativefb,17,hard,38,1.2834680999999364,['c'],0,right,['3'],4,0.7845205000000988,,,38,24,Vrouw,Rechts,1,
,dotcolour,dotcolour,xotask,15,1,75,75,training,negativefb,54,hard,42,2.2495830000000296,['c'],1,left,['3'],4,0.6309463000000051,,,38,24,Vrouw,Rechts,1,
,dotcolour,dotcolour,xotask,16,1,76,76,training,negativefb,85,average,28,0.8823409999999967,['n'],1,right,['2'],5,0.8822272999998404,,,38,24,Vrouw,Rechts,1,
,dotcolour,dotcolour,xotask,17,1,77,77,training,negativefb,24,hard,39,0.9831890000000385,['c'],0,right,['2'],5,0.37514869999995426,,,38,24,Vrouw,Rechts,1,
,dotcolour,dotcolour,xotask,18,1,78,78,training,negativefb,43,hard,45,1.1837152999999034,['c'],1,left,['3'],4,1.937482399999908,,,38,24,Vrouw,Rechts,1,
,dotcolour,dotcolour,xotask,19,1,79,79,training,negativefb,23,hard,36,1.0497330000000602,['c'],0,right,['2'],5,1.0736173000000235,,,38,24,Vrouw,Rechts,1,
,dotcolour,dotcolour,xotask,20,1,80,80,training,negativefb,85,easy,65,0.800249200000053,['c'],1,left,['1'],6,0.2714016999998421,,,38,24,Vrouw,Rechts,1,
,dotcolour,dotcolour,xotask,21,1,81,81,training,negativefb,61,hard,44,1.1669541000001118,['c'],1,left,['2'],5,1.3014428999999836,,,38,24,Vrouw,Rechts,1,
,dotcolour,dotcolour,xotask,22,1,82,82,training,negativefb,61,easy,18,0.7511575999999422,['n'],1,right,['1'],6,0.4596446000000469,,,38,24,Vrouw,Rechts,1,
,dotcolour,dotcolour,xotask,23,1,83,83,training,negativefb,71,easy,64,1.5002434999998968,['c'],1,left,['1'],6,0.29368939999994836,,,38,24,Vrouw,Rechts,1,
,dotcolour,dotcolour,xotask,24,1,84,84,training,negativefb,19,hard,35,1.700981400000046,['c'],0,right,['2'],5,0.3184784000000036,,,38,24,Vrouw,Rechts,1,
,dotcolour,dotcolour,xotask,25,1,85,85,training,negativefb,69,hard,37,0.966535500000191,['n'],1,right,['3'],4,2.3546638999998777,,,38,24,Vrouw,Rechts,1,
,dotcolour,dotcolour,xotask,26,1,86,86,training,negativefb,93,average,54,0.8009090000000469,['c'],1,left,['1'],6,0.18039260000000468,,,38,24,Vrouw,Rechts,1,
,dotcolour,dotcolour,xotask,27,1,87,87,training,negativefb,78,easy,17,0.9177632999999332,['n'],1,right,['1'],6,0.2970789999999397,,,38,24,Vrouw,Rechts,1,
,dotcolour,dotcolour,xotask,28,1,88,88,training,negativefb,62,easy,64,0.9166368000001057,['c'],1,left,['1'],6,0.1371655999998893,,,38,24,Vrouw,Rechts,1,
,dotcolour,dotcolour,xotask,29,1,89,89,training,negativefb,91,easy,18,0.8838608000000931,['n'],1,right,['1'],6,0.17693580000013753,,,38,24,Vrouw,Rechts,1,
,dotcolour,dotcolour,xotask,30,1,90,90,training,negativefb,52,average,55,0.716926100000137,['c'],1,left,['1'],6,0.24498880000010104,,,38,24,Vrouw,Rechts,1,
,dotcolour,dotcolour,xotask,31,1,91,91,training,negativefb,45,hard,41,2.150906500000019,['c'],1,left,['2'],5,0.2858737999999903,,,38,24,Vrouw,Rechts,1,
,dotcolour,dotcolour,xotask,32,1,92,92,training,negativefb,80,easy,63,0.8006642000000284,['c'],1,left,['1'],6,0.21781369999985145,,,38,24,Vrouw,Rechts,1,
,dotcolour,dotcolour,xotask,33,1,93,93,training,negativefb,89,easy,18,1.800482699999975,['n'],1,right,['2'],5,0.7855642000001808,,,38,24,Vrouw,Rechts,1,
,dotcolour,dotcolour,xotask,34,1,94,94,training,negativefb,83,average,28,1.4329122999999981,['n'],1,right,['3'],4,0.5449495999998817,,,38,24,Vrouw,Rechts,1,
,dotcolour,dotcolour,xotask,35,1,95,95,training,negativefb,89,average,54,0.8669476999998551,['c'],1,left,['1'],6,0.4969215000000986,,,38,24,Vrouw,Rechts,1,
,dotcolour,dotcolour,xotask,36,1,96,96,training,negativefb,30,easy,64,1.4331707999999708,['c'],1,left,['1'],6,0.23642919999997503,,,38,24,Vrouw,Rechts,1,
,dotcolour,dotcolour,xotask,37,1,97,97,training,negativefb,88,easy,19,1.017382199999929,['n'],1,right,['2'],5,0.6099563000000217,,,38,24,Vrouw,Rechts,1,
,dotcolour,dotcolour,xotask,38,1,98,98,training,negativefb,40,average,54,1.1328491000001577,['c'],1,left,['1'],6,0.3013461999998981,,,38,24,Vrouw,Rechts,1,
,dotcolour,dotcolour,xotask,39,1,99,99,training,negativefb,31,hard,39,2.2342175999999654,['c'],0,right,['3'],4,0.8635375999999724,,,38,24,Vrouw,Rechts,1,
,dotcolour,dotcolour,xotask,40,1,100,100,training,negativefb,99,average,54,0.7999119999999493,['c'],1,left,['1'],6,0.7174972000000253,,,38,24,Vrouw,Rechts,1,
,dotcolour,dotcolour,xotask,41,1,101,101,training,negativefb,95,average,28,1.6499604000000545,['n'],1,right,['2'],5,1.6153595000000678,,,38,24,Vrouw,Rechts,1,
,dotcolour,dotcolour,xotask,42,1,102,102,training,negativefb,85,easy,65,0.6834943000001203,['c'],1,left,['1'],6,0.2821296000001894,,,38,24,Vrouw,Rechts,1,
,dotcolour,dotcolour,xotask,43,1,103,103,training,negativefb,66,average,55,0.7008984000001419,['c'],1,left,['1'],6,0.266956700000037,,,38,24,Vrouw,Rechts,1,
,dotcolour,dotcolour,xotask,44,1,104,104,training,negativefb,80,easy,16,2.834032200000138,['n'],1,right,['1'],6,0.5188132999999198,,,38,24,Vrouw,Rechts,1,
,dotcolour,dotcolour,xotask,45,1,105,105,training,negativefb,66,easy,63,0.9160458999999719,['c'],1,left,['1'],6,0.2379155000000992,,,38,24,Vrouw,Rechts,1,
,dotcolour,dotcolour,xotask,46,1,106,106,training,negativefb,61,average,25,1.117158100000097,['n'],1,right,['1'],6,0.18356969999990724,,,38,24,Vrouw,Rechts,1,
,dotcolour,dotcolour,xotask,47,1,107,107,training,negativefb,80,easy,18,0.7498512000001938,['n'],1,right,['1'],6,0.12280269999996563,,,38,24,Vrouw,Rechts,1,
,dotcolour,dotcolour,xotask,48,1,108,108,training,negativefb,56,average,25,0.9998799999998482,['n'],1,right,['1'],6,0.16587219999996705,,,38,24,Vrouw,Rechts,1,
,dotcolour,dotcolour,xotask,49,1,109,109,training,negativefb,63,hard,42,1.966792899999973,['c'],1,left,['2'],5,0.2649218000001383,,,38,24,Vrouw,Rechts,1,
,dotcolour,dotcolour,xotask,50,1,110,110,training,negativefb,76,hard,44,1.6001522999999906,['c'],1,left,['3'],4,0.7660701000002064,,,38,24,Vrouw,Rechts,1,
,dotcolour,dotcolour,xotask,51,1,111,111,training,negativefb,92,easy,18,0.8163618000000952,['n'],1,right,['2'],5,0.40642499999989923,,,38,24,Vrouw,Rechts,1,
,dotcolour,dotcolour,xotask,52,1,112,112,training,negativefb,92,average,27,2.100684900000033,['n'],1,right,['3'],4,1.0745269999999891,,,38,24,Vrouw,Rechts,1,
,dotcolour,dotcolour,xotask,53,1,113,113,training,negativefb,88,easy,61,0.7003624999999829,['c'],1,left,['1'],6,0.2595100999999431,,,38,24,Vrouw,Rechts,1,
,dotcolour,dotcolour,xotask,54,1,114,114,training,negativefb,55,average,26,1.2005831000001308,['n'],1,right,['2'],5,0.6018799000000854,,,38,24,Vrouw,Rechts,1,
,dotcolour,dotcolour,xotask,55,1,115,115,training,negativefb,93,average,51,2.450685300000032,['c'],1,left,['2'],5,0.7036843999999292,,,38,24,Vrouw,Rechts,1,
,dotcolour,dotcolour,xotask,56,1,116,116,training,negativefb,70,hard,38,1.9167852000000494,['n'],1,right,['3'],4,0.7910693000001174,,,38,24,Vrouw,Rechts,1,
,dotcolour,dotcolour,xotask,57,1,117,117,training,negativefb,93,average,55,0.8996687000001202,['c'],1,left,['1'],6,0.6043475000001308,,,38,24,Vrouw,Rechts,1,
,dotcolour,dotcolour,xotask,58,1,118,118,training,negativefb,68,average,53,1.0840610000000197,['c'],1,left,['2'],5,0.273229800000081,,,38,24,Vrouw,Rechts,1,
,dotcolour,dotcolour,xotask,59,1,119,119,training,negativefb,62,average,25,1.116794099999879,['n'],1,right,['2'],5,0.6497568999998293,,,38,24,Vrouw,Rechts,1,
,xotask,dotcolour,xotask,0,2,120,120,main,negativefb,-99,average,,1.1177869000000555,['n'],1,right,['2'],5,0.8044157999997879,16,,38,24,Vrouw,Rechts,1,
,xotask,dotcolour,xotask,1,2,121,121,main,negativefb,-99,average,,1.4177064000000428,['c'],1,left,['2'],5,0.8440617999999631,60,,38,24,Vrouw,Rechts,1,
,xotask,dotcolour,xotask,2,2,122,122,main,negativefb,-99,easy,,1.0519898999998532,['n'],1,right,['2'],5,0.5692986999999903,6,,38,24,Vrouw,Rechts,1,
,xotask,dotcolour,xotask,3,2,123,123,main,negativefb,-99,average,,1.3347951000000648,['c'],1,left,['2'],5,1.1664332999998805,64,,38,24,Vrouw,Rechts,1,
,xotask,dotcolour,xotask,4,2,124,124,main,negativefb,-99,hard,,2.134346700000151,['c'],0,right,['3'],4,0.5789753000001383,27,,38,24,Vrouw,Rechts,1,
,xotask,dotcolour,xotask,5,2,125,125,main,negativefb,-99,easy,,0.9674466000001303,['c'],1,left,['2'],5,0.46266590000004726,72,,38,24,Vrouw,Rechts,1,
,xotask,dotcolour,xotask,6,2,126,126,main,negativefb,-99,average,,1.017975799999931,['n'],1,right,['1'],6,0.3804399000000558,16,,38,24,Vrouw,Rechts,1,
,xotask,dotcolour,xotask,7,2,127,127,main,negativefb,-99,average,,2.067829300000085,['c'],1,left,['3'],4,1.0279834999998911,61,,38,24,Vrouw,Rechts,1,
,xotask,dotcolour,xotask,8,2,128,128,main,negativefb,-99,easy,,0.9008171999998922,['c'],1,left,['1'],6,0.2797974999998587,74,,38,24,Vrouw,Rechts,1,
,xotask,dotcolour,xotask,9,2,129,129,main,negativefb,-99,average,,2.267414400000007,['n'],1,right,['1'],6,0.9627261000000544,16,,38,24,Vrouw,Rechts,1,
,xotask,dotcolour,xotask,10,2,130,130,main,negativefb,-99,easy,,0.8680418999999802,['c'],1,left,['1'],6,0.3546414999998433,70,,38,24,Vrouw,Rechts,1,
,xotask,dotcolour,xotask,11,2,131,131,main,negativefb,-99,hard,,1.3680116999998972,['c'],1,left,['3'],4,1.39884979999988,53,,38,24,Vrouw,Rechts,1,
,xotask,dotcolour,xotask,12,2,132,132,main,negativefb,-99,average,,1.1667863999998644,['n'],1,right,['1'],6,0.7770912000000862,19,,38,24,Vrouw,Rechts,1,
,xotask,dotcolour,xotask,13,2,133,133,main,negativefb,-99,hard,,0.9516822000000502,['c'],0,right,['1'],6,0.3008519999998498,27,,38,24,Vrouw,Rechts,1,
,xotask,dotcolour,xotask,14,2,134,134,main,negativefb,-99,average,,0.9505928000000949,['c'],1,left,['1'],6,0.25984889999995175,64,,38,24,Vrouw,Rechts,1,
,xotask,dotcolour,xotask,15,2,135,135,main,negativefb,-99,hard,,1.1346840999999586,['n'],1,right,['1'],6,1.2126378999998906,25,,38,24,Vrouw,Rechts,1,
,xotask,dotcolour,xotask,16,2,136,136,main,negativefb,-99,easy,,0.6840918999998848,['n'],1,right,['1'],6,0.5304747000000134,8,,38,24,Vrouw,Rechts,1,
,xotask,dotcolour,xotask,17,2,137,137,main,negativefb,-99,hard,,1.0345623999999134,['c'],1,left,['1'],6,0.3013496999999461,54,,38,24,Vrouw,Rechts,1,
,xotask,dotcolour,xotask,18,2,138,138,main,negativefb,-99,hard,,0.8011833000000479,['c'],1,left,['1'],6,0.29051289999983965,53,,38,24,Vrouw,Rechts,1,
,xotask,dotcolour,xotask,19,2,139,139,main,negativefb,-99,hard,,0.9338930999999775,['c'],1,left,['1'],6,0.6420917999998892,50,,38,24,Vrouw,Rechts,1,
,xotask,dotcolour,xotask,20,2,140,140,main,negativefb,-99,easy,,0.6676434000000881,['n'],1,right,['1'],6,0.27843760000018847,6,,38,24,Vrouw,Rechts,1,
,xotask,dotcolour,xotask,21,2,141,141,main,negativefb,-99,hard,,2.1676027999999405,['n'],1,right,['2'],5,0.41415059999985715,25,,38,24,Vrouw,Rechts,1,
,xotask,dotcolour,xotask,22,2,142,142,main,negativefb,-99,easy,,0.8999690000000555,['c'],1,left,['1'],6,0.22650350000003527,73,,38,24,Vrouw,Rechts,1,
,xotask,dotcolour,xotask,23,2,143,143,main,negativefb,-99,hard,,1.1503353999999035,['n'],1,right,['2'],5,1.0442439999999351,26,,38,24,Vrouw,Rechts,1,
,xotask,dotcolour,xotask,24,2,144,144,main,negativefb,-99,average,,0.7172098000000915,['c'],1,left,['2'],5,0.40719560000002275,63,,38,24,Vrouw,Rechts,1,
,xotask,dotcolour,xotask,25,2,145,145,main,negativefb,-99,easy,,0.7007369000000381,['n'],1,right,['1'],6,0.30037879999986217,8,,38,24,Vrouw,Rechts,1,
,xotask,dotcolour,xotask,26,2,146,146,main,negativefb,-99,average,,0.8171416000000136,['c'],1,left,['2'],5,0.7439570000001368,62,,38,24,Vrouw,Rechts,1,
,xotask,dotcolour,xotask,27,2,147,147,main,negativefb,-99,easy,,1.0844479999998384,['c'],1,left,['2'],5,0.560477199999923,73,,38,24,Vrouw,Rechts,1,
,xotask,dotcolour,xotask,28,2,148,148,main,negativefb,-99,easy,,0.6846278000000439,['n'],1,right,['1'],6,0.2870055000000775,6,,38,24,Vrouw,Rechts,1,
,xotask,dotcolour,xotask,29,2,149,149,main,negativefb,-99,hard,,1.4346264000000701,['n'],1,right,['2'],5,0.5308420999999726,27,,38,24,Vrouw,Rechts,1,
,xotask,dotcolour,xotask,30,2,150,150,main,negativefb,-99,easy,,0.7346754000000146,['n'],1,right,['1'],6,0.2971354999999676,9,,38,24,Vrouw,Rechts,1,
,xotask,dotcolour,xotask,31,2,151,151,main,negativefb,-99,easy,,0.9169021999998677,['c'],1,left,['1'],6,0.3142434000001231,70,,38,24,Vrouw,Rechts,1,
,xotask,dotcolour,xotask,32,2,152,152,main,negativefb,-99,hard,,4.8679005999999845,['c'],1,left,['3'],4,0.5078945000000203,51,,38,24,Vrouw,Rechts,1,
,xotask,dotcolour,xotask,33,2,153,153,main,negativefb,-99,average,,0.8685792000001129,['n'],1,right,['1'],6,0.5659619999998995,18,,38,24,Vrouw,Rechts,1,
,xotask,dotcolour,xotask,34,2,154,154,main,negativefb,-99,easy,,0.8014286000000084,['c'],1,left,['1'],6,0.6084007000001748,73,,38,24,Vrouw,Rechts,1,
,xotask,dotcolour,xotask,35,2,155,155,main,negativefb,-99,average,,1.6338270999999622,['c'],1,left,['2'],5,0.3430797999999413,64,,38,24,Vrouw,Rechts,1,
,xotask,dotcolour,xotask,36,2,156,156,main,negativefb,-99,average,,0.7510804999999436,['c'],1,left,['1'],6,0.8769439000000148,60,,38,24,Vrouw,Rechts,1,
,xotask,dotcolour,xotask,37,2,157,157,main,negativefb,-99,easy,,1.0015430999999353,['c'],1,left,['2'],5,0.714365399999906,71,,38,24,Vrouw,Rechts,1,
,xotask,dotcolour,xotask,38,2,158,158,main,negativefb,-99,easy,,0.7508003999998891,['n'],1,right,['1'],6,0.46449170000005324,7,,38,24,Vrouw,Rechts,1,
,xotask,dotcolour,xotask,39,2,159,159,main,negativefb,-99,hard,,0.6514190999998846,['n'],1,right,['1'],6,0.40468650000002526,29,,38,24,Vrouw,Rechts,1,
,xotask,dotcolour,xotask,40,2,160,160,main,negativefb,-99,average,,0.868030699999963,['c'],1,left,['1'],6,0.8182580000000144,64,,38,24,Vrouw,Rechts,1,
,xotask,dotcolour,xotask,41,2,161,161,main,negativefb,-99,hard,,0.900160299999925,['n'],1,right,['2'],5,0.5584227999997893,27,,38,24,Vrouw,Rechts,1,
,xotask,dotcolour,xotask,42,2,162,162,main,negativefb,-99,average,,0.8007900000000063,['n'],1,right,['1'],6,0.32946450000008554,17,,38,24,Vrouw,Rechts,1,
,xotask,dotcolour,xotask,43,2,163,163,main,negativefb,-99,easy,,0.6675888999998278,['n'],1,right,['1'],6,0.31461400000011963,7,,38,24,Vrouw,Rechts,1,
,xotask,dotcolour,xotask,44,2,164,164,main,negativefb,-99,hard,,0.9847016000001076,['c'],1,left,['1'],6,0.5108268999999837,54,,38,24,Vrouw,Rechts,1,
,xotask,dotcolour,xotask,45,2,165,165,main,negativefb,-99,hard,,0.9837631000000329,['c'],0,right,['2'],5,0.6530781999999817,29,,38,24,Vrouw,Rechts,1,
,xotask,dotcolour,xotask,46,2,166,166,main,negativefb,-99,hard,,0.9344846999999845,['c'],1,left,['2'],5,1.0299377999999706,50,,38,24,Vrouw,Rechts,1,
,xotask,dotcolour,xotask,47,2,167,167,main,negativefb,-99,average,,0.8170004000000972,['n'],1,right,['1'],6,0.3492980000000898,18,,38,24,Vrouw,Rechts,1,
,xotask,dotcolour,xotask,48,2,168,168,main,negativefb,-99,easy,,0.8183195999999953,['c'],1,left,['1'],6,0.2631493999999748,74,,38,24,Vrouw,Rechts,1,
,xotask,dotcolour,xotask,49,2,169,169,main,negativefb,-99,hard,,1.1510541000000103,['c'],1,left,['1'],6,0.46439460000010513,51,,38,24,Vrouw,Rechts,1,
,xotask,dotcolour,xotask,50,2,170,170,main,negativefb,-99,average,,1.0176237000000583,['c'],1,left,['2'],5,0.5017123999998603,61,,38,24,Vrouw,Rechts,1,
,xotask,dotcolour,xotask,51,2,171,171,main,negativefb,-99,easy,,0.8340997000000243,['c'],0,right,['0'],1,4.041500399999904,8,,38,24,Vrouw,Rechts,1,
,xotask,dotcolour,xotask,52,2,172,172,main,negativefb,-99,average,,2.8348985999998604,['n'],1,right,['2'],5,0.5586338000000524,17,,38,24,Vrouw,Rechts,1,
,xotask,dotcolour,xotask,53,2,173,173,main,negativefb,-99,hard,,8.068144999999959,['n'],1,right,['2'],5,3.294750000000022,26,,38,24,Vrouw,Rechts,1,
,xotask,dotcolour,xotask,54,2,174,174,main,negativefb,-99,average,,10.834412000000157,['n'],1,right,['3'],4,1.8750579000000016,16,,38,24,Vrouw,Rechts,1,
,xotask,dotcolour,xotask,55,2,175,175,main,negativefb,-99,hard,,1.3665952999999718,['c'],1,left,['1'],6,0.57848469999999,54,,38,24,Vrouw,Rechts,1,
,xotask,dotcolour,xotask,56,2,176,176,main,negativefb,-99,hard,,1.4512653000001592,['c'],1,left,['1'],6,0.49780310000005557,52,,38,24,Vrouw,Rechts,1,
,xotask,dotcolour,xotask,57,2,177,177,main,negativefb,-99,easy,,0.9679739000000609,['n'],1,right,['1'],6,0.6804067999999006,5,,38,24,Vrouw,Rechts,1,
,xotask,dotcolour,xotask,58,2,178,178,main,negativefb,-99,average,,0.734662999999955,['n'],1,right,['1'],6,0.45639520000008815,19,,38,24,Vrouw,Rechts,1,
,xotask,dotcolour,xotask,59,2,179,179,main,negativefb,-99,easy,,1.5338256000000001,['c'],1,left,['1'],6,0.8743387000001803,74,,38,24,Vrouw,Rechts,1,
,xotask,dotcolour,xotask,0,3,180,180,main,negativefb,-99,easy,,1.517940499999895,['c'],1,left,['2'],5,0.6239431999999852,70,,38,24,Vrouw,Rechts,1,
,xotask,dotcolour,xotask,1,3,181,181,main,negativefb,-99,easy,,0.9671321000000717,['n'],1,right,['1'],6,1.033744600000091,9,,38,24,Vrouw,Rechts,1,
,xotask,dotcolour,xotask,2,3,182,182,main,negativefb,-99,easy,,1.35120239999992,['c'],1,left,['1'],6,0.6913142999999309,70,,38,24,Vrouw,Rechts,1,
,xotask,dotcolour,xotask,3,3,183,183,main,negativefb,-99,average,,1.0007200000000012,['c'],1,left,['1'],6,0.3041716999998698,60,,38,24,Vrouw,Rechts,1,
,xotask,dotcolour,xotask,4,3,184,184,main,negativefb,-99,hard,,0.717859800000042,['n'],1,right,['1'],6,0.37625260000004346,27,,38,24,Vrouw,Rechts,1,
,xotask,dotcolour,xotask,5,3,185,185,main,negativefb,-99,average,,0.8343032999998741,['c'],1,left,['1'],6,0.2646876000001157,61,,38,24,Vrouw,Rechts,1,
,xotask,dotcolour,xotask,6,3,186,186,main,negativefb,-99,easy,,0.8334647000001496,['c'],1,left,['1'],6,0.269575100000111,71,,38,24,Vrouw,Rechts,1,
,xotask,dotcolour,xotask,7,3,187,187,main,negativefb,-99,hard,,0.6683791000000383,['n'],1,right,['1'],6,0.27277219999996305,27,,38,24,Vrouw,Rechts,1,
,xotask,dotcolour,xotask,8,3,188,188,main,negativefb,-99,average,,1.217774300000201,['n'],1,right,['2'],5,0.638268700000026,18,,38,24,Vrouw,Rechts,1,
,xotask,dotcolour,xotask,9,3,189,189,main,negativefb,-99,average,,0.7836171999997532,['n'],1,right,['1'],6,0.23865429999978005,16,,38,24,Vrouw,Rechts,1,
,xotask,dotcolour,xotask,10,3,190,190,main,negativefb,-99,average,,0.8838428999997632,['c'],1,left,['1'],6,0.298604499999783,63,,38,24,Vrouw,Rechts,1,
,xotask,dotcolour,xotask,11,3,191,191,main,negativefb,-99,average,,0.6837460000001556,['n'],1,right,['1'],6,0.2997102999997878,15,,38,24,Vrouw,Rechts,1,
,xotask,dotcolour,xotask,12,3,192,192,main,negativefb,-99,hard,,0.8014849999999569,['c'],1,left,['1'],6,0.3602175000000898,50,,38,24,Vrouw,Rechts,1,
,xotask,dotcolour,xotask,13,3,193,193,main,negativefb,-99,hard,,1.6010387999999693,['c'],1,left,['2'],5,0.3711958999997478,51,,38,24,Vrouw,Rechts,1,
,xotask,dotcolour,xotask,14,3,194,194,main,negativefb,-99,hard,,1.6175805000002583,['n'],1,right,['3'],4,0.6125154999999722,25,,38,24,Vrouw,Rechts,1,
,xotask,dotcolour,xotask,15,3,195,195,main,negativefb,-99,hard,,1.7513245000000097,['c'],1,left,['2'],5,0.42317750000029264,52,,38,24,Vrouw,Rechts,1,
,xotask,dotcolour,xotask,16,3,196,196,main,negativefb,-99,hard,,1.6338988000002246,['c'],1,left,['2'],5,0.781710799999928,53,,38,24,Vrouw,Rechts,1,
,xotask,dotcolour,xotask,17,3,197,197,main,negativefb,-99,easy,,0.8011377999996512,['n'],1,right,['1'],6,0.8233105999997861,9,,38,24,Vrouw,Rechts,1,
,xotask,dotcolour,xotask,18,3,198,198,main,negativefb,-99,hard,,3.2840651999999864,['n'],1,right,['3'],4,1.0363957999998092,29,,38,24,Vrouw,Rechts,1,
,xotask,dotcolour,xotask,19,3,199,199,main,negativefb,-99,hard,,1.7992103000001407,['c'],0,right,['2'],5,0.5073093000000881,27,,38,24,Vrouw,Rechts,1,
,xotask,dotcolour,xotask,20,3,200,200,main,negativefb,-99,average,,1.1336544999999205,['c'],1,left,['2'],5,0.2982406000000992,62,,38,24,Vrouw,Rechts,1,
,xotask,dotcolour,xotask,21,3,201,201,main,negativefb,-99,average,,0.6844627000000401,['n'],1,right,['2'],5,0.6121282999997675,18,,38,24,Vrouw,Rechts,1,
,xotask,dotcolour,xotask,22,3,202,202,main,negativefb,-99,average,,0.8674755999995796,['c'],1,left,['1'],6,0.25791430000026594,64,,38,24,Vrouw,Rechts,1,
,xotask,dotcolour,xotask,23,3,203,203,main,negativefb,-99,easy,,1.2517075999999179,['c'],1,left,['1'],6,0.2466229999999996,71,,38,24,Vrouw,Rechts,1,
,xotask,dotcolour,xotask,24,3,204,204,main,negativefb,-99,hard,,0.7349868999999671,['n'],0,left,['1'],6,0.4083940000000439,50,,38,24,Vrouw,Rechts,1,
,xotask,dotcolour,xotask,25,3,205,205,main,negativefb,-99,easy,,0.5845774999997957,['n'],1,right,['1'],6,0.2658497000002171,6,,38,24,Vrouw,Rechts,1,
,xotask,dotcolour,xotask,26,3,206,206,main,negativefb,-99,easy,,0.6174483000004329,['n'],1,right,['1'],6,0.23186289999966903,7,,38,24,Vrouw,Rechts,1,
,xotask,dotcolour,xotask,27,3,207,207,main,negativefb,-99,easy,,0.6348543999997673,['n'],1,right,['1'],6,0.4611571999998887,6,,38,24,Vrouw,Rechts,1,
,xotask,dotcolour,xotask,28,3,208,208,main,negativefb,-99,hard,,0.7174893999999767,['c'],1,left,['2'],5,0.48755179999989195,54,,38,24,Vrouw,Rechts,1,
,xotask,dotcolour,xotask,29,3,209,209,main,negativefb,-99,average,,0.8167043999997077,['n'],1,right,['1'],6,0.3401923999999781,19,,38,24,Vrouw,Rechts,1,
,xotask,dotcolour,xotask,30,3,210,210,main,negativefb,-99,average,,0.6346208999998453,['n'],1,right,['1'],6,0.30971750000026077,17,,38,24,Vrouw,Rechts,1,
,xotask,dotcolour,xotask,31,3,211,211,main,negativefb,-99,easy,,0.5837172999999893,['n'],1,right,['1'],6,0.308054600000105,6,,38,24,Vrouw,Rechts,1,
,xotask,dotcolour,xotask,32,3,212,212,main,negativefb,-99,easy,,0.6512604999998075,['n'],1,right,['1'],6,0.24603410000008807,6,,38,24,Vrouw,Rechts,1,
,xotask,dotcolour,xotask,33,3,213,213,main,negativefb,-99,hard,,1.017276000000038,['c'],1,left,['2'],5,0.3323192000002564,54,,38,24,Vrouw,Rechts,1,
,xotask,dotcolour,xotask,34,3,214,214,main,negativefb,-99,hard,,1.5847388000001956,['n'],1,right,['2'],5,0.7203029999996033,26,,38,24,Vrouw,Rechts,1,
,xotask,dotcolour,xotask,35,3,215,215,main,negativefb,-99,hard,,1.4179416000001765,['c'],0,right,['3'],4,1.308387699999912,28,,38,24,Vrouw,Rechts,1,
,xotask,dotcolour,xotask,36,3,216,216,main,negativefb,-99,easy,,0.8671212999997806,['c'],1,left,['1'],6,0.18195420000029117,70,,38,24,Vrouw,Rechts,1,
,xotask,dotcolour,xotask,37,3,217,217,main,negativefb,-99,average,,1.4181758000004265,['c'],0,right,['2'],5,0.2789526999999907,18,,38,24,Vrouw,Rechts,1,
,xotask,dotcolour,xotask,38,3,218,218,main,negativefb,-99,hard,,0.9342797999997856,['c'],1,left,['2'],5,0.7832384999996975,54,,38,24,Vrouw,Rechts,1,
,xotask,dotcolour,xotask,39,3,219,219,main,negativefb,-99,average,,2.4507222000002002,['n'],1,right,['2'],5,0.5023084999997991,19,,38,24,Vrouw,Rechts,1,
,xotask,dotcolour,xotask,40,3,220,220,main,negativefb,-99,hard,,1.7506534999997712,['n'],1,right,['2'],5,0.3170485999999073,28,,38,24,Vrouw,Rechts,1,
,xotask,dotcolour,xotask,41,3,221,221,main,negativefb,-99,average,,1.1331018999999287,['c'],1,left,['2'],5,0.31637789999967936,61,,38,24,Vrouw,Rechts,1,
,xotask,dotcolour,xotask,42,3,222,222,main,negativefb,-99,average,,1.4678940000003422,['n'],1,right,['1'],6,0.3412238000000798,19,,38,24,Vrouw,Rechts,1,
,xotask,dotcolour,xotask,43,3,223,223,main,negativefb,-99,easy,,0.6686121000002458,['n'],1,right,['1'],6,0.3104566999995768,8,,38,24,Vrouw,Rechts,1,
,xotask,dotcolour,xotask,44,3,224,224,main,negativefb,-99,easy,,0.7508020000000215,['c'],1,left,['1'],6,0.4043092000001707,72,,38,24,Vrouw,Rechts,1,
,xotask,dotcolour,xotask,45,3,225,225,main,negativefb,-99,average,,1.367025499999727,['c'],1,left,['1'],6,0.2626703000000816,61,,38,24,Vrouw,Rechts,1,
,xotask,dotcolour,xotask,46,3,226,226,main,negativefb,-99,hard,,0.9678576999999677,['n'],1,right,['1'],6,0.2302932999996301,25,,38,24,Vrouw,Rechts,1,
,xotask,dotcolour,xotask,47,3,227,227,main,negativefb,-99,average,,2.9183093000001463,['c'],1,left,['2'],5,0.2659424000003128,62,,38,24,Vrouw,Rechts,1,
,xotask,dotcolour,xotask,48,3,228,228,main,negativefb,-99,easy,,0.6185167000003275,['n'],1,right,['1'],6,0.2236681999997927,8,,38,24,Vrouw,Rechts,1,
,xotask,dotcolour,xotask,49,3,229,229,main,negativefb,-99,easy,,0.7839321999999811,['c'],1,left,['1'],6,0.23278510000000097,73,,38,24,Vrouw,Rechts,1,
,xotask,dotcolour,xotask,50,3,230,230,main,negativefb,-99,easy,,0.7669073000001845,['c'],1,left,['1'],6,0.2891724000000977,70,,38,24,Vrouw,Rechts,1,
,xotask,dotcolour,xotask,51,3,231,231,main,negativefb,-99,average,,1.100938000000042,['c'],1,left,['1'],6,0.20215449999977864,63,,38,24,Vrouw,Rechts,1,
,xotask,dotcolour,xotask,52,3,232,232,main,negativefb,-99,hard,,1.6330305999999837,['n'],0,left,['2'],5,0.3941090999996959,54,,38,24,Vrouw,Rechts,1,
,xotask,dotcolour,xotask,53,3,233,233,main,negativefb,-99,hard,,0.8007336000000578,['n'],1,right,['2'],5,0.954455500000222,28,,38,24,Vrouw,Rechts,1,
,xotask,dotcolour,xotask,54,3,234,234,main,negativefb,-99,easy,,0.7186810000002879,['c'],1,left,['1'],6,0.25724700000000666,74,,38,24,Vrouw,Rechts,1,
,xotask,dotcolour,xotask,55,3,235,235,main,negativefb,-99,hard,,0.6844113000001926,['n'],0,left,['1'],6,0.31627290000005814,50,,38,24,Vrouw,Rechts,1,
,xotask,dotcolour,xotask,56,3,236,236,main,negativefb,-99,average,,0.8509939000000486,['n'],1,right,['1'],6,0.31849370000009003,15,,38,24,Vrouw,Rechts,1,
,xotask,dotcolour,xotask,57,3,237,237,main,negativefb,-99,average,,1.3177590999998756,['c'],1,left,['1'],6,0.7576933000000281,63,,38,24,Vrouw,Rechts,1,
,xotask,dotcolour,xotask,58,3,238,238,main,negativefb,-99,easy,,0.7843112999998993,['c'],1,left,['1'],6,0.4483940000000075,73,,38,24,Vrouw,Rechts,1,
,xotask,dotcolour,xotask,59,3,239,239,main,negativefb,-99,easy,,0.8671313999998347,['n'],1,right,['1'],6,0.501028099999985,6,,38,24,Vrouw,Rechts,1,
,xotask,dotcolour,xotask,0,4,240,240,main,negativefb,-99,hard,,0.9682361999998648,['c'],1,left,['2'],5,1.9499109999997017,52,,38,24,Vrouw,Rechts,1,
,xotask,dotcolour,xotask,1,4,241,241,main,negativefb,-99,easy,,0.8337662999997519,['n'],1,right,['1'],6,0.3034794999998667,6,,38,24,Vrouw,Rechts,1,
,xotask,dotcolour,xotask,2,4,242,242,main,negativefb,-99,easy,,0.73391090000041,['c'],1,left,['1'],6,0.6143025000001217,70,,38,24,Vrouw,Rechts,1,
,xotask,dotcolour,xotask,3,4,243,243,main,negativefb,-99,hard,,0.7500189000002138,['n'],1,right,['1'],6,0.43202849999988757,26,,38,24,Vrouw,Rechts,1,
,xotask,dotcolour,xotask,4,4,244,244,main,negativefb,-99,average,,0.917663100000027,['c'],1,left,['1'],6,0.33134119999976974,60,,38,24,Vrouw,Rechts,1,
,xotask,dotcolour,xotask,5,4,245,245,main,negativefb,-99,easy,,1.0016218000000663,['c'],1,left,['1'],6,0.8228855000002113,74,,38,24,Vrouw,Rechts,1,
,xotask,dotcolour,xotask,6,4,246,246,main,negativefb,-99,easy,,0.9679341000000932,['c'],1,left,['1'],6,0.4562161999997443,70,,38,24,Vrouw,Rechts,1,
,xotask,dotcolour,xotask,7,4,247,247,main,negativefb,-99,hard,,0.8840736000001925,['c'],1,left,['1'],6,0.45926529999997,51,,38,24,Vrouw,Rechts,1,
,xotask,dotcolour,xotask,8,4,248,248,main,negativefb,-99,average,,0.9012407000000167,['c'],1,left,['1'],6,0.6695018999998865,60,,38,24,Vrouw,Rechts,1,
,xotask,dotcolour,xotask,9,4,249,249,main,negativefb,-99,hard,,0.7008538000000044,['c'],1,left,['1'],6,0.3756097000000409,50,,38,24,Vrouw,Rechts,1,
,xotask,dotcolour,xotask,10,4,250,250,main,negativefb,-99,easy,,0.6168713999995816,['n'],1,right,['1'],6,0.36950179999985266,5,,38,24,Vrouw,Rechts,1,
,xotask,dotcolour,xotask,11,4,251,251,main,negativefb,-99,easy,,0.8004889999997431,['c'],1,left,['1'],6,0.3551814000002196,73,,38,24,Vrouw,Rechts,1,
,xotask,dotcolour,xotask,12,4,252,252,main,negativefb,-99,hard,,1.9172810000000027,['n'],0,left,['3'],4,0.5698241000000053,53,,38,24,Vrouw,Rechts,1,
,xotask,dotcolour,xotask,13,4,253,253,main,negativefb,-99,hard,,0.8189539999998487,['c'],1,left,['1'],6,0.28209460000016406,53,,38,24,Vrouw,Rechts,1,
,xotask,dotcolour,xotask,14,4,254,254,main,negativefb,-99,average,,0.8350626999999804,['c'],1,left,['2'],5,0.31807720000006157,61,,38,24,Vrouw,Rechts,1,
,xotask,dotcolour,xotask,15,4,255,255,main,negativefb,-99,easy,,0.7011211000003641,['n'],1,right,['1'],6,0.3102533000001131,9,,38,24,Vrouw,Rechts,1,
,xotask,dotcolour,xotask,16,4,256,256,main,negativefb,-99,average,,0.6840729999998985,['n'],1,right,['1'],6,0.7200710000001891,18,,38,24,Vrouw,Rechts,1,
,xotask,dotcolour,xotask,17,4,257,257,main,negativefb,-99,easy,,0.5514259000001402,['n'],1,right,['1'],6,0.3580018999996355,9,,38,24,Vrouw,Rechts,1,
,xotask,dotcolour,xotask,18,4,258,258,main,negativefb,-99,hard,,1.05101169999989,['n'],0,left,['2'],5,0.48635809999996127,50,,38,24,Vrouw,Rechts,1,
,xotask,dotcolour,xotask,19,4,259,259,main,negativefb,-99,hard,,1.2347497999999177,['c'],0,right,['2'],5,0.6507049000001643,27,,38,24,Vrouw,Rechts,1,
,xotask,dotcolour,xotask,20,4,260,260,main,negativefb,-99,average,,0.8518887999998697,['n'],1,right,['1'],6,0.5749240999998619,16,,38,24,Vrouw,Rechts,1,
,xotask,dotcolour,xotask,21,4,261,261,main,negativefb,-99,easy,,0.6514931000001525,['n'],1,right,['1'],6,0.3837131000000227,6,,38,24,Vrouw,Rechts,1,
,xotask,dotcolour,xotask,22,4,262,262,main,negativefb,-99,average,,0.71738490000007,['n'],1,right,['1'],6,0.5158554000004187,17,,38,24,Vrouw,Rechts,1,
,xotask,dotcolour,xotask,23,4,263,263,main,negativefb,-99,average,,0.6666008000001966,['n'],1,right,['1'],6,0.4930085999999392,17,,38,24,Vrouw,Rechts,1,
,xotask,dotcolour,xotask,24,4,264,264,main,negativefb,-99,hard,,1.2354882999998154,['n'],1,right,['1'],6,0.801229599999715,29,,38,24,Vrouw,Rechts,1,
,xotask,dotcolour,xotask,25,4,265,265,main,negativefb,-99,hard,,1.2006562000001395,['n'],1,right,['2'],5,0.8497236999996858,28,,38,24,Vrouw,Rechts,1,
,xotask,dotcolour,xotask,26,4,266,266,main,negativefb,-99,easy,,0.8683936000002177,['n'],1,right,['1'],6,0.39802410000038435,9,,38,24,Vrouw,Rechts,1,
,xotask,dotcolour,xotask,27,4,267,267,main,negativefb,-99,hard,,2.4012291999997615,['c'],0,right,['3'],4,0.5021339999998418,27,,38,24,Vrouw,Rechts,1,
,xotask,dotcolour,xotask,28,4,268,268,main,negativefb,-99,easy,,0.9180812999998125,['c'],1,left,['1'],6,0.2630829999998241,74,,38,24,Vrouw,Rechts,1,
,xotask,dotcolour,xotask,29,4,269,269,main,negativefb,-99,hard,,1.86823510000022,['c'],0,right,['2'],5,0.5065314999997099,27,,38,24,Vrouw,Rechts,1,
,xotask,dotcolour,xotask,30,4,270,270,main,negativefb,-99,average,,0.7011278999998467,['n'],1,right,['1'],6,0.3311897000003228,15,,38,24,Vrouw,Rechts,1,
,xotask,dotcolour,xotask,31,4,271,271,main,negativefb,-99,hard,,0.8671678999999131,['c'],1,left,['1'],6,0.28445220000003246,50,,38,24,Vrouw,Rechts,1,
,xotask,dotcolour,xotask,32,4,272,272,main,negativefb,-99,hard,,1.01698690000012,['c'],1,left,['1'],6,0.5930508999999802,54,,38,24,Vrouw,Rechts,1,
,xotask,dotcolour,xotask,33,4,273,273,main,negativefb,-99,average,,0.6832705000001624,['c'],1,left,['1'],6,0.4945799000001898,61,,38,24,Vrouw,Rechts,1,
,xotask,dotcolour,xotask,34,4,274,274,main,negativefb,-99,average,,0.91771400000016,['c'],1,left,['1'],6,0.29557919999979276,63,,38,24,Vrouw,Rechts,1,
,xotask,dotcolour,xotask,35,4,275,275,main,negativefb,-99,hard,,1.9006580999998732,['n'],0,left,['2'],5,0.5685972000001129,52,,38,24,Vrouw,Rechts,1,
,xotask,dotcolour,xotask,36,4,276,276,main,negativefb,-99,average,,0.8172637000002396,['n'],1,right,['1'],6,0.2659000000003289,19,,38,24,Vrouw,Rechts,1,
,xotask,dotcolour,xotask,37,4,277,277,main,negativefb,-99,hard,,0.9011755999999878,['n'],1,right,['1'],6,0.46779620000006616,26,,38,24,Vrouw,Rechts,1,
,xotask,dotcolour,xotask,38,4,278,278,main,negativefb,-99,average,,0.8018111000001227,['n'],1,right,['1'],6,0.4021090000001095,16,,38,24,Vrouw,Rechts,1,
,xotask,dotcolour,xotask,39,4,279,279,main,negativefb,-99,hard,,0.6668460000000778,['n'],1,right,['1'],6,0.3839903000002778,26,,38,24,Vrouw,Rechts,1,
,xotask,dotcolour,xotask,40,4,280,280,main,negativefb,-99,hard,,1.0011623000000327,['n'],1,right,['1'],6,0.4096346999999696,25,,38,24,Vrouw,Rechts,1,
,xotask,dotcolour,xotask,41,4,281,281,main,negativefb,-99,easy,,0.966884299999947,['c'],1,left,['1'],6,0.5236068999997769,74,,38,24,Vrouw,Rechts,1,
,xotask,dotcolour,xotask,42,4,282,282,main,negativefb,-99,easy,,0.8502800999999636,['c'],1,left,['1'],6,0.918087700000342,74,,38,24,Vrouw,Rechts,1,
,xotask,dotcolour,xotask,43,4,283,283,main,negativefb,-99,easy,,1.134409400000095,['n'],1,right,['1'],6,0.4849208999999064,8,,38,24,Vrouw,Rechts,1,
,xotask,dotcolour,xotask,44,4,284,284,main,negativefb,-99,average,,1.1172764000002644,['n'],1,right,['1'],6,0.38845919999994294,16,,38,24,Vrouw,Rechts,1,
,xotask,dotcolour,xotask,45,4,285,285,main,negativefb,-99,average,,4.334200499999952,['c'],1,left,['2'],5,0.3446293000001788,64,,38,24,Vrouw,Rechts,1,
,xotask,dotcolour,xotask,46,4,286,286,main,negativefb,-99,average,,0.8507426999999552,['c'],1,left,['1'],6,0.32191850000026534,61,,38,24,Vrouw,Rechts,1,
,xotask,dotcolour,xotask,47,4,287,287,main,negativefb,-99,average,,0.7002931000001809,['c'],1,left,['1'],6,0.5536869000002298,64,,38,24,Vrouw,Rechts,1,
,xotask,dotcolour,xotask,48,4,288,288,main,negativefb,-99,easy,,0.7839332000003196,['c'],1,left,['1'],6,0.30129230000011376,74,,38,24,Vrouw,Rechts,1,
,xotask,dotcolour,xotask,49,4,289,289,main,negativefb,-99,easy,,0.8346553999999742,['n'],1,right,['1'],6,0.3607437000000573,8,,38,24,Vrouw,Rechts,1,
,xotask,dotcolour,xotask,50,4,290,290,main,negativefb,-99,easy,,2.734164499999679,['c'],1,left,['1'],6,0.6457748000002539,72,,38,24,Vrouw,Rechts,1,
,xotask,dotcolour,xotask,51,4,291,291,main,negativefb,-99,easy,,0.8512369999998555,['c'],1,left,['1'],6,0.5795696999998654,74,,38,24,Vrouw,Rechts,1,
,xotask,dotcolour,xotask,52,4,292,292,main,negativefb,-99,average,,0.9512579000002006,['c'],1,left,['1'],6,0.29574340000044685,61,,38,24,Vrouw,Rechts,1,
,xotask,dotcolour,xotask,53,4,293,293,main,negativefb,-99,easy,,0.7675457999998798,['n'],1,right,['1'],6,0.34151380000002973,7,,38,24,Vrouw,Rechts,1,
,xotask,dotcolour,xotask,54,4,294,294,main,negativefb,-99,average,,1.0680396000002474,['n'],1,right,['1'],6,0.6470856999999341,18,,38,24,Vrouw,Rechts,1,
,xotask,dotcolour,xotask,55,4,295,295,main,negativefb,-99,average,,1.0334831000000122,['c'],1,left,['2'],5,0.3491433999997753,60,,38,24,Vrouw,Rechts,1,
,xotask,dotcolour,xotask,56,4,296,296,main,negativefb,-99,hard,,1.1667613000004167,['n'],1,right,['1'],6,0.3524962000001324,25,,38,24,Vrouw,Rechts,1,
,xotask,dotcolour,xotask,57,4,297,297,main,negativefb,-99,average,,0.7004412999999658,['n'],1,right,['1'],6,0.31187699999964025,17,,38,24,Vrouw,Rechts,1,
,xotask,dotcolour,xotask,58,4,298,298,main,negativefb,-99,hard,,1.2684096999996655,['c'],1,left,['2'],5,0.3292964999996002,50,,38,24,Vrouw,Rechts,1,
,xotask,dotcolour,xotask,59,4,299,299,main,negativefb,-99,easy,,0.8178741000001537,['n'],1,right,['1'],6,0.3488070000003063,7,,38,24,Vrouw,Rechts,1,
,dotcolour,dotcolour,xotask,0,0,0,300,training,negativefb,86,average,55,1.0179935999999543,['c'],1,left,['1'],6,0.5359771000003093,,,38,24,Vrouw,Rechts,1,
,dotcolour,dotcolour,xotask,1,0,1,301,training,negativefb,42,average,51,1.0013217000000623,['c'],1,left,['1'],6,0.5384005999999317,,,38,24,Vrouw,Rechts,1,
,dotcolour,dotcolour,xotask,2,0,2,302,training,negativefb,98,average,52,0.7997767000001659,['c'],1,left,['1'],6,1.3575179000004027,,,38,24,Vrouw,Rechts,1,
,dotcolour,dotcolour,xotask,3,0,3,303,training,negativefb,22,hard,39,1.000720900000033,['c'],0,right,['2'],5,0.3436550999999781,,,38,24,Vrouw,Rechts,1,
,dotcolour,dotcolour,xotask,4,0,4,304,training,negativefb,48,easy,63,0.7501469999997425,['c'],1,left,['1'],6,0.28354019999960656,,,38,24,Vrouw,Rechts,1,
,dotcolour,dotcolour,xotask,5,0,5,305,training,negativefb,37,hard,37,1.2500741999997445,['c'],0,right,['2'],5,0.7023589000000356,,,38,24,Vrouw,Rechts,1,
,dotcolour,dotcolour,xotask,6,0,6,306,training,negativefb,66,average,55,0.8668996000001243,['c'],1,left,['1'],6,0.7354786999999305,,,38,24,Vrouw,Rechts,1,
,dotcolour,dotcolour,xotask,7,0,7,307,training,negativefb,72,average,28,1.1008796000000984,['n'],1,right,['2'],5,0.4787490999997317,,,38,24,Vrouw,Rechts,1,
,dotcolour,dotcolour,xotask,8,0,8,308,training,negativefb,93,easy,17,0.8843728000001647,['n'],1,right,['1'],6,0.39248650000035923,,,38,24,Vrouw,Rechts,1,
,dotcolour,dotcolour,xotask,9,0,9,309,training,negativefb,55,hard,44,1.8835375999997268,['c'],1,left,['2'],5,0.4538524999998117,,,38,24,Vrouw,Rechts,1,
,dotcolour,dotcolour,xotask,10,0,10,310,training,negativefb,76,easy,17,0.8339335999999093,['n'],1,right,['1'],6,0.5383412999999564,,,38,24,Vrouw,Rechts,1,
,dotcolour,dotcolour,xotask,11,0,11,311,training,negativefb,75,easy,62,0.850015699999858,['c'],1,left,['1'],6,0.3157453999997415,,,38,24,Vrouw,Rechts,1,
,dotcolour,dotcolour,xotask,12,0,12,312,training,negativefb,91,hard,37,1.8334227999998802,['n'],1,right,['3'],4,0.4851613000000725,,,38,24,Vrouw,Rechts,1,
,dotcolour,dotcolour,xotask,13,0,13,313,training,negativefb,63,hard,45,2.0995499999999083,['n'],0,left,['3'],4,0.35748289999992267,,,38,24,Vrouw,Rechts,1,
,dotcolour,dotcolour,xotask,14,0,14,314,training,negativefb,61,easy,63,0.8338100999999369,['c'],1,left,['1'],6,0.31080419999989317,,,38,24,Vrouw,Rechts,1,
,dotcolour,dotcolour,xotask,15,0,15,315,training,negativefb,33,average,27,0.7160648999997647,['n'],1,right,['1'],6,0.3095305999995617,,,38,24,Vrouw,Rechts,1,
,dotcolour,dotcolour,xotask,16,0,16,316,training,negativefb,52,easy,61,0.9337270000000899,['c'],1,left,['1'],6,0.32479120000016337,,,38,24,Vrouw,Rechts,1,
,dotcolour,dotcolour,xotask,17,0,17,317,training,negativefb,70,hard,43,1.1998369999996612,['c'],1,left,['2'],5,1.5839578999998594,,,38,24,Vrouw,Rechts,1,
,dotcolour,dotcolour,xotask,18,0,18,318,training,negativefb,45,hard,36,1.3500364000001355,['n'],1,right,['3'],4,0.49735599999985425,,,38,24,Vrouw,Rechts,1,
,dotcolour,dotcolour,xotask,19,0,19,319,training,negativefb,19,hard,38,0.8497276999996757,['c'],0,right,['2'],5,0.7563230000000658,,,38,24,Vrouw,Rechts,1,
,dotcolour,dotcolour,xotask,20,0,20,320,training,negativefb,58,hard,35,1.7832158000001073,['n'],1,right,['2'],5,0.526795299999776,,,38,24,Vrouw,Rechts,1,
,dotcolour,dotcolour,xotask,21,0,21,321,training,negativefb,68,average,26,0.883460500000183,['n'],1,right,['2'],5,0.3353573999997934,,,38,24,Vrouw,Rechts,1,
,dotcolour,dotcolour,xotask,22,0,22,322,training,negativefb,97,average,29,0.9001312999998845,['n'],1,right,['3'],4,0.7653519999998935,,,38,24,Vrouw,Rechts,1,
,dotcolour,dotcolour,xotask,23,0,23,323,training,negativefb,38,hard,44,0.9828354999999647,['c'],1,left,['1'],6,0.41524429999981294,,,38,24,Vrouw,Rechts,1,
,dotcolour,dotcolour,xotask,24,0,24,324,training,negativefb,86,average,29,1.2826015000000552,['n'],1,right,['2'],5,0.5951734999998735,,,38,24,Vrouw,Rechts,1,
,dotcolour,dotcolour,xotask,25,0,25,325,training,negativefb,87,hard,41,0.932535899999948,['c'],1,left,['2'],5,0.6229760999999598,,,38,24,Vrouw,Rechts,1,
,dotcolour,dotcolour,xotask,26,0,26,326,training,negativefb,41,easy,17,0.8674793000000136,['n'],1,right,['1'],6,0.683980000000247,,,38,24,Vrouw,Rechts,1,
,dotcolour,dotcolour,xotask,27,0,27,327,training,negativefb,60,easy,18,0.6837190000001101,['n'],1,right,['1'],6,0.3646630000002915,,,38,24,Vrouw,Rechts,1,
,dotcolour,dotcolour,xotask,28,0,28,328,training,negativefb,90,average,29,0.7006501000000753,['n'],1,right,['1'],6,0.3785041999999521,,,38,24,Vrouw,Rechts,1,
,dotcolour,dotcolour,xotask,29,0,29,329,training,negativefb,19,hard,38,1.2350234000000455,['c'],0,right,['2'],5,1.170184099999915,,,38,24,Vrouw,Rechts,1,
,dotcolour,dotcolour,xotask,30,0,30,330,training,negativefb,43,average,51,0.9339617000000544,['c'],1,left,['2'],5,0.6063343000000714,,,38,24,Vrouw,Rechts,1,
,dotcolour,dotcolour,xotask,31,0,31,331,training,negativefb,43,average,51,2.0002074999997603,['c'],1,left,['1'],6,0.7096644000002925,,,38,24,Vrouw,Rechts,1,
,dotcolour,dotcolour,xotask,32,0,32,332,training,negativefb,99,easy,17,0.8327339000002212,['n'],1,right,['2'],5,0.6725071000000753,,,38,24,Vrouw,Rechts,1,
,dotcolour,dotcolour,xotask,33,0,33,333,training,negativefb,38,average,26,1.4347903000002589,['n'],1,right,['3'],4,0.5574897999999848,,,38,24,Vrouw,Rechts,1,
,dotcolour,dotcolour,xotask,34,0,34,334,training,negativefb,90,hard,42,1.0494607000000542,['c'],1,left,['3'],4,0.8534463999999389,,,38,24,Vrouw,Rechts,1,
,dotcolour,dotcolour,xotask,35,0,35,335,training,negativefb,93,easy,65,0.8994241999998849,['c'],1,left,['1'],6,0.26268320000008316,,,38,24,Vrouw,Rechts,1,
,dotcolour,dotcolour,xotask,36,0,36,336,training,negativefb,68,average,52,1.2832595999998375,['c'],1,left,['1'],6,0.48149480000029143,,,38,24,Vrouw,Rechts,1,
,dotcolour,dotcolour,xotask,37,0,37,337,training,negativefb,88,easy,16,0.7492680000000291,['n'],1,right,['1'],6,0.35222539999995206,,,38,24,Vrouw,Rechts,1,
,dotcolour,dotcolour,xotask,38,0,38,338,training,negativefb,88,easy,15,0.6830183000001853,['n'],1,right,['1'],6,0.5748498999996627,,,38,24,Vrouw,Rechts,1,
,dotcolour,dotcolour,xotask,39,0,39,339,training,negativefb,53,easy,63,0.7172009000000799,['c'],1,left,['1'],6,0.37204609999980676,,,38,24,Vrouw,Rechts,1,
,dotcolour,dotcolour,xotask,40,0,40,340,training,negativefb,82,easy,17,0.6499662000001081,['n'],1,right,['1'],6,0.33880590000035227,,,38,24,Vrouw,Rechts,1,
,dotcolour,dotcolour,xotask,41,0,41,341,training,negativefb,80,average,52,1.349179699999695,['c'],1,left,['3'],4,1.0227528999998867,,,38,24,Vrouw,Rechts,1,
,dotcolour,dotcolour,xotask,42,0,42,342,training,negativefb,92,hard,42,1.0489526999999725,['c'],1,left,['2'],5,0.6450267000000167,,,38,24,Vrouw,Rechts,1,
,dotcolour,dotcolour,xotask,43,0,43,343,training,negativefb,93,average,51,0.7000213999999687,['c'],1,left,['1'],6,0.30302590000019336,,,38,24,Vrouw,Rechts,1,
,dotcolour,dotcolour,xotask,44,0,44,344,training,negativefb,60,hard,43,2.166770599999836,['c'],1,left,['2'],5,0.3250106999998934,,,38,24,Vrouw,Rechts,1,
,dotcolour,dotcolour,xotask,45,0,45,345,training,negativefb,88,average,53,1.3004543000001831,['c'],1,left,['2'],5,0.7400415999995857,,,38,24,Vrouw,Rechts,1,
,dotcolour,dotcolour,xotask,46,0,46,346,training,negativefb,50,average,29,0.9997180000000299,['c'],0,right,['2'],5,0.8385454999997819,,,38,24,Vrouw,Rechts,1,
,dotcolour,dotcolour,xotask,47,0,47,347,training,negativefb,86,easy,63,0.6829679999996188,['c'],1,left,['1'],6,0.23446740000008504,,,38,24,Vrouw,Rechts,1,
,dotcolour,dotcolour,xotask,48,0,48,348,training,negativefb,85,hard,45,0.9170527999999649,['c'],1,left,['2'],5,0.3329088000000411,,,38,24,Vrouw,Rechts,1,
,dotcolour,dotcolour,xotask,49,0,49,349,training,negativefb,86,easy,63,0.6839264000000185,['c'],1,left,['1'],6,0.2997646999997414,,,38,24,Vrouw,Rechts,1,
,dotcolour,dotcolour,xotask,50,0,50,350,training,negativefb,60,hard,39,1.9841518000002907,['c'],0,right,['2'],5,0.7442654999999831,,,38,24,Vrouw,Rechts,1,
,dotcolour,dotcolour,xotask,51,0,51,351,training,negativefb,87,average,26,0.8828286999996635,['n'],1,right,['1'],6,0.37561269999969227,,,38,24,Vrouw,Rechts,1,
,dotcolour,dotcolour,xotask,52,0,52,352,training,negativefb,84,easy,16,0.7345242999999755,['n'],1,right,['1'],6,0.23504509999975198,,,38,24,Vrouw,Rechts,1,
,dotcolour,dotcolour,xotask,53,0,53,353,training,negativefb,96,hard,39,1.050369099999898,['n'],1,right,['3'],4,1.512923199999932,,,38,24,Vrouw,Rechts,1,
,dotcolour,dotcolour,xotask,54,0,54,354,training,negativefb,98,average,29,1.0819393000001583,['n'],1,right,['2'],5,1.0811705999999504,,,38,24,Vrouw,Rechts,1,
,dotcolour,dotcolour,xotask,55,0,55,355,training,negativefb,76,hard,42,0.9846938000000591,['c'],1,left,['1'],6,0.40659009999990303,,,38,24,Vrouw,Rechts,1,
,dotcolour,dotcolour,xotask,56,0,56,356,training,negativefb,22,hard,38,1.1005936999999903,['c'],0,right,['2'],5,0.5466521000003013,,,38,24,Vrouw,Rechts,1,
,dotcolour,dotcolour,xotask,57,0,57,357,training,negativefb,80,easy,65,0.7001583000001119,['c'],1,left,['1'],6,0.3216606999999385,,,38,24,Vrouw,Rechts,1,
,dotcolour,dotcolour,xotask,58,0,58,358,training,negativefb,62,easy,17,0.7501639000001887,['n'],1,right,['1'],6,0.3267406999998457,,,38,24,Vrouw,Rechts,1,
,dotcolour,dotcolour,xotask,59,0,59,359,training,negativefb,71,easy,65,0.6835086000000956,['c'],1,left,['1'],6,0.3346764000002622,,,38,24,Vrouw,Rechts,1,
,dotcolour,dotcolour,xotask,0,1,60,360,training,negativefb,32,hard,41,2.4507547000002887,['n'],0,left,['3'],4,1.1962346000000252,,,38,24,Vrouw,Rechts,1,
,dotcolour,dotcolour,xotask,1,1,61,361,training,negativefb,49,average,25,0.6676878999996916,['n'],1,right,['2'],5,0.4335551999997733,,,38,24,Vrouw,Rechts,1,
,dotcolour,dotcolour,xotask,2,1,62,362,training,negativefb,36,hard,39,0.8331385999999839,['c'],0,right,['1'],6,0.3755943999999545,,,38,24,Vrouw,Rechts,1,
,dotcolour,dotcolour,xotask,3,1,63,363,training,negativefb,59,easy,64,0.7002998000002663,['c'],1,left,['1'],6,0.3085431999998036,,,38,24,Vrouw,Rechts,1,
,dotcolour,dotcolour,xotask,4,1,64,364,training,negativefb,18,easy,64,0.6666770000001634,['c'],1,left,['2'],5,0.43009410000013304,,,38,24,Vrouw,Rechts,1,
,dotcolour,dotcolour,xotask,5,1,65,365,training,negativefb,69,easy,64,0.5682191999999304,['c'],1,left,['1'],6,0.7671774999998888,,,38,24,Vrouw,Rechts,1,
,dotcolour,dotcolour,xotask,6,1,66,366,training,negativefb,69,average,51,0.8169852999999421,['c'],1,left,['2'],5,0.2630058999998255,,,38,24,Vrouw,Rechts,1,
,dotcolour,dotcolour,xotask,7,1,67,367,training,negativefb,61,easy,15,0.7009571999997206,['n'],1,right,['1'],6,0.33754300000009607,,,38,24,Vrouw,Rechts,1,
,dotcolour,dotcolour,xotask,8,1,68,368,training,negativefb,56,hard,39,1.0668824999997923,['n'],1,right,['3'],4,0.6815144000001965,,,38,24,Vrouw,Rechts,1,
,dotcolour,dotcolour,xotask,9,1,69,369,training,negativefb,91,hard,44,0.8003426999998737,['c'],1,left,['2'],5,1.0701884999998583,,,38,24,Vrouw,Rechts,1,
,dotcolour,dotcolour,xotask,10,1,70,370,training,negativefb,70,hard,38,1.0007523000003857,['c'],0,right,['2'],5,0.3068348000001606,,,38,24,Vrouw,Rechts,1,
,dotcolour,dotcolour,xotask,11,1,71,371,training,negativefb,71,average,55,0.6830245000001014,['c'],1,left,['2'],5,0.3002031999999417,,,38,24,Vrouw,Rechts,1,
,dotcolour,dotcolour,xotask,12,1,72,372,training,negativefb,68,easy,18,0.6494045999997979,['n'],1,right,['1'],6,0.2543752999999924,,,38,24,Vrouw,Rechts,1,
,dotcolour,dotcolour,xotask,13,1,73,373,training,negativefb,33,average,54,0.7999915999998848,['c'],1,left,['1'],6,0.25173380000023826,,,38,24,Vrouw,Rechts,1,
,dotcolour,dotcolour,xotask,14,1,74,374,training,negativefb,31,hard,42,1.9171378999999433,['c'],1,left,['3'],4,0.4688400999998521,,,38,24,Vrouw,Rechts,1,
,dotcolour,dotcolour,xotask,15,1,75,375,training,negativefb,72,hard,38,1.1002418999996735,['n'],1,right,['2'],5,1.4309500999997908,,,38,24,Vrouw,Rechts,1,
,dotcolour,dotcolour,xotask,16,1,76,376,training,negativefb,88,easy,17,0.7169018999998116,['n'],1,right,['1'],6,0.36760839999988093,,,38,24,Vrouw,Rechts,1,
,dotcolour,dotcolour,xotask,17,1,77,377,training,negativefb,59,easy,64,0.9006561999999576,['c'],1,left,['1'],6,0.33344290000013643,,,38,24,Vrouw,Rechts,1,
,dotcolour,dotcolour,xotask,18,1,78,378,training,negativefb,21,hard,39,1.150554899999861,['n'],1,right,['2'],5,0.46621660000027987,,,38,24,Vrouw,Rechts,1,
,dotcolour,dotcolour,xotask,19,1,79,379,training,negativefb,72,easy,16,0.6659138999998504,['n'],1,right,['1'],6,0.3250173999999788,,,38,24,Vrouw,Rechts,1,
,dotcolour,dotcolour,xotask,20,1,80,380,training,negativefb,88,easy,19,0.8490686000000096,['n'],1,right,['1'],6,0.29473840000036944,,,38,24,Vrouw,Rechts,1,
,dotcolour,dotcolour,xotask,21,1,81,381,training,negativefb,58,average,29,1.2499500000003536,['n'],1,right,['2'],5,0.4407194000000345,,,38,24,Vrouw,Rechts,1,
,dotcolour,dotcolour,xotask,22,1,82,382,training,negativefb,42,easy,16,0.7178646000002118,['n'],1,right,['1'],6,0.27455890000010186,,,38,24,Vrouw,Rechts,1,
,dotcolour,dotcolour,xotask,23,1,83,383,training,negativefb,32,easy,63,1.5342568999999457,['c'],1,left,['1'],6,0.40221680000013293,,,38,24,Vrouw,Rechts,1,
,dotcolour,dotcolour,xotask,24,1,84,384,training,negativefb,83,easy,65,0.8173019999999269,['c'],1,left,['1'],6,0.32250210000029256,,,38,24,Vrouw,Rechts,1,
,dotcolour,dotcolour,xotask,25,1,85,385,training,negativefb,80,easy,65,0.7169429999999011,['c'],1,left,['1'],6,0.3208804000000782,,,38,24,Vrouw,Rechts,1,
,dotcolour,dotcolour,xotask,26,1,86,386,training,negativefb,25,easy,16,2.7679932000000917,['n'],1,right,['1'],6,0.3256380999996509,,,38,24,Vrouw,Rechts,1,
,dotcolour,dotcolour,xotask,27,1,87,387,training,negativefb,75,average,25,1.0517550999998093,['n'],1,right,['2'],5,2.1512407000000167,,,38,24,Vrouw,Rechts,1,
,dotcolour,dotcolour,xotask,28,1,88,388,training,negativefb,21,hard,35,1.7832640999999967,['c'],0,right,['3'],4,0.5290903000000071,,,38,24,Vrouw,Rechts,1,
,dotcolour,dotcolour,xotask,29,1,89,389,training,negativefb,67,average,52,0.8831898999997065,['c'],1,left,['3'],4,0.32921349999969607,,,38,24,Vrouw,Rechts,1,
,dotcolour,dotcolour,xotask,30,1,90,390,training,negativefb,91,average,29,0.8334381999998186,['n'],1,right,['3'],4,0.41912909999973635,,,38,24,Vrouw,Rechts,1,
,dotcolour,dotcolour,xotask,31,1,91,391,training,negativefb,55,hard,39,1.2331572999996752,['c'],0,right,['2'],5,0.9611124999996719,,,38,24,Vrouw,Rechts,1,
,dotcolour,dotcolour,xotask,32,1,92,392,training,negativefb,94,average,26,0.8165275000001202,['n'],1,right,['2'],5,0.6258852000000843,,,38,24,Vrouw,Rechts,1,
,dotcolour,dotcolour,xotask,33,1,93,393,training,negativefb,55,easy,19,0.8172110999998949,['n'],1,right,['1'],6,0.2492216999999073,,,38,24,Vrouw,Rechts,1,
,dotcolour,dotcolour,xotask,34,1,94,394,training,negativefb,66,hard,44,1.0501750999997057,['c'],1,left,['1'],6,0.26152559999991354,,,38,24,Vrouw,Rechts,1,
,dotcolour,dotcolour,xotask,35,1,95,395,training,negativefb,64,average,29,1.4166477000003397,['n'],1,right,['3'],4,1.3303424999999152,,,38,24,Vrouw,Rechts,1,
,dotcolour,dotcolour,xotask,36,1,96,396,training,negativefb,84,average,54,0.766092800000024,['c'],1,left,['1'],6,0.8314676999998483,,,38,24,Vrouw,Rechts,1,
,dotcolour,dotcolour,xotask,37,1,97,397,training,negativefb,78,average,51,0.9008404999999584,['c'],1,left,['2'],5,0.4980242999999973,,,38,24,Vrouw,Rechts,1,
,dotcolour,dotcolour,xotask,38,1,98,398,training,negativefb,87,hard,36,0.8004888000000392,['c'],0,right,['2'],5,0.46994619999986753,,,38,24,Vrouw,Rechts,1,
,dotcolour,dotcolour,xotask,39,1,99,399,training,negativefb,95,average,29,0.8497710999999981,['n'],1,right,['2'],5,0.41757970000026035,,,38,24,Vrouw,Rechts,1,
,dotcolour,dotcolour,xotask,40,1,100,400,training,negativefb,81,easy,15,0.6339063000000351,['n'],1,right,['1'],6,0.2713712999998279,,,38,24,Vrouw,Rechts,1,
,dotcolour,dotcolour,xotask,41,1,101,401,training,negativefb,52,hard,44,0.716830200000004,['c'],1,left,['1'],6,0.40794069999992644,,,38,24,Vrouw,Rechts,1,
,dotcolour,dotcolour,xotask,42,1,102,402,training,negativefb,37,average,28,1.1996674000001804,['n'],1,right,['2'],5,0.623923300000115,,,38,24,Vrouw,Rechts,1,
,dotcolour,dotcolour,xotask,43,1,103,403,training,negativefb,62,hard,45,0.7496163000000706,['c'],1,left,['2'],5,0.5444750999999997,,,38,24,Vrouw,Rechts,1,
,dotcolour,dotcolour,xotask,44,1,104,404,training,negativefb,71,easy,64,2.4671494999997776,['c'],1,left,['1'],6,0.2729067000000214,,,38,24,Vrouw,Rechts,1,
,dotcolour,dotcolour,xotask,45,1,105,405,training,negativefb,49,hard,35,2.199673099999927,['c'],0,right,['3'],4,5.18256700000029,,,38,24,Vrouw,Rechts,1,
,dotcolour,dotcolour,xotask,46,1,106,406,training,negativefb,89,average,54,0.6502819000002091,['c'],1,left,['2'],5,0.9157214000001659,,,38,24,Vrouw,Rechts,1,
,dotcolour,dotcolour,xotask,47,1,107,407,training,negativefb,27,average,29,0.8840123999998468,['n'],1,right,['2'],5,0.2761270000000877,,,38,24,Vrouw,Rechts,1,
,dotcolour,dotcolour,xotask,48,1,108,408,training,negativefb,82,easy,62,0.8836731000001237,['c'],1,left,['1'],6,0.22133489999987432,,,38,24,Vrouw,Rechts,1,
,dotcolour,dotcolour,xotask,49,1,109,409,training,negativefb,32,hard,43,2.1510330000000977,['n'],0,left,['3'],4,1.1594381999998404,,,38,24,Vrouw,Rechts,1,
,dotcolour,dotcolour,xotask,50,1,110,410,training,negativefb,91,easy,61,1.033148600000004,['c'],1,left,['1'],6,0.3360074999995959,,,38,24,Vrouw,Rechts,1,
,dotcolour,dotcolour,xotask,51,1,111,411,training,negativefb,87,average,53,0.9495477999998911,['c'],1,left,['2'],5,0.6772416999997404,,,38,24,Vrouw,Rechts,1,
,dotcolour,dotcolour,xotask,52,1,112,412,training,negativefb,90,average,51,0.9844504999996389,['c'],1,left,['1'],6,0.3471508000002359,,,38,24,Vrouw,Rechts,1,
,dotcolour,dotcolour,xotask,53,1,113,413,training,negativefb,15,hard,43,1.3330585000003339,['n'],0,left,['3'],4,0.3839498999996067,,,38,24,Vrouw,Rechts,1,
,dotcolour,dotcolour,xotask,54,1,114,414,training,negativefb,67,average,51,0.767579499999556,['c'],1,left,['2'],5,0.7299843000000692,,,38,24,Vrouw,Rechts,1,
,dotcolour,dotcolour,xotask,55,1,115,415,training,negativefb,62,easy,15,1.3664813000000322,['n'],1,right,['1'],6,0.3101323999999295,,,38,24,Vrouw,Rechts,1,
,dotcolour,dotcolour,xotask,56,1,116,416,training,negativefb,87,hard,43,1.1515877000001637,['c'],1,left,['2'],5,1.0606387000002542,,,38,24,Vrouw,Rechts,1,
,dotcolour,dotcolour,xotask,57,1,117,417,training,negativefb,65,hard,37,1.1502928999998403,['n'],1,right,['3'],4,0.5409100000001672,,,38,24,Vrouw,Rechts,1,
,dotcolour,dotcolour,xotask,58,1,118,418,training,negativefb,69,hard,44,0.8338435000000572,['c'],1,left,['2'],5,0.3499501000001146,,,38,24,Vrouw,Rechts,1,
,dotcolour,dotcolour,xotask,59,1,119,419,training,negativefb,93,average,27,1.5002307999998266,['n'],1,right,['2'],5,0.6682877000002918,,,38,24,Vrouw,Rechts,1,
,dotcolour,dotcolour,xotask,0,2,120,420,main,negativefb,-99,average,25,0.8337978999998086,['n'],1,right,['2'],5,0.5157446000002892,,,38,24,Vrouw,Rechts,1,
,dotcolour,dotcolour,xotask,1,2,121,421,main,negativefb,-99,average,55,0.7000794000000496,['c'],1,left,['1'],6,0.6990458999998737,,,38,24,Vrouw,Rechts,1,
,dotcolour,dotcolour,xotask,2,2,122,422,main,negativefb,-99,hard,41,1.7841894000002867,['n'],0,left,['2'],5,0.33632149999994,,,38,24,Vrouw,Rechts,1,
,dotcolour,dotcolour,xotask,3,2,123,423,main,negativefb,-99,easy,16,0.6179366999999729,['n'],1,right,['1'],6,0.2914184999999634,,,38,24,Vrouw,Rechts,1,
,dotcolour,dotcolour,xotask,4,2,124,424,main,negativefb,-99,easy,17,0.6838173999999526,['n'],1,right,['1'],6,0.26162799999974595,,,38,24,Vrouw,Rechts,1,
,dotcolour,dotcolour,xotask,5,2,125,425,main,negativefb,-99,easy,16,0.7009171999998216,['n'],1,right,['1'],6,0.4724283000000469,,,38,24,Vrouw,Rechts,1,
,dotcolour,dotcolour,xotask,6,2,126,426,main,negativefb,-99,average,55,0.6852818000002117,['c'],1,left,['2'],5,0.5472046999998383,,,38,24,Vrouw,Rechts,1,
,dotcolour,dotcolour,xotask,7,2,127,427,main,negativefb,-99,hard,39,1.000726300000224,['c'],0,right,['2'],5,0.3670217000003504,,,38,24,Vrouw,Rechts,1,
,dotcolour,dotcolour,xotask,8,2,128,428,main,negativefb,-99,easy,17,0.7668744000002334,['n'],1,right,['1'],6,0.4816062999998394,,,38,24,Vrouw,Rechts,1,
,dotcolour,dotcolour,xotask,9,2,129,429,main,negativefb,-99,easy,63,0.6842879000000721,['c'],1,left,['1'],6,0.33996620000016264,,,38,24,Vrouw,Rechts,1,
,dotcolour,dotcolour,xotask,10,2,130,430,main,negativefb,-99,hard,35,0.9181528999997681,['n'],1,right,['3'],4,0.7621212999997624,,,38,24,Vrouw,Rechts,1,
,dotcolour,dotcolour,xotask,11,2,131,431,main,negativefb,-99,average,55,1.0173328999999285,['c'],1,left,['1'],6,0.28432029999976294,,,38,24,Vrouw,Rechts,1,
,dotcolour,dotcolour,xotask,12,2,132,432,main,negativefb,-99,hard,43,1.2008850000001985,['c'],1,left,['2'],5,0.3375393000001168,,,38,24,Vrouw,Rechts,1,
,dotcolour,dotcolour,xotask,13,2,133,433,main,negativefb,-99,hard,43,0.767030099999829,['c'],1,left,['1'],6,0.3665040000000772,,,38,24,Vrouw,Rechts,1,
,dotcolour,dotcolour,xotask,14,2,134,434,main,negativefb,-99,easy,15,0.6504900999998426,['n'],1,right,['1'],6,0.3262262999996892,,,38,24,Vrouw,Rechts,1,
,dotcolour,dotcolour,xotask,15,2,135,435,main,negativefb,-99,average,51,0.6840273999996498,['c'],1,left,['1'],6,0.31918650000034177,,,38,24,Vrouw,Rechts,1,
,dotcolour,dotcolour,xotask,16,2,136,436,main,negativefb,-99,hard,35,1.1671534000001884,['n'],1,right,['3'],4,0.9324593000001187,,,38,24,Vrouw,Rechts,1,
,dotcolour,dotcolour,xotask,17,2,137,437,main,negativefb,-99,hard,39,1.3161407000002328,['c'],0,right,['3'],4,0.4029099000003953,,,38,24,Vrouw,Rechts,1,
,dotcolour,dotcolour,xotask,18,2,138,438,main,negativefb,-99,average,25,0.8180099000001064,['n'],1,right,['1'],6,0.5471991999997954,,,38,24,Vrouw,Rechts,1,
,dotcolour,dotcolour,xotask,19,2,139,439,main,negativefb,-99,hard,42,0.9680427999996937,['c'],1,left,['2'],5,0.2642943999999261,,,38,24,Vrouw,Rechts,1,
,dotcolour,dotcolour,xotask,20,2,140,440,main,negativefb,-99,average,27,0.8175465999997868,['n'],1,right,['2'],5,0.6699791000000914,,,38,24,Vrouw,Rechts,1,
,dotcolour,dotcolour,xotask,21,2,141,441,main,negativefb,-99,hard,37,0.7676829000001817,['c'],0,right,['2'],5,0.7327721999999994,,,38,24,Vrouw,Rechts,1,
,dotcolour,dotcolour,xotask,22,2,142,442,main,negativefb,-99,hard,38,1.0836459000001923,['c'],0,right,['2'],5,0.27731500000027154,,,38,24,Vrouw,Rechts,1,
,dotcolour,dotcolour,xotask,23,2,143,443,main,negativefb,-99,easy,17,0.6512978999999177,['n'],1,right,['1'],6,0.30456520000007004,,,38,24,Vrouw,Rechts,1,
,dotcolour,dotcolour,xotask,24,2,144,444,main,negativefb,-99,easy,62,0.7342923999999584,['c'],1,left,['1'],6,0.6484832999999526,,,38,24,Vrouw,Rechts,1,
,dotcolour,dotcolour,xotask,25,2,145,445,main,negativefb,-99,easy,61,0.9847202999999354,['c'],1,left,['1'],6,0.3279837000000043,,,38,24,Vrouw,Rechts,1,
,dotcolour,dotcolour,xotask,26,2,146,446,main,negativefb,-99,hard,41,0.9170946999997796,['c'],1,left,['2'],5,0.35913280000022496,,,38,24,Vrouw,Rechts,1,
,dotcolour,dotcolour,xotask,27,2,147,447,main,negativefb,-99,easy,65,0.7173401000000013,['c'],1,left,['1'],6,0.4130189000002247,,,38,24,Vrouw,Rechts,1,
,dotcolour,dotcolour,xotask,28,2,148,448,main,negativefb,-99,average,51,0.8505817000000206,['c'],1,left,['1'],6,0.5719604999999319,,,38,24,Vrouw,Rechts,1,
,dotcolour,dotcolour,xotask,29,2,149,449,main,negativefb,-99,average,29,1.7838904000000184,['n'],1,right,['2'],5,1.0940260000002127,,,38,24,Vrouw,Rechts,1,
,dotcolour,dotcolour,xotask,30,2,150,450,main,negativefb,-99,hard,38,1.0506461999998464,['c'],0,right,['2'],5,0.44976900000028763,,,38,24,Vrouw,Rechts,1,
,dotcolour,dotcolour,xotask,31,2,151,451,main,negativefb,-99,easy,63,0.6000076999998782,['c'],1,left,['1'],6,0.32911769999964235,,,38,24,Vrouw,Rechts,1,
,dotcolour,dotcolour,xotask,32,2,152,452,main,negativefb,-99,hard,39,2.234223899999961,['n'],1,right,['3'],4,0.3868139000001065,,,38,24,Vrouw,Rechts,1,
,dotcolour,dotcolour,xotask,33,2,153,453,main,negativefb,-99,average,54,1.4834813000002214,['c'],1,left,['2'],5,1.3931948999997985,,,38,24,Vrouw,Rechts,1,
,dotcolour,dotcolour,xotask,34,2,154,454,main,negativefb,-99,hard,44,0.8343353999998726,['c'],1,left,['2'],5,0.33733729999994466,,,38,24,Vrouw,Rechts,1,
,dotcolour,dotcolour,xotask,35,2,155,455,main,negativefb,-99,easy,64,0.5337261999998191,['c'],1,left,['1'],6,0.33530460000019957,,,38,24,Vrouw,Rechts,1,
,dotcolour,dotcolour,xotask,36,2,156,456,main,negativefb,-99,average,25,0.8673248999998577,['n'],1,right,['2'],5,0.41589559999965786,,,38,24,Vrouw,Rechts,1,
,dotcolour,dotcolour,xotask,37,2,157,457,main,negativefb,-99,average,55,0.7344598999998198,['c'],1,left,['1'],6,0.554207900000165,,,38,24,Vrouw,Rechts,1,
,dotcolour,dotcolour,xotask,38,2,158,458,main,negativefb,-99,easy,64,0.9180010000000038,['c'],1,left,['1'],6,0.3210850999998911,,,38,24,Vrouw,Rechts,1,
,dotcolour,dotcolour,xotask,39,2,159,459,main,negativefb,-99,average,26,1.7682882999997673,['n'],1,right,['2'],5,0.6134999999999309,,,38,24,Vrouw,Rechts,1,
,dotcolour,dotcolour,xotask,40,2,160,460,main,negativefb,-99,easy,64,0.7844563999997263,['c'],1,left,['1'],6,0.3672334000002593,,,38,24,Vrouw,Rechts,1,
,dotcolour,dotcolour,xotask,41,2,161,461,main,negativefb,-99,average,27,0.6847339000000829,['n'],1,right,['1'],6,0.8295788000000357,,,38,24,Vrouw,Rechts,1,
,dotcolour,dotcolour,xotask,42,2,162,462,main,negativefb,-99,average,27,0.8010238000001664,['n'],1,right,['2'],5,0.44573480000008203,,,38,24,Vrouw,Rechts,1,
,dotcolour,dotcolour,xotask,43,2,163,463,main,negativefb,-99,easy,63,0.7835282999999436,['c'],1,left,['1'],6,0.3338251999998647,,,38,24,Vrouw,Rechts,1,
,dotcolour,dotcolour,xotask,44,2,164,464,main,negativefb,-99,hard,41,1.3343392000001586,['n'],0,left,['8'],3,1.7079302000001917,,,38,24,Vrouw,Rechts,1,
,dotcolour,dotcolour,xotask,45,2,165,465,main,negativefb,-99,easy,19,2.51821259999997,['n'],1,right,['2'],5,0.5081103000002258,,,38,24,Vrouw,Rechts,1,
,dotcolour,dotcolour,xotask,46,2,166,466,main,negativefb,-99,hard,44,1.5345795000002909,['c'],1,left,['1'],6,0.594928400000299,,,38,24,Vrouw,Rechts,1,
,dotcolour,dotcolour,xotask,47,2,167,467,main,negativefb,-99,easy,18,1.0023111999998946,['n'],1,right,['1'],6,0.4684036999997261,,,38,24,Vrouw,Rechts,1,
,dotcolour,dotcolour,xotask,48,2,168,468,main,negativefb,-99,average,52,1.451744200000121,['c'],1,left,['1'],6,0.6561495000000832,,,38,24,Vrouw,Rechts,1,
,dotcolour,dotcolour,xotask,49,2,169,469,main,negativefb,-99,average,25,1.2014266000001044,['n'],1,right,['1'],6,0.47949370000014824,,,38,24,Vrouw,Rechts,1,
,dotcolour,dotcolour,xotask,50,2,170,470,main,negativefb,-99,hard,41,1.2180754000000888,['c'],1,left,['2'],5,0.4207515999996758,,,38,24,Vrouw,Rechts,1,
,dotcolour,dotcolour,xotask,51,2,171,471,main,negativefb,-99,average,29,1.4684258000002046,['c'],0,right,['2'],5,0.5859587999998439,,,38,24,Vrouw,Rechts,1,
,dotcolour,dotcolour,xotask,52,2,172,472,main,negativefb,-99,easy,62,0.717706200000066,['c'],1,left,['2'],5,0.358655699999872,,,38,24,Vrouw,Rechts,1,
,dotcolour,dotcolour,xotask,53,2,173,473,main,negativefb,-99,easy,19,0.9509885000002214,['n'],1,right,['1'],6,0.35583809999980076,,,38,24,Vrouw,Rechts,1,
,dotcolour,dotcolour,xotask,54,2,174,474,main,negativefb,-99,average,51,0.9000543000001926,['c'],1,left,['1'],6,0.6262630999999601,,,38,24,Vrouw,Rechts,1,
,dotcolour,dotcolour,xotask,55,2,175,475,main,negativefb,-99,average,51,1.1014216999997188,['c'],1,left,['1'],6,0.36586209999995845,,,38,24,Vrouw,Rechts,1,
,dotcolour,dotcolour,xotask,56,2,176,476,main,negativefb,-99,hard,45,0.8841867999999522,['c'],1,left,['2'],5,0.5083397999997032,,,38,24,Vrouw,Rechts,1,
,dotcolour,dotcolour,xotask,57,2,177,477,main,negativefb,-99,hard,38,0.8512174999996205,['n'],1,right,['3'],4,0.5197180000000117,,,38,24,Vrouw,Rechts,1,
,dotcolour,dotcolour,xotask,58,2,178,478,main,negativefb,-99,hard,35,2.284326299999975,['c'],0,right,['3'],4,0.8557095999999547,,,38,24,Vrouw,Rechts,1,
,dotcolour,dotcolour,xotask,59,2,179,479,main,negativefb,-99,easy,15,0.6850884000000406,['n'],1,right,['1'],6,0.3553690000003371,,,38,24,Vrouw,Rechts,1,
,dotcolour,dotcolour,xotask,0,3,180,480,main,negativefb,-99,easy,15,0.9176191000001381,['n'],1,right,['1'],6,1.360124199999973,,,38,24,Vrouw,Rechts,1,
,dotcolour,dotcolour,xotask,1,3,181,481,main,negativefb,-99,average,29,0.767827699999998,['n'],1,right,['1'],6,0.27638440000009723,,,38,24,Vrouw,Rechts,1,
,dotcolour,dotcolour,xotask,2,3,182,482,main,negativefb,-99,average,25,0.4680455000002439,['n'],1,right,['1'],6,0.5115934999998899,,,38,24,Vrouw,Rechts,1,
,dotcolour,dotcolour,xotask,3,3,183,483,main,negativefb,-99,hard,44,1.4506900000001224,['c'],1,left,['2'],5,0.3623259999999391,,,38,24,Vrouw,Rechts,1,
,dotcolour,dotcolour,xotask,4,3,184,484,main,negativefb,-99,average,55,1.1338430000000699,['c'],1,left,['1'],6,0.29560750000018743,,,38,24,Vrouw,Rechts,1,
,dotcolour,dotcolour,xotask,5,3,185,485,main,negativefb,-99,easy,18,0.6179935000000114,['n'],1,right,['1'],6,0.27608479999980773,,,38,24,Vrouw,Rechts,1,
,dotcolour,dotcolour,xotask,6,3,186,486,main,negativefb,-99,hard,41,0.9001939999998285,['c'],1,left,['2'],5,0.41422060000013516,,,38,24,Vrouw,Rechts,1,
,dotcolour,dotcolour,xotask,7,3,187,487,main,negativefb,-99,easy,65,0.8839507000002413,['c'],1,left,['1'],6,0.3638052000001153,,,38,24,Vrouw,Rechts,1,
,dotcolour,dotcolour,xotask,8,3,188,488,main,negativefb,-99,average,55,0.7510804999997163,['c'],1,left,['1'],6,0.5600430999998025,,,38,24,Vrouw,Rechts,1,
,dotcolour,dotcolour,xotask,9,3,189,489,main,negativefb,-99,average,52,0.7851376000003256,['c'],1,left,['1'],6,0.5877440999997816,,,38,24,Vrouw,Rechts,1,
,dotcolour,dotcolour,xotask,10,3,190,490,main,negativefb,-99,average,26,0.7849120000000767,['n'],1,right,['1'],6,0.813835200000085,,,38,24,Vrouw,Rechts,1,
,dotcolour,dotcolour,xotask,11,3,191,491,main,negativefb,-99,easy,62,0.6512403000001541,['c'],1,left,['1'],6,0.3556722000002992,,,38,24,Vrouw,Rechts,1,
,dotcolour,dotcolour,xotask,12,3,192,492,main,negativefb,-99,average,26,0.6512796000001799,['n'],1,right,['1'],6,0.3244720000002417,,,38,24,Vrouw,Rechts,1,
,dotcolour,dotcolour,xotask,13,3,193,493,main,negativefb,-99,average,53,0.8510748999997304,['c'],1,left,['2'],5,0.3833074999997734,,,38,24,Vrouw,Rechts,1,
,dotcolour,dotcolour,xotask,14,3,194,494,main,negativefb,-99,hard,42,1.2013958000002276,['c'],1,left,['2'],5,0.6168401999998423,,,38,24,Vrouw,Rechts,1,
,dotcolour,dotcolour,xotask,15,3,195,495,main,negativefb,-99,average,26,0.7176355000001422,['n'],1,right,['2'],5,0.35542579999992086,,,38,24,Vrouw,Rechts,1,
,dotcolour,dotcolour,xotask,16,3,196,496,main,negativefb,-99,easy,64,0.8020771999999852,['c'],1,left,['1'],6,0.2787620999997671,,,38,24,Vrouw,Rechts,1,
,dotcolour,dotcolour,xotask,17,3,197,497,main,negativefb,-99,hard,37,1.3509856000000582,['c'],0,right,['2'],5,0.37464030000001003,,,38,24,Vrouw,Rechts,1,
,dotcolour,dotcolour,xotask,18,3,198,498,main,negativefb,-99,easy,64,0.6348555999998098,['c'],1,left,['1'],6,0.31887109999979657,,,38,24,Vrouw,Rechts,1,
,dotcolour,dotcolour,xotask,19,3,199,499,main,negativefb,-99,average,51,0.9011843999996927,['c'],1,left,['1'],6,0.29517519999990327,,,38,24,Vrouw,Rechts,1,
,dotcolour,dotcolour,xotask,20,3,200,500,main,negativefb,-99,easy,15,1.217114699999911,['n'],1,right,['1'],6,0.2839219000002231,,,38,24,Vrouw,Rechts,1,
,dotcolour,dotcolour,xotask,21,3,201,501,main,negativefb,-99,hard,43,0.9844791999998961,['c'],1,left,['1'],6,0.4176931000001787,,,38,24,Vrouw,Rechts,1,
,dotcolour,dotcolour,xotask,22,3,202,502,main,negativefb,-99,easy,63,0.717568399999891,['c'],1,left,['1'],6,0.34134899999980917,,,38,24,Vrouw,Rechts,1,
,dotcolour,dotcolour,xotask,23,3,203,503,main,negativefb,-99,hard,38,1.0516379000000597,['c'],0,right,['2'],5,0.26256699999976263,,,38,24,Vrouw,Rechts,1,
,dotcolour,dotcolour,xotask,24,3,204,504,main,negativefb,-99,easy,63,0.8185395000000426,['c'],1,left,['1'],6,0.32428010000012364,,,38,24,Vrouw,Rechts,1,
,dotcolour,dotcolour,xotask,25,3,205,505,main,negativefb,-99,easy,17,1.1513465000002725,['n'],1,right,['1'],6,0.37846440000021175,,,38,24,Vrouw,Rechts,1,
,dotcolour,dotcolour,xotask,26,3,206,506,main,negativefb,-99,hard,38,1.3181543999999121,['c'],0,right,['2'],5,0.42392149999977846,,,38,24,Vrouw,Rechts,1,
,dotcolour,dotcolour,xotask,27,3,207,507,main,negativefb,-99,easy,15,0.9507650000000467,['n'],1,right,['1'],6,0.27393439999968905,,,38,24,Vrouw,Rechts,1,
,dotcolour,dotcolour,xotask,28,3,208,508,main,negativefb,-99,average,51,1.0181924999997136,['c'],1,left,['1'],6,0.2710301000001891,,,38,24,Vrouw,Rechts,1,
,dotcolour,dotcolour,xotask,29,3,209,509,main,negativefb,-99,average,53,0.7009732999999869,['c'],1,left,['1'],6,0.3370101999998951,,,38,24,Vrouw,Rechts,1,
,dotcolour,dotcolour,xotask,30,3,210,510,main,negativefb,-99,hard,44,0.6834518000000571,['c'],1,left,['1'],6,0.4655753000001823,,,38,24,Vrouw,Rechts,1,
,dotcolour,dotcolour,xotask,31,3,211,511,main,negativefb,-99,easy,19,0.6163438999997197,['n'],1,right,['2'],5,0.5020934999997735,,,38,24,Vrouw,Rechts,1,
,dotcolour,dotcolour,xotask,32,3,212,512,main,negativefb,-99,average,25,0.9336939999998322,['n'],1,right,['1'],6,0.38157170000022234,,,38,24,Vrouw,Rechts,1,
,dotcolour,dotcolour,xotask,33,3,213,513,main,negativefb,-99,easy,63,0.8681382999998277,['c'],1,left,['1'],6,0.3324640000000727,,,38,24,Vrouw,Rechts,1,
,dotcolour,dotcolour,xotask,34,3,214,514,main,negativefb,-99,easy,61,0.8846441000000596,['c'],1,left,['1'],6,0.33281099999976504,,,38,24,Vrouw,Rechts,1,
,dotcolour,dotcolour,xotask,35,3,215,515,main,negativefb,-99,hard,41,1.3350179000003664,['c'],1,left,['2'],5,0.3060801999999967,,,38,24,Vrouw,Rechts,1,
,dotcolour,dotcolour,xotask,36,3,216,516,main,negativefb,-99,hard,44,0.7846799999997529,['c'],1,left,['2'],5,0.5521975000001476,,,38,24,Vrouw,Rechts,1,
,dotcolour,dotcolour,xotask,37,3,217,517,main,negativefb,-99,average,26,0.7505117999999129,['n'],1,right,['1'],6,0.7802243000000999,,,38,24,Vrouw,Rechts,1,
,dotcolour,dotcolour,xotask,38,3,218,518,main,negativefb,-99,hard,45,1.0172810000003665,['c'],1,left,['2'],5,1.205696099999841,,,38,24,Vrouw,Rechts,1,
,dotcolour,dotcolour,xotask,39,3,219,519,main,negativefb,-99,average,55,1.1496736000003693,['c'],1,left,['2'],5,0.47299189999966984,,,38,24,Vrouw,Rechts,1,
,dotcolour,dotcolour,xotask,40,3,220,520,main,negativefb,-99,hard,36,3.4173101999999744,['n'],1,right,['8'],3,0.3658285000001342,,,38,24,Vrouw,Rechts,1,
,dotcolour,dotcolour,xotask,41,3,221,521,main,negativefb,-99,hard,36,1.1016693999999916,['c'],0,right,['2'],5,0.980044800000087,,,38,24,Vrouw,Rechts,1,
,dotcolour,dotcolour,xotask,42,3,222,522,main,negativefb,-99,hard,39,0.917722799999865,['c'],0,right,['3'],4,0.7690191000001505,,,38,24,Vrouw,Rechts,1,
,dotcolour,dotcolour,xotask,43,3,223,523,main,negativefb,-99,average,52,1.5011583000000428,['c'],1,left,['3'],4,1.183532600000035,,,38,24,Vrouw,Rechts,1,
,dotcolour,dotcolour,xotask,44,3,224,524,main,negativefb,-99,average,29,1.1005933000001278,['n'],1,right,['2'],5,0.41255909999972573,,,38,24,Vrouw,Rechts,1,
,dotcolour,dotcolour,xotask,45,3,225,525,main,negativefb,-99,hard,39,0.9516914999999244,['c'],0,right,['2'],5,1.0157431000002362,,,38,24,Vrouw,Rechts,1,
,dotcolour,dotcolour,xotask,46,3,226,526,main,negativefb,-99,hard,36,0.8013295000000653,['n'],1,right,['2'],5,0.4236061999999947,,,38,24,Vrouw,Rechts,1,
,dotcolour,dotcolour,xotask,47,3,227,527,main,negativefb,-99,average,29,0.9334148999996614,['n'],1,right,['2'],5,0.38544739999997546,,,38,24,Vrouw,Rechts,1,
,dotcolour,dotcolour,xotask,48,3,228,528,main,negativefb,-99,easy,19,0.8673281000001225,['n'],1,right,['1'],6,0.4963105000001633,,,38,24,Vrouw,Rechts,1,
,dotcolour,dotcolour,xotask,49,3,229,529,main,negativefb,-99,easy,15,0.5505396000003202,['n'],1,right,['1'],6,0.5123565999997481,,,38,24,Vrouw,Rechts,1,
,dotcolour,dotcolour,xotask,50,3,230,530,main,negativefb,-99,average,52,0.7336983999998665,['c'],1,left,['1'],6,0.39165460000003804,,,38,24,Vrouw,Rechts,1,
,dotcolour,dotcolour,xotask,51,3,231,531,main,negativefb,-99,hard,42,2.216842799999995,['c'],1,left,['2'],5,1.0958725000000413,,,38,24,Vrouw,Rechts,1,
,dotcolour,dotcolour,xotask,52,3,232,532,main,negativefb,-99,hard,42,1.2509251999999833,['c'],1,left,['2'],5,0.37903259999984584,,,38,24,Vrouw,Rechts,1,
,dotcolour,dotcolour,xotask,53,3,233,533,main,negativefb,-99,average,29,1.0839481000002706,['n'],1,right,['1'],6,0.6896624000000884,,,38,24,Vrouw,Rechts,1,
,dotcolour,dotcolour,xotask,54,3,234,534,main,negativefb,-99,easy,19,0.8003078000001551,['n'],1,right,['1'],6,0.46359510000002047,,,38,24,Vrouw,Rechts,1,
,dotcolour,dotcolour,xotask,55,3,235,535,main,negativefb,-99,easy,16,0.7162994000000253,['n'],1,right,['1'],6,0.4012969999998859,,,38,24,Vrouw,Rechts,1,
,dotcolour,dotcolour,xotask,56,3,236,536,main,negativefb,-99,easy,63,0.817664700000023,['c'],1,left,['1'],6,0.3210238000001482,,,38,24,Vrouw,Rechts,1,
,dotcolour,dotcolour,xotask,57,3,237,537,main,negativefb,-99,hard,37,0.9338639000002331,['c'],0,right,['2'],5,0.3277138999997078,,,38,24,Vrouw,Rechts,1,
,dotcolour,dotcolour,xotask,58,3,238,538,main,negativefb,-99,easy,64,0.7011237000001529,['c'],1,left,['1'],6,0.35182920000033846,,,38,24,Vrouw,Rechts,1,
,dotcolour,dotcolour,xotask,59,3,239,539,main,negativefb,-99,hard,36,1.3344577000002573,['n'],1,right,['3'],4,1.0209373000002415,,,38,24,Vrouw,Rechts,1,
,dotcolour,dotcolour,xotask,0,4,240,540,main,negativefb,-99,hard,39,1.5832816000001912,['n'],1,right,['3'],4,1.0298671999998987,,,38,24,Vrouw,Rechts,1,
,dotcolour,dotcolour,xotask,1,4,241,541,main,negativefb,-99,hard,43,0.7182349000004251,['c'],1,left,['2'],5,1.1454828000000816,,,38,24,Vrouw,Rechts,1,
,dotcolour,dotcolour,xotask,2,4,242,542,main,negativefb,-99,average,25,0.7342090000001917,['n'],1,right,['1'],6,0.27978540000003704,,,38,24,Vrouw,Rechts,1,
,dotcolour,dotcolour,xotask,3,4,243,543,main,negativefb,-99,easy,63,0.6504313000000366,['c'],1,left,['1'],6,0.3477336999999352,,,38,24,Vrouw,Rechts,1,
,dotcolour,dotcolour,xotask,4,4,244,544,main,negativefb,-99,easy,19,0.6508401000000958,['n'],1,right,['1'],6,0.4038999999997941,,,38,24,Vrouw,Rechts,1,
,dotcolour,dotcolour,xotask,5,4,245,545,main,negativefb,-99,average,54,0.7016335000002982,['c'],1,left,['1'],6,0.3608060999999907,,,38,24,Vrouw,Rechts,1,
,dotcolour,dotcolour,xotask,6,4,246,546,main,negativefb,-99,easy,61,0.7180833000002167,['c'],1,left,['1'],6,0.3103590000000622,,,38,24,Vrouw,Rechts,1,
,dotcolour,dotcolour,xotask,7,4,247,547,main,negativefb,-99,average,25,0.5177210000001651,['n'],1,right,['1'],6,0.2863886000000093,,,38,24,Vrouw,Rechts,1,
,dotcolour,dotcolour,xotask,8,4,248,548,main,negativefb,-99,hard,42,0.6517436000003727,['c'],1,left,['1'],6,0.6100167999998121,,,38,24,Vrouw,Rechts,1,
,dotcolour,dotcolour,xotask,9,4,249,549,main,negativefb,-99,average,54,0.7005410000001575,['c'],1,left,['1'],6,0.8792257999998583,,,38,24,Vrouw,Rechts,1,
,dotcolour,dotcolour,xotask,10,4,250,550,main,negativefb,-99,easy,18,0.633704900000339,['n'],1,right,['1'],6,0.3160751000000346,,,38,24,Vrouw,Rechts,1,
,dotcolour,dotcolour,xotask,11,4,251,551,main,negativefb,-99,average,27,0.6837513000000399,['n'],1,right,['1'],6,0.5637667000000874,,,38,24,Vrouw,Rechts,1,
,dotcolour,dotcolour,xotask,12,4,252,552,main,negativefb,-99,average,27,1.3011261999999988,['n'],1,right,['2'],5,0.34709179999981643,,,38,24,Vrouw,Rechts,1,
,dotcolour,dotcolour,xotask,13,4,253,553,main,negativefb,-99,hard,38,1.200644800000191,['c'],0,right,['1'],6,0.38175760000012815,,,38,24,Vrouw,Rechts,1,
,dotcolour,dotcolour,xotask,14,4,254,554,main,negativefb,-99,hard,39,1.3347242999998343,['n'],1,right,['3'],4,0.33049730000038835,,,38,24,Vrouw,Rechts,1,
,dotcolour,dotcolour,xotask,15,4,255,555,main,negativefb,-99,average,26,0.9682659000000058,['n'],1,right,['3'],4,0.8556150999997953,,,38,24,Vrouw,Rechts,1,
,dotcolour,dotcolour,xotask,16,4,256,556,main,negativefb,-99,average,54,0.8006891999998516,['c'],1,left,['2'],5,0.686217299999953,,,38,24,Vrouw,Rechts,1,
,dotcolour,dotcolour,xotask,17,4,257,557,main,negativefb,-99,average,26,0.9343618999996579,['n'],1,right,['1'],6,1.4382833999998184,,,38,24,Vrouw,Rechts,1,
,dotcolour,dotcolour,xotask,18,4,258,558,main,negativefb,-99,easy,65,0.7341313000001719,['c'],1,left,['1'],6,0.2960478999998486,,,38,24,Vrouw,Rechts,1,
,dotcolour,dotcolour,xotask,19,4,259,559,main,negativefb,-99,easy,19,0.7517480999999862,['n'],1,right,['1'],6,0.2957597999998143,,,38,24,Vrouw,Rechts,1,
,dotcolour,dotcolour,xotask,20,4,260,560,main,negativefb,-99,hard,41,1.967971900000066,['c'],1,left,['2'],5,0.5184131999999408,,,38,24,Vrouw,Rechts,1,
,dotcolour,dotcolour,xotask,21,4,261,561,main,negativefb,-99,average,53,0.851269400000092,['c'],1,left,['2'],5,0.21583160000000134,,,38,24,Vrouw,Rechts,1,
,dotcolour,dotcolour,xotask,22,4,262,562,main,negativefb,-99,easy,64,1.251976999999897,['c'],1,left,['1'],6,0.3581168999999136,,,38,24,Vrouw,Rechts,1,
,dotcolour,dotcolour,xotask,23,4,263,563,main,negativefb,-99,average,51,1.3509756000003108,['c'],1,left,['2'],5,0.45103960000005827,,,38,24,Vrouw,Rechts,1,
,dotcolour,dotcolour,xotask,24,4,264,564,main,negativefb,-99,average,28,0.8343470999998317,['n'],1,right,['1'],6,0.7361630000000332,,,38,24,Vrouw,Rechts,1,
,dotcolour,dotcolour,xotask,25,4,265,565,main,negativefb,-99,easy,17,0.7346890999997413,['n'],1,right,['1'],6,0.2857767000000422,,,38,24,Vrouw,Rechts,1,
,dotcolour,dotcolour,xotask,26,4,266,566,main,negativefb,-99,easy,17,0.6851682000001347,['n'],1,right,['1'],6,0.44031959999983883,,,38,24,Vrouw,Rechts,1,
,dotcolour,dotcolour,xotask,27,4,267,567,main,negativefb,-99,average,55,0.9843381000000591,['c'],1,left,['2'],5,0.36793360000001485,,,38,24,Vrouw,Rechts,1,
,dotcolour,dotcolour,xotask,28,4,268,568,main,negativefb,-99,average,54,0.867316099999698,['c'],1,left,['1'],6,0.31978750000007494,,,38,24,Vrouw,Rechts,1,
,dotcolour,dotcolour,xotask,29,4,269,569,main,negativefb,-99,hard,41,1.484860000000026,['c'],1,left,['1'],6,0.5203393000001597,,,38,24,Vrouw,Rechts,1,
,dotcolour,dotcolour,xotask,30,4,270,570,main,negativefb,-99,hard,41,0.9174152999999023,['c'],1,left,['2'],5,0.5596577999999681,,,38,24,Vrouw,Rechts,1,
,dotcolour,dotcolour,xotask,31,4,271,571,main,negativefb,-99,hard,35,0.9844944999999825,['c'],0,right,['2'],5,0.3312181999999666,,,38,24,Vrouw,Rechts,1,
,dotcolour,dotcolour,xotask,32,4,272,572,main,negativefb,-99,easy,62,0.6999295999999049,['c'],1,left,['1'],6,0.24282850000008693,,,38,24,Vrouw,Rechts,1,
,dotcolour,dotcolour,xotask,33,4,273,573,main,negativefb,-99,hard,44,0.7843221000002814,['c'],1,left,['2'],5,0.5300538999999844,,,38,24,Vrouw,Rechts,1,
,dotcolour,dotcolour,xotask,34,4,274,574,main,negativefb,-99,average,54,0.8174417000000176,['c'],1,left,['1'],6,0.3580967999996574,,,38,24,Vrouw,Rechts,1,
,dotcolour,dotcolour,xotask,35,4,275,575,main,negativefb,-99,easy,62,0.6171953000002759,['c'],1,left,['1'],6,0.3678140000001804,,,38,24,Vrouw,Rechts,1,
,dotcolour,dotcolour,xotask,36,4,276,576,main,negativefb,-99,easy,62,0.6680422999997973,['c'],1,left,['1'],6,0.4394882999999936,,,38,24,Vrouw,Rechts,1,
,dotcolour,dotcolour,xotask,37,4,277,577,main,negativefb,-99,easy,19,0.9346854999998868,['n'],1,right,['1'],6,0.31297489999997197,,,38,24,Vrouw,Rechts,1,
,dotcolour,dotcolour,xotask,38,4,278,578,main,negativefb,-99,hard,36,1.800537500000246,['c'],0,right,['3'],4,2.173493700000108,,,38,24,Vrouw,Rechts,1,
,dotcolour,dotcolour,xotask,39,4,279,579,main,negativefb,-99,easy,62,0.7336123000000043,['c'],1,left,['1'],6,0.4259717999998429,,,38,24,Vrouw,Rechts,1,
,dotcolour,dotcolour,xotask,40,4,280,580,main,negativefb,-99,average,26,0.7504070999998476,['n'],1,right,['1'],6,0.30913280000004306,,,38,24,Vrouw,Rechts,1,
,dotcolour,dotcolour,xotask,41,4,281,581,main,negativefb,-99,hard,43,1.4009892999997646,['n'],0,left,['3'],4,0.5530140999999276,,,38,24,Vrouw,Rechts,1,
,dotcolour,dotcolour,xotask,42,4,282,582,main,negativefb,-99,average,29,0.6847647999998117,['n'],1,right,['2'],5,0.8726630999999543,,,38,24,Vrouw,Rechts,1,
,dotcolour,dotcolour,xotask,43,4,283,583,main,negativefb,-99,hard,38,0.851103399999829,['c'],0,right,['2'],5,0.6042788000004293,,,38,24,Vrouw,Rechts,1,
,dotcolour,dotcolour,xotask,44,4,284,584,main,negativefb,-99,easy,61,0.8848348999999871,['c'],1,left,['1'],6,0.3855423999998493,,,38,24,Vrouw,Rechts,1,
,dotcolour,dotcolour,xotask,45,4,285,585,main,negativefb,-99,hard,43,0.9502321999998458,['n'],0,left,['3'],4,0.5493046999999933,,,38,24,Vrouw,Rechts,1,
,dotcolour,dotcolour,xotask,46,4,286,586,main,negativefb,-99,average,52,1.0345041000000492,['c'],1,left,['2'],5,0.518388099999811,,,38,24,Vrouw,Rechts,1,
,dotcolour,dotcolour,xotask,47,4,287,587,main,negativefb,-99,hard,39,1.5003716000001077,['c'],0,right,['2'],5,0.39869229999976596,,,38,24,Vrouw,Rechts,1,
,dotcolour,dotcolour,xotask,48,4,288,588,main,negativefb,-99,average,28,0.617844100000184,['n'],1,right,['2'],5,0.3502737000003435,,,38,24,Vrouw,Rechts,1,
,dotcolour,dotcolour,xotask,49,4,289,589,main,negativefb,-99,easy,17,0.6003944999997657,['n'],1,right,['1'],6,0.377400100000159,,,38,24,Vrouw,Rechts,1,
,dotcolour,dotcolour,xotask,50,4,290,590,main,negativefb,-99,hard,39,0.6670601999999235,['c'],0,right,['2'],5,0.9847536000002037,,,38,24,Vrouw,Rechts,1,
,dotcolour,dotcolour,xotask,51,4,291,591,main,negativefb,-99,hard,41,0.9003354000001309,['c'],1,left,['3'],4,1.0857264000001123,,,38,24,Vrouw,Rechts,1,
,dotcolour,dotcolour,xotask,52,4,292,592,main,negativefb,-99,hard,38,1.8847851000000446,['c'],0,right,['3'],4,0.38352560000021185,,,38,24,Vrouw,Rechts,1,
,dotcolour,dotcolour,xotask,53,4,293,593,main,negativefb,-99,average,52,1.3171876000001248,['c'],1,left,['2'],5,0.6441610000001674,,,38,24,Vrouw,Rechts,1,
,dotcolour,dotcolour,xotask,54,4,294,594,main,negativefb,-99,easy,18,0.751080600000023,['n'],1,right,['1'],6,0.8853165000000445,,,38,24,Vrouw,Rechts,1,
,dotcolour,dotcolour,xotask,55,4,295,595,main,negativefb,-99,hard,37,1.900505499999781,['c'],0,right,['2'],5,0.3357461999999032,,,38,24,Vrouw,Rechts,1,
,dotcolour,dotcolour,xotask,56,4,296,596,main,negativefb,-99,easy,17,1.5166680000002088,['n'],1,right,['1'],6,0.3975919999998041,,,38,24,Vrouw,Rechts,1,
,dotcolour,dotcolour,xotask,57,4,297,597,main,negativefb,-99,easy,17,0.8517868000003546,['n'],1,right,['1'],6,0.5000883999996404,,,38,24,Vrouw,Rechts,1,
,dotcolour,dotcolour,xotask,58,4,298,598,main,negativefb,-99,easy,63,0.8179378000004363,['c'],1,left,['1'],6,0.30507170000009864,,,38,24,Vrouw,Rechts,1,
,dotcolour,dotcolour,xotask,59,4,299,599,main,negativefb,-99,hard,45,0.8507939000000988,['c'],1,left,['1'],6,0.2667500999996264,,,38,24,Vrouw,Rechts,1,
,dotcolour,dotcolour,xotask,0,0,0,600,training,negativefb,63,easy,61,0.9016524999997273,['c'],1,left,['1'],6,0.36769930000036766,,,38,24,Vrouw,Rechts,1,
,dotcolour,dotcolour,xotask,1,0,1,601,training,negativefb,62,easy,65,0.6674652000001515,['c'],1,left,['1'],6,0.5184926999995696,,,38,24,Vrouw,Rechts,1,
,dotcolour,dotcolour,xotask,2,0,2,602,training,negativefb,58,hard,37,0.8003858000001856,['c'],0,right,['3'],4,0.8021313000003829,,,38,24,Vrouw,Rechts,1,
,dotcolour,dotcolour,xotask,3,0,3,603,training,negativefb,85,average,54,0.9503866999998536,['c'],1,left,['3'],4,0.3243296000000555,,,38,24,Vrouw,Rechts,1,
,dotcolour,dotcolour,xotask,4,0,4,604,training,negativefb,78,average,25,0.7171266000000287,['n'],1,right,['1'],6,0.5070448999999826,,,38,24,Vrouw,Rechts,1,
,dotcolour,dotcolour,xotask,5,0,5,605,training,negativefb,83,average,51,0.8164581000000908,['c'],1,left,['1'],6,0.3023489000001973,,,38,24,Vrouw,Rechts,1,
,dotcolour,dotcolour,xotask,6,0,6,606,training,negativefb,47,hard,45,1.3664653999999246,['n'],0,left,['2'],5,0.3874033000001873,,,38,24,Vrouw,Rechts,1,
,dotcolour,dotcolour,xotask,7,0,7,607,training,negativefb,52,easy,61,0.7175991999997677,['c'],1,left,['2'],5,0.44836020000002463,,,38,24,Vrouw,Rechts,1,
,dotcolour,dotcolour,xotask,8,0,8,608,training,negativefb,84,average,54,0.9999030000003586,['c'],1,left,['1'],6,0.35769940000000133,,,38,24,Vrouw,Rechts,1,
,dotcolour,dotcolour,xotask,9,0,9,609,training,negativefb,74,average,28,0.9660758999998507,['n'],1,right,['2'],5,0.3129706999998234,,,38,24,Vrouw,Rechts,1,
,dotcolour,dotcolour,xotask,10,0,10,610,training,negativefb,49,easy,64,0.6840836999999738,['c'],1,left,['1'],6,0.2257027000000562,,,38,24,Vrouw,Rechts,1,
,dotcolour,dotcolour,xotask,11,0,11,611,training,negativefb,53,hard,35,0.7502394000002823,['n'],1,right,['2'],5,0.2669954999996662,,,38,24,Vrouw,Rechts,1,
,dotcolour,dotcolour,xotask,12,0,12,612,training,negativefb,38,easy,15,0.6844584000000395,['n'],1,right,['2'],5,0.2694679000001088,,,38,24,Vrouw,Rechts,1,
,dotcolour,dotcolour,xotask,13,0,13,613,training,negativefb,66,easy,15,0.5505219000001489,['n'],1,right,['1'],6,0.915774699999929,,,38,24,Vrouw,Rechts,1,
,dotcolour,dotcolour,xotask,14,0,14,614,training,negativefb,25,hard,43,0.7663872999996784,['c'],1,left,['1'],6,0.4248112000000219,,,38,24,Vrouw,Rechts,1,
,dotcolour,dotcolour,xotask,15,0,15,615,training,negativefb,85,average,29,0.8502128000000084,['n'],1,right,['2'],5,0.40645960000028936,,,38,24,Vrouw,Rechts,1,
,dotcolour,dotcolour,xotask,16,0,16,616,training,negativefb,79,average,25,0.5331946000001153,['n'],1,right,['1'],6,0.32128729999976713,,,38,24,Vrouw,Rechts,1,
,dotcolour,dotcolour,xotask,17,0,17,617,training,negativefb,87,average,55,0.6835394999998243,['c'],1,left,['1'],6,0.2572414999999637,,,38,24,Vrouw,Rechts,1,
,dotcolour,dotcolour,xotask,18,0,18,618,training,negativefb,26,easy,61,0.6504101999998966,['n'],0,left,['2'],5,0.41334199999982957,,,38,24,Vrouw,Rechts,1,
,dotcolour,dotcolour,xotask,19,0,19,619,training,negativefb,90,hard,36,1.7337706000002981,['n'],1,right,['2'],5,0.6317646000002242,,,38,24,Vrouw,Rechts,1,
,dotcolour,dotcolour,xotask,20,0,20,620,training,negativefb,88,easy,64,0.5495375000000422,['c'],1,left,['1'],6,0.5684062999998787,,,38,24,Vrouw,Rechts,1,
,dotcolour,dotcolour,xotask,21,0,21,621,training,negativefb,52,easy,63,0.6169026000002304,['c'],1,left,['1'],6,0.23328199999969002,,,38,24,Vrouw,Rechts,1,
,dotcolour,dotcolour,xotask,22,0,22,622,training,negativefb,88,easy,16,0.6514271000000917,['n'],1,right,['1'],6,0.2301007999999456,,,38,24,Vrouw,Rechts,1,
,dotcolour,dotcolour,xotask,23,0,23,623,training,negativefb,50,average,53,0.7508849999999256,['c'],1,left,['1'],6,0.3832086000002164,,,38,24,Vrouw,Rechts,1,
,dotcolour,dotcolour,xotask,24,0,24,624,training,negativefb,52,hard,37,1.0165478000003532,['n'],1,right,['2'],5,0.41540759999998045,,,38,24,Vrouw,Rechts,1,
,dotcolour,dotcolour,xotask,25,0,25,625,training,negativefb,88,hard,35,1.0163353999996616,['n'],1,right,['3'],4,0.5251949000003151,,,38,24,Vrouw,Rechts,1,
,dotcolour,dotcolour,xotask,26,0,26,626,training,negativefb,11,hard,45,0.900488199999927,['c'],1,left,['1'],6,0.29344810000020516,,,38,24,Vrouw,Rechts,1,
,dotcolour,dotcolour,xotask,27,0,27,627,training,negativefb,49,hard,39,1.6339289000002282,['n'],1,right,['3'],4,0.4088007000000289,,,38,24,Vrouw,Rechts,1,
,dotcolour,dotcolour,xotask,28,0,28,628,training,negativefb,95,average,51,0.9172542000001158,['c'],1,left,['2'],5,1.7322834000001421,,,38,24,Vrouw,Rechts,1,
,dotcolour,dotcolour,xotask,29,0,29,629,training,negativefb,89,easy,63,1.000432499999988,['c'],1,left,['1'],6,0.2783009999998285,,,38,24,Vrouw,Rechts,1,
,dotcolour,dotcolour,xotask,30,0,30,630,training,negativefb,59,average,54,0.6843042000000423,['c'],1,left,['1'],6,0.2562119999997776,,,38,24,Vrouw,Rechts,1,
,dotcolour,dotcolour,xotask,31,0,31,631,training,negativefb,58,hard,41,1.116491500000393,['n'],0,left,['3'],4,0.6406495999999606,,,38,24,Vrouw,Rechts,1,
,dotcolour,dotcolour,xotask,32,0,32,632,training,negativefb,45,hard,36,3.0499831000001905,['n'],1,right,['3'],4,0.7896408999999949,,,38,24,Vrouw,Rechts,1,
,dotcolour,dotcolour,xotask,33,0,33,633,training,negativefb,65,average,27,0.6345592000002398,['n'],1,right,['2'],5,0.39713879999999335,,,38,24,Vrouw,Rechts,1,
,dotcolour,dotcolour,xotask,34,0,34,634,training,negativefb,49,hard,44,1.1503229999998439,['c'],1,left,['2'],5,0.2480184000000918,,,38,24,Vrouw,Rechts,1,
,dotcolour,dotcolour,xotask,35,0,35,635,training,negativefb,14,easy,19,0.601072099999783,['n'],1,right,['1'],6,0.2544209999996383,,,38,24,Vrouw,Rechts,1,
,dotcolour,dotcolour,xotask,36,0,36,636,training,negativefb,85,easy,19,0.6834240000002865,['n'],1,right,['1'],6,0.25667169999996986,,,38,24,Vrouw,Rechts,1,
,dotcolour,dotcolour,xotask,37,0,37,637,training,negativefb,93,easy,64,0.7993264000001545,['c'],1,left,['1'],6,0.687427999999727,,,38,24,Vrouw,Rechts,1,
,dotcolour,dotcolour,xotask,38,0,38,638,training,negativefb,83,hard,41,1.1665314000001672,['c'],1,left,['2'],5,0.45277489999989484,,,38,24,Vrouw,Rechts,1,
,dotcolour,dotcolour,xotask,39,0,39,639,training,negativefb,86,average,29,0.7334686000003785,['n'],1,right,['2'],5,0.28548410000030344,,,38,24,Vrouw,Rechts,1,
,dotcolour,dotcolour,xotask,40,0,40,640,training,negativefb,57,hard,45,0.9840187999998307,['c'],1,left,['3'],4,0.6102032000003419,,,38,24,Vrouw,Rechts,1,
,dotcolour,dotcolour,xotask,41,0,41,641,training,negativefb,71,easy,17,0.800141899999744,['n'],1,right,['1'],6,0.2662384000000202,,,38,24,Vrouw,Rechts,1,
,dotcolour,dotcolour,xotask,42,0,42,642,training,negativefb,72,average,55,0.7986686000003829,['c'],1,left,['2'],5,0.53657370000019,,,38,24,Vrouw,Rechts,1,
,dotcolour,dotcolour,xotask,43,0,43,643,training,negativefb,20,easy,15,0.7492462999998679,['n'],1,right,['1'],6,0.1805491999998594,,,38,24,Vrouw,Rechts,1,
,dotcolour,dotcolour,xotask,44,0,44,644,training,negativefb,66,hard,43,1.1329586000001655,['c'],1,left,['2'],5,0.4242494000000079,,,38,24,Vrouw,Rechts,1,
,dotcolour,dotcolour,xotask,45,0,45,645,training,negativefb,65,easy,19,0.9342188000000533,['n'],1,right,['1'],6,0.19408960000009756,,,38,24,Vrouw,Rechts,1,
,dotcolour,dotcolour,xotask,46,0,46,646,training,negativefb,27,average,26,0.617026899999928,['n'],1,right,['2'],5,0.48236099999985527,,,38,24,Vrouw,Rechts,1,
,dotcolour,dotcolour,xotask,47,0,47,647,training,negativefb,74,hard,45,0.9509907000001476,['c'],1,left,['3'],4,1.0171008000002075,,,38,24,Vrouw,Rechts,1,
,dotcolour,dotcolour,xotask,48,0,48,648,training,negativefb,56,hard,38,1.9504989000001842,['n'],1,right,['3'],4,0.2821691999997711,,,38,24,Vrouw,Rechts,1,
,dotcolour,dotcolour,xotask,49,0,49,649,training,negativefb,61,average,55,0.766546599999856,['c'],1,left,['3'],4,0.2797309000002315,,,38,24,Vrouw,Rechts,1,
,dotcolour,dotcolour,xotask,50,0,50,650,training,negativefb,68,hard,36,2.150453799999923,['c'],0,right,['3'],4,0.35103609999987384,,,38,24,Vrouw,Rechts,1,
