starttime,task,fbtask,firsttask,withinblocktrial,block,withintasktrial,trial,running,feedback,fbscore,difflevel,n_xes,rt,resp,cor,cresp,conf_press,cj,RTconf,reddots,stoptime,sub,age,gender,handedness,session,
1715076136,xotask,xotask,xotask,0,0,0,0,training,positivefb,96,hard,51,0.9836150000000998,['c'],1,left,['2'],5,2.665106499999638,,,32,18,Man,Rechts,1,
,xotask,xotask,xotask,1,0,1,1,training,positivefb,99,easy,73,1.3837775000001784,['c'],1,left,['2'],5,0.8141500000001543,,,32,18,Man,Rechts,1,
,xotask,xotask,xotask,2,0,2,2,training,positivefb,89,hard,53,1.3342274999995425,['n'],0,left,['8'],3,0.3115875999992568,,,32,18,Man,Rechts,1,
,xotask,xotask,xotask,3,0,3,3,training,positivefb,21,easy,7,3.315609199999926,['c'],0,right,['8'],3,1.5281506999999692,,,32,18,Man,Rechts,1,
,xotask,xotask,xotask,4,0,4,4,training,positivefb,90,hard,53,2.248970499999814,['c'],1,left,['2'],5,1.3200952999995934,,,32,18,Man,Rechts,1,
,xotask,xotask,xotask,5,0,5,5,training,positivefb,71,easy,6,2.201074900000094,['n'],1,right,['2'],5,1.1712963999998465,,,32,18,Man,Rechts,1,
,xotask,xotask,xotask,6,0,6,6,training,positivefb,92,hard,52,1.3012223000005179,['c'],1,left,['2'],5,2.464746499999819,,,32,18,Man,Rechts,1,
,xotask,xotask,xotask,7,0,7,7,training,positivefb,84,hard,26,1.2332118999993327,['n'],1,right,['2'],5,1.38894960000016,,,32,18,Man,Rechts,1,
,xotask,xotask,xotask,8,0,8,8,training,positivefb,93,hard,28,1.4509117999996306,['n'],1,right,['3'],4,0.8267626999995628,,,32,18,Man,Rechts,1,
,xotask,xotask,xotask,9,0,9,9,training,positivefb,16,average,62,1.1322924000005514,['n'],0,left,['2'],5,0.7248973000005208,,,32,18,Man,Rechts,1,
,xotask,xotask,xotask,10,0,10,10,training,positivefb,92,average,19,0.8668686000000889,['n'],1,right,['3'],4,0.4282238999994661,,,32,18,Man,Rechts,1,
,xotask,xotask,xotask,11,0,11,11,training,positivefb,99,hard,26,0.849458699999559,['n'],1,right,['2'],5,0.642868300000373,,,32,18,Man,Rechts,1,
,xotask,xotask,xotask,12,0,12,12,training,positivefb,87,average,18,1.3504606999995303,['n'],1,right,['2'],5,0.4832030000006853,,,32,18,Man,Rechts,1,
,xotask,xotask,xotask,13,0,13,13,training,positivefb,97,easy,73,0.9841178000006039,['c'],1,left,['2'],5,0.912438999999722,,,32,18,Man,Rechts,1,
,xotask,xotask,xotask,14,0,14,14,training,positivefb,99,easy,7,0.7338399000000209,['n'],1,right,['1'],6,0.42360199999984616,,,32,18,Man,Rechts,1,
,xotask,xotask,xotask,15,0,15,15,training,positivefb,88,average,17,1.1164237000002686,['n'],1,right,['2'],5,1.0342916999998124,,,32,18,Man,Rechts,1,
,xotask,xotask,xotask,16,0,16,16,training,positivefb,96,hard,52,0.916953700000704,['c'],1,left,['2'],5,1.6286669999999503,,,32,18,Man,Rechts,1,
,xotask,xotask,xotask,17,0,17,17,training,positivefb,100,easy,71,0.9161334000000352,['c'],1,left,['2'],5,1.1657146999996257,,,32,18,Man,Rechts,1,
,xotask,xotask,xotask,18,0,18,18,training,positivefb,14,average,61,0.7836379999998826,['n'],0,left,['2'],5,1.6873969999996916,,,32,18,Man,Rechts,1,
,xotask,xotask,xotask,19,0,19,19,training,positivefb,47,average,60,2.632129999999961,['n'],0,left,['3'],4,2.211139300000468,,,32,18,Man,Rechts,1,
,xotask,xotask,xotask,20,0,20,20,training,positivefb,28,average,60,1.0999072999993587,['n'],0,left,['3'],4,0.7177505999998175,,,32,18,Man,Rechts,1,
,xotask,xotask,xotask,21,0,21,21,training,positivefb,89,easy,72,0.8998805000001084,['c'],1,left,['2'],5,0.8698518000001059,,,32,18,Man,Rechts,1,
,xotask,xotask,xotask,22,0,22,22,training,positivefb,69,average,62,1.2337753000001612,['c'],1,left,['2'],5,0.5932530000000042,,,32,18,Man,Rechts,1,
,xotask,xotask,xotask,23,0,23,23,training,positivefb,90,hard,28,0.9342608999995718,['n'],1,right,['9'],2,0.38128409999990254,,,32,18,Man,Rechts,1,
,xotask,xotask,xotask,24,0,24,24,training,positivefb,90,average,60,1.5995935999999347,['c'],1,left,['2'],5,1.100856400000339,,,32,18,Man,Rechts,1,
,xotask,xotask,xotask,25,0,25,25,training,positivefb,88,easy,6,0.8672196999996231,['n'],1,right,['2'],5,0.9751624999998967,,,32,18,Man,Rechts,1,
,xotask,xotask,xotask,26,0,26,26,training,positivefb,91,average,19,0.8836931000005279,['n'],1,right,['2'],5,0.4121201999996629,,,32,18,Man,Rechts,1,
,xotask,xotask,xotask,27,0,27,27,training,positivefb,90,hard,53,1.5678766999999425,['c'],1,left,['1'],6,0.5260435000000143,,,32,18,Man,Rechts,1,
,xotask,xotask,xotask,28,0,28,28,training,positivefb,98,easy,6,1.067066700000396,['n'],1,right,['1'],6,0.2552740000000995,,,32,18,Man,Rechts,1,
,xotask,xotask,xotask,29,0,29,29,training,positivefb,72,hard,29,1.3844500999994125,['n'],1,right,['2'],5,0.34152569999969273,,,32,18,Man,Rechts,1,
,xotask,xotask,xotask,30,0,30,30,training,positivefb,63,average,60,2.049936199999138,['c'],1,left,['3'],4,0.5585970000001907,,,32,18,Man,Rechts,1,
,xotask,xotask,xotask,31,0,31,31,training,positivefb,89,average,18,1.6506198999995831,['n'],1,right,['3'],4,0.34152540000013687,,,32,18,Man,Rechts,1,
,xotask,xotask,xotask,32,0,32,32,training,positivefb,91,hard,29,1.5681078999996316,['n'],1,right,['3'],4,0.3223267000003034,,,32,18,Man,Rechts,1,
,xotask,xotask,xotask,33,0,33,33,training,positivefb,85,average,19,0.999108800000613,['n'],1,right,['2'],5,0.5572029000004477,,,32,18,Man,Rechts,1,
,xotask,xotask,xotask,34,0,34,34,training,positivefb,99,hard,26,0.9013205000001108,['n'],1,right,['2'],5,0.6117662000006021,,,32,18,Man,Rechts,1,
,xotask,xotask,xotask,35,0,35,35,training,positivefb,94,average,63,1.000680099999954,['c'],1,left,['1'],6,0.29935870000008435,,,32,18,Man,Rechts,1,
,xotask,xotask,xotask,36,0,36,36,training,positivefb,95,easy,5,0.6832197000003362,['n'],1,right,['1'],6,0.5161512000004223,,,32,18,Man,Rechts,1,
,xotask,xotask,xotask,37,0,37,37,training,positivefb,91,hard,51,1.4671988999998575,['c'],1,left,['2'],5,0.42041359999984707,,,32,18,Man,Rechts,1,
,xotask,xotask,xotask,38,0,38,38,training,positivefb,79,average,16,0.7507158999997046,['n'],1,right,['2'],5,0.4063507999999274,,,32,18,Man,Rechts,1,
,xotask,xotask,xotask,39,0,39,39,training,positivefb,93,average,15,0.9677900999995472,['n'],1,right,['2'],5,0.20016300000042975,,,32,18,Man,Rechts,1,
,xotask,xotask,xotask,40,0,40,40,training,positivefb,96,average,16,1.000211099999433,['n'],1,right,['2'],5,2.231901099999959,,,32,18,Man,Rechts,1,
,xotask,xotask,xotask,41,0,41,41,training,positivefb,97,average,62,0.9324194999999236,['c'],1,left,['2'],5,0.8328559000001405,,,32,18,Man,Rechts,1,
,xotask,xotask,xotask,42,0,42,42,training,positivefb,79,easy,71,1.8512195000002976,['n'],0,left,['3'],4,0.7331616000001304,,,32,18,Man,Rechts,1,
,xotask,xotask,xotask,43,0,43,43,training,positivefb,90,hard,26,1.6341904999999315,['n'],1,right,['3'],4,0.23041059999923164,,,32,18,Man,Rechts,1,
,xotask,xotask,xotask,44,0,44,44,training,positivefb,93,hard,25,0.798773199999232,['n'],1,right,['2'],5,0.39025040000069566,,,32,18,Man,Rechts,1,
,xotask,xotask,xotask,45,0,45,45,training,positivefb,90,easy,9,0.7846885999997539,['n'],1,right,['2'],5,0.37438469999960944,,,32,18,Man,Rechts,1,
,xotask,xotask,xotask,46,0,46,46,training,positivefb,95,easy,7,0.7658541999999215,['n'],1,right,['1'],6,0.29012090000014723,,,32,18,Man,Rechts,1,
,xotask,xotask,xotask,47,0,47,47,training,positivefb,13,easy,72,3.350453799999741,['n'],0,left,['2'],5,1.2007763000001432,,,32,18,Man,Rechts,1,
,xotask,xotask,xotask,48,0,48,48,training,positivefb,53,hard,51,1.1003515000002153,['n'],0,left,['2'],5,0.6050230999999258,,,32,18,Man,Rechts,1,
,xotask,xotask,xotask,49,0,49,49,training,positivefb,63,hard,26,1.2667827000004763,['n'],1,right,['3'],4,1.6821909999998752,,,32,18,Man,Rechts,1,
,xotask,xotask,xotask,50,0,50,50,training,positivefb,98,hard,53,1.3001378999997542,['c'],1,left,['3'],4,0.7934905000001891,,,32,18,Man,Rechts,1,
,xotask,xotask,xotask,51,0,51,51,training,positivefb,93,hard,51,0.7173116000003574,['c'],1,left,['2'],5,0.8619435999999041,,,32,18,Man,Rechts,1,
,xotask,xotask,xotask,52,0,52,52,training,positivefb,99,easy,72,1.1344257999999172,['c'],1,left,['2'],5,0.7583018999994238,,,32,18,Man,Rechts,1,
,xotask,xotask,xotask,53,0,53,53,training,positivefb,96,easy,72,0.5835626999996748,['c'],1,left,['1'],6,0.26457899999968504,,,32,18,Man,Rechts,1,
,xotask,xotask,xotask,54,0,54,54,training,positivefb,94,easy,70,0.7669816999996328,['c'],1,left,['1'],6,0.18352150000009715,,,32,18,Man,Rechts,1,
,xotask,xotask,xotask,55,0,55,55,training,positivefb,99,average,62,0.832820300000094,['c'],1,left,['1'],6,0.23169579999921552,,,32,18,Man,Rechts,1,
,xotask,xotask,xotask,56,0,56,56,training,positivefb,97,easy,9,1.115339999999378,['n'],1,right,['2'],5,0.8178283999995983,,,32,18,Man,Rechts,1,
,xotask,xotask,xotask,57,0,57,57,training,positivefb,93,average,15,0.9999661000001652,['n'],1,right,['2'],5,0.42505119999987073,,,32,18,Man,Rechts,1,
,xotask,xotask,xotask,58,0,58,58,training,positivefb,90,easy,74,1.1507370999997875,['c'],1,left,['1'],6,0.2736460999994961,,,32,18,Man,Rechts,1,
,xotask,xotask,xotask,59,0,59,59,training,positivefb,95,easy,9,0.6666519000000335,['n'],1,right,['1'],6,0.2531970000000001,,,32,18,Man,Rechts,1,
,xotask,xotask,xotask,0,1,60,60,training,positivefb,97,average,19,0.8496764999999868,['n'],1,right,['2'],5,2.1557558000004065,,,32,18,Man,Rechts,1,
,xotask,xotask,xotask,1,1,61,61,training,positivefb,94,hard,50,0.8848521999998411,['c'],1,left,['2'],5,0.4416293999993286,,,32,18,Man,Rechts,1,
,xotask,xotask,xotask,2,1,62,62,training,positivefb,98,easy,73,1.100984900000185,['c'],1,left,['1'],6,0.300111200000174,,,32,18,Man,Rechts,1,
,xotask,xotask,xotask,3,1,63,63,training,positivefb,37,average,62,1.7336533000006966,['n'],0,left,['2'],5,0.5629386999999042,,,32,18,Man,Rechts,1,
,xotask,xotask,xotask,4,1,64,64,training,positivefb,71,hard,28,3.5493696000003183,['c'],0,right,['3'],4,0.2952565000005052,,,32,18,Man,Rechts,1,
,xotask,xotask,xotask,5,1,65,65,training,positivefb,99,hard,27,0.7832915999997567,['n'],1,right,['2'],5,0.30039580000084243,,,32,18,Man,Rechts,1,
,xotask,xotask,xotask,6,1,66,66,training,positivefb,99,average,60,1.6326712000000043,['c'],1,left,['3'],4,0.591227699999763,,,32,18,Man,Rechts,1,
,xotask,xotask,xotask,7,1,67,67,training,positivefb,91,hard,25,1.098829399999886,['n'],1,right,['2'],5,0.7158023000001776,,,32,18,Man,Rechts,1,
,xotask,xotask,xotask,8,1,68,68,training,positivefb,97,easy,7,0.8020338000005722,['n'],1,right,['1'],6,0.3188552999999956,,,32,18,Man,Rechts,1,
,xotask,xotask,xotask,9,1,69,69,training,positivefb,99,easy,73,1.0347303999997166,['c'],1,left,['2'],5,0.6088123999998061,,,32,18,Man,Rechts,1,
,xotask,xotask,xotask,10,1,70,70,training,positivefb,99,easy,73,0.8668863000002602,['c'],1,left,['2'],5,0.6218447999999626,,,32,18,Man,Rechts,1,
,xotask,xotask,xotask,11,1,71,71,training,positivefb,90,average,16,0.6167709000001196,['n'],1,right,['8'],3,0.3722587000002022,,,32,18,Man,Rechts,1,
,xotask,xotask,xotask,12,1,72,72,training,positivefb,53,hard,25,1.6005025000004025,['c'],0,right,['2'],5,1.1508906999997635,,,32,18,Man,Rechts,1,
,xotask,xotask,xotask,13,1,73,73,training,positivefb,87,hard,29,1.9323765999997704,['n'],1,right,['3'],4,1.3223689000005834,,,32,18,Man,Rechts,1,
,xotask,xotask,xotask,14,1,74,74,training,positivefb,72,average,61,2.3830871999998635,['n'],0,left,['3'],4,0.4623600999993869,,,32,18,Man,Rechts,1,
,xotask,xotask,xotask,15,1,75,75,training,positivefb,46,hard,51,3.10055310000007,['c'],1,left,['8'],3,3.784361799999715,,,32,18,Man,Rechts,1,
,xotask,xotask,xotask,16,1,76,76,training,positivefb,78,average,19,1.501350999999886,['n'],1,right,['3'],4,1.1324399000004632,,,32,18,Man,Rechts,1,
,xotask,xotask,xotask,17,1,77,77,training,positivefb,55,easy,73,1.9518115999999281,['n'],0,left,['8'],3,1.544352699999763,,,32,18,Man,Rechts,1,
,xotask,xotask,xotask,18,1,78,78,training,positivefb,84,easy,8,1.167037100000016,['n'],1,right,['1'],6,0.3647203000000445,,,32,18,Man,Rechts,1,
,xotask,xotask,xotask,19,1,79,79,training,positivefb,83,hard,53,3.0827926000001753,['n'],0,left,['3'],4,0.6031724999993457,,,32,18,Man,Rechts,1,
,xotask,xotask,xotask,20,1,80,80,training,positivefb,98,average,15,0.8341028000004371,['n'],1,right,['1'],6,0.31340410000029806,,,32,18,Man,Rechts,1,
,xotask,xotask,xotask,21,1,81,81,training,positivefb,87,easy,74,1.0004928999996991,['c'],1,left,['0'],1,0.605575200000203,,,32,18,Man,Rechts,1,
,xotask,xotask,xotask,22,1,82,82,training,positivefb,95,average,16,0.999937300000056,['n'],1,right,['1'],6,0.41321220000008907,,,32,18,Man,Rechts,1,
,xotask,xotask,xotask,23,1,83,83,training,positivefb,92,average,19,1.2677444000000833,['n'],1,right,['1'],6,0.29846360000010463,,,32,18,Man,Rechts,1,
,xotask,xotask,xotask,24,1,84,84,training,positivefb,94,easy,8,0.7350500000002285,['n'],1,right,['1'],6,0.23384189999978844,,,32,18,Man,Rechts,1,
,xotask,xotask,xotask,25,1,85,85,training,positivefb,77,easy,7,0.5485662999999477,['n'],1,right,['1'],6,0.14668460000029881,,,32,18,Man,Rechts,1,
,xotask,xotask,xotask,26,1,86,86,training,positivefb,99,easy,73,0.9006986999993387,['c'],1,left,['1'],6,0.6572366999998849,,,32,18,Man,Rechts,1,
,xotask,xotask,xotask,27,1,87,87,training,positivefb,60,hard,28,2.616197000000284,['c'],0,right,['3'],4,0.4708383999995931,,,32,18,Man,Rechts,1,
,xotask,xotask,xotask,28,1,88,88,training,positivefb,97,average,16,0.8504364000000351,['n'],1,right,['1'],6,0.2252758000004178,,,32,18,Man,Rechts,1,
,xotask,xotask,xotask,29,1,89,89,training,positivefb,91,easy,74,0.7997850000001563,['c'],1,left,['1'],6,0.2724569000001793,,,32,18,Man,Rechts,1,
,xotask,xotask,xotask,30,1,90,90,training,positivefb,79,easy,71,1.6508531999998013,['c'],1,left,['1'],6,0.29196609999962675,,,32,18,Man,Rechts,1,
,xotask,xotask,xotask,31,1,91,91,training,positivefb,81,hard,27,2.0504424999999173,['c'],0,right,['3'],4,0.32712420000007114,,,32,18,Man,Rechts,1,
,xotask,xotask,xotask,32,1,92,92,training,positivefb,77,hard,25,1.5017493000004833,['n'],1,right,['3'],4,0.27832930000022316,,,32,18,Man,Rechts,1,
,xotask,xotask,xotask,33,1,93,93,training,positivefb,91,easy,5,0.9175136000003477,['n'],1,right,['1'],6,1.1664955000005648,,,32,18,Man,Rechts,1,
,xotask,xotask,xotask,34,1,94,94,training,positivefb,92,average,64,1.8001353000008748,['c'],1,left,['2'],5,0.4639311999999336,,,32,18,Man,Rechts,1,
,xotask,xotask,xotask,35,1,95,95,training,positivefb,51,average,63,0.9169670999999653,['c'],1,left,['2'],5,0.8171540000003006,,,32,18,Man,Rechts,1,
,xotask,xotask,xotask,36,1,96,96,training,positivefb,73,hard,53,1.2005656000001181,['c'],1,left,['3'],4,0.4731523999998899,,,32,18,Man,Rechts,1,
,xotask,xotask,xotask,37,1,97,97,training,positivefb,98,easy,9,0.7836058000002595,['n'],1,right,['3'],4,0.5985487999996622,,,32,18,Man,Rechts,1,
,xotask,xotask,xotask,38,1,98,98,training,positivefb,90,easy,9,0.7674647000003461,['n'],1,right,['1'],6,0.25598160000026837,,,32,18,Man,Rechts,1,
,xotask,xotask,xotask,39,1,99,99,training,positivefb,94,average,61,0.7994966999995086,['c'],1,left,['1'],6,0.34969939999973576,,,32,18,Man,Rechts,1,
,xotask,xotask,xotask,40,1,100,100,training,positivefb,98,easy,8,0.8671579000001657,['n'],1,right,['1'],6,0.21370200000001205,,,32,18,Man,Rechts,1,
,xotask,xotask,xotask,41,1,101,101,training,positivefb,93,hard,52,1.1684662000006938,['c'],1,left,['3'],4,0.27063859999998385,,,32,18,Man,Rechts,1,
,xotask,xotask,xotask,42,1,102,102,training,positivefb,99,easy,6,0.599675199999183,['n'],1,right,['1'],6,0.23569510000015725,,,32,18,Man,Rechts,1,
,xotask,xotask,xotask,43,1,103,103,training,positivefb,80,hard,52,1.8342383999997764,['c'],1,left,['2'],5,0.6575642999996489,,,32,18,Man,Rechts,1,
,xotask,xotask,xotask,44,1,104,104,training,positivefb,67,hard,54,0.867302199999358,['c'],1,left,['3'],4,0.5727015000002211,,,32,18,Man,Rechts,1,
,xotask,xotask,xotask,45,1,105,105,training,positivefb,97,average,61,1.2334020999996937,['c'],1,left,['2'],5,0.4929477000005136,,,32,18,Man,Rechts,1,
,xotask,xotask,xotask,46,1,106,106,training,positivefb,96,average,64,1.7833888000004663,['c'],1,left,['2'],5,0.9538739000008718,,,32,18,Man,Rechts,1,
,xotask,xotask,xotask,47,1,107,107,training,positivefb,87,average,63,1.3670331000002989,['c'],1,left,['3'],4,0.3572844999998779,,,32,18,Man,Rechts,1,
,xotask,xotask,xotask,48,1,108,108,training,positivefb,96,hard,26,1.5163125999997646,['n'],1,right,['3'],4,2.04286730000058,,,32,18,Man,Rechts,1,
,xotask,xotask,xotask,49,1,109,109,training,positivefb,90,easy,5,0.9338641000003918,['n'],1,right,['1'],6,0.22696670000004815,,,32,18,Man,Rechts,1,
,xotask,xotask,xotask,50,1,110,110,training,positivefb,86,hard,52,1.366315599999325,['c'],1,left,['2'],5,0.396173699999963,,,32,18,Man,Rechts,1,
,xotask,xotask,xotask,51,1,111,111,training,positivefb,93,average,16,1.3675571999992826,['c'],0,right,['3'],4,0.1657348999997339,,,32,18,Man,Rechts,1,
,xotask,xotask,xotask,52,1,112,112,training,positivefb,95,hard,54,0.7506887999998071,['c'],1,left,['2'],5,0.289563299999827,,,32,18,Man,Rechts,1,
,xotask,xotask,xotask,53,1,113,113,training,positivefb,77,average,62,1.434046600000329,['c'],1,left,['2'],5,0.45264080000015383,,,32,18,Man,Rechts,1,
,xotask,xotask,xotask,54,1,114,114,training,positivefb,94,hard,27,1.6007227000000057,['n'],1,right,['8'],3,0.39502079999965645,,,32,18,Man,Rechts,1,
,xotask,xotask,xotask,55,1,115,115,training,positivefb,91,easy,74,1.5997460000007777,['c'],1,left,['2'],5,1.3711817000003066,,,32,18,Man,Rechts,1,
,xotask,xotask,xotask,56,1,116,116,training,positivefb,23,average,19,1.3827624000005017,['c'],0,right,['3'],4,2.0372864999999365,,,32,18,Man,Rechts,1,
,xotask,xotask,xotask,57,1,117,117,training,positivefb,64,average,15,0.7841267000003427,['n'],1,right,['1'],6,0.33172259999992093,,,32,18,Man,Rechts,1,
,xotask,xotask,xotask,58,1,118,118,training,positivefb,88,hard,50,0.9506248999996387,['c'],1,left,['2'],5,0.664390299999468,,,32,18,Man,Rechts,1,
,xotask,xotask,xotask,59,1,119,119,training,positivefb,77,easy,71,0.8836277999998856,['c'],1,left,['2'],5,0.3629885000000286,,,32,18,Man,Rechts,1,
,xotask,xotask,xotask,0,2,120,120,main,positivefb,-99,easy,70,1.7179773999996542,['c'],1,left,['3'],4,0.8911092999996981,,,32,18,Man,Rechts,1,
,xotask,xotask,xotask,1,2,121,121,main,positivefb,-99,easy,71,0.9341622000001735,['c'],1,left,['2'],5,0.49071420000018406,,,32,18,Man,Rechts,1,
,xotask,xotask,xotask,2,2,122,122,main,positivefb,-99,average,62,0.867113899999822,['c'],1,left,['2'],5,0.22176540000054956,,,32,18,Man,Rechts,1,
,xotask,xotask,xotask,3,2,123,123,main,positivefb,-99,average,18,0.7519845999995596,['n'],1,right,['9'],2,0.24760080000032758,,,32,18,Man,Rechts,1,
,xotask,xotask,xotask,4,2,124,124,main,positivefb,-99,easy,73,0.9505619999999908,['c'],1,left,['2'],5,0.23265919999994367,,,32,18,Man,Rechts,1,
,xotask,xotask,xotask,5,2,125,125,main,positivefb,-99,average,64,1.267751400000634,['c'],1,left,['3'],4,0.34967540000070585,,,32,18,Man,Rechts,1,
,xotask,xotask,xotask,6,2,126,126,main,positivefb,-99,average,15,0.967572100000325,['n'],1,right,['2'],5,0.36965240000063204,,,32,18,Man,Rechts,1,
,xotask,xotask,xotask,7,2,127,127,main,positivefb,-99,easy,7,0.7182576000004701,['n'],1,right,['1'],6,0.14283510000041133,,,32,18,Man,Rechts,1,
,xotask,xotask,xotask,8,2,128,128,main,positivefb,-99,easy,9,0.6000238999995418,['n'],1,right,['1'],6,0.13008960000024672,,,32,18,Man,Rechts,1,
,xotask,xotask,xotask,9,2,129,129,main,positivefb,-99,average,61,1.1344302999996216,['c'],1,left,['2'],5,0.16068190000078175,,,32,18,Man,Rechts,1,
,xotask,xotask,xotask,10,2,130,130,main,positivefb,-99,hard,50,3.183683199999905,['c'],1,left,['3'],4,0.46825799999987794,,,32,18,Man,Rechts,1,
,xotask,xotask,xotask,11,2,131,131,main,positivefb,-99,hard,53,1.3007548000005045,['c'],1,left,['2'],5,0.3497373999998672,,,32,18,Man,Rechts,1,
,xotask,xotask,xotask,12,2,132,132,main,positivefb,-99,hard,26,0.9681512999995903,['n'],1,right,['1'],6,0.2338506000005509,,,32,18,Man,Rechts,1,
,xotask,xotask,xotask,13,2,133,133,main,positivefb,-99,average,61,3.3846455000002607,['n'],0,left,['2'],5,0.5218869000000268,,,32,18,Man,Rechts,1,
,xotask,xotask,xotask,14,2,134,134,main,positivefb,-99,easy,9,1.0015871999994488,['n'],1,right,['1'],6,0.1823272999999972,,,32,18,Man,Rechts,1,
,xotask,xotask,xotask,15,2,135,135,main,positivefb,-99,average,64,1.984312100000352,['c'],1,left,['3'],4,0.43187940000007075,,,32,18,Man,Rechts,1,
,xotask,xotask,xotask,16,2,136,136,main,positivefb,-99,hard,50,1.3351224999996703,['c'],1,left,['2'],5,0.20998130000043602,,,32,18,Man,Rechts,1,
,xotask,xotask,xotask,17,2,137,137,main,positivefb,-99,easy,9,0.7679449000006571,['n'],1,right,['2'],5,0.42044090000035794,,,32,18,Man,Rechts,1,
,xotask,xotask,xotask,18,2,138,138,main,positivefb,-99,easy,7,0.8342770999997811,['n'],1,right,['2'],5,0.4586394999996628,,,32,18,Man,Rechts,1,
,xotask,xotask,xotask,19,2,139,139,main,positivefb,-99,average,63,1.4679291000002195,['c'],1,left,['2'],5,0.3749163000002227,,,32,18,Man,Rechts,1,
,xotask,xotask,xotask,20,2,140,140,main,positivefb,-99,hard,29,1.468557399999554,['c'],0,right,['2'],5,0.15765439999995579,,,32,18,Man,Rechts,1,
,xotask,xotask,xotask,21,2,141,141,main,positivefb,-99,hard,50,1.067242900000565,['n'],0,left,['3'],4,0.22983260000000882,,,32,18,Man,Rechts,1,
,xotask,xotask,xotask,22,2,142,142,main,positivefb,-99,easy,8,0.8014673999996376,['n'],1,right,['1'],6,0.18984230000023672,,,32,18,Man,Rechts,1,
,xotask,xotask,xotask,23,2,143,143,main,positivefb,-99,average,17,0.7845452999999907,['n'],1,right,['1'],6,0.1605399000000034,,,32,18,Man,Rechts,1,
,xotask,xotask,xotask,24,2,144,144,main,positivefb,-99,hard,52,1.534454800000276,['c'],1,left,['2'],5,0.2781936000001224,,,32,18,Man,Rechts,1,
,xotask,xotask,xotask,25,2,145,145,main,positivefb,-99,easy,8,0.8003154999996696,['n'],1,right,['2'],5,0.29955510000036156,,,32,18,Man,Rechts,1,
,xotask,xotask,xotask,26,2,146,146,main,positivefb,-99,easy,9,0.7514587000005122,['n'],1,right,['1'],6,0.26624400000036985,,,32,18,Man,Rechts,1,
,xotask,xotask,xotask,27,2,147,147,main,positivefb,-99,average,15,0.6008279999996375,['n'],1,right,['1'],6,0.20794760000080714,,,32,18,Man,Rechts,1,
,xotask,xotask,xotask,28,2,148,148,main,positivefb,-99,hard,50,1.1505135000006703,['c'],1,left,['2'],5,0.3389727000003404,,,32,18,Man,Rechts,1,
,xotask,xotask,xotask,29,2,149,149,main,positivefb,-99,average,18,0.8673344999997425,['n'],1,right,['1'],6,0.3961891999997533,,,32,18,Man,Rechts,1,
,xotask,xotask,xotask,30,2,150,150,main,positivefb,-99,average,18,1.0348062000002756,['n'],1,right,['1'],6,0.2192155000002458,,,32,18,Man,Rechts,1,
,xotask,xotask,xotask,31,2,151,151,main,positivefb,-99,average,61,1.9512562999998408,['c'],1,left,['3'],4,0.5660092999996778,,,32,18,Man,Rechts,1,
,xotask,xotask,xotask,32,2,152,152,main,positivefb,-99,hard,25,1.1351260999999795,['n'],1,right,['2'],5,0.09878669999943668,,,32,18,Man,Rechts,1,
,xotask,xotask,xotask,33,2,153,153,main,positivefb,-99,average,19,0.6512968999995792,['n'],1,right,['2'],5,0.20515729999988253,,,32,18,Man,Rechts,1,
,xotask,xotask,xotask,34,2,154,154,main,positivefb,-99,hard,51,1.401474700000108,['c'],1,left,['3'],4,0.16574989999935497,,,32,18,Man,Rechts,1,
,xotask,xotask,xotask,35,2,155,155,main,positivefb,-99,easy,73,1.3841330000004746,['c'],1,left,['2'],5,0.16052729999955773,,,32,18,Man,Rechts,1,
,xotask,xotask,xotask,36,2,156,156,main,positivefb,-99,easy,70,1.6005083999998533,['c'],1,left,['2'],5,0.1388676000005944,,,32,18,Man,Rechts,1,
,xotask,xotask,xotask,37,2,157,157,main,positivefb,-99,average,63,0.7503842000005534,['c'],1,left,['2'],5,0.11265930000081426,,,32,18,Man,Rechts,1,
,xotask,xotask,xotask,38,2,158,158,main,positivefb,-99,hard,28,2.185077799999817,['c'],0,right,['2'],5,0.1011809000001449,,,32,18,Man,Rechts,1,
,xotask,xotask,xotask,39,2,159,159,main,positivefb,-99,hard,28,1.01734260000012,['n'],1,right,['9'],2,0.2342122999998537,,,32,18,Man,Rechts,1,
,xotask,xotask,xotask,40,2,160,160,main,positivefb,-99,average,64,3.016781700000138,['c'],1,left,['3'],4,0.6967127000007167,,,32,18,Man,Rechts,1,
,xotask,xotask,xotask,41,2,161,161,main,positivefb,-99,easy,70,2.9345761999993556,['c'],1,left,['2'],5,0.16816969999945286,,,32,18,Man,Rechts,1,
,xotask,xotask,xotask,42,2,162,162,main,positivefb,-99,hard,27,0.7512017999997624,['n'],1,right,['8'],3,0.2525157999998555,,,32,18,Man,Rechts,1,
,xotask,xotask,xotask,43,2,163,163,main,positivefb,-99,hard,26,2.634764599999471,['c'],0,right,['3'],4,1.089599900000394,,,32,18,Man,Rechts,1,
,xotask,xotask,xotask,44,2,164,164,main,positivefb,-99,average,63,1.050634600000194,['c'],1,left,['2'],5,0.18084300000009534,,,32,18,Man,Rechts,1,
,xotask,xotask,xotask,45,2,165,165,main,positivefb,-99,easy,71,1.034259099999872,['c'],1,left,['2'],5,0.10905559999991965,,,32,18,Man,Rechts,1,
,xotask,xotask,xotask,46,2,166,166,main,positivefb,-99,average,17,1.0677840999996988,['n'],1,right,['2'],5,0.14294090000021242,,,32,18,Man,Rechts,1,
,xotask,xotask,xotask,47,2,167,167,main,positivefb,-99,easy,72,1.6348588000000746,['c'],1,left,['2'],5,0.5130024000000049,,,32,18,Man,Rechts,1,
,xotask,xotask,xotask,48,2,168,168,main,positivefb,-99,hard,52,3.7508466999997836,['n'],0,left,['3'],4,0.6084546999991289,,,32,18,Man,Rechts,1,
,xotask,xotask,xotask,49,2,169,169,main,positivefb,-99,easy,5,0.7670157000002291,['n'],1,right,['1'],6,0.26652980000017124,,,32,18,Man,Rechts,1,
,xotask,xotask,xotask,50,2,170,170,main,positivefb,-99,easy,5,0.7000602000007348,['n'],1,right,['1'],6,0.25947720000021945,,,32,18,Man,Rechts,1,
,xotask,xotask,xotask,51,2,171,171,main,positivefb,-99,hard,28,0.9678728999997475,['c'],0,right,['2'],5,0.30046069999934844,,,32,18,Man,Rechts,1,
,xotask,xotask,xotask,52,2,172,172,main,positivefb,-99,average,18,1.217655200000081,['n'],1,right,['2'],5,1.687658900000315,,,32,18,Man,Rechts,1,
,xotask,xotask,xotask,53,2,173,173,main,positivefb,-99,hard,52,3.151389599999675,['n'],0,left,['3'],4,0.3593422999992981,,,32,18,Man,Rechts,1,
,xotask,xotask,xotask,54,2,174,174,main,positivefb,-99,hard,25,0.9520354000005682,['n'],1,right,['2'],5,1.0997058999992078,,,32,18,Man,Rechts,1,
,xotask,xotask,xotask,55,2,175,175,main,positivefb,-99,hard,27,0.7836016999999629,['n'],1,right,['2'],5,0.1378740000000107,,,32,18,Man,Rechts,1,
,xotask,xotask,xotask,56,2,176,176,main,positivefb,-99,easy,71,1.3342250999994576,['c'],1,left,['2'],5,0.42327640000075917,,,32,18,Man,Rechts,1,
,xotask,xotask,xotask,57,2,177,177,main,positivefb,-99,easy,72,2.717785400000139,['c'],1,left,['3'],4,0.6105219999999463,,,32,18,Man,Rechts,1,
,xotask,xotask,xotask,58,2,178,178,main,positivefb,-99,average,17,1.0673439000001963,['n'],1,right,['2'],5,0.7290658000001713,,,32,18,Man,Rechts,1,
,xotask,xotask,xotask,59,2,179,179,main,positivefb,-99,hard,51,1.3173893000002863,['n'],0,left,['3'],4,0.15945409999949334,,,32,18,Man,Rechts,1,
,xotask,xotask,xotask,0,3,180,180,main,positivefb,-99,hard,54,2.4676306999999724,['n'],0,left,['3'],4,1.3935675000002448,,,32,18,Man,Rechts,1,
,xotask,xotask,xotask,1,3,181,181,main,positivefb,-99,hard,53,0.93509449999965,['n'],0,left,['3'],4,0.28591770000002725,,,32,18,Man,Rechts,1,
,xotask,xotask,xotask,2,3,182,182,main,positivefb,-99,easy,9,0.917422099999385,['n'],1,right,['2'],5,0.2781816999995499,,,32,18,Man,Rechts,1,
,xotask,xotask,xotask,3,3,183,183,main,positivefb,-99,average,60,0.9674991000001683,['c'],1,left,['2'],5,0.8617762000003495,,,32,18,Man,Rechts,1,
,xotask,xotask,xotask,4,3,184,184,main,positivefb,-99,hard,54,1.8680782000001273,['n'],0,left,['3'],4,0.2900907000002917,,,32,18,Man,Rechts,1,
,xotask,xotask,xotask,5,3,185,185,main,positivefb,-99,easy,7,0.9675706999996692,['n'],1,right,['2'],5,0.09722859999965294,,,32,18,Man,Rechts,1,
,xotask,xotask,xotask,6,3,186,186,main,positivefb,-99,hard,51,1.300327699999798,['n'],0,left,['3'],4,0.20214390000001004,,,32,18,Man,Rechts,1,
,xotask,xotask,xotask,7,3,187,187,main,positivefb,-99,hard,25,0.8506594000000405,['n'],1,right,['2'],5,0.12055070000042178,,,32,18,Man,Rechts,1,
,xotask,xotask,xotask,8,3,188,188,main,positivefb,-99,easy,71,1.3515364999993835,['c'],1,left,['2'],5,0.9105902000001151,,,32,18,Man,Rechts,1,
,xotask,xotask,xotask,9,3,189,189,main,positivefb,-99,average,64,1.0168243999996776,['n'],0,left,['2'],5,1.067557799999122,,,32,18,Man,Rechts,1,
,xotask,xotask,xotask,10,3,190,190,main,positivefb,-99,average,18,1.2682703000000402,['n'],1,right,['2'],5,0.3982230999999956,,,32,18,Man,Rechts,1,
,xotask,xotask,xotask,11,3,191,191,main,positivefb,-99,hard,53,0.9514970999998695,['n'],0,left,['2'],5,0.2563503999999739,,,32,18,Man,Rechts,1,
,xotask,xotask,xotask,12,3,192,192,main,positivefb,-99,hard,29,1.467228000000432,['c'],0,right,['3'],4,0.46070679999957065,,,32,18,Man,Rechts,1,
,xotask,xotask,xotask,13,3,193,193,main,positivefb,-99,hard,26,0.6504322000000684,['n'],1,right,['1'],6,1.1218316999993476,,,32,18,Man,Rechts,1,
,xotask,xotask,xotask,14,3,194,194,main,positivefb,-99,easy,5,0.985191499999928,['n'],1,right,['1'],6,0.1977111000005607,,,32,18,Man,Rechts,1,
,xotask,xotask,xotask,15,3,195,195,main,positivefb,-99,easy,71,1.1017233000002307,['c'],1,left,['1'],6,0.33114149999983056,,,32,18,Man,Rechts,1,
,xotask,xotask,xotask,16,3,196,196,main,positivefb,-99,hard,51,1.7011670000001686,['c'],1,left,['2'],5,0.2905748000002859,,,32,18,Man,Rechts,1,
,xotask,xotask,xotask,17,3,197,197,main,positivefb,-99,average,19,0.6505576999998084,['n'],1,right,['1'],6,0.42190389999996114,,,32,18,Man,Rechts,1,
,xotask,xotask,xotask,18,3,198,198,main,positivefb,-99,average,60,1.2841511999995419,['c'],1,left,['2'],5,0.1868363000003228,,,32,18,Man,Rechts,1,
,xotask,xotask,xotask,19,3,199,199,main,positivefb,-99,easy,7,0.7340947000002416,['n'],1,right,['1'],6,0.5192731000006461,,,32,18,Man,Rechts,1,
,xotask,xotask,xotask,20,3,200,200,main,positivefb,-99,hard,27,0.6671782000003077,['n'],1,right,['1'],6,0.20812299999943207,,,32,18,Man,Rechts,1,
,xotask,xotask,xotask,21,3,201,201,main,positivefb,-99,average,19,0.9845022999998037,['n'],1,right,['1'],6,0.16927550000036717,,,32,18,Man,Rechts,1,
,xotask,xotask,xotask,22,3,202,202,main,positivefb,-99,hard,25,1.9672444999996515,['n'],1,right,['3'],4,0.3568262999997387,,,32,18,Man,Rechts,1,
,xotask,xotask,xotask,23,3,203,203,main,positivefb,-99,easy,72,0.9507824000002074,['c'],1,left,['1'],6,0.16958880000038334,,,32,18,Man,Rechts,1,
,xotask,xotask,xotask,24,3,204,204,main,positivefb,-99,easy,6,0.6673702999996749,['n'],1,right,['1'],6,0.21727089999967575,,,32,18,Man,Rechts,1,
,xotask,xotask,xotask,25,3,205,205,main,positivefb,-99,hard,50,1.6010320000004867,['n'],0,left,['2'],5,0.4170094999999492,,,32,18,Man,Rechts,1,
,xotask,xotask,xotask,26,3,206,206,main,positivefb,-99,easy,6,1.1342015999998694,['n'],1,right,['1'],6,0.41192080000018905,,,32,18,Man,Rechts,1,
,xotask,xotask,xotask,27,3,207,207,main,positivefb,-99,hard,26,0.7681498000001739,['n'],1,right,['1'],6,0.27785359999961656,,,32,18,Man,Rechts,1,
,xotask,xotask,xotask,28,3,208,208,main,positivefb,-99,easy,70,1.3508905999997296,['c'],1,left,['2'],5,0.34998520000044664,,,32,18,Man,Rechts,1,
,xotask,xotask,xotask,29,3,209,209,main,positivefb,-99,hard,26,0.718014499999299,['n'],1,right,['1'],6,0.35532899999998335,,,32,18,Man,Rechts,1,
,xotask,xotask,xotask,30,3,210,210,main,positivefb,-99,easy,73,1.1177233999997043,['c'],1,left,['1'],6,0.24932069999977102,,,32,18,Man,Rechts,1,
,xotask,xotask,xotask,31,3,211,211,main,positivefb,-99,average,18,0.7012222000003021,['n'],1,right,['2'],5,0.620676800000183,,,32,18,Man,Rechts,1,
,xotask,xotask,xotask,32,3,212,212,main,positivefb,-99,easy,70,0.8341888999993898,['c'],1,left,['2'],5,1.546914999999899,,,32,18,Man,Rechts,1,
,xotask,xotask,xotask,33,3,213,213,main,positivefb,-99,average,18,0.7340842000003249,['n'],1,right,['1'],6,0.2725975000003018,,,32,18,Man,Rechts,1,
,xotask,xotask,xotask,34,3,214,214,main,positivefb,-99,average,61,1.0343223999998372,['n'],0,left,['2'],5,0.14975200000026234,,,32,18,Man,Rechts,1,
,xotask,xotask,xotask,35,3,215,215,main,positivefb,-99,average,15,0.6020116999998208,['n'],1,right,['1'],6,0.2963181999994049,,,32,18,Man,Rechts,1,
,xotask,xotask,xotask,36,3,216,216,main,positivefb,-99,hard,29,0.5847583999993731,['n'],1,right,['1'],6,0.19072719999985566,,,32,18,Man,Rechts,1,
,xotask,xotask,xotask,37,3,217,217,main,positivefb,-99,easy,8,0.5846481999997195,['n'],1,right,['1'],6,0.13637500000004366,,,32,18,Man,Rechts,1,
,xotask,xotask,xotask,38,3,218,218,main,positivefb,-99,average,16,0.9499234000004435,['n'],1,right,['1'],6,0.5094422000001941,,,32,18,Man,Rechts,1,
,xotask,xotask,xotask,39,3,219,219,main,positivefb,-99,easy,70,0.8516202999999223,['c'],1,left,['1'],6,0.20825559999957477,,,32,18,Man,Rechts,1,
,xotask,xotask,xotask,40,3,220,220,main,positivefb,-99,easy,8,0.8837119999998322,['n'],1,right,['1'],6,0.18151720000059868,,,32,18,Man,Rechts,1,
,xotask,xotask,xotask,41,3,221,221,main,positivefb,-99,hard,51,0.8674242000006416,['c'],1,left,['2'],5,0.26836439999988215,,,32,18,Man,Rechts,1,
,xotask,xotask,xotask,42,3,222,222,main,positivefb,-99,average,61,2.9345071999996435,['c'],1,left,['2'],5,0.2854191999995237,,,32,18,Man,Rechts,1,
,xotask,xotask,xotask,43,3,223,223,main,positivefb,-99,average,62,1.1679852999996,['n'],0,left,['1'],6,0.25951010000062524,,,32,18,Man,Rechts,1,
,xotask,xotask,xotask,44,3,224,224,main,positivefb,-99,average,61,2.0846336000004158,['c'],1,left,['3'],4,0.09541930000068533,,,32,18,Man,Rechts,1,
,xotask,xotask,xotask,45,3,225,225,main,positivefb,-99,average,19,0.9837663999996948,['n'],1,right,['2'],5,0.13326909999977943,,,32,18,Man,Rechts,1,
,xotask,xotask,xotask,46,3,226,226,main,positivefb,-99,hard,54,2.4340930999997,['c'],1,left,['3'],4,0.5433020000000397,,,32,18,Man,Rechts,1,
,xotask,xotask,xotask,47,3,227,227,main,positivefb,-99,average,64,0.884024899999531,['c'],1,left,['2'],5,0.16756549999990966,,,32,18,Man,Rechts,1,
,xotask,xotask,xotask,48,3,228,228,main,positivefb,-99,hard,28,0.7511260999999649,['n'],1,right,['2'],5,0.21067430000039167,,,32,18,Man,Rechts,1,
,xotask,xotask,xotask,49,3,229,229,main,positivefb,-99,easy,74,1.085270199999286,['c'],1,left,['1'],6,0.10485100000005332,,,32,18,Man,Rechts,1,
,xotask,xotask,xotask,50,3,230,230,main,positivefb,-99,easy,71,0.8677268000001277,['n'],0,left,['1'],6,0.10615779999989172,,,32,18,Man,Rechts,1,
,xotask,xotask,xotask,51,3,231,231,main,positivefb,-99,hard,51,1.135037199999715,['c'],1,left,['1'],6,0.13739780000014434,,,32,18,Man,Rechts,1,
,xotask,xotask,xotask,52,3,232,232,main,positivefb,-99,average,18,0.7173353999996834,['n'],1,right,['1'],6,0.26463240000066435,,,32,18,Man,Rechts,1,
,xotask,xotask,xotask,53,3,233,233,main,positivefb,-99,easy,6,0.8330417999995916,['n'],1,right,['1'],6,0.18907149999995454,,,32,18,Man,Rechts,1,
,xotask,xotask,xotask,54,3,234,234,main,positivefb,-99,average,16,0.9505182000002605,['n'],1,right,['1'],6,0.16861080000035145,,,32,18,Man,Rechts,1,
,xotask,xotask,xotask,55,3,235,235,main,positivefb,-99,easy,9,0.5840699000000313,['n'],1,right,['1'],6,0.2108422999999675,,,32,18,Man,Rechts,1,
,xotask,xotask,xotask,56,3,236,236,main,positivefb,-99,average,61,1.217537700000321,['c'],1,left,['1'],6,0.1469622000004165,,,32,18,Man,Rechts,1,
,xotask,xotask,xotask,57,3,237,237,main,positivefb,-99,easy,72,0.8005649999995512,['c'],1,left,['1'],6,0.16628169999967213,,,32,18,Man,Rechts,1,
,xotask,xotask,xotask,58,3,238,238,main,positivefb,-99,hard,28,0.8500235000001339,['n'],1,right,['1'],6,0.21410240000022895,,,32,18,Man,Rechts,1,
,xotask,xotask,xotask,59,3,239,239,main,positivefb,-99,average,63,0.8004780999999639,['c'],1,left,['1'],6,0.12669319999986328,,,32,18,Man,Rechts,1,
,xotask,xotask,xotask,0,4,240,240,main,positivefb,-99,average,17,1.0334622999998828,['n'],1,right,['1'],6,0.20871549999992567,,,32,18,Man,Rechts,1,
,xotask,xotask,xotask,1,4,241,241,main,positivefb,-99,hard,28,1.7516476000000694,['c'],0,right,['3'],4,0.17134450000048673,,,32,18,Man,Rechts,1,
,xotask,xotask,xotask,2,4,242,242,main,positivefb,-99,hard,28,1.7682480000003125,['c'],0,right,['2'],5,0.29482780000034836,,,32,18,Man,Rechts,1,
,xotask,xotask,xotask,3,4,243,243,main,positivefb,-99,average,63,1.218158499999845,['c'],1,left,['3'],4,0.25129090000064025,,,32,18,Man,Rechts,1,
,xotask,xotask,xotask,4,4,244,244,main,positivefb,-99,average,60,0.8843955000002097,['c'],1,left,['3'],4,0.16665959999954794,,,32,18,Man,Rechts,1,
,xotask,xotask,xotask,5,4,245,245,main,positivefb,-99,hard,25,1.3332218999994438,['n'],1,right,['2'],5,0.1873475000002145,,,32,18,Man,Rechts,1,
,xotask,xotask,xotask,6,4,246,246,main,positivefb,-99,average,62,1.0666461999999228,['c'],1,left,['2'],5,0.20186560000001919,,,32,18,Man,Rechts,1,
,xotask,xotask,xotask,7,4,247,247,main,positivefb,-99,easy,8,0.884535600000163,['n'],1,right,['2'],5,0.1594946000004711,,,32,18,Man,Rechts,1,
,xotask,xotask,xotask,8,4,248,248,main,positivefb,-99,hard,51,1.3509507999997368,['c'],1,left,['2'],5,0.10776689999966038,,,32,18,Man,Rechts,1,
,xotask,xotask,xotask,9,4,249,249,main,positivefb,-99,hard,54,0.9517422000008082,['c'],1,left,['2'],5,0.018940499999189342,,,32,18,Man,Rechts,1,
,xotask,xotask,xotask,10,4,250,250,main,positivefb,-99,average,62,0.8662371000000348,['c'],1,left,['2'],5,1.1281276999998227,,,32,18,Man,Rechts,1,
,xotask,xotask,xotask,11,4,251,251,main,positivefb,-99,easy,8,0.8512214000002132,['n'],1,right,['2'],5,0.6420060000000376,,,32,18,Man,Rechts,1,
,xotask,xotask,xotask,12,4,252,252,main,positivefb,-99,average,19,0.9666738000005353,['n'],1,right,['1'],6,0.13808960000005754,,,32,18,Man,Rechts,1,
,xotask,xotask,xotask,13,4,253,253,main,positivefb,-99,average,19,0.5848175999999512,['n'],1,right,['1'],6,0.11038860000007844,,,32,18,Man,Rechts,1,
,xotask,xotask,xotask,14,4,254,254,main,positivefb,-99,easy,7,1.0829272000000856,['n'],1,right,['1'],6,0.31237959999998566,,,32,18,Man,Rechts,1,
,xotask,xotask,xotask,15,4,255,255,main,positivefb,-99,average,16,0.48479930000030436,['n'],1,right,['1'],6,0.2093457999999373,,,32,18,Man,Rechts,1,
,xotask,xotask,xotask,16,4,256,256,main,positivefb,-99,hard,29,0.46780569999918953,['n'],1,right,['1'],6,0.471418399999493,,,32,18,Man,Rechts,1,
,xotask,xotask,xotask,17,4,257,257,main,positivefb,-99,average,61,1.0009481999995842,['c'],1,left,['1'],6,0.2377651999995578,,,32,18,Man,Rechts,1,
,xotask,xotask,xotask,18,4,258,258,main,positivefb,-99,hard,53,2.700644500000635,['c'],1,left,['3'],4,0.2006719000000885,,,32,18,Man,Rechts,1,
,xotask,xotask,xotask,19,4,259,259,main,positivefb,-99,easy,7,1.0517720999996527,['n'],1,right,['1'],6,0.09522530000049301,,,32,18,Man,Rechts,1,
,xotask,xotask,xotask,20,4,260,260,main,positivefb,-99,easy,9,0.6338046999999278,['n'],1,right,['1'],6,0.18733650000012858,,,32,18,Man,Rechts,1,
,xotask,xotask,xotask,21,4,261,261,main,positivefb,-99,easy,6,0.5511627999994744,['n'],1,right,['1'],6,0.2790142999992895,,,32,18,Man,Rechts,1,
,xotask,xotask,xotask,22,4,262,262,main,positivefb,-99,hard,51,0.8673639999997249,['n'],0,left,['1'],6,0.20944750000035128,,,32,18,Man,Rechts,1,
,xotask,xotask,xotask,23,4,263,263,main,positivefb,-99,easy,73,0.9174774000002799,['c'],1,left,['1'],6,0.1821204999996553,,,32,18,Man,Rechts,1,
,xotask,xotask,xotask,24,4,264,264,main,positivefb,-99,hard,27,2.8174639999997453,['c'],0,right,['3'],4,0.6234011000005921,,,32,18,Man,Rechts,1,
,xotask,xotask,xotask,25,4,265,265,main,positivefb,-99,hard,53,1.6508023000005778,['c'],1,left,['3'],4,0.1569853000000876,,,32,18,Man,Rechts,1,
,xotask,xotask,xotask,26,4,266,266,main,positivefb,-99,average,18,0.6669201999993675,['n'],1,right,['1'],6,0.23676159999922675,,,32,18,Man,Rechts,1,
,xotask,xotask,xotask,27,4,267,267,main,positivefb,-99,easy,70,0.8174990999996226,['c'],1,left,['1'],6,0.4920213999994303,,,32,18,Man,Rechts,1,
,xotask,xotask,xotask,28,4,268,268,main,positivefb,-99,easy,7,0.7181823000000804,['n'],1,right,['1'],6,0.2437091000001601,,,32,18,Man,Rechts,1,
,xotask,xotask,xotask,29,4,269,269,main,positivefb,-99,easy,6,1.0339634000001752,['n'],1,right,['1'],6,0.24238340000010794,,,32,18,Man,Rechts,1,
,xotask,xotask,xotask,30,4,270,270,main,positivefb,-99,easy,71,0.7506610000000364,['c'],1,left,['1'],6,0.22765639999943232,,,32,18,Man,Rechts,1,
,xotask,xotask,xotask,31,4,271,271,main,positivefb,-99,average,18,0.6014377999999851,['n'],1,right,['1'],6,0.307585200000176,,,32,18,Man,Rechts,1,
,xotask,xotask,xotask,32,4,272,272,main,positivefb,-99,average,64,1.568059700000049,['c'],1,left,['3'],4,0.13714829999935318,,,32,18,Man,Rechts,1,
,xotask,xotask,xotask,33,4,273,273,main,positivefb,-99,average,16,0.9500680999999531,['n'],1,right,['1'],6,0.1351517999992211,,,32,18,Man,Rechts,1,
,xotask,xotask,xotask,34,4,274,274,main,positivefb,-99,average,63,1.101169800000207,['c'],1,left,['1'],6,0.18194510000012087,,,32,18,Man,Rechts,1,
,xotask,xotask,xotask,35,4,275,275,main,positivefb,-99,hard,27,0.8347042999994301,['n'],1,right,['1'],6,0.20614480000040203,,,32,18,Man,Rechts,1,
,xotask,xotask,xotask,36,4,276,276,main,positivefb,-99,average,18,1.034895900000265,['n'],1,right,['1'],6,0.18902470000011817,,,32,18,Man,Rechts,1,
,xotask,xotask,xotask,37,4,277,277,main,positivefb,-99,average,62,1.6183486999998422,['c'],1,left,['2'],5,0.33377849999942555,,,32,18,Man,Rechts,1,
,xotask,xotask,xotask,38,4,278,278,main,positivefb,-99,average,19,0.6181406000005154,['n'],1,right,['1'],6,0.1525154000000839,,,32,18,Man,Rechts,1,
,xotask,xotask,xotask,39,4,279,279,main,positivefb,-99,average,61,0.8845914000003177,['c'],1,left,['1'],6,0.16052289999970526,,,32,18,Man,Rechts,1,
,xotask,xotask,xotask,40,4,280,280,main,positivefb,-99,hard,29,0.6515689999996539,['n'],1,right,['1'],6,0.16072210000038467,,,32,18,Man,Rechts,1,
,xotask,xotask,xotask,41,4,281,281,main,positivefb,-99,hard,54,1.0673562000001766,['c'],1,left,['1'],6,0.13639549999970768,,,32,18,Man,Rechts,1,
,xotask,xotask,xotask,42,4,282,282,main,positivefb,-99,hard,29,0.5844364000004134,['n'],1,right,['1'],6,0.16427260000000388,,,32,18,Man,Rechts,1,
,xotask,xotask,xotask,43,4,283,283,main,positivefb,-99,easy,71,1.7675171999999293,['c'],1,left,['2'],5,0.4161712000004627,,,32,18,Man,Rechts,1,
,xotask,xotask,xotask,44,4,284,284,main,positivefb,-99,average,17,0.6507815999993909,['n'],1,right,['1'],6,0.18220300000029965,,,32,18,Man,Rechts,1,
,xotask,xotask,xotask,45,4,285,285,main,positivefb,-99,hard,25,1.2344387000002826,['n'],1,right,['2'],5,0.13408559999970748,,,32,18,Man,Rechts,1,
,xotask,xotask,xotask,46,4,286,286,main,positivefb,-99,hard,52,1.0853477000000566,['c'],1,left,['2'],5,0.1901281000000381,,,32,18,Man,Rechts,1,
,xotask,xotask,xotask,47,4,287,287,main,positivefb,-99,easy,6,0.6680397000000085,['n'],1,right,['1'],6,0.14860520000001998,,,32,18,Man,Rechts,1,
,xotask,xotask,xotask,48,4,288,288,main,positivefb,-99,hard,27,1.0839685999999347,['n'],1,right,['2'],5,0.1482413000003362,,,32,18,Man,Rechts,1,
,xotask,xotask,xotask,49,4,289,289,main,positivefb,-99,easy,73,1.284915700000056,['c'],1,left,['2'],5,0.5717780000004495,,,32,18,Man,Rechts,1,
,xotask,xotask,xotask,50,4,290,290,main,positivefb,-99,easy,73,1.0180422999992516,['c'],1,left,['2'],5,0.6845811999992293,,,32,18,Man,Rechts,1,
,xotask,xotask,xotask,51,4,291,291,main,positivefb,-99,hard,53,0.7338620999998966,['c'],1,left,['2'],5,0.14901490000011108,,,32,18,Man,Rechts,1,
,xotask,xotask,xotask,52,4,292,292,main,positivefb,-99,hard,53,0.8851449000003413,['c'],1,left,['3'],4,0.5562981999992189,,,32,18,Man,Rechts,1,
,xotask,xotask,xotask,53,4,293,293,main,positivefb,-99,average,64,0.9845242999999755,['c'],1,left,['2'],5,0.12747219999982917,,,32,18,Man,Rechts,1,
,xotask,xotask,xotask,54,4,294,294,main,positivefb,-99,easy,72,0.9165714999999182,['c'],1,left,['1'],6,0.1588925999994899,,,32,18,Man,Rechts,1,
,xotask,xotask,xotask,55,4,295,295,main,positivefb,-99,easy,72,0.7344293999994989,['c'],1,left,['1'],6,0.19689259999995556,,,32,18,Man,Rechts,1,
,xotask,xotask,xotask,56,4,296,296,main,positivefb,-99,easy,5,0.7007344000003286,['n'],1,right,['1'],6,0.3453394999996817,,,32,18,Man,Rechts,1,
,xotask,xotask,xotask,57,4,297,297,main,positivefb,-99,easy,70,0.8179697000005035,['c'],1,left,['1'],6,0.19627810000019963,,,32,18,Man,Rechts,1,
,xotask,xotask,xotask,58,4,298,298,main,positivefb,-99,easy,70,1.6337548000001334,['c'],1,left,['2'],5,0.21264530000007653,,,32,18,Man,Rechts,1,
,xotask,xotask,xotask,59,4,299,299,main,positivefb,-99,hard,54,0.8171507000006386,['c'],1,left,['2'],5,0.16472739999971964,,,32,18,Man,Rechts,1,
,xotask,xotask,xotask,0,0,0,300,training,positivefb,89,easy,70,0.7672305000005508,['c'],1,left,['2'],5,0.26759800000036194,,,32,18,Man,Rechts,1,
,xotask,xotask,xotask,1,0,1,301,training,positivefb,91,average,63,0.7833370999996987,['c'],1,left,['2'],5,0.16907999999966705,,,32,18,Man,Rechts,1,
,xotask,xotask,xotask,2,0,2,302,training,positivefb,91,hard,53,1.383882000000085,['c'],1,left,['1'],6,0.17981549999967683,,,32,18,Man,Rechts,1,
,xotask,xotask,xotask,3,0,3,303,training,positivefb,89,average,62,0.7007532999996329,['c'],1,left,['1'],6,0.12855709999985265,,,32,18,Man,Rechts,1,
,xotask,xotask,xotask,4,0,4,304,training,positivefb,92,average,16,0.700928300000669,['n'],1,right,['1'],6,0.2557328000002599,,,32,18,Man,Rechts,1,
,xotask,xotask,xotask,5,0,5,305,training,positivefb,70,average,64,0.5844962999999552,['n'],0,left,['1'],6,0.22269710000000487,,,32,18,Man,Rechts,1,
,xotask,xotask,xotask,6,0,6,306,training,positivefb,91,hard,26,0.966995599999791,['n'],1,right,['2'],5,0.22324010000011185,,,32,18,Man,Rechts,1,
,xotask,xotask,xotask,7,0,7,307,training,positivefb,93,hard,50,0.7497776999998678,['n'],0,left,['2'],5,0.336600499999804,,,32,18,Man,Rechts,1,
,xotask,xotask,xotask,8,0,8,308,training,positivefb,91,easy,6,1.2508100999993985,['n'],1,right,['2'],5,0.1928700000007666,,,32,18,Man,Rechts,1,
,xotask,xotask,xotask,9,0,9,309,training,positivefb,93,hard,50,0.9172871999999188,['c'],1,left,['2'],5,0.11701749999974709,,,32,18,Man,Rechts,1,
,xotask,xotask,xotask,10,0,10,310,training,positivefb,95,easy,70,0.6668501000003744,['c'],1,left,['2'],5,0.078125,,,32,18,Man,Rechts,1,
,xotask,xotask,xotask,11,0,11,311,training,positivefb,95,easy,73,0.7010106999996424,['c'],1,left,['2'],5,0.07878170000003593,,,32,18,Man,Rechts,1,
,xotask,xotask,xotask,12,0,12,312,training,positivefb,78,average,17,1.5668297000001985,['c'],0,right,['2'],5,0.09347199999956501,,,32,18,Man,Rechts,1,
,xotask,xotask,xotask,13,0,13,313,training,positivefb,81,average,60,1.4004550999998173,['n'],0,left,['2'],5,0.13058060000003024,,,32,18,Man,Rechts,1,
,xotask,xotask,xotask,14,0,14,314,training,positivefb,85,average,18,0.6668426999995063,['n'],1,right,['2'],5,0.1072070000000167,,,32,18,Man,Rechts,1,
,xotask,xotask,xotask,15,0,15,315,training,positivefb,93,easy,72,0.9346820999999181,['c'],1,left,['1'],6,0.11381960000016988,,,32,18,Man,Rechts,1,
,xotask,xotask,xotask,16,0,16,316,training,positivefb,70,hard,54,1.5505708000000595,['c'],1,left,['2'],5,0.2798757000000478,,,32,18,Man,Rechts,1,
,xotask,xotask,xotask,17,0,17,317,training,positivefb,91,easy,8,0.7338016000003336,['n'],1,right,['1'],6,0.09588050000002113,,,32,18,Man,Rechts,1,
,xotask,xotask,xotask,18,0,18,318,training,positivefb,97,easy,73,0.7682635999999547,['c'],1,left,['1'],6,0.12602090000018507,,,32,18,Man,Rechts,1,
,xotask,xotask,xotask,19,0,19,319,training,positivefb,96,easy,6,0.566381900000124,['n'],1,right,['1'],6,0.13817139999991923,,,32,18,Man,Rechts,1,
,xotask,xotask,xotask,20,0,20,320,training,positivefb,83,hard,25,1.3009845999995377,['n'],1,right,['3'],4,0.1370997999993051,,,32,18,Man,Rechts,1,
,xotask,xotask,xotask,21,0,21,321,training,positivefb,98,easy,73,0.682907499999601,['c'],1,left,['1'],6,0.1280784999999014,,,32,18,Man,Rechts,1,
,xotask,xotask,xotask,22,0,22,322,training,positivefb,98,average,19,0.5835507000001598,['n'],1,right,['1'],6,0.22078590000000986,,,32,18,Man,Rechts,1,
,xotask,xotask,xotask,23,0,23,323,training,positivefb,86,average,62,1.0681432000001223,['c'],1,left,['1'],6,0.15334849999999278,,,32,18,Man,Rechts,1,
,xotask,xotask,xotask,24,0,24,324,training,positivefb,89,easy,7,0.6673994000002494,['n'],1,right,['1'],6,0.18456849999984115,,,32,18,Man,Rechts,1,
,xotask,xotask,xotask,25,0,25,325,training,positivefb,85,hard,50,1.001234999999724,['n'],0,left,['2'],5,0.12960219999968103,,,32,18,Man,Rechts,1,
,xotask,xotask,xotask,26,0,26,326,training,positivefb,94,hard,26,0.8009446000005482,['n'],1,right,['2'],5,0.11667129999932513,,,32,18,Man,Rechts,1,
,xotask,xotask,xotask,27,0,27,327,training,positivefb,86,average,60,1.7997674999996889,['c'],1,left,['3'],4,0.9036048999996638,,,32,18,Man,Rechts,1,
,xotask,xotask,xotask,28,0,28,328,training,positivefb,91,easy,74,0.9500152999999045,['c'],1,left,['1'],6,0.15001829999982874,,,32,18,Man,Rechts,1,
,xotask,xotask,xotask,29,0,29,329,training,positivefb,81,easy,5,0.717518100000234,['n'],1,right,['2'],5,0.6276380999997855,,,32,18,Man,Rechts,1,
,xotask,xotask,xotask,30,0,30,330,training,positivefb,25,hard,27,1.7673683000002711,['c'],0,right,['3'],4,1.0839692999998078,,,32,18,Man,Rechts,1,
,xotask,xotask,xotask,31,0,31,331,training,positivefb,90,easy,6,1.4842224000003625,['n'],1,right,['3'],4,0.22142189999976836,,,32,18,Man,Rechts,1,
,xotask,xotask,xotask,32,0,32,332,training,positivefb,91,hard,53,0.8336976999999024,['c'],1,left,['2'],5,0.2991963999993459,,,32,18,Man,Rechts,1,
,xotask,xotask,xotask,33,0,33,333,training,positivefb,94,easy,9,0.7843230999997104,['n'],1,right,['1'],6,0.14396800000031362,,,32,18,Man,Rechts,1,
,xotask,xotask,xotask,34,0,34,334,training,positivefb,96,hard,27,0.6996056999996654,['n'],1,right,['1'],6,0.31081970000013825,,,32,18,Man,Rechts,1,
,xotask,xotask,xotask,35,0,35,335,training,positivefb,95,average,60,0.7496213000003991,['c'],1,left,['1'],6,0.14067400000021735,,,32,18,Man,Rechts,1,
,xotask,xotask,xotask,36,0,36,336,training,positivefb,96,easy,72,1.3341445000005479,['c'],1,left,['1'],6,0.2104059999992387,,,32,18,Man,Rechts,1,
,xotask,xotask,xotask,37,0,37,337,training,positivefb,87,average,61,1.25064569999995,['n'],0,left,['3'],4,0.43167559999983496,,,32,18,Man,Rechts,1,
,xotask,xotask,xotask,38,0,38,338,training,positivefb,94,hard,25,0.8999868999999308,['n'],1,right,['2'],5,0.15470860000004905,,,32,18,Man,Rechts,1,
,xotask,xotask,xotask,39,0,39,339,training,positivefb,95,easy,70,0.7172897000000376,['c'],1,left,['1'],6,0.11212299999988318,,,32,18,Man,Rechts,1,
,xotask,xotask,xotask,40,0,40,340,training,positivefb,15,average,18,0.5999509000002945,['n'],1,right,['1'],6,0.44423440000082337,,,32,18,Man,Rechts,1,
,xotask,xotask,xotask,41,0,41,341,training,positivefb,92,average,16,0.6498909000001731,['n'],1,right,['1'],6,0.12110690000008617,,,32,18,Man,Rechts,1,
,xotask,xotask,xotask,42,0,42,342,training,positivefb,97,hard,25,0.767013899999256,['n'],1,right,['1'],6,0.13312060000043857,,,32,18,Man,Rechts,1,
,xotask,xotask,xotask,43,0,43,343,training,positivefb,86,average,17,1.1181094000003213,['n'],1,right,['2'],5,0.19546790000003966,,,32,18,Man,Rechts,1,
,xotask,xotask,xotask,44,0,44,344,training,positivefb,82,hard,28,0.833352399999967,['n'],1,right,['1'],6,0.723197700000128,,,32,18,Man,Rechts,1,
,xotask,xotask,xotask,45,0,45,345,training,positivefb,96,easy,72,0.7840069000003496,['c'],1,left,['1'],6,0.23054259999844362,,,32,18,Man,Rechts,1,
,xotask,xotask,xotask,46,0,46,346,training,positivefb,92,hard,50,0.9997683000001416,['c'],1,left,['2'],5,0.2212417999999161,,,32,18,Man,Rechts,1,
,xotask,xotask,xotask,47,0,47,347,training,positivefb,95,hard,28,0.6673558999991656,['n'],1,right,['2'],5,0.32242089999999735,,,32,18,Man,Rechts,1,
,xotask,xotask,xotask,48,0,48,348,training,positivefb,93,hard,28,0.6831932000004599,['n'],1,right,['2'],5,0.24231959999997343,,,32,18,Man,Rechts,1,
,xotask,xotask,xotask,49,0,49,349,training,positivefb,98,easy,5,0.6327695999989373,['n'],1,right,['1'],6,0.22354700000141747,,,32,18,Man,Rechts,1,
,xotask,xotask,xotask,50,0,50,350,training,positivefb,73,hard,53,1.6663227999997616,['n'],0,left,['3'],4,0.44452500000079453,,,32,18,Man,Rechts,1,
,xotask,xotask,xotask,51,0,51,351,training,positivefb,94,easy,8,0.7168837999997777,['n'],1,right,['1'],6,0.1424654999991617,,,32,18,Man,Rechts,1,
,xotask,xotask,xotask,52,0,52,352,training,positivefb,95,average,18,0.5341422999990755,['n'],1,right,['1'],6,0.15528570000060427,,,32,18,Man,Rechts,1,
,xotask,xotask,xotask,53,0,53,353,training,positivefb,79,hard,50,0.9329619000000093,['c'],1,left,['3'],4,0.8164316000002145,,,32,18,Man,Rechts,1,
,xotask,xotask,xotask,54,0,54,354,training,positivefb,71,hard,53,2.2500655999992887,['c'],1,left,['3'],4,1.4699743000001035,,,32,18,Man,Rechts,1,
,xotask,xotask,xotask,55,0,55,355,training,positivefb,95,average,16,0.5999461999999767,['n'],1,right,['2'],5,0.2266788999986602,,,32,18,Man,Rechts,1,
,xotask,xotask,xotask,56,0,56,356,training,positivefb,95,easy,9,0.6163683000013407,['n'],1,right,['2'],5,0.12836190000052738,,,32,18,Man,Rechts,1,
,xotask,xotask,xotask,57,0,57,357,training,positivefb,79,average,16,0.517203100000188,['n'],1,right,['1'],6,0.3671071999997366,,,32,18,Man,Rechts,1,
,xotask,xotask,xotask,58,0,58,358,training,positivefb,86,average,64,1.0170091999989381,['c'],1,left,['1'],6,0.1685870999990584,,,32,18,Man,Rechts,1,
,xotask,xotask,xotask,59,0,59,359,training,positivefb,93,average,63,1.5831732000006014,['c'],1,left,['2'],5,0.5143057000004774,,,32,18,Man,Rechts,1,
,xotask,xotask,xotask,0,1,60,360,training,positivefb,84,hard,52,1.6011304000003292,['c'],1,left,['3'],4,0.008468699999866658,,,32,18,Man,Rechts,1,
,xotask,xotask,xotask,1,1,61,361,training,positivefb,96,easy,70,0.5832033000006049,['c'],1,left,['2'],5,0.27378850000059174,,,32,18,Man,Rechts,1,
,xotask,xotask,xotask,2,1,62,362,training,positivefb,55,hard,52,1.0841731000000436,['n'],0,left,['2'],5,0.6510248999984469,,,32,18,Man,Rechts,1,
,xotask,xotask,xotask,3,1,63,363,training,positivefb,75,hard,53,2.0324627999998484,['c'],1,left,['3'],4,0.11132080000061251,,,32,18,Man,Rechts,1,
,xotask,xotask,xotask,4,1,64,364,training,positivefb,99,hard,51,0.8829325000006065,['c'],1,left,['3'],4,0.17622060000030615,,,32,18,Man,Rechts,1,
,xotask,xotask,xotask,5,1,65,365,training,positivefb,96,easy,5,0.7996214000013424,['n'],1,right,['2'],5,0.20204519999970216,,,32,18,Man,Rechts,1,
,xotask,xotask,xotask,6,1,66,366,training,positivefb,87,hard,54,1.2351256999991165,['c'],1,left,['2'],5,0.1600631000001158,,,32,18,Man,Rechts,1,
,xotask,xotask,xotask,7,1,67,367,training,positivefb,87,hard,25,0.8841216000000713,['n'],1,right,['1'],6,0.34274639999966894,,,32,18,Man,Rechts,1,
,xotask,xotask,xotask,8,1,68,368,training,positivefb,93,hard,26,1.2338730999999825,['n'],1,right,['2'],5,0.12042270000165445,,,32,18,Man,Rechts,1,
,xotask,xotask,xotask,9,1,69,369,training,positivefb,96,average,18,0.9498234999991837,['n'],1,right,['2'],5,0.26920219999919937,,,32,18,Man,Rechts,1,
,xotask,xotask,xotask,10,1,70,370,training,positivefb,95,easy,9,0.6159864999990532,['n'],1,right,['1'],6,0.23458519999985583,,,32,18,Man,Rechts,1,
,xotask,xotask,xotask,11,1,71,371,training,positivefb,83,average,16,0.6332676000001811,['n'],1,right,['1'],6,0.1915331000000151,,,32,18,Man,Rechts,1,
,xotask,xotask,xotask,12,1,72,372,training,positivefb,93,easy,71,0.8657233999983873,['c'],1,left,['1'],6,0.15804229999957897,,,32,18,Man,Rechts,1,
,xotask,xotask,xotask,13,1,73,373,training,positivefb,91,easy,9,0.7496746000015264,['n'],1,right,['1'],6,0.12209370000164199,,,32,18,Man,Rechts,1,
,xotask,xotask,xotask,14,1,74,374,training,positivefb,93,average,19,0.6501005000009172,['n'],1,right,['1'],6,0.1707657000006293,,,32,18,Man,Rechts,1,
,xotask,xotask,xotask,15,1,75,375,training,positivefb,98,easy,7,0.601087600000028,['n'],1,right,['1'],6,0.13256660000115517,,,32,18,Man,Rechts,1,
,xotask,xotask,xotask,16,1,76,376,training,positivefb,89,easy,8,0.48355420000007143,['n'],1,right,['1'],6,0.1559514999989915,,,32,18,Man,Rechts,1,
,xotask,xotask,xotask,17,1,77,377,training,positivefb,86,average,18,0.6840947000000597,['n'],1,right,['1'],6,0.24261640000077023,,,32,18,Man,Rechts,1,
,xotask,xotask,xotask,18,1,78,378,training,positivefb,97,easy,6,0.5840668999990157,['n'],1,right,['1'],6,0.1859058999998524,,,32,18,Man,Rechts,1,
,xotask,xotask,xotask,19,1,79,379,training,positivefb,93,average,63,1.0334421000006841,['c'],1,left,['1'],6,0.24107230000117852,,,32,18,Man,Rechts,1,
,xotask,xotask,xotask,20,1,80,380,training,positivefb,89,easy,5,0.7001932999992277,['n'],1,right,['1'],6,0.18055249999997613,,,32,18,Man,Rechts,1,
,xotask,xotask,xotask,21,1,81,381,training,positivefb,92,hard,27,0.8508091999992757,['n'],1,right,['1'],6,0.23591560000022582,,,32,18,Man,Rechts,1,
,xotask,xotask,xotask,22,1,82,382,training,positivefb,94,hard,29,0.5839230000001407,['n'],1,right,['1'],6,0.1305690000008326,,,32,18,Man,Rechts,1,
,xotask,xotask,xotask,23,1,83,383,training,positivefb,94,hard,27,0.7169236000008823,['n'],1,right,['1'],6,0.1603543000001082,,,32,18,Man,Rechts,1,
,xotask,xotask,xotask,24,1,84,384,training,positivefb,87,easy,70,1.3834987999998702,['c'],1,left,['2'],5,0.10690249999970547,,,32,18,Man,Rechts,1,
,xotask,xotask,xotask,25,1,85,385,training,positivefb,77,average,62,1.3174165000000357,['c'],1,left,['2'],5,0.31447750000006636,,,32,18,Man,Rechts,1,
,xotask,xotask,xotask,26,1,86,386,training,positivefb,94,hard,26,0.6337160000002768,['n'],1,right,['2'],5,0.23668829999951413,,,32,18,Man,Rechts,1,
,xotask,xotask,xotask,27,1,87,387,training,positivefb,95,average,64,1.1011933000008867,['c'],1,left,['1'],6,0.11108340000100725,,,32,18,Man,Rechts,1,
,xotask,xotask,xotask,28,1,88,388,training,positivefb,93,hard,25,1.133429999999862,['n'],1,right,['2'],5,0.6136225999998715,,,32,18,Man,Rechts,1,
,xotask,xotask,xotask,29,1,89,389,training,positivefb,92,easy,72,1.183490499999607,['c'],1,left,['2'],5,0.5426874999993743,,,32,18,Man,Rechts,1,
,xotask,xotask,xotask,30,1,90,390,training,positivefb,92,hard,28,1.7003382999992027,['n'],1,right,['3'],4,1.3657758999997895,,,32,18,Man,Rechts,1,
,xotask,xotask,xotask,31,1,91,391,training,positivefb,92,average,63,0.7172059000004083,['c'],1,left,['2'],5,0.1213781000005838,,,32,18,Man,Rechts,1,
,xotask,xotask,xotask,32,1,92,392,training,positivefb,93,average,62,0.7504466000009415,['c'],1,left,['2'],5,0.17494629999964673,,,32,18,Man,Rechts,1,
,xotask,xotask,xotask,33,1,93,393,training,positivefb,97,easy,7,0.7338555999995151,['n'],1,right,['1'],6,0.10706449999997858,,,32,18,Man,Rechts,1,
,xotask,xotask,xotask,34,1,94,394,training,positivefb,96,easy,5,0.5006725000002916,['n'],1,right,['1'],6,0.17864670000017213,,,32,18,Man,Rechts,1,
,xotask,xotask,xotask,35,1,95,395,training,positivefb,87,average,60,0.8665133000013157,['c'],1,left,['1'],6,0.16087549999974726,,,32,18,Man,Rechts,1,
,xotask,xotask,xotask,36,1,96,396,training,positivefb,88,average,64,1.9995318000001134,['n'],0,left,['3'],4,0.17992709999998624,,,32,18,Man,Rechts,1,
,xotask,xotask,xotask,37,1,97,397,training,positivefb,87,average,19,0.6511352999987139,['n'],1,right,['2'],5,0.3067399999999907,,,32,18,Man,Rechts,1,
,xotask,xotask,xotask,38,1,98,398,training,positivefb,84,hard,51,1.6827905000009196,['c'],1,left,['3'],4,0.034996700000192504,,,32,18,Man,Rechts,1,
,xotask,xotask,xotask,39,1,99,399,training,positivefb,83,easy,73,0.7172915000010107,['c'],1,left,['3'],4,0.21287999999913154,,,32,18,Man,Rechts,1,
,xotask,xotask,xotask,40,1,100,400,training,positivefb,84,hard,52,0.6498796999985643,['c'],1,left,['2'],5,0.08360060000086378,,,32,18,Man,Rechts,1,
,xotask,xotask,xotask,41,1,101,401,training,positivefb,96,easy,74,0.6844598999996379,['c'],1,left,['1'],6,0.14854989999912505,,,32,18,Man,Rechts,1,
,xotask,xotask,xotask,42,1,102,402,training,positivefb,94,average,64,0.6509955000001355,['c'],1,left,['1'],6,0.12480340000001888,,,32,18,Man,Rechts,1,
,xotask,xotask,xotask,43,1,103,403,training,positivefb,95,easy,72,0.5832155000007333,['c'],1,left,['1'],6,0.14417429999957676,,,32,18,Man,Rechts,1,
,xotask,xotask,xotask,44,1,104,404,training,positivefb,90,hard,50,0.4839546999992308,['c'],1,left,['9'],2,2.6564531000003626,,,32,18,Man,Rechts,1,
,xotask,xotask,xotask,45,1,105,405,training,positivefb,76,hard,51,3.401248799998939,['n'],0,left,['3'],4,0.15790479999850504,,,32,18,Man,Rechts,1,
,xotask,xotask,xotask,46,1,106,406,training,positivefb,98,easy,6,0.6502701999997953,['n'],1,right,['2'],5,0.3173831000003702,,,32,18,Man,Rechts,1,
,xotask,xotask,xotask,47,1,107,407,training,positivefb,99,average,64,0.8005599999996775,['c'],1,left,['2'],5,0.09675830000014685,,,32,18,Man,Rechts,1,
,xotask,xotask,xotask,48,1,108,408,training,positivefb,94,hard,27,1.1496791999998095,['n'],1,right,['2'],5,0.1277150999994774,,,32,18,Man,Rechts,1,
,xotask,xotask,xotask,49,1,109,409,training,positivefb,91,average,60,0.8505638000006002,['c'],1,left,['1'],6,1.9366447000011249,,,32,18,Man,Rechts,1,
,xotask,xotask,xotask,50,1,110,410,training,positivefb,95,average,18,1.4833535000016127,['n'],1,right,['3'],4,1.0314517999995587,,,32,18,Man,Rechts,1,
,xotask,xotask,xotask,51,1,111,411,training,positivefb,94,easy,73,0.7999613000010868,['c'],1,left,['2'],5,0.17465390000143088,,,32,18,Man,Rechts,1,
,xotask,xotask,xotask,52,1,112,412,training,positivefb,75,average,15,0.7002487999998266,['n'],1,right,['1'],6,0.2520126999988861,,,32,18,Man,Rechts,1,
,xotask,xotask,xotask,53,1,113,413,training,positivefb,94,hard,51,0.9667582000001858,['c'],1,left,['1'],6,0.1392602000014449,,,32,18,Man,Rechts,1,
,xotask,xotask,xotask,54,1,114,414,training,positivefb,98,average,19,0.6005375000004278,['n'],1,right,['1'],6,0.0861918999999034,,,32,18,Man,Rechts,1,
,xotask,xotask,xotask,55,1,115,415,training,positivefb,93,easy,70,0.6995465999989392,['c'],1,left,['1'],6,0.09418000000005122,,,32,18,Man,Rechts,1,
,xotask,xotask,xotask,56,1,116,416,training,positivefb,95,average,18,0.7171668000009959,['n'],1,right,['1'],6,0.1424471000009362,,,32,18,Man,Rechts,1,
,xotask,xotask,xotask,57,1,117,417,training,positivefb,69,hard,29,0.9503968999997596,['n'],1,right,['1'],6,1.0193842999997287,,,32,18,Man,Rechts,1,
,xotask,xotask,xotask,58,1,118,418,training,positivefb,97,easy,72,1.2330641000007745,['c'],1,left,['2'],5,0.5451037999991968,,,32,18,Man,Rechts,1,
,xotask,xotask,xotask,59,1,119,419,training,positivefb,89,average,19,1.4340475000008155,['n'],1,right,['3'],4,0.4902402000006987,,,32,18,Man,Rechts,1,
,dotcolour,xotask,xotask,0,2,120,420,main,positivefb,-99,easy,,0.9344089000005624,['n'],1,right,['2'],5,1.382752999999866,19,,32,18,Man,Rechts,1,
,dotcolour,xotask,xotask,1,2,121,421,main,positivefb,-99,average,,1.035023899999942,['c'],1,left,['2'],5,0.5581574000007095,53,,32,18,Man,Rechts,1,
,dotcolour,xotask,xotask,2,2,122,422,main,positivefb,-99,easy,,0.9848594999984925,['c'],1,left,['1'],6,0.14578260000052978,65,,32,18,Man,Rechts,1,
,dotcolour,xotask,xotask,3,2,123,423,main,positivefb,-99,easy,,0.6492212000011932,['c'],1,left,['1'],6,0.1073737999995501,65,,32,18,Man,Rechts,1,
,dotcolour,xotask,xotask,4,2,124,424,main,positivefb,-99,average,,0.6833160999995016,['n'],1,right,['1'],6,0.20427960000051826,26,,32,18,Man,Rechts,1,
,dotcolour,xotask,xotask,5,2,125,425,main,positivefb,-99,easy,,0.6014971999993577,['n'],1,right,['1'],6,0.14138770000135992,15,,32,18,Man,Rechts,1,
,dotcolour,xotask,xotask,6,2,126,426,main,positivefb,-99,hard,,2.4829083000004175,['n'],0,left,['3'],4,0.13309579999986454,41,,32,18,Man,Rechts,1,
,dotcolour,xotask,xotask,7,2,127,427,main,positivefb,-99,easy,,0.6003345000008267,['n'],1,right,['1'],6,0.09697530000084953,17,,32,18,Man,Rechts,1,
,dotcolour,xotask,xotask,8,2,128,428,main,positivefb,-99,easy,,0.5340680999997858,['n'],1,right,['1'],6,0.10424450000027718,15,,32,18,Man,Rechts,1,
,dotcolour,xotask,xotask,9,2,129,429,main,positivefb,-99,easy,,0.7673653999991075,['c'],1,left,['1'],6,0.13441860000057204,63,,32,18,Man,Rechts,1,
,dotcolour,xotask,xotask,10,2,130,430,main,positivefb,-99,average,,0.8007717000000412,['c'],1,left,['1'],6,0.12128080000002228,54,,32,18,Man,Rechts,1,
,dotcolour,xotask,xotask,11,2,131,431,main,positivefb,-99,hard,,0.9994232999997621,['n'],1,right,['1'],6,0.12566350000088278,36,,32,18,Man,Rechts,1,
,dotcolour,xotask,xotask,12,2,132,432,main,positivefb,-99,hard,,2.2677718000013556,['c'],1,left,['3'],4,0.039460300000428106,44,,32,18,Man,Rechts,1,
,dotcolour,xotask,xotask,13,2,133,433,main,positivefb,-99,average,,1.1842990000004647,['c'],1,left,['3'],4,0.007267200000569574,54,,32,18,Man,Rechts,1,
,dotcolour,xotask,xotask,14,2,134,434,main,positivefb,-99,easy,,0.6490341000007902,['c'],1,left,['2'],5,0.8374760000006063,65,,32,18,Man,Rechts,1,
,dotcolour,xotask,xotask,15,2,135,435,main,positivefb,-99,hard,,1.017423899998903,['n'],1,right,['2'],5,0.13308479999977862,38,,32,18,Man,Rechts,1,
,dotcolour,xotask,xotask,16,2,136,436,main,positivefb,-99,average,,1.4673956000006,['c'],1,left,['2'],5,0.0854116000009526,52,,32,18,Man,Rechts,1,
,dotcolour,xotask,xotask,17,2,137,437,main,positivefb,-99,hard,,1.1664337999991403,['n'],1,right,['2'],5,0.13158389999989595,35,,32,18,Man,Rechts,1,
,dotcolour,xotask,xotask,18,2,138,438,main,positivefb,-99,average,,1.0171307000000525,['c'],1,left,['2'],5,0.04724010000063572,53,,32,18,Man,Rechts,1,
,dotcolour,xotask,xotask,19,2,139,439,main,positivefb,-99,average,,0.6332034999995813,['c'],1,left,['1'],6,0.4212924999992538,54,,32,18,Man,Rechts,1,
,dotcolour,xotask,xotask,20,2,140,440,main,positivefb,-99,average,,0.9506306000002951,['n'],1,right,['1'],6,0.11870879999878525,26,,32,18,Man,Rechts,1,
,dotcolour,xotask,xotask,21,2,141,441,main,positivefb,-99,easy,,0.8519893000011507,['c'],1,left,['1'],6,0.11213669999960985,63,,32,18,Man,Rechts,1,
,dotcolour,xotask,xotask,22,2,142,442,main,positivefb,-99,hard,,1.2672959999999875,['n'],1,right,['2'],5,0.09043060000112746,35,,32,18,Man,Rechts,1,
,dotcolour,xotask,xotask,23,2,143,443,main,positivefb,-99,average,,0.8840647999986686,['n'],1,right,['1'],6,0.10835509999924398,27,,32,18,Man,Rechts,1,
,dotcolour,xotask,xotask,24,2,144,444,main,positivefb,-99,easy,,0.8509811999992962,['n'],0,left,['0'],1,2.0707057999989047,63,,32,18,Man,Rechts,1,
,dotcolour,xotask,xotask,25,2,145,445,main,positivefb,-99,average,,2.184359200000472,['n'],1,right,['2'],5,1.5898747999999614,29,,32,18,Man,Rechts,1,
,dotcolour,xotask,xotask,26,2,146,446,main,positivefb,-99,hard,,3.2843239000012545,['n'],0,left,['3'],4,0.18013120000068739,43,,32,18,Man,Rechts,1,
,dotcolour,xotask,xotask,27,2,147,447,main,positivefb,-99,hard,,0.6847895000009885,['n'],1,right,['2'],5,0.2665703000002395,37,,32,18,Man,Rechts,1,
,dotcolour,xotask,xotask,28,2,148,448,main,positivefb,-99,easy,,0.8675683999990724,['n'],1,right,['1'],6,0.18203059999905236,17,,32,18,Man,Rechts,1,
,dotcolour,xotask,xotask,29,2,149,449,main,positivefb,-99,hard,,1.2833983000000444,['n'],1,right,['2'],5,0.10743449999972654,35,,32,18,Man,Rechts,1,
,dotcolour,xotask,xotask,30,2,150,450,main,positivefb,-99,average,,1.0176145999994333,['c'],1,left,['2'],5,0.007623299999977462,51,,32,18,Man,Rechts,1,
,dotcolour,xotask,xotask,31,2,151,451,main,positivefb,-99,easy,,0.9339722000004258,['n'],1,right,['1'],6,0.43542040000102133,17,,32,18,Man,Rechts,1,
,dotcolour,xotask,xotask,32,2,152,452,main,positivefb,-99,hard,,1.7178774000003614,['c'],1,left,['3'],4,0.3576815999986138,44,,32,18,Man,Rechts,1,
,dotcolour,xotask,xotask,33,2,153,453,main,positivefb,-99,hard,,1.7007934000012028,['n'],0,left,['3'],4,0.1805287999995926,44,,32,18,Man,Rechts,1,
,dotcolour,xotask,xotask,34,2,154,454,main,positivefb,-99,average,,1.2012510999993538,['n'],1,right,['3'],4,0.13479670000015176,26,,32,18,Man,Rechts,1,
,dotcolour,xotask,xotask,35,2,155,455,main,positivefb,-99,average,,1.283648100001301,['n'],1,right,['2'],5,0.15114119999998366,28,,32,18,Man,Rechts,1,
,dotcolour,xotask,xotask,36,2,156,456,main,positivefb,-99,easy,,1.1848477000003186,['c'],1,left,['1'],6,0.09762550000050396,65,,32,18,Man,Rechts,1,
,dotcolour,xotask,xotask,37,2,157,457,main,positivefb,-99,hard,,1.3511864000010974,['n'],0,left,['2'],5,0.07295970000086527,41,,32,18,Man,Rechts,1,
,dotcolour,xotask,xotask,38,2,158,458,main,positivefb,-99,easy,,0.9677692000004754,['n'],1,right,['1'],6,0.10362829999940004,17,,32,18,Man,Rechts,1,
,dotcolour,xotask,xotask,39,2,159,459,main,positivefb,-99,hard,,1.9178185000000667,['c'],1,left,['2'],5,0.09550520000084362,45,,32,18,Man,Rechts,1,
,dotcolour,xotask,xotask,40,2,160,460,main,positivefb,-99,easy,,1.317260099998748,['n'],1,right,['1'],6,0.14495960000022023,18,,32,18,Man,Rechts,1,
,dotcolour,xotask,xotask,41,2,161,461,main,positivefb,-99,average,,0.8009148000001005,['n'],1,right,['1'],6,0.10825999999906344,25,,32,18,Man,Rechts,1,
,dotcolour,xotask,xotask,42,2,162,462,main,positivefb,-99,hard,,1.8837131000000227,['c'],1,left,['3'],4,0.4614989000001515,42,,32,18,Man,Rechts,1,
,dotcolour,xotask,xotask,43,2,163,463,main,positivefb,-99,average,,0.5849739000004774,['n'],1,right,['2'],5,1.3005369000002247,26,,32,18,Man,Rechts,1,
,dotcolour,xotask,xotask,44,2,164,464,main,positivefb,-99,easy,,0.901509299999816,['c'],1,left,['2'],5,0.08554119999826071,63,,32,18,Man,Rechts,1,
,dotcolour,xotask,xotask,45,2,165,465,main,positivefb,-99,average,,0.8013178000001062,['n'],1,right,['1'],6,0.08294690000002447,25,,32,18,Man,Rechts,1,
,dotcolour,xotask,xotask,46,2,166,466,main,positivefb,-99,hard,,1.8663837000003696,['c'],1,left,['2'],5,0.8138363999987632,44,,32,18,Man,Rechts,1,
,dotcolour,xotask,xotask,47,2,167,467,main,positivefb,-99,hard,,2.4172550000002957,['c'],1,left,['3'],4,0.9973888999993505,43,,32,18,Man,Rechts,1,
,dotcolour,xotask,xotask,48,2,168,468,main,positivefb,-99,easy,,1.0513814000005368,['n'],1,right,['1'],6,0.15691530000003695,17,,32,18,Man,Rechts,1,
,dotcolour,xotask,xotask,49,2,169,469,main,positivefb,-99,average,,0.9022174000001542,['c'],1,left,['1'],6,0.3958830999999918,53,,32,18,Man,Rechts,1,
,dotcolour,xotask,xotask,50,2,170,470,main,positivefb,-99,hard,,1.3683837999997195,['n'],1,right,['2'],5,0.24571089999881224,35,,32,18,Man,Rechts,1,
,dotcolour,xotask,xotask,51,2,171,471,main,positivefb,-99,hard,,1.3836136999998416,['c'],0,right,['2'],5,0.16555979999975534,37,,32,18,Man,Rechts,1,
,dotcolour,xotask,xotask,52,2,172,472,main,positivefb,-99,easy,,1.0667069000010088,['c'],1,left,['1'],6,0.141882899999473,61,,32,18,Man,Rechts,1,
,dotcolour,xotask,xotask,53,2,173,473,main,positivefb,-99,hard,,1.767426099999284,['n'],1,right,['2'],5,0.08186770000065735,35,,32,18,Man,Rechts,1,
,dotcolour,xotask,xotask,54,2,174,474,main,positivefb,-99,average,,1.251455999999962,['c'],1,left,['1'],6,0.1489572999998927,53,,32,18,Man,Rechts,1,
,dotcolour,xotask,xotask,55,2,175,475,main,positivefb,-99,easy,,0.8018992999986949,['n'],1,right,['1'],6,0.15172699999857286,19,,32,18,Man,Rechts,1,
,dotcolour,xotask,xotask,56,2,176,476,main,positivefb,-99,easy,,0.8503888999985065,['c'],1,left,['1'],6,0.11239000000023225,65,,32,18,Man,Rechts,1,
,dotcolour,xotask,xotask,57,2,177,477,main,positivefb,-99,hard,,3.2844316999999137,['n'],1,right,['3'],4,0.6582221000007848,38,,32,18,Man,Rechts,1,
,dotcolour,xotask,xotask,58,2,178,478,main,positivefb,-99,average,,0.7998666999992565,['c'],1,left,['2'],5,0.15317140000115614,52,,32,18,Man,Rechts,1,
,dotcolour,xotask,xotask,59,2,179,479,main,positivefb,-99,average,,0.8342116999992868,['n'],1,right,['1'],6,0.4342564999988099,27,,32,18,Man,Rechts,1,
,dotcolour,xotask,xotask,0,3,180,480,main,positivefb,-99,average,,1.6167791999996552,['n'],1,right,['2'],5,1.062065000000075,29,,32,18,Man,Rechts,1,
,dotcolour,xotask,xotask,1,3,181,481,main,positivefb,-99,hard,,1.9511119999988296,['n'],1,right,['3'],4,0.7996173000010458,37,,32,18,Man,Rechts,1,
,dotcolour,xotask,xotask,2,3,182,482,main,positivefb,-99,hard,,1.035372099999222,['n'],0,left,['2'],5,0.24704079999901296,43,,32,18,Man,Rechts,1,
,dotcolour,xotask,xotask,3,3,183,483,main,positivefb,-99,hard,,1.0678250000000844,['n'],0,left,['3'],4,0.18722629999865603,41,,32,18,Man,Rechts,1,
,dotcolour,xotask,xotask,4,3,184,484,main,positivefb,-99,average,,0.7514388999989023,['n'],1,right,['3'],4,0.2063455999996222,27,,32,18,Man,Rechts,1,
,dotcolour,xotask,xotask,5,3,185,485,main,positivefb,-99,hard,,0.9011367999992217,['n'],1,right,['2'],5,0.09106339999925694,35,,32,18,Man,Rechts,1,
,dotcolour,xotask,xotask,6,3,186,486,main,positivefb,-99,easy,,0.5507161999994423,['n'],1,right,['2'],5,0.5942445999990014,17,,32,18,Man,Rechts,1,
,dotcolour,xotask,xotask,7,3,187,487,main,positivefb,-99,easy,,0.7519221999991714,['n'],1,right,['1'],6,0.18991989999994985,18,,32,18,Man,Rechts,1,
,dotcolour,xotask,xotask,8,3,188,488,main,positivefb,-99,average,,1.0842472000003909,['c'],1,left,['2'],5,0.19521379999969213,52,,32,18,Man,Rechts,1,
,dotcolour,xotask,xotask,9,3,189,489,main,positivefb,-99,easy,,0.900291500000094,['c'],1,left,['1'],6,0.12110230000143929,65,,32,18,Man,Rechts,1,
,dotcolour,xotask,xotask,10,3,190,490,main,positivefb,-99,hard,,1.0503057000005356,['n'],1,right,['2'],5,0.1395356000011816,39,,32,18,Man,Rechts,1,
,dotcolour,xotask,xotask,11,3,191,491,main,positivefb,-99,hard,,3.0512906999992992,['n'],1,right,['3'],4,0.11612330000025395,37,,32,18,Man,Rechts,1,
,dotcolour,xotask,xotask,12,3,192,492,main,positivefb,-99,average,,0.9174886000000697,['c'],1,left,['2'],5,0.09159360000012384,53,,32,18,Man,Rechts,1,
,dotcolour,xotask,xotask,13,3,193,493,main,positivefb,-99,hard,,1.050693199998932,['c'],1,left,['2'],5,0.0866822999996657,43,,32,18,Man,Rechts,1,
,dotcolour,xotask,xotask,14,3,194,494,main,positivefb,-99,easy,,0.9178203999999823,['n'],1,right,['1'],6,0.14309839999987162,18,,32,18,Man,Rechts,1,
,dotcolour,xotask,xotask,15,3,195,495,main,positivefb,-99,easy,,0.700448099998539,['n'],1,right,['1'],6,0.1431970999983605,16,,32,18,Man,Rechts,1,
,dotcolour,xotask,xotask,16,3,196,496,main,positivefb,-99,average,,1.1674896000004082,['n'],1,right,['2'],5,0.12351260000104958,29,,32,18,Man,Rechts,1,
,dotcolour,xotask,xotask,17,3,197,497,main,positivefb,-99,hard,,1.3512820999985706,['c'],1,left,['2'],5,0.06561490000058257,44,,32,18,Man,Rechts,1,
,dotcolour,xotask,xotask,18,3,198,498,main,positivefb,-99,easy,,0.802291799998784,['c'],1,left,['1'],6,0.13599450000037905,65,,32,18,Man,Rechts,1,
,dotcolour,xotask,xotask,19,3,199,499,main,positivefb,-99,hard,,1.751091500000257,['n'],1,right,['1'],6,0.14885639999920386,38,,32,18,Man,Rechts,1,
,dotcolour,xotask,xotask,20,3,200,500,main,positivefb,-99,hard,,3.9009107000001677,['c'],0,right,['3'],4,0.08404549999977462,35,,32,18,Man,Rechts,1,
,dotcolour,xotask,xotask,21,3,201,501,main,positivefb,-99,easy,,1.2176529999997001,['n'],1,right,['1'],6,0.16058730000077048,18,,32,18,Man,Rechts,1,
,dotcolour,xotask,xotask,22,3,202,502,main,positivefb,-99,average,,1.117563699999664,['c'],1,left,['1'],6,0.1099131999999372,55,,32,18,Man,Rechts,1,
,dotcolour,xotask,xotask,23,3,203,503,main,positivefb,-99,easy,,0.6678245000002789,['c'],1,left,['1'],6,0.08800820000033127,61,,32,18,Man,Rechts,1,
,dotcolour,xotask,xotask,24,3,204,504,main,positivefb,-99,easy,,0.6167429000015545,['c'],1,left,['1'],6,0.10072419999960402,64,,32,18,Man,Rechts,1,
,dotcolour,xotask,xotask,25,3,205,505,main,positivefb,-99,easy,,0.8845883999983926,['c'],1,left,['1'],6,0.09462520000124641,61,,32,18,Man,Rechts,1,
,dotcolour,xotask,xotask,26,3,206,506,main,positivefb,-99,easy,,0.6009240999992471,['c'],1,left,['1'],6,0.13973880000048666,64,,32,18,Man,Rechts,1,
,dotcolour,xotask,xotask,27,3,207,507,main,positivefb,-99,average,,0.8011933999987377,['n'],1,right,['1'],6,0.1270782000010513,29,,32,18,Man,Rechts,1,
,dotcolour,xotask,xotask,28,3,208,508,main,positivefb,-99,average,,0.6840987999985373,['n'],1,right,['1'],6,0.13535449999835691,29,,32,18,Man,Rechts,1,
,dotcolour,xotask,xotask,29,3,209,509,main,positivefb,-99,hard,,2.0019453999993857,['c'],0,right,['3'],4,0.8031621999998606,36,,32,18,Man,Rechts,1,
,dotcolour,xotask,xotask,30,3,210,510,main,positivefb,-99,easy,,0.8012140999999247,['n'],1,right,['2'],5,0.8436768999999913,18,,32,18,Man,Rechts,1,
,dotcolour,xotask,xotask,31,3,211,511,main,positivefb,-99,easy,,0.8511966999994911,['n'],1,right,['1'],6,0.3372028000012506,17,,32,18,Man,Rechts,1,
,dotcolour,xotask,xotask,32,3,212,512,main,positivefb,-99,hard,,1.7675423000000592,['c'],1,left,['3'],4,0.16545489999953134,42,,32,18,Man,Rechts,1,
,dotcolour,xotask,xotask,33,3,213,513,main,positivefb,-99,hard,,1.1846932000007655,['c'],1,left,['3'],4,0.12839580000036221,41,,32,18,Man,Rechts,1,
,dotcolour,xotask,xotask,34,3,214,514,main,positivefb,-99,hard,,1.0504150000015215,['n'],1,right,['3'],4,0.1304139000003488,39,,32,18,Man,Rechts,1,
,dotcolour,xotask,xotask,35,3,215,515,main,positivefb,-99,average,,0.7326976000003924,['n'],1,right,['3'],4,0.1293600000008155,28,,32,18,Man,Rechts,1,
,dotcolour,xotask,xotask,36,3,216,516,main,positivefb,-99,average,,0.6011120000002848,['n'],1,right,['2'],5,0.4055274999991525,25,,32,18,Man,Rechts,1,
,dotcolour,xotask,xotask,37,3,217,517,main,positivefb,-99,average,,1.2338727000005747,['c'],1,left,['2'],5,0.47653450000143494,51,,32,18,Man,Rechts,1,
,dotcolour,xotask,xotask,38,3,218,518,main,positivefb,-99,easy,,0.7850001000006159,['n'],1,right,['1'],6,0.11475109999992128,19,,32,18,Man,Rechts,1,
,dotcolour,xotask,xotask,39,3,219,519,main,positivefb,-99,hard,,1.6503812999999354,['n'],1,right,['2'],5,0.0930326999987301,35,,32,18,Man,Rechts,1,
,dotcolour,xotask,xotask,40,3,220,520,main,positivefb,-99,average,,1.0175257999999303,['c'],1,left,['2'],5,0.11305979999997362,54,,32,18,Man,Rechts,1,
,dotcolour,xotask,xotask,41,3,221,521,main,positivefb,-99,average,,0.901343800000177,['c'],1,left,['1'],6,0.06696310000006633,55,,32,18,Man,Rechts,1,
,dotcolour,xotask,xotask,42,3,222,522,main,positivefb,-99,average,,1.4507962000006955,['c'],1,left,['2'],5,0.2304352999999537,52,,32,18,Man,Rechts,1,
,dotcolour,xotask,xotask,43,3,223,523,main,positivefb,-99,average,,0.8017603999996936,['n'],1,right,['1'],6,0.1821224000013899,27,,32,18,Man,Rechts,1,
,dotcolour,xotask,xotask,44,3,224,524,main,positivefb,-99,easy,,0.7681352000017796,['c'],1,left,['1'],6,0.0970073999997112,63,,32,18,Man,Rechts,1,
,dotcolour,xotask,xotask,45,3,225,525,main,positivefb,-99,average,,1.267916000000696,['c'],1,left,['2'],5,0.07546879999972589,55,,32,18,Man,Rechts,1,
,dotcolour,xotask,xotask,46,3,226,526,main,positivefb,-99,easy,,0.7004239999987476,['c'],1,left,['1'],6,0.11781449999944016,61,,32,18,Man,Rechts,1,
,dotcolour,xotask,xotask,47,3,227,527,main,positivefb,-99,easy,,0.8662275999995472,['n'],1,right,['1'],6,0.1030016999993677,16,,32,18,Man,Rechts,1,
,dotcolour,xotask,xotask,48,3,228,528,main,positivefb,-99,average,,1.3325705000006565,['n'],1,right,['2'],5,0.29495610000049055,27,,32,18,Man,Rechts,1,
,dotcolour,xotask,xotask,49,3,229,529,main,positivefb,-99,hard,,0.8851733999999851,['c'],1,left,['2'],5,0.22478549999868846,42,,32,18,Man,Rechts,1,
,dotcolour,xotask,xotask,50,3,230,530,main,positivefb,-99,average,,0.8012180999994598,['c'],1,left,['2'],5,0.13649179999993066,51,,32,18,Man,Rechts,1,
,dotcolour,xotask,xotask,51,3,231,531,main,positivefb,-99,hard,,3.1507677999998123,['c'],1,left,['3'],4,0.14967609999985143,43,,32,18,Man,Rechts,1,
,dotcolour,xotask,xotask,52,3,232,532,main,positivefb,-99,average,,1.100162900000214,['c'],1,left,['2'],5,0.10044980000020587,54,,32,18,Man,Rechts,1,
,dotcolour,xotask,xotask,53,3,233,533,main,positivefb,-99,hard,,0.933089199999813,['n'],1,right,['2'],5,0.1478328999983205,35,,32,18,Man,Rechts,1,
,dotcolour,xotask,xotask,54,3,234,534,main,positivefb,-99,average,,0.7499845999991521,['n'],1,right,['1'],6,0.20015389999934996,27,,32,18,Man,Rechts,1,
,dotcolour,xotask,xotask,55,3,235,535,main,positivefb,-99,easy,,0.584860299999491,['n'],1,right,['1'],6,0.12952709999990475,16,,32,18,Man,Rechts,1,
,dotcolour,xotask,xotask,56,3,236,536,main,positivefb,-99,easy,,1.0182908999995561,['c'],1,left,['1'],6,0.09350359999916691,61,,32,18,Man,Rechts,1,
,dotcolour,xotask,xotask,57,3,237,537,main,positivefb,-99,hard,,1.3840922999988834,['c'],1,left,['2'],5,0.05161300000145275,44,,32,18,Man,Rechts,1,
,dotcolour,xotask,xotask,58,3,238,538,main,positivefb,-99,easy,,0.8338917000000947,['c'],1,left,['1'],6,0.07290389999980107,64,,32,18,Man,Rechts,1,
,dotcolour,xotask,xotask,59,3,239,539,main,positivefb,-99,hard,,4.084567799998695,['c'],1,left,['3'],4,1.5233571000007942,45,,32,18,Man,Rechts,1,
,dotcolour,xotask,xotask,0,4,240,540,main,positivefb,-99,average,,3.751263600001039,['c'],1,left,['3'],4,0.29446610000013607,55,,32,18,Man,Rechts,1,
,dotcolour,xotask,xotask,1,4,241,541,main,positivefb,-99,easy,,1.5842880999989575,['n'],1,right,['1'],6,1.0837659000007989,19,,32,18,Man,Rechts,1,
,dotcolour,xotask,xotask,2,4,242,542,main,positivefb,-99,average,,0.7836640000004991,['n'],1,right,['1'],6,0.16148409999914293,25,,32,18,Man,Rechts,1,
,dotcolour,xotask,xotask,3,4,243,543,main,positivefb,-99,easy,,0.5175776999985828,['n'],1,right,['1'],6,0.1675716999998258,16,,32,18,Man,Rechts,1,
,dotcolour,xotask,xotask,4,4,244,544,main,positivefb,-99,hard,,2.218377099999998,['c'],0,right,['3'],4,0.15386229999967327,35,,32,18,Man,Rechts,1,
,dotcolour,xotask,xotask,5,4,245,545,main,positivefb,-99,hard,,1.5511633999994956,['n'],1,right,['3'],4,0.16619919999902777,38,,32,18,Man,Rechts,1,
,dotcolour,xotask,xotask,6,4,246,546,main,positivefb,-99,hard,,1.5001315000008617,['c'],1,left,['3'],4,0.08395119999840972,43,,32,18,Man,Rechts,1,
,dotcolour,xotask,xotask,7,4,247,547,main,positivefb,-99,average,,0.6179221000002144,['n'],1,right,['2'],5,0.3207617999996728,25,,32,18,Man,Rechts,1,
,dotcolour,xotask,xotask,8,4,248,548,main,positivefb,-99,hard,,0.9501592999986315,['c'],1,left,['2'],5,0.09497670000018843,45,,32,18,Man,Rechts,1,
,dotcolour,xotask,xotask,9,4,249,549,main,positivefb,-99,easy,,0.7343686999993224,['c'],1,left,['1'],6,0.07873830000062298,63,,32,18,Man,Rechts,1,
,dotcolour,xotask,xotask,10,4,250,550,main,positivefb,-99,hard,,1.0007232999996631,['n'],1,right,['2'],5,0.10095929999988584,39,,32,18,Man,Rechts,1,
,dotcolour,xotask,xotask,11,4,251,551,main,positivefb,-99,average,,0.8180976999992708,['n'],1,right,['1'],6,0.12061379999977362,28,,32,18,Man,Rechts,1,
,dotcolour,xotask,xotask,12,4,252,552,main,positivefb,-99,easy,,0.9836575999997876,['c'],1,left,['1'],6,0.12519330000031914,64,,32,18,Man,Rechts,1,
,dotcolour,xotask,xotask,13,4,253,553,main,positivefb,-99,hard,,3.116358199999013,['n'],1,right,['9'],2,3.164980999999898,36,,32,18,Man,Rechts,1,
,dotcolour,xotask,xotask,14,4,254,554,main,positivefb,-99,hard,,1.1848884000010003,['n'],1,right,['2'],5,0.16714049999973213,37,,32,18,Man,Rechts,1,
,dotcolour,xotask,xotask,15,4,255,555,main,positivefb,-99,hard,,0.9511979000017163,['n'],1,right,['3'],4,0.18731120000120427,38,,32,18,Man,Rechts,1,
,dotcolour,xotask,xotask,16,4,256,556,main,positivefb,-99,hard,,1.1180891999993037,['n'],0,left,['2'],5,0.09657420000075945,41,,32,18,Man,Rechts,1,
,dotcolour,xotask,xotask,17,4,257,557,main,positivefb,-99,average,,0.6846807000001718,['n'],1,right,['1'],6,0.35381170000073325,28,,32,18,Man,Rechts,1,
,dotcolour,xotask,xotask,18,4,258,558,main,positivefb,-99,easy,,0.5018340000005992,['n'],1,right,['1'],6,0.13674429999991844,17,,32,18,Man,Rechts,1,
,dotcolour,xotask,xotask,19,4,259,559,main,positivefb,-99,easy,,1.3831507000013517,['c'],1,left,['1'],6,0.23693989999992482,61,,32,18,Man,Rechts,1,
,dotcolour,xotask,xotask,20,4,260,560,main,positivefb,-99,average,,2.4330895000002783,['c'],1,left,['2'],5,0.6029049999997369,54,,32,18,Man,Rechts,1,
,dotcolour,xotask,xotask,21,4,261,561,main,positivefb,-99,easy,,1.0514807999988989,['c'],1,left,['1'],6,0.9775590999997803,61,,32,18,Man,Rechts,1,
,dotcolour,xotask,xotask,22,4,262,562,main,positivefb,-99,average,,0.6337079000004451,['n'],1,right,['1'],6,0.16292640000028769,26,,32,18,Man,Rechts,1,
,dotcolour,xotask,xotask,23,4,263,563,main,positivefb,-99,average,,0.8340895000001183,['n'],1,right,['1'],6,0.2034984000001714,27,,32,18,Man,Rechts,1,
,dotcolour,xotask,xotask,24,4,264,564,main,positivefb,-99,average,,0.5678019000006316,['n'],1,right,['1'],6,0.12513330000001588,25,,32,18,Man,Rechts,1,
,dotcolour,xotask,xotask,25,4,265,565,main,positivefb,-99,hard,,0.584720599999855,['n'],0,left,['8'],3,4.210691199999928,42,,32,18,Man,Rechts,1,
,dotcolour,xotask,xotask,26,4,266,566,main,positivefb,-99,easy,,1.9004884999994829,['c'],1,left,['1'],6,1.863212599999315,61,,32,18,Man,Rechts,1,
,dotcolour,xotask,xotask,27,4,267,567,main,positivefb,-99,average,,0.6675341999998636,['n'],1,right,['1'],6,0.13891609999882348,26,,32,18,Man,Rechts,1,
,dotcolour,xotask,xotask,28,4,268,568,main,positivefb,-99,average,,1.2826687999986461,['c'],1,left,['2'],5,0.29044710000016494,52,,32,18,Man,Rechts,1,
,dotcolour,xotask,xotask,29,4,269,569,main,positivefb,-99,average,,0.8013680999993085,['c'],1,left,['2'],5,0.4721448000000237,54,,32,18,Man,Rechts,1,
,dotcolour,xotask,xotask,30,4,270,570,main,positivefb,-99,hard,,0.8845968000005087,['c'],1,left,['2'],5,0.09129080000093381,44,,32,18,Man,Rechts,1,
,dotcolour,xotask,xotask,31,4,271,571,main,positivefb,-99,hard,,0.7005532999992283,['c'],1,left,['2'],5,0.09242960000119638,41,,32,18,Man,Rechts,1,
,dotcolour,xotask,xotask,32,4,272,572,main,positivefb,-99,easy,,0.5845024000009289,['c'],1,left,['2'],5,0.05830539999988105,62,,32,18,Man,Rechts,1,
,dotcolour,xotask,xotask,33,4,273,573,main,positivefb,-99,hard,,1.2511721999999281,['c'],0,right,['2'],5,0.015372500000012224,39,,32,18,Man,Rechts,1,
,dotcolour,xotask,xotask,34,4,274,574,main,positivefb,-99,easy,,0.6834548999995604,['c'],1,left,['1'],6,0.13153969999984838,62,,32,18,Man,Rechts,1,
,dotcolour,xotask,xotask,35,4,275,575,main,positivefb,-99,average,,0.7506778999995731,['n'],1,right,['1'],6,0.25653029999921273,29,,32,18,Man,Rechts,1,
,dotcolour,xotask,xotask,36,4,276,576,main,positivefb,-99,average,,1.1683431000001292,['c'],1,left,['2'],5,0.13686620000044059,54,,32,18,Man,Rechts,1,
,dotcolour,xotask,xotask,37,4,277,577,main,positivefb,-99,average,,0.7670837999994546,['c'],1,left,['2'],5,0.11753370000042196,52,,32,18,Man,Rechts,1,
,dotcolour,xotask,xotask,38,4,278,578,main,positivefb,-99,hard,,1.0514480999991065,['n'],1,right,['2'],5,0.12773290000041015,36,,32,18,Man,Rechts,1,
,dotcolour,xotask,xotask,39,4,279,579,main,positivefb,-99,average,,0.7667978000008588,['c'],1,left,['2'],5,0.10890079999990121,53,,32,18,Man,Rechts,1,
,dotcolour,xotask,xotask,40,4,280,580,main,positivefb,-99,hard,,0.9508944999997766,['n'],1,right,['2'],5,0.1872776000000158,38,,32,18,Man,Rechts,1,
,dotcolour,xotask,xotask,41,4,281,581,main,positivefb,-99,hard,,2.7836671999993996,['n'],0,left,['3'],4,0.15774310000051628,45,,32,18,Man,Rechts,1,
,dotcolour,xotask,xotask,42,4,282,582,main,positivefb,-99,hard,,0.9173891000009462,['n'],0,left,['2'],5,0.16374199999881967,45,,32,18,Man,Rechts,1,
,dotcolour,xotask,xotask,43,4,283,583,main,positivefb,-99,easy,,0.8675954999998794,['n'],1,right,['2'],5,0.09198490000017046,19,,32,18,Man,Rechts,1,
,dotcolour,xotask,xotask,44,4,284,584,main,positivefb,-99,hard,,1.8514254000001529,['c'],1,left,['3'],4,0.14298979999875883,44,,32,18,Man,Rechts,1,
,dotcolour,xotask,xotask,45,4,285,585,main,positivefb,-99,easy,,0.9673259999999573,['n'],1,right,['1'],6,0.15521910000097705,15,,32,18,Man,Rechts,1,
,dotcolour,xotask,xotask,46,4,286,586,main,positivefb,-99,average,,0.8512598999986949,['c'],1,left,['1'],6,0.2923542999997153,54,,32,18,Man,Rechts,1,
,dotcolour,xotask,xotask,47,4,287,587,main,positivefb,-99,easy,,0.785103700000036,['n'],1,right,['1'],6,0.13850380000076257,18,,32,18,Man,Rechts,1,
,dotcolour,xotask,xotask,48,4,288,588,main,positivefb,-99,easy,,0.5008522999996785,['n'],1,right,['1'],6,0.17005989999961457,15,,32,18,Man,Rechts,1,
,dotcolour,xotask,xotask,49,4,289,589,main,positivefb,-99,hard,,1.4845867000003636,['n'],0,left,['2'],5,0.1447571999997308,42,,32,18,Man,Rechts,1,
,dotcolour,xotask,xotask,50,4,290,590,main,positivefb,-99,average,,1.1841477999987546,['c'],1,left,['1'],6,0.17288770000050135,53,,32,18,Man,Rechts,1,
,dotcolour,xotask,xotask,51,4,291,591,main,positivefb,-99,easy,,0.9343050999996194,['c'],1,left,['1'],6,0.1764114999987214,62,,32,18,Man,Rechts,1,
,dotcolour,xotask,xotask,52,4,292,592,main,positivefb,-99,easy,,1.0345563999999285,['c'],1,left,['1'],6,0.1377966000000015,65,,32,18,Man,Rechts,1,
,dotcolour,xotask,xotask,53,4,293,593,main,positivefb,-99,easy,,0.7670723000010184,['n'],1,right,['1'],6,0.1582739000004949,15,,32,18,Man,Rechts,1,
,dotcolour,xotask,xotask,54,4,294,594,main,positivefb,-99,easy,,0.8684877999985474,['c'],1,left,['1'],6,0.19802769999841985,62,,32,18,Man,Rechts,1,
,dotcolour,xotask,xotask,55,4,295,595,main,positivefb,-99,hard,,1.5175559999988764,['n'],1,right,['2'],5,0.14673930000026303,38,,32,18,Man,Rechts,1,
,dotcolour,xotask,xotask,56,4,296,596,main,positivefb,-99,easy,,0.8842256999996607,['n'],1,right,['1'],6,0.1305198999998538,17,,32,18,Man,Rechts,1,
,dotcolour,xotask,xotask,57,4,297,597,main,positivefb,-99,average,,0.6509946999995009,['n'],1,right,['1'],6,0.14822669999921345,28,,32,18,Man,Rechts,1,
,dotcolour,xotask,xotask,58,4,298,598,main,positivefb,-99,easy,,0.6019451000011031,['n'],1,right,['1'],6,0.1193833999986964,18,,32,18,Man,Rechts,1,
,dotcolour,xotask,xotask,59,4,299,599,main,positivefb,-99,average,,0.9512826000009227,['c'],1,left,['1'],6,0.08523240000067744,51,,32,18,Man,Rechts,1,
,xotask,xotask,xotask,0,0,0,600,training,positivefb,91,hard,52,1.8340488000012556,['c'],1,left,['3'],4,0.11033270000007178,,,32,18,Man,Rechts,1,
,xotask,xotask,xotask,1,0,1,601,training,positivefb,88,easy,6,1.899897900000724,['n'],1,right,['3'],4,0.09388699999908567,,,32,18,Man,Rechts,1,
,xotask,xotask,xotask,2,0,2,602,training,positivefb,86,average,61,0.833448800000042,['c'],1,left,['2'],5,0.057899600000382634,,,32,18,Man,Rechts,1,
,xotask,xotask,xotask,3,0,3,603,training,positivefb,96,easy,5,0.8668779999989056,['n'],1,right,['1'],6,0.15663499999936903,,,32,18,Man,Rechts,1,
,xotask,xotask,xotask,4,0,4,604,training,positivefb,96,easy,7,0.8672662999997556,['n'],1,right,['1'],6,0.11653040000055626,,,32,18,Man,Rechts,1,
,xotask,xotask,xotask,5,0,5,605,training,positivefb,98,hard,28,0.6503406000010727,['n'],1,right,['1'],6,0.14088839999931224,,,32,18,Man,Rechts,1,
,xotask,xotask,xotask,6,0,6,606,training,positivefb,89,hard,53,1.8338837000010244,['n'],0,left,['3'],4,0.10244959999909042,,,32,18,Man,Rechts,1,
,xotask,xotask,xotask,7,0,7,607,training,positivefb,94,hard,27,0.7673927000014373,['n'],1,right,['2'],5,0.21981640000012703,,,32,18,Man,Rechts,1,
,xotask,xotask,xotask,8,0,8,608,training,positivefb,75,hard,50,0.8173258000006172,['n'],0,left,['2'],5,0.32284679999975197,,,32,18,Man,Rechts,1,
,xotask,xotask,xotask,9,0,9,609,training,positivefb,95,easy,6,0.6507449000000634,['n'],1,right,['1'],6,0.08447270000033313,,,32,18,Man,Rechts,1,
,xotask,xotask,xotask,10,0,10,610,training,positivefb,96,easy,73,0.6817965999998705,['n'],0,left,['1'],6,0.15700619999915943,,,32,18,Man,Rechts,1,
,xotask,xotask,xotask,11,0,11,611,training,positivefb,85,hard,27,1.5666745999988052,['n'],1,right,['2'],5,0.09670550000009825,,,32,18,Man,Rechts,1,
,xotask,xotask,xotask,12,0,12,612,training,positivefb,87,hard,29,1.2507275999996637,['n'],1,right,['3'],4,0.12326200000097742,,,32,18,Man,Rechts,1,
,xotask,xotask,xotask,13,0,13,613,training,positivefb,97,average,62,1.1339095000002999,['c'],1,left,['3'],4,0.7370919000004506,,,32,18,Man,Rechts,1,
,xotask,xotask,xotask,14,0,14,614,training,positivefb,47,hard,53,1.8831377999995311,['c'],1,left,['3'],4,0.6249890999988565,,,32,18,Man,Rechts,1,
,xotask,xotask,xotask,15,0,15,615,training,positivefb,97,easy,70,0.8499868999988394,['c'],1,left,['2'],5,0.11026729999866802,,,32,18,Man,Rechts,1,
,xotask,xotask,xotask,16,0,16,616,training,positivefb,96,hard,53,0.7002245999992738,['c'],1,left,['1'],6,0.18228590000035183,,,32,18,Man,Rechts,1,
,xotask,xotask,xotask,17,0,17,617,training,positivefb,97,average,15,0.9014499999993859,['n'],1,right,['1'],6,0.15512800000033167,,,32,18,Man,Rechts,1,
,xotask,xotask,xotask,18,0,18,618,training,positivefb,86,hard,50,0.8174499000015203,['n'],0,left,['1'],6,0.7888140000013664,,,32,18,Man,Rechts,1,
,xotask,xotask,xotask,19,0,19,619,training,positivefb,80,easy,8,1.6323075000000244,['c'],0,right,['2'],5,0.13892979999945965,,,32,18,Man,Rechts,1,
,xotask,xotask,xotask,20,0,20,620,training,positivefb,89,average,63,0.6998802999987674,['c'],1,left,['1'],6,0.15439800000058312,,,32,18,Man,Rechts,1,
,xotask,xotask,xotask,21,0,21,621,training,positivefb,89,average,15,1.5333174000006693,['n'],1,right,['2'],5,0.14294250000057218,,,32,18,Man,Rechts,1,
,xotask,xotask,xotask,22,0,22,622,training,positivefb,97,hard,54,1.283047799999622,['c'],1,left,['2'],5,1.102574700000332,,,32,18,Man,Rechts,1,
,xotask,xotask,xotask,23,0,23,623,training,positivefb,92,easy,72,0.8336287999991328,['c'],1,left,['1'],6,0.14533680000022287,,,32,18,Man,Rechts,1,
,xotask,xotask,xotask,24,0,24,624,training,positivefb,58,easy,70,1.666529799998898,['n'],0,left,['3'],4,0.18506019999949785,,,32,18,Man,Rechts,1,
,xotask,xotask,xotask,25,0,25,625,training,positivefb,93,easy,73,1.0993832999993174,['c'],1,left,['2'],5,0.6529929999996966,,,32,18,Man,Rechts,1,
,xotask,xotask,xotask,26,0,26,626,training,positivefb,87,average,64,1.0164808999998058,['c'],1,left,['1'],6,0.16263340000114113,,,32,18,Man,Rechts,1,
,xotask,xotask,xotask,27,0,27,627,training,positivefb,91,average,17,1.6000397999996494,['n'],1,right,['3'],4,0.11685150000084832,,,32,18,Man,Rechts,1,
,xotask,xotask,xotask,28,0,28,628,training,positivefb,91,easy,6,1.8339240000004793,['n'],1,right,['2'],5,0.13443160000133503,,,32,18,Man,Rechts,1,
,xotask,xotask,xotask,29,0,29,629,training,positivefb,92,easy,9,1.1327691999995295,['n'],1,right,['2'],5,0.25245540000105393,,,32,18,Man,Rechts,1,
,xotask,xotask,xotask,30,0,30,630,training,positivefb,99,average,17,0.7005573000005825,['n'],1,right,['1'],6,0.23846120000052906,,,32,18,Man,Rechts,1,
,xotask,xotask,xotask,31,0,31,631,training,positivefb,92,average,17,0.7008630000000267,['n'],1,right,['1'],6,0.11238260000027367,,,32,18,Man,Rechts,1,
,xotask,xotask,xotask,32,0,32,632,training,positivefb,60,hard,54,3.2995345999988785,['n'],0,left,['3'],4,0.2015240000000631,,,32,18,Man,Rechts,1,
,xotask,xotask,xotask,33,0,33,633,training,positivefb,94,hard,27,1.017208400000527,['n'],1,right,['2'],5,0.7682419000011578,,,32,18,Man,Rechts,1,
,xotask,xotask,xotask,34,0,34,634,training,positivefb,96,average,63,0.7338218000004417,['c'],1,left,['1'],6,0.20464560000073106,,,32,18,Man,Rechts,1,
,xotask,xotask,xotask,35,0,35,635,training,positivefb,96,easy,8,0.6180237999997189,['n'],1,right,['1'],6,0.14710879999984172,,,32,18,Man,Rechts,1,
,xotask,xotask,xotask,36,0,36,636,training,positivefb,95,easy,70,0.7339654999996128,['c'],1,left,['1'],6,0.15256500000032247,,,32,18,Man,Rechts,1,
,xotask,xotask,xotask,37,0,37,637,training,positivefb,89,hard,29,0.9005997000003845,['n'],1,right,['2'],5,0.6469157999999879,,,32,18,Man,Rechts,1,
,xotask,xotask,xotask,38,0,38,638,training,positivefb,44,average,63,0.9500454999997601,['n'],0,left,['3'],4,1.3837160000002768,,,32,18,Man,Rechts,1,
,xotask,xotask,xotask,39,0,39,639,training,positivefb,94,average,16,0.7491853000010451,['n'],1,right,['1'],6,1.058327000000645,,,32,18,Man,Rechts,1,
,xotask,xotask,xotask,40,0,40,640,training,positivefb,99,easy,72,1.032662800000253,['c'],1,left,['2'],5,0.6307262999998784,,,32,18,Man,Rechts,1,
,xotask,xotask,xotask,41,0,41,641,training,positivefb,94,hard,52,0.733324700000594,['c'],1,left,['2'],5,0.2805969000000914,,,32,18,Man,Rechts,1,
,xotask,xotask,xotask,42,0,42,642,training,positivefb,93,easy,8,0.6828344999994442,['n'],1,right,['1'],6,0.15456710000034946,,,32,18,Man,Rechts,1,
,xotask,xotask,xotask,43,0,43,643,training,positivefb,83,hard,28,0.7494891999995161,['n'],1,right,['2'],5,0.3022720999997546,,,32,18,Man,Rechts,1,
,xotask,xotask,xotask,44,0,44,644,training,positivefb,94,average,17,0.7514143000007607,['n'],1,right,['1'],6,0.09182940000027884,,,32,18,Man,Rechts,1,
,xotask,xotask,xotask,45,0,45,645,training,positivefb,91,hard,26,1.0004615999987436,['n'],1,right,['2'],5,0.24113519999991695,,,32,18,Man,Rechts,1,
,xotask,xotask,xotask,46,0,46,646,training,positivefb,86,hard,51,1.8161306000001787,['n'],0,left,['3'],4,0.09507510000003094,,,32,18,Man,Rechts,1,
,xotask,xotask,xotask,47,0,47,647,training,positivefb,93,average,19,0.8665098000001308,['n'],1,right,['1'],6,0.12092130000019097,,,32,18,Man,Rechts,1,
,xotask,xotask,xotask,48,0,48,648,training,positivefb,95,average,16,0.5677300999996078,['n'],1,right,['1'],6,0.1259819000006246,,,32,18,Man,Rechts,1,
,xotask,xotask,xotask,49,0,49,649,training,positivefb,83,average,16,1.9163960000005318,['c'],0,right,['3'],4,0.08472530000108236,,,32,18,Man,Rechts,1,
,xotask,xotask,xotask,50,0,50,650,training,positivefb,87,hard,28,1.1171190999993996,['n'],1,right,['2'],5,0.2924567999998544,,,32,18,Man,Rechts,1,
,xotask,xotask,xotask,51,0,51,651,training,positivefb,87,easy,70,1.0003670000005513,['c'],1,left,['2'],5,0.24909719999959634,,,32,18,Man,Rechts,1,
,xotask,xotask,xotask,52,0,52,652,training,positivefb,94,hard,27,0.6346885999992082,['n'],1,right,['1'],6,0.13389749999987544,,,32,18,Man,Rechts,1,
,xotask,xotask,xotask,53,0,53,653,training,positivefb,95,average,64,0.7666306999999506,['c'],1,left,['1'],6,0.10553599999911967,,,32,18,Man,Rechts,1,
,xotask,xotask,xotask,54,0,54,654,training,positivefb,94,easy,71,0.648751100001391,['c'],1,left,['1'],6,0.13123199999972712,,,32,18,Man,Rechts,1,
,xotask,xotask,xotask,55,0,55,655,training,positivefb,91,average,64,0.8835659000014857,['c'],1,left,['1'],6,0.19550239999989572,,,32,18,Man,Rechts,1,
,xotask,xotask,xotask,56,0,56,656,training,positivefb,96,average,60,0.7342535999996471,['c'],1,left,['2'],5,0.04648509999969974,,,32,18,Man,Rechts,1,
,xotask,xotask,xotask,57,0,57,657,training,positivefb,93,average,63,0.8998674000013125,['c'],1,left,['1'],6,0.161557499999617,,,32,18,Man,Rechts,1,
,xotask,xotask,xotask,58,0,58,658,training,positivefb,88,easy,6,1.3338853999994171,['c'],0,right,['2'],5,0.08584650000011607,,,32,18,Man,Rechts,1,
,xotask,xotask,xotask,59,0,59,659,training,positivefb,96,easy,71,1.1501625000000786,['c'],1,left,['2'],5,0.1164241000005859,,,32,18,Man,Rechts,1,
,xotask,xotask,xotask,0,1,60,660,training,positivefb,96,easy,7,0.9509211000004143,['n'],1,right,['1'],6,0.5985342000003584,,,32,18,Man,Rechts,1,
,xotask,xotask,xotask,1,1,61,661,training,positivefb,90,easy,8,0.6008783999986917,['n'],1,right,['1'],6,0.12693539999963832,,,32,18,Man,Rechts,1,
,xotask,xotask,xotask,2,1,62,662,training,positivefb,98,average,17,0.6166048000013689,['n'],1,right,['1'],6,0.10455949999959557,,,32,18,Man,Rechts,1,
,xotask,xotask,xotask,3,1,63,663,training,positivefb,88,hard,26,0.7505753000004916,['n'],1,right,['1'],6,0.14336100000036822,,,32,18,Man,Rechts,1,
,xotask,xotask,xotask,4,1,64,664,training,positivefb,72,hard,50,1.4831355000005715,['n'],0,left,['2'],5,1.0786251999998058,,,32,18,Man,Rechts,1,
,xotask,xotask,xotask,5,1,65,665,training,positivefb,82,hard,28,1.166769600000407,['n'],1,right,['1'],6,0.5655936000002839,,,32,18,Man,Rechts,1,
,xotask,xotask,xotask,6,1,66,666,training,positivefb,76,hard,52,1.4509579000005033,['n'],0,left,['3'],4,0.22024519999831682,,,32,18,Man,Rechts,1,
,xotask,xotask,xotask,7,1,67,667,training,positivefb,80,hard,29,1.017970900000364,['n'],1,right,['2'],5,0.26718330000039714,,,32,18,Man,Rechts,1,
,xotask,xotask,xotask,8,1,68,668,training,positivefb,95,average,61,1.1673850000006496,['c'],1,left,['1'],6,0.25845619999927294,,,32,18,Man,Rechts,1,
,xotask,xotask,xotask,9,1,69,669,training,positivefb,99,easy,73,0.7665240000005724,['c'],1,left,['1'],6,0.18557139999938954,,,32,18,Man,Rechts,1,
,xotask,xotask,xotask,10,1,70,670,training,positivefb,95,average,64,0.8501999000000069,['c'],1,left,['1'],6,0.15199150000080408,,,32,18,Man,Rechts,1,
,xotask,xotask,xotask,11,1,71,671,training,positivefb,82,easy,7,0.8994036999993114,['n'],1,right,['1'],6,0.15849680000064836,,,32,18,Man,Rechts,1,
,xotask,xotask,xotask,12,1,72,672,training,positivefb,75,easy,73,0.8171265000000858,['n'],0,left,['1'],6,0.15173959999992803,,,32,18,Man,Rechts,1,
,xotask,xotask,xotask,13,1,73,673,training,positivefb,93,easy,9,0.8666221000003134,['n'],1,right,['1'],6,0.13424810000105936,,,32,18,Man,Rechts,1,
,xotask,xotask,xotask,14,1,74,674,training,positivefb,80,hard,28,0.6669593000005989,['n'],1,right,['2'],5,0.270909799999572,,,32,18,Man,Rechts,1,
,xotask,xotask,xotask,15,1,75,675,training,positivefb,73,average,15,1.366844800000763,['c'],0,right,['2'],5,0.7897587000006752,,,32,18,Man,Rechts,1,
,xotask,xotask,xotask,16,1,76,676,training,positivefb,85,easy,7,1.1174068999989686,['n'],1,right,['1'],6,0.6014783000009629,,,32,18,Man,Rechts,1,
,xotask,xotask,xotask,17,1,77,677,training,positivefb,90,hard,52,1.0829773999994359,['c'],1,left,['2'],5,0.7415096999993693,,,32,18,Man,Rechts,1,
