starttime,task,fbtask,firsttask,withinblocktrial,block,withintasktrial,trial,running,feedback,fbscore,difflevel,reddots,rt,resp,cor,cresp,conf_press,cj,RTconf,n_xes,stoptime,sub,age,gender,handedness,session,
1715070649,dotcolour,dotcolour,dotcolour,0,0,0,0,training,positivefb,47,average,55,2.7845001999999113,['n'],0,left,['2'],2,1.8043588999998974,,,58333,19,Vrouw,Rechts,1,
,dotcolour,dotcolour,dotcolour,1,0,1,1,training,positivefb,92,hard,37,1.833895800000164,['n'],1,right,['2'],2,1.426332400000092,,,58333,19,Vrouw,Rechts,1,
,dotcolour,dotcolour,dotcolour,2,0,2,2,training,positivefb,87,hard,43,2.065622200000007,['c'],1,left,['3'],3,1.0943938999998863,,,58333,19,Vrouw,Rechts,1,
,dotcolour,dotcolour,dotcolour,3,0,3,3,training,positivefb,97,hard,37,2.249698399999943,['n'],1,right,['2'],2,0.8571538000001055,,,58333,19,Vrouw,Rechts,1,
,dotcolour,dotcolour,dotcolour,4,0,4,4,training,positivefb,92,hard,43,1.0004742999999507,['n'],0,left,['9'],5,0.8312081999999918,,,58333,19,Vrouw,Rechts,1,
,dotcolour,dotcolour,dotcolour,5,0,5,5,training,positivefb,95,hard,43,0.9012551000000713,['c'],1,left,['9'],5,0.41829950000010285,,,58333,19,Vrouw,Rechts,1,
,dotcolour,dotcolour,dotcolour,6,0,6,6,training,positivefb,14,easy,19,0.26766350000002603,['c'],0,right,['2'],2,1.559199400000125,,,58333,19,Vrouw,Rechts,1,
,dotcolour,dotcolour,dotcolour,7,0,7,7,training,positivefb,91,easy,15,0.7343302000001586,['n'],1,right,['2'],2,0.6912748999998257,,,58333,19,Vrouw,Rechts,1,
,dotcolour,dotcolour,dotcolour,8,0,8,8,training,positivefb,93,average,52,0.8174183000000994,['c'],1,left,['9'],5,0.3435028000001239,,,58333,19,Vrouw,Rechts,1,
,dotcolour,dotcolour,dotcolour,9,0,9,9,training,positivefb,11,easy,64,0.2839917000001151,['n'],0,left,['2'],2,1.382503899999847,,,58333,19,Vrouw,Rechts,1,
,dotcolour,dotcolour,dotcolour,10,0,10,10,training,positivefb,96,average,27,0.6506112000001849,['n'],1,right,['2'],2,0.5255420999999387,,,58333,19,Vrouw,Rechts,1,
,dotcolour,dotcolour,dotcolour,11,0,11,11,training,positivefb,99,easy,62,0.7834957000000031,['c'],1,left,['9'],5,0.5376466000000164,,,58333,19,Vrouw,Rechts,1,
,dotcolour,dotcolour,dotcolour,12,0,12,12,training,positivefb,94,average,27,0.4999311999999918,['n'],1,right,['2'],2,0.5598781999999574,,,58333,19,Vrouw,Rechts,1,
,dotcolour,dotcolour,dotcolour,13,0,13,13,training,positivefb,90,average,25,0.5175524000001133,['n'],1,right,['2'],2,0.3092930999998771,,,58333,19,Vrouw,Rechts,1,
,dotcolour,dotcolour,dotcolour,14,0,14,14,training,positivefb,92,hard,38,0.5496200000000044,['n'],1,right,['9'],5,0.8274117000000842,,,58333,19,Vrouw,Rechts,1,
,dotcolour,dotcolour,dotcolour,15,0,15,15,training,positivefb,91,hard,39,0.7157351999999264,['n'],1,right,['9'],5,0.30213129999992816,,,58333,19,Vrouw,Rechts,1,
,dotcolour,dotcolour,dotcolour,16,0,16,16,training,positivefb,98,easy,16,0.5010966999998345,['n'],1,right,['9'],5,0.27811389999988023,,,58333,19,Vrouw,Rechts,1,
,dotcolour,dotcolour,dotcolour,17,0,17,17,training,positivefb,88,easy,61,0.5341389000000163,['c'],1,left,['9'],5,0.2781766999999036,,,58333,19,Vrouw,Rechts,1,
,dotcolour,dotcolour,dotcolour,18,0,18,18,training,positivefb,90,hard,35,0.5675097999999252,['n'],1,right,['2'],2,0.27673329999993257,,,58333,19,Vrouw,Rechts,1,
,dotcolour,dotcolour,dotcolour,19,0,19,19,training,positivefb,94,hard,41,0.6336278999999649,['n'],0,left,['9'],5,0.272552499999847,,,58333,19,Vrouw,Rechts,1,
,dotcolour,dotcolour,dotcolour,20,0,20,20,training,positivefb,85,easy,18,0.5338007999998808,['n'],1,right,['9'],5,0.26489839999999276,,,58333,19,Vrouw,Rechts,1,
,dotcolour,dotcolour,dotcolour,21,0,21,21,training,positivefb,94,average,51,0.6661126999999851,['c'],1,left,['9'],5,0.49154569999996056,,,58333,19,Vrouw,Rechts,1,
,dotcolour,dotcolour,dotcolour,22,0,22,22,training,positivefb,90,hard,36,0.45051869999997507,['n'],1,right,['9'],5,0.40664200000014716,,,58333,19,Vrouw,Rechts,1,
,dotcolour,dotcolour,dotcolour,23,0,23,23,training,positivefb,100,average,53,0.6172705999999835,['c'],1,left,['9'],5,0.34171459999993203,,,58333,19,Vrouw,Rechts,1,
,dotcolour,dotcolour,dotcolour,24,0,24,24,training,positivefb,84,easy,63,0.6670920999999908,['c'],1,left,['9'],5,0.3101676999999654,,,58333,19,Vrouw,Rechts,1,
,dotcolour,dotcolour,dotcolour,25,0,25,25,training,positivefb,98,easy,16,0.5328168999999434,['n'],1,right,['2'],2,0.3162949000000026,,,58333,19,Vrouw,Rechts,1,
,dotcolour,dotcolour,dotcolour,26,0,26,26,training,positivefb,91,hard,36,0.6995613999999932,['n'],1,right,['9'],5,0.24348349999991115,,,58333,19,Vrouw,Rechts,1,
,dotcolour,dotcolour,dotcolour,27,0,27,27,training,positivefb,96,easy,61,0.49957930000005035,['c'],1,left,['9'],5,0.3023756999998568,,,58333,19,Vrouw,Rechts,1,
,dotcolour,dotcolour,dotcolour,28,0,28,28,training,positivefb,98,average,51,0.7495605000001433,['c'],1,left,['9'],5,0.5403604999999061,,,58333,19,Vrouw,Rechts,1,
,dotcolour,dotcolour,dotcolour,29,0,29,29,training,positivefb,90,hard,36,0.5001830000001064,['n'],1,right,['9'],5,0.3949377999999797,,,58333,19,Vrouw,Rechts,1,
,dotcolour,dotcolour,dotcolour,30,0,30,30,training,positivefb,98,easy,15,0.69954359999997,['n'],1,right,['9'],5,0.25599190000002636,,,58333,19,Vrouw,Rechts,1,
,dotcolour,dotcolour,dotcolour,31,0,31,31,training,positivefb,89,average,29,0.5830450000000837,['n'],1,right,['9'],5,0.30277909999995245,,,58333,19,Vrouw,Rechts,1,
,dotcolour,dotcolour,dotcolour,32,0,32,32,training,positivefb,19,hard,45,1.050033699999858,['n'],0,left,['9'],5,6.31246329999999,,,58333,19,Vrouw,Rechts,1,
,dotcolour,dotcolour,dotcolour,33,0,33,33,training,positivefb,95,hard,37,0.7822082000000137,['n'],1,right,['9'],5,0.315043100000139,,,58333,19,Vrouw,Rechts,1,
,dotcolour,dotcolour,dotcolour,34,0,34,34,training,positivefb,95,hard,44,0.7329941999998937,['c'],1,left,['2'],2,0.4251451000000088,,,58333,19,Vrouw,Rechts,1,
,dotcolour,dotcolour,dotcolour,35,0,35,35,training,positivefb,58,average,55,0.7493994999999813,['n'],0,left,['2'],2,0.8985684000001584,,,58333,19,Vrouw,Rechts,1,
,dotcolour,dotcolour,dotcolour,36,0,36,36,training,positivefb,88,hard,44,0.7508227000000716,['c'],1,left,['9'],5,0.40854479999984505,,,58333,19,Vrouw,Rechts,1,
,dotcolour,dotcolour,dotcolour,37,0,37,37,training,positivefb,89,average,27,0.850552000000107,['n'],1,right,['9'],5,0.47063329999991765,,,58333,19,Vrouw,Rechts,1,
,dotcolour,dotcolour,dotcolour,38,0,38,38,training,positivefb,98,average,55,0.8174000999999862,['c'],1,left,['9'],5,0.3712567999998555,,,58333,19,Vrouw,Rechts,1,
,dotcolour,dotcolour,dotcolour,39,0,39,39,training,positivefb,97,average,52,0.6344503999998778,['c'],1,left,['9'],5,0.3313061999999718,,,58333,19,Vrouw,Rechts,1,
,dotcolour,dotcolour,dotcolour,40,0,40,40,training,positivefb,63,easy,64,0.6327638000000206,['c'],1,left,['9'],5,0.3413491999999678,,,58333,19,Vrouw,Rechts,1,
,dotcolour,dotcolour,dotcolour,41,0,41,41,training,positivefb,97,easy,17,0.4341621999999461,['n'],1,right,['9'],5,0.423225900000034,,,58333,19,Vrouw,Rechts,1,
,dotcolour,dotcolour,dotcolour,42,0,42,42,training,positivefb,53,average,54,0.800577000000203,['n'],0,left,['2'],2,0.9185766999999032,,,58333,19,Vrouw,Rechts,1,
,dotcolour,dotcolour,dotcolour,43,0,43,43,training,positivefb,74,hard,41,0.7845810000001165,['n'],0,left,['9'],5,0.29015419999996084,,,58333,19,Vrouw,Rechts,1,
,dotcolour,dotcolour,dotcolour,44,0,44,44,training,positivefb,93,easy,61,0.6337514000001647,['c'],1,left,['8'],4,0.23738879999996243,,,58333,19,Vrouw,Rechts,1,
,dotcolour,dotcolour,dotcolour,45,0,45,45,training,positivefb,99,average,28,0.8509092000001601,['n'],1,right,['9'],5,0.4265525000000707,,,58333,19,Vrouw,Rechts,1,
,dotcolour,dotcolour,dotcolour,46,0,46,46,training,positivefb,89,hard,39,0.883540499999981,['n'],1,right,['9'],5,0.6301932999999735,,,58333,19,Vrouw,Rechts,1,
,dotcolour,dotcolour,dotcolour,47,0,47,47,training,positivefb,94,easy,63,0.6662300000000414,['c'],1,left,['9'],5,0.3227821999998923,,,58333,19,Vrouw,Rechts,1,
,dotcolour,dotcolour,dotcolour,48,0,48,48,training,positivefb,99,average,28,0.5340056000000004,['n'],1,right,['9'],5,0.31289110000011533,,,58333,19,Vrouw,Rechts,1,
,dotcolour,dotcolour,dotcolour,49,0,49,49,training,positivefb,100,easy,61,0.600674300000037,['c'],1,left,['9'],5,0.3569422000000486,,,58333,19,Vrouw,Rechts,1,
,dotcolour,dotcolour,dotcolour,50,0,50,50,training,positivefb,96,average,27,0.5344410000000153,['n'],1,right,['9'],5,0.28152270000009594,,,58333,19,Vrouw,Rechts,1,
,dotcolour,dotcolour,dotcolour,51,0,51,51,training,positivefb,92,easy,65,0.48358900000016547,['c'],1,left,['9'],5,0.338958699999921,,,58333,19,Vrouw,Rechts,1,
,dotcolour,dotcolour,dotcolour,52,0,52,52,training,positivefb,62,hard,43,0.7995992999999544,['c'],1,left,['2'],2,0.9655743000000712,,,58333,19,Vrouw,Rechts,1,
,dotcolour,dotcolour,dotcolour,53,0,53,53,training,positivefb,77,hard,44,0.7996239000001424,['n'],0,left,['9'],5,0.6311338999998952,,,58333,19,Vrouw,Rechts,1,
,dotcolour,dotcolour,dotcolour,54,0,54,54,training,positivefb,97,easy,16,0.7497412000000168,['n'],1,right,['8'],4,0.24840390000008483,,,58333,19,Vrouw,Rechts,1,
,dotcolour,dotcolour,dotcolour,55,0,55,55,training,positivefb,89,easy,15,1.0998286000001372,['n'],1,right,['8'],4,0.29806570000005195,,,58333,19,Vrouw,Rechts,1,
,dotcolour,dotcolour,dotcolour,56,0,56,56,training,positivefb,97,easy,16,0.7330162000000655,['n'],1,right,['8'],4,0.3211118000001534,,,58333,19,Vrouw,Rechts,1,
,dotcolour,dotcolour,dotcolour,57,0,57,57,training,positivefb,100,average,27,0.5676480999998148,['n'],1,right,['8'],4,0.2937601999999515,,,58333,19,Vrouw,Rechts,1,
,dotcolour,dotcolour,dotcolour,58,0,58,58,training,positivefb,98,average,53,0.5660155000000486,['c'],1,left,['8'],4,0.32362050000006093,,,58333,19,Vrouw,Rechts,1,
,dotcolour,dotcolour,dotcolour,59,0,59,59,training,positivefb,92,average,29,0.6334697999998298,['n'],1,right,['8'],4,0.26189750000003187,,,58333,19,Vrouw,Rechts,1,
,dotcolour,dotcolour,dotcolour,0,1,60,60,training,positivefb,99,easy,18,1.4332130000000234,['n'],1,right,['9'],5,0.9184735000001183,,,58333,19,Vrouw,Rechts,1,
,dotcolour,dotcolour,dotcolour,1,1,61,61,training,positivefb,99,average,29,0.8506543999999394,['n'],1,right,['9'],5,0.48815029999991566,,,58333,19,Vrouw,Rechts,1,
,dotcolour,dotcolour,dotcolour,2,1,62,62,training,positivefb,83,average,51,0.8169327999999041,['c'],1,left,['9'],5,0.33182609999994384,,,58333,19,Vrouw,Rechts,1,
,dotcolour,dotcolour,dotcolour,3,1,63,63,training,positivefb,75,hard,45,1.0005757999999787,['n'],0,left,['3'],3,1.246978499999841,,,58333,19,Vrouw,Rechts,1,
,dotcolour,dotcolour,dotcolour,4,1,64,64,training,positivefb,92,average,29,0.7666328000000249,['n'],1,right,['8'],4,0.5508242999999311,,,58333,19,Vrouw,Rechts,1,
,dotcolour,dotcolour,dotcolour,5,1,65,65,training,positivefb,90,easy,19,0.6175939999998263,['n'],1,right,['8'],4,0.30390319999992244,,,58333,19,Vrouw,Rechts,1,
,dotcolour,dotcolour,dotcolour,6,1,66,66,training,positivefb,98,average,54,0.6669915999998466,['c'],1,left,['8'],4,0.3373134000000846,,,58333,19,Vrouw,Rechts,1,
,dotcolour,dotcolour,dotcolour,7,1,67,67,training,positivefb,71,hard,42,1.3010286999999607,['c'],1,left,['8'],4,0.5280468000000837,,,58333,19,Vrouw,Rechts,1,
,dotcolour,dotcolour,dotcolour,8,1,68,68,training,positivefb,93,hard,44,0.7338137000001552,['c'],1,left,['3'],3,1.2380582999999206,,,58333,19,Vrouw,Rechts,1,
,dotcolour,dotcolour,dotcolour,9,1,69,69,training,positivefb,90,easy,16,0.7844542000000274,['n'],1,right,['9'],5,0.35695179999993343,,,58333,19,Vrouw,Rechts,1,
,dotcolour,dotcolour,dotcolour,10,1,70,70,training,positivefb,99,average,55,0.650031300000137,['c'],1,left,['9'],5,0.3087318000000323,,,58333,19,Vrouw,Rechts,1,
,dotcolour,dotcolour,dotcolour,11,1,71,71,training,positivefb,94,easy,61,0.518103599999904,['c'],1,left,['9'],5,0.3472749999998541,,,58333,19,Vrouw,Rechts,1,
,dotcolour,dotcolour,dotcolour,12,1,72,72,training,positivefb,97,average,53,1.6341852000000472,['c'],1,left,['3'],3,0.933581699999877,,,58333,19,Vrouw,Rechts,1,
,dotcolour,dotcolour,dotcolour,13,1,73,73,training,positivefb,98,hard,36,0.7341501999999309,['n'],1,right,['9'],5,0.30660999999986416,,,58333,19,Vrouw,Rechts,1,
,dotcolour,dotcolour,dotcolour,14,1,74,74,training,positivefb,94,average,55,0.8833822000001419,['c'],1,left,['8'],4,0.2745256000000609,,,58333,19,Vrouw,Rechts,1,
,dotcolour,dotcolour,dotcolour,15,1,75,75,training,positivefb,96,hard,43,0.8011804999998731,['n'],0,left,['8'],4,0.23263250000013613,,,58333,19,Vrouw,Rechts,1,
,dotcolour,dotcolour,dotcolour,16,1,76,76,training,positivefb,73,average,25,0.7509033000001182,['n'],1,right,['8'],4,0.3049341999999342,,,58333,19,Vrouw,Rechts,1,
,dotcolour,dotcolour,dotcolour,17,1,77,77,training,positivefb,87,hard,37,0.5836417000000438,['n'],1,right,['8'],4,0.34199119999993854,,,58333,19,Vrouw,Rechts,1,
,dotcolour,dotcolour,dotcolour,18,1,78,78,training,positivefb,89,easy,16,0.6829701999999997,['n'],1,right,['8'],4,0.34109419999981583,,,58333,19,Vrouw,Rechts,1,
,dotcolour,dotcolour,dotcolour,19,1,79,79,training,positivefb,79,hard,36,1.349650899999915,['n'],1,right,['8'],4,0.3298577999998997,,,58333,19,Vrouw,Rechts,1,
,dotcolour,dotcolour,dotcolour,20,1,80,80,training,positivefb,97,easy,19,0.5000827999999728,['n'],1,right,['8'],4,0.32136330000003,,,58333,19,Vrouw,Rechts,1,
,dotcolour,dotcolour,dotcolour,21,1,81,81,training,positivefb,99,hard,45,0.8000321000001804,['n'],0,left,['3'],3,0.9721589999999196,,,58333,19,Vrouw,Rechts,1,
,dotcolour,dotcolour,dotcolour,22,1,82,82,training,positivefb,92,easy,64,0.6006141000000298,['c'],1,left,['9'],5,0.32570720000012443,,,58333,19,Vrouw,Rechts,1,
,dotcolour,dotcolour,dotcolour,23,1,83,83,training,positivefb,82,easy,62,0.7666432000000896,['c'],1,left,['9'],5,0.17821600000002036,,,58333,19,Vrouw,Rechts,1,
,dotcolour,dotcolour,dotcolour,24,1,84,84,training,positivefb,95,average,28,0.4840166000001318,['n'],1,right,['9'],5,0.18411990000004153,,,58333,19,Vrouw,Rechts,1,
,dotcolour,dotcolour,dotcolour,25,1,85,85,training,positivefb,98,average,25,0.833249700000124,['n'],1,right,['9'],5,0.2318028999998205,,,58333,19,Vrouw,Rechts,1,
,dotcolour,dotcolour,dotcolour,26,1,86,86,training,positivefb,94,easy,65,0.5162803000000622,['c'],1,left,['9'],5,0.21806730000002972,,,58333,19,Vrouw,Rechts,1,
,dotcolour,dotcolour,dotcolour,27,1,87,87,training,positivefb,91,hard,43,1.1505141000000094,['c'],1,left,['3'],3,0.45122459999993225,,,58333,19,Vrouw,Rechts,1,
,dotcolour,dotcolour,dotcolour,28,1,88,88,training,positivefb,85,average,52,0.700507000000016,['c'],1,left,['9'],5,0.19719809999992322,,,58333,19,Vrouw,Rechts,1,
,dotcolour,dotcolour,dotcolour,29,1,89,89,training,positivefb,99,easy,65,0.6334174999999505,['c'],1,left,['9'],5,0.4123645999998189,,,58333,19,Vrouw,Rechts,1,
,dotcolour,dotcolour,dotcolour,30,1,90,90,training,positivefb,85,easy,62,0.7493220999999721,['c'],1,left,['9'],5,0.15085290000001805,,,58333,19,Vrouw,Rechts,1,
,dotcolour,dotcolour,dotcolour,31,1,91,91,training,positivefb,97,easy,63,0.550751800000171,['c'],1,left,['9'],5,0.20326249999993706,,,58333,19,Vrouw,Rechts,1,
,dotcolour,dotcolour,dotcolour,32,1,92,92,training,positivefb,97,hard,36,0.6330092999999124,['n'],1,right,['9'],5,0.2492979999999534,,,58333,19,Vrouw,Rechts,1,
,dotcolour,dotcolour,dotcolour,33,1,93,93,training,positivefb,99,easy,65,0.5330071000000771,['c'],1,left,['9'],5,0.3704216000000997,,,58333,19,Vrouw,Rechts,1,
,dotcolour,dotcolour,dotcolour,34,1,94,94,training,positivefb,97,easy,17,0.517096600000059,['n'],1,right,['9'],5,0.23861630000010337,,,58333,19,Vrouw,Rechts,1,
,dotcolour,dotcolour,dotcolour,35,1,95,95,training,positivefb,96,average,29,0.5000235999998495,['n'],1,right,['9'],5,0.24130780000018603,,,58333,19,Vrouw,Rechts,1,
,dotcolour,dotcolour,dotcolour,36,1,96,96,training,positivefb,91,hard,41,1.299775999999838,['c'],1,left,['9'],5,0.14834480000013173,,,58333,19,Vrouw,Rechts,1,
,dotcolour,dotcolour,dotcolour,37,1,97,97,training,positivefb,95,easy,63,0.5007771000000503,['c'],1,left,['9'],5,0.177758699999913,,,58333,19,Vrouw,Rechts,1,
,dotcolour,dotcolour,dotcolour,38,1,98,98,training,positivefb,74,hard,38,1.433466800000133,['c'],0,right,['9'],5,0.17794720000006237,,,58333,19,Vrouw,Rechts,1,
,dotcolour,dotcolour,dotcolour,39,1,99,99,training,positivefb,94,hard,36,0.7001569999999901,['c'],0,right,['9'],5,0.1994700999998713,,,58333,19,Vrouw,Rechts,1,
,dotcolour,dotcolour,dotcolour,40,1,100,100,training,positivefb,98,easy,16,0.632162899999912,['n'],1,right,['9'],5,0.2703893000000335,,,58333,19,Vrouw,Rechts,1,
,dotcolour,dotcolour,dotcolour,41,1,101,101,training,positivefb,97,hard,45,0.5834975000000213,['c'],1,left,['9'],5,0.2045831000000362,,,58333,19,Vrouw,Rechts,1,
,dotcolour,dotcolour,dotcolour,42,1,102,102,training,positivefb,99,easy,15,0.6670999000000393,['n'],1,right,['9'],5,0.29701870000008057,,,58333,19,Vrouw,Rechts,1,
,dotcolour,dotcolour,dotcolour,43,1,103,103,training,positivefb,95,average,27,0.5994479999999385,['n'],1,right,['9'],5,0.21320689999993192,,,58333,19,Vrouw,Rechts,1,
,dotcolour,dotcolour,dotcolour,44,1,104,104,training,positivefb,95,easy,18,0.5343646000001172,['n'],1,right,['9'],5,0.2726682999998502,,,58333,19,Vrouw,Rechts,1,
,dotcolour,dotcolour,dotcolour,45,1,105,105,training,positivefb,93,hard,37,0.6500871000000643,['n'],1,right,['9'],5,0.15536459999998442,,,58333,19,Vrouw,Rechts,1,
,dotcolour,dotcolour,dotcolour,46,1,106,106,training,positivefb,96,hard,45,0.6497345999998743,['c'],1,left,['9'],5,0.1881849000001239,,,58333,19,Vrouw,Rechts,1,
,dotcolour,dotcolour,dotcolour,47,1,107,107,training,positivefb,95,average,54,0.8009839000001193,['c'],1,left,['9'],5,0.21229440000001887,,,58333,19,Vrouw,Rechts,1,
,dotcolour,dotcolour,dotcolour,48,1,108,108,training,positivefb,77,average,54,0.8165647999999237,['c'],1,left,['9'],5,0.21953940000003058,,,58333,19,Vrouw,Rechts,1,
,dotcolour,dotcolour,dotcolour,49,1,109,109,training,positivefb,93,average,26,0.517232199999853,['n'],1,right,['3'],3,1.550522600000022,,,58333,19,Vrouw,Rechts,1,
,dotcolour,dotcolour,dotcolour,50,1,110,110,training,positivefb,89,average,51,0.7173743000000741,['c'],1,left,['9'],5,0.17923990000008416,,,58333,19,Vrouw,Rechts,1,
,dotcolour,dotcolour,dotcolour,51,1,111,111,training,positivefb,95,average,25,0.4999852999999348,['n'],1,right,['8'],4,0.2882559999998193,,,58333,19,Vrouw,Rechts,1,
,dotcolour,dotcolour,dotcolour,52,1,112,112,training,positivefb,98,hard,39,1.334280499999977,['n'],1,right,['8'],4,0.2954294999999547,,,58333,19,Vrouw,Rechts,1,
,dotcolour,dotcolour,dotcolour,53,1,113,113,training,positivefb,87,hard,35,1.7841111000000183,['c'],0,right,['3'],3,0.4211499000000458,,,58333,19,Vrouw,Rechts,1,
,dotcolour,dotcolour,dotcolour,54,1,114,114,training,positivefb,94,average,27,0.5169240999998692,['n'],1,right,['9'],5,0.256527799999958,,,58333,19,Vrouw,Rechts,1,
,dotcolour,dotcolour,dotcolour,55,1,115,115,training,positivefb,99,average,55,0.7660644000000048,['c'],1,left,['9'],5,0.11971669999979895,,,58333,19,Vrouw,Rechts,1,
,dotcolour,dotcolour,dotcolour,56,1,116,116,training,positivefb,90,hard,45,1.7680182999999943,['c'],1,left,['3'],3,0.3958082000001468,,,58333,19,Vrouw,Rechts,1,
,dotcolour,dotcolour,dotcolour,57,1,117,117,training,positivefb,99,easy,19,0.49982599999998456,['n'],1,right,['9'],5,0.22491309999986697,,,58333,19,Vrouw,Rechts,1,
,dotcolour,dotcolour,dotcolour,58,1,118,118,training,positivefb,92,hard,35,1.0165164999998524,['n'],1,right,['9'],5,0.22323230000006333,,,58333,19,Vrouw,Rechts,1,
,dotcolour,dotcolour,dotcolour,59,1,119,119,training,positivefb,96,easy,65,0.9666568000000098,['c'],1,left,['9'],5,0.6716866000001573,,,58333,19,Vrouw,Rechts,1,
,dotcolour,dotcolour,dotcolour,0,2,120,120,main,positivefb,-99,hard,44,0.8514861999999539,['n'],0,left,['9'],5,1.0767808999999033,,,58333,19,Vrouw,Rechts,1,
,dotcolour,dotcolour,dotcolour,1,2,121,121,main,positivefb,-99,easy,62,0.6179581000001235,['c'],1,left,['9'],5,0.435138600000073,,,58333,19,Vrouw,Rechts,1,
,dotcolour,dotcolour,dotcolour,2,2,122,122,main,positivefb,-99,easy,17,0.48327370000015435,['n'],1,right,['9'],5,0.1988787999998749,,,58333,19,Vrouw,Rechts,1,
,dotcolour,dotcolour,dotcolour,3,2,123,123,main,positivefb,-99,easy,16,0.7016198000001168,['n'],1,right,['9'],5,0.23544859999992696,,,58333,19,Vrouw,Rechts,1,
,dotcolour,dotcolour,dotcolour,4,2,124,124,main,positivefb,-99,hard,37,0.7506513999999243,['c'],0,right,['9'],5,0.38897449999990386,,,58333,19,Vrouw,Rechts,1,
,dotcolour,dotcolour,dotcolour,5,2,125,125,main,positivefb,-99,hard,37,0.9006328000000394,['c'],0,right,['3'],3,0.28204989999994723,,,58333,19,Vrouw,Rechts,1,
,dotcolour,dotcolour,dotcolour,6,2,126,126,main,positivefb,-99,average,27,0.7674440999999206,['n'],1,right,['9'],5,0.3049105000000054,,,58333,19,Vrouw,Rechts,1,
,dotcolour,dotcolour,dotcolour,7,2,127,127,main,positivefb,-99,average,25,0.7512035999998261,['n'],1,right,['9'],5,0.2398060999998961,,,58333,19,Vrouw,Rechts,1,
,dotcolour,dotcolour,dotcolour,8,2,128,128,main,positivefb,-99,average,55,0.616955599999983,['c'],1,left,['9'],5,0.19050339999967036,,,58333,19,Vrouw,Rechts,1,
,dotcolour,dotcolour,dotcolour,9,2,129,129,main,positivefb,-99,hard,38,0.98449729999993,['n'],1,right,['9'],5,0.16885270000011587,,,58333,19,Vrouw,Rechts,1,
,dotcolour,dotcolour,dotcolour,10,2,130,130,main,positivefb,-99,average,26,0.5676828000000569,['n'],1,right,['9'],5,0.22005230000013398,,,58333,19,Vrouw,Rechts,1,
,dotcolour,dotcolour,dotcolour,11,2,131,131,main,positivefb,-99,average,52,0.5168696999999156,['c'],1,left,['9'],5,0.43852879999985817,,,58333,19,Vrouw,Rechts,1,
,dotcolour,dotcolour,dotcolour,12,2,132,132,main,positivefb,-99,easy,15,1.967868599999747,['n'],1,right,['9'],5,0.26345709999986866,,,58333,19,Vrouw,Rechts,1,
,dotcolour,dotcolour,dotcolour,13,2,133,133,main,positivefb,-99,average,25,0.6344255999997586,['n'],1,right,['9'],5,0.31692219999968074,,,58333,19,Vrouw,Rechts,1,
,dotcolour,dotcolour,dotcolour,14,2,134,134,main,positivefb,-99,hard,43,0.800728799999888,['n'],0,left,['3'],3,0.8326483000000735,,,58333,19,Vrouw,Rechts,1,
,dotcolour,dotcolour,dotcolour,15,2,135,135,main,positivefb,-99,average,52,0.9842063999999482,['c'],1,left,['3'],3,0.3930141000000731,,,58333,19,Vrouw,Rechts,1,
,dotcolour,dotcolour,dotcolour,16,2,136,136,main,positivefb,-99,hard,45,0.6662338000001,['c'],1,left,['3'],3,0.4152177999999367,,,58333,19,Vrouw,Rechts,1,
,dotcolour,dotcolour,dotcolour,17,2,137,137,main,positivefb,-99,average,29,0.5843055000000277,['n'],1,right,['9'],5,0.2564223999997921,,,58333,19,Vrouw,Rechts,1,
,dotcolour,dotcolour,dotcolour,18,2,138,138,main,positivefb,-99,easy,62,0.5335454999999456,['c'],1,left,['9'],5,0.20160429999987173,,,58333,19,Vrouw,Rechts,1,
,dotcolour,dotcolour,dotcolour,19,2,139,139,main,positivefb,-99,easy,16,0.517701599999782,['n'],1,right,['9'],5,0.21336439999959111,,,58333,19,Vrouw,Rechts,1,
,dotcolour,dotcolour,dotcolour,20,2,140,140,main,positivefb,-99,easy,63,0.48526369999990493,['c'],1,left,['9'],5,0.16307259999985035,,,58333,19,Vrouw,Rechts,1,
,dotcolour,dotcolour,dotcolour,21,2,141,141,main,positivefb,-99,easy,61,0.45110120000026654,['c'],1,left,['9'],5,0.2674007000000529,,,58333,19,Vrouw,Rechts,1,
,dotcolour,dotcolour,dotcolour,22,2,142,142,main,positivefb,-99,easy,15,0.4516723000001548,['n'],1,right,['9'],5,0.231612000000041,,,58333,19,Vrouw,Rechts,1,
,dotcolour,dotcolour,dotcolour,23,2,143,143,main,positivefb,-99,hard,37,0.6676634000000377,['n'],1,right,['9'],5,0.19686090000004697,,,58333,19,Vrouw,Rechts,1,
,dotcolour,dotcolour,dotcolour,24,2,144,144,main,positivefb,-99,easy,15,0.5519570999999814,['n'],1,right,['9'],5,0.2553925000001982,,,58333,19,Vrouw,Rechts,1,
,dotcolour,dotcolour,dotcolour,25,2,145,145,main,positivefb,-99,hard,39,0.5849316999997427,['c'],0,right,['3'],3,0.8312868000002709,,,58333,19,Vrouw,Rechts,1,
,dotcolour,dotcolour,dotcolour,26,2,146,146,main,positivefb,-99,average,52,0.8349239999997735,['c'],1,left,['9'],5,0.3646424000003208,,,58333,19,Vrouw,Rechts,1,
,dotcolour,dotcolour,dotcolour,27,2,147,147,main,positivefb,-99,average,28,0.5009497999999439,['n'],1,right,['9'],5,0.21131100000002334,,,58333,19,Vrouw,Rechts,1,
,dotcolour,dotcolour,dotcolour,28,2,148,148,main,positivefb,-99,hard,43,0.3667270999999346,['c'],1,left,['9'],5,0.2447178000002168,,,58333,19,Vrouw,Rechts,1,
,dotcolour,dotcolour,dotcolour,29,2,149,149,main,positivefb,-99,easy,63,0.5846317999998973,['c'],1,left,['9'],5,0.1810273999999481,,,58333,19,Vrouw,Rechts,1,
,dotcolour,dotcolour,dotcolour,30,2,150,150,main,positivefb,-99,average,27,0.5328096999996887,['n'],1,right,['9'],5,0.20169170000008307,,,58333,19,Vrouw,Rechts,1,
,dotcolour,dotcolour,dotcolour,31,2,151,151,main,positivefb,-99,hard,41,1.568500700000186,['c'],1,left,['3'],3,0.25059020000026067,,,58333,19,Vrouw,Rechts,1,
,dotcolour,dotcolour,dotcolour,32,2,152,152,main,positivefb,-99,easy,63,0.6011736999998902,['c'],1,left,['3'],3,0.24985130000004574,,,58333,19,Vrouw,Rechts,1,
,dotcolour,dotcolour,dotcolour,33,2,153,153,main,positivefb,-99,average,52,0.7007868999999118,['c'],1,left,['9'],5,0.18057520000002114,,,58333,19,Vrouw,Rechts,1,
,dotcolour,dotcolour,dotcolour,34,2,154,154,main,positivefb,-99,easy,16,0.701798300000064,['n'],1,right,['9'],5,0.17800659999966228,,,58333,19,Vrouw,Rechts,1,
,dotcolour,dotcolour,dotcolour,35,2,155,155,main,positivefb,-99,average,28,0.5849984000001314,['n'],1,right,['9'],5,0.24482050000005984,,,58333,19,Vrouw,Rechts,1,
,dotcolour,dotcolour,dotcolour,36,2,156,156,main,positivefb,-99,average,53,0.4509101999997256,['c'],1,left,['9'],5,0.2426157999998395,,,58333,19,Vrouw,Rechts,1,
,dotcolour,dotcolour,dotcolour,37,2,157,157,main,positivefb,-99,hard,43,0.7004321999997956,['c'],1,left,['9'],5,0.21413069999971412,,,58333,19,Vrouw,Rechts,1,
,dotcolour,dotcolour,dotcolour,38,2,158,158,main,positivefb,-99,easy,19,0.6830982999999833,['n'],1,right,['9'],5,0.21893769999996948,,,58333,19,Vrouw,Rechts,1,
,dotcolour,dotcolour,dotcolour,39,2,159,159,main,positivefb,-99,easy,17,0.5506994000002123,['n'],1,right,['9'],5,0.22126920000027894,,,58333,19,Vrouw,Rechts,1,
,dotcolour,dotcolour,dotcolour,40,2,160,160,main,positivefb,-99,average,27,0.4676227999998446,['n'],1,right,['9'],5,0.2747658000002957,,,58333,19,Vrouw,Rechts,1,
,dotcolour,dotcolour,dotcolour,41,2,161,161,main,positivefb,-99,hard,39,0.8678647000001547,['c'],0,right,['3'],3,0.26179180000008273,,,58333,19,Vrouw,Rechts,1,
,dotcolour,dotcolour,dotcolour,42,2,162,162,main,positivefb,-99,average,54,0.5848488000001453,['c'],1,left,['9'],5,0.3330015999999887,,,58333,19,Vrouw,Rechts,1,
,dotcolour,dotcolour,dotcolour,43,2,163,163,main,positivefb,-99,average,55,0.5179331000003913,['c'],1,left,['9'],5,0.21957479999991847,,,58333,19,Vrouw,Rechts,1,
,dotcolour,dotcolour,dotcolour,44,2,164,164,main,positivefb,-99,average,26,0.5335098999998991,['n'],1,right,['9'],5,0.2466068999997333,,,58333,19,Vrouw,Rechts,1,
,dotcolour,dotcolour,dotcolour,45,2,165,165,main,positivefb,-99,hard,36,0.46749469999986104,['n'],1,right,['9'],5,0.3068947000001572,,,58333,19,Vrouw,Rechts,1,
,dotcolour,dotcolour,dotcolour,46,2,166,166,main,positivefb,-99,hard,42,0.7513619000001199,['c'],1,left,['3'],3,0.6581077999999252,,,58333,19,Vrouw,Rechts,1,
,dotcolour,dotcolour,dotcolour,47,2,167,167,main,positivefb,-99,hard,41,0.751370400000269,['c'],1,left,['3'],3,0.2581569999997555,,,58333,19,Vrouw,Rechts,1,
,dotcolour,dotcolour,dotcolour,48,2,168,168,main,positivefb,-99,easy,62,0.7009244999999282,['c'],1,left,['8'],4,0.5250056999998378,,,58333,19,Vrouw,Rechts,1,
,dotcolour,dotcolour,dotcolour,49,2,169,169,main,positivefb,-99,hard,37,0.6671276000001853,['c'],0,right,['2'],2,3.087000999999873,,,58333,19,Vrouw,Rechts,1,
,dotcolour,dotcolour,dotcolour,50,2,170,170,main,positivefb,-99,hard,36,1.151273399999809,['n'],1,right,['9'],5,0.453898400000071,,,58333,19,Vrouw,Rechts,1,
,dotcolour,dotcolour,dotcolour,51,2,171,171,main,positivefb,-99,hard,44,0.8680428000002394,['n'],0,left,['9'],5,0.33817780000026687,,,58333,19,Vrouw,Rechts,1,
,dotcolour,dotcolour,dotcolour,52,2,172,172,main,positivefb,-99,easy,61,0.4833604999998897,['c'],1,left,['9'],5,0.21868170000016107,,,58333,19,Vrouw,Rechts,1,
,dotcolour,dotcolour,dotcolour,53,2,173,173,main,positivefb,-99,easy,61,0.5347455000000991,['c'],1,left,['9'],5,0.15695830000004207,,,58333,19,Vrouw,Rechts,1,
,dotcolour,dotcolour,dotcolour,54,2,174,174,main,positivefb,-99,hard,43,0.7352295000000595,['c'],1,left,['9'],5,0.12194640000006984,,,58333,19,Vrouw,Rechts,1,
,dotcolour,dotcolour,dotcolour,55,2,175,175,main,positivefb,-99,average,53,0.45129929999984597,['c'],1,left,['9'],5,0.1726158999999825,,,58333,19,Vrouw,Rechts,1,
,dotcolour,dotcolour,dotcolour,56,2,176,176,main,positivefb,-99,easy,18,0.550762400000167,['n'],1,right,['9'],5,0.15267969999968045,,,58333,19,Vrouw,Rechts,1,
,dotcolour,dotcolour,dotcolour,57,2,177,177,main,positivefb,-99,hard,39,0.8178905000004306,['c'],0,right,['9'],5,0.154461000000083,,,58333,19,Vrouw,Rechts,1,
,dotcolour,dotcolour,dotcolour,58,2,178,178,main,positivefb,-99,easy,63,0.46935400000029404,['c'],1,left,['9'],5,0.38651619999973263,,,58333,19,Vrouw,Rechts,1,
,dotcolour,dotcolour,dotcolour,59,2,179,179,main,positivefb,-99,average,55,0.46725640000022395,['c'],1,left,['9'],5,0.34448520000023564,,,58333,19,Vrouw,Rechts,1,
,dotcolour,dotcolour,dotcolour,0,3,180,180,main,positivefb,-99,easy,15,0.6333002000001215,['n'],1,right,['9'],5,0.18614459999980681,,,58333,19,Vrouw,Rechts,1,
,dotcolour,dotcolour,dotcolour,1,3,181,181,main,positivefb,-99,hard,41,0.8832136000000901,['c'],1,left,['9'],5,0.1368145999999797,,,58333,19,Vrouw,Rechts,1,
,dotcolour,dotcolour,dotcolour,2,3,182,182,main,positivefb,-99,average,53,0.46690300000000207,['c'],1,left,['9'],5,0.1934507000000849,,,58333,19,Vrouw,Rechts,1,
,dotcolour,dotcolour,dotcolour,3,3,183,183,main,positivefb,-99,easy,17,0.5993296999999984,['n'],1,right,['9'],5,0.21884619999991628,,,58333,19,Vrouw,Rechts,1,
,dotcolour,dotcolour,dotcolour,4,3,184,184,main,positivefb,-99,hard,42,0.49971000000005006,['c'],1,left,['9'],5,0.31016319999980624,,,58333,19,Vrouw,Rechts,1,
,dotcolour,dotcolour,dotcolour,5,3,185,185,main,positivefb,-99,average,28,0.3677679999996144,['c'],0,right,['9'],5,0.2523831999997128,,,58333,19,Vrouw,Rechts,1,
,dotcolour,dotcolour,dotcolour,6,3,186,186,main,positivefb,-99,average,27,0.38457199999993463,['c'],0,right,['3'],3,1.0517887000000883,,,58333,19,Vrouw,Rechts,1,
,dotcolour,dotcolour,dotcolour,7,3,187,187,main,positivefb,-99,hard,35,0.7329196000000593,['n'],1,right,['9'],5,0.22048939999967843,,,58333,19,Vrouw,Rechts,1,
,dotcolour,dotcolour,dotcolour,8,3,188,188,main,positivefb,-99,hard,41,0.6838075000000572,['n'],0,left,['9'],5,0.20926060000010693,,,58333,19,Vrouw,Rechts,1,
,dotcolour,dotcolour,dotcolour,9,3,189,189,main,positivefb,-99,average,53,0.5167169000001195,['c'],1,left,['9'],5,0.24575019999974757,,,58333,19,Vrouw,Rechts,1,
,dotcolour,dotcolour,dotcolour,10,3,190,190,main,positivefb,-99,easy,61,0.48395280000022467,['c'],1,left,['9'],5,0.22563080000008995,,,58333,19,Vrouw,Rechts,1,
,dotcolour,dotcolour,dotcolour,11,3,191,191,main,positivefb,-99,easy,19,0.4347490000000107,['n'],1,right,['9'],5,0.21620290000009845,,,58333,19,Vrouw,Rechts,1,
,dotcolour,dotcolour,dotcolour,12,3,192,192,main,positivefb,-99,average,28,0.48369499999989785,['n'],1,right,['9'],5,0.1971147999997811,,,58333,19,Vrouw,Rechts,1,
,dotcolour,dotcolour,dotcolour,13,3,193,193,main,positivefb,-99,average,54,0.45038460000023406,['c'],1,left,['9'],5,0.19612000000006446,,,58333,19,Vrouw,Rechts,1,
,dotcolour,dotcolour,dotcolour,14,3,194,194,main,positivefb,-99,easy,64,0.4511931000001823,['c'],1,left,['9'],5,0.18714529999988372,,,58333,19,Vrouw,Rechts,1,
,dotcolour,dotcolour,dotcolour,15,3,195,195,main,positivefb,-99,easy,63,0.3664275000000998,['n'],0,left,['2'],2,0.70260159999998,,,58333,19,Vrouw,Rechts,1,
,dotcolour,dotcolour,dotcolour,16,3,196,196,main,positivefb,-99,average,27,0.550269599999865,['n'],1,right,['9'],5,0.41341529999999693,,,58333,19,Vrouw,Rechts,1,
,dotcolour,dotcolour,dotcolour,17,3,197,197,main,positivefb,-99,easy,65,0.8839002999998229,['c'],1,left,['9'],5,0.2660561000002417,,,58333,19,Vrouw,Rechts,1,
,dotcolour,dotcolour,dotcolour,18,3,198,198,main,positivefb,-99,easy,61,0.5337208999999348,['c'],1,left,['9'],5,0.1705907999998999,,,58333,19,Vrouw,Rechts,1,
,dotcolour,dotcolour,dotcolour,19,3,199,199,main,positivefb,-99,average,26,0.4998233999999684,['n'],1,right,['9'],5,0.20913100000007034,,,58333,19,Vrouw,Rechts,1,
,dotcolour,dotcolour,dotcolour,20,3,200,200,main,positivefb,-99,easy,18,0.5502169999999751,['n'],1,right,['9'],5,0.19589649999988978,,,58333,19,Vrouw,Rechts,1,
,dotcolour,dotcolour,dotcolour,21,3,201,201,main,positivefb,-99,easy,61,0.48430329999973765,['c'],1,left,['9'],5,0.24194310000029873,,,58333,19,Vrouw,Rechts,1,
,dotcolour,dotcolour,dotcolour,22,3,202,202,main,positivefb,-99,average,53,0.3344909999996162,['c'],1,left,['9'],5,0.23561940000035975,,,58333,19,Vrouw,Rechts,1,
,dotcolour,dotcolour,dotcolour,23,3,203,203,main,positivefb,-99,average,28,0.5515909999999167,['n'],1,right,['9'],5,0.156848699999955,,,58333,19,Vrouw,Rechts,1,
,dotcolour,dotcolour,dotcolour,24,3,204,204,main,positivefb,-99,hard,43,0.4850461000000905,['n'],0,left,['9'],5,0.24447429999963788,,,58333,19,Vrouw,Rechts,1,
,dotcolour,dotcolour,dotcolour,25,3,205,205,main,positivefb,-99,average,29,0.5339797000001454,['n'],1,right,['9'],5,0.19876040000008288,,,58333,19,Vrouw,Rechts,1,
,dotcolour,dotcolour,dotcolour,26,3,206,206,main,positivefb,-99,easy,19,0.46669380000003,['n'],1,right,['9'],5,0.26047410000001037,,,58333,19,Vrouw,Rechts,1,
,dotcolour,dotcolour,dotcolour,27,3,207,207,main,positivefb,-99,hard,41,1.4182679999998982,['n'],0,left,['9'],5,0.18658719999984896,,,58333,19,Vrouw,Rechts,1,
,dotcolour,dotcolour,dotcolour,28,3,208,208,main,positivefb,-99,hard,37,1.7833648000000721,['c'],0,right,['3'],3,0.5481218999998418,,,58333,19,Vrouw,Rechts,1,
,dotcolour,dotcolour,dotcolour,29,3,209,209,main,positivefb,-99,easy,18,0.5845268000002761,['n'],1,right,['9'],5,0.1359365000002981,,,58333,19,Vrouw,Rechts,1,
,dotcolour,dotcolour,dotcolour,30,3,210,210,main,positivefb,-99,average,53,0.5667389000000185,['c'],1,left,['9'],5,0.14853930000026594,,,58333,19,Vrouw,Rechts,1,
,dotcolour,dotcolour,dotcolour,31,3,211,211,main,positivefb,-99,hard,38,0.6514025999999831,['n'],1,right,['9'],5,0.1175399000003381,,,58333,19,Vrouw,Rechts,1,
,dotcolour,dotcolour,dotcolour,32,3,212,212,main,positivefb,-99,average,53,0.5006178000003274,['c'],1,left,['9'],5,0.18919020000021192,,,58333,19,Vrouw,Rechts,1,
,dotcolour,dotcolour,dotcolour,33,3,213,213,main,positivefb,-99,average,27,0.4512086999998246,['c'],0,right,['2'],2,0.6683020000000397,,,58333,19,Vrouw,Rechts,1,
,dotcolour,dotcolour,dotcolour,34,3,214,214,main,positivefb,-99,hard,36,1.017721900000197,['n'],1,right,['9'],5,0.1542637000002287,,,58333,19,Vrouw,Rechts,1,
,dotcolour,dotcolour,dotcolour,35,3,215,215,main,positivefb,-99,average,51,1.0173016999997344,['c'],1,left,['2'],2,0.21256319999974949,,,58333,19,Vrouw,Rechts,1,
,dotcolour,dotcolour,dotcolour,36,3,216,216,main,positivefb,-99,hard,36,0.5828172000001359,['n'],1,right,['9'],5,0.49406349999981103,,,58333,19,Vrouw,Rechts,1,
,dotcolour,dotcolour,dotcolour,37,3,217,217,main,positivefb,-99,hard,36,0.6679422000001978,['n'],1,right,['9'],5,0.24808640000037485,,,58333,19,Vrouw,Rechts,1,
,dotcolour,dotcolour,dotcolour,38,3,218,218,main,positivefb,-99,easy,63,0.5169252000000597,['c'],1,left,['9'],5,0.25731039999982386,,,58333,19,Vrouw,Rechts,1,
,dotcolour,dotcolour,dotcolour,39,3,219,219,main,positivefb,-99,hard,42,0.48394120000011753,['n'],0,left,['9'],5,0.2129294999999729,,,58333,19,Vrouw,Rechts,1,
,dotcolour,dotcolour,dotcolour,40,3,220,220,main,positivefb,-99,average,28,0.4677838000002339,['n'],1,right,['9'],5,0.21103119999997944,,,58333,19,Vrouw,Rechts,1,
,dotcolour,dotcolour,dotcolour,41,3,221,221,main,positivefb,-99,easy,18,0.43416549999983545,['n'],1,right,['9'],5,0.2510583000002953,,,58333,19,Vrouw,Rechts,1,
,dotcolour,dotcolour,dotcolour,42,3,222,222,main,positivefb,-99,hard,37,0.78393079999978,['n'],1,right,['9'],5,0.16970390000005864,,,58333,19,Vrouw,Rechts,1,
,dotcolour,dotcolour,dotcolour,43,3,223,223,main,positivefb,-99,easy,65,0.5674229999999625,['c'],1,left,['9'],5,0.2930920000003425,,,58333,19,Vrouw,Rechts,1,
,dotcolour,dotcolour,dotcolour,44,3,224,224,main,positivefb,-99,average,25,0.5510297000000719,['n'],1,right,['9'],5,0.15692559999979494,,,58333,19,Vrouw,Rechts,1,
,dotcolour,dotcolour,dotcolour,45,3,225,225,main,positivefb,-99,hard,43,0.4516041000001678,['n'],0,left,['9'],5,0.21368089999987205,,,58333,19,Vrouw,Rechts,1,
,dotcolour,dotcolour,dotcolour,46,3,226,226,main,positivefb,-99,average,54,0.5838135999997576,['c'],1,left,['9'],5,0.28684100000009494,,,58333,19,Vrouw,Rechts,1,
,dotcolour,dotcolour,dotcolour,47,3,227,227,main,positivefb,-99,hard,45,0.5515039999995679,['c'],1,left,['9'],5,0.8860565999998471,,,58333,19,Vrouw,Rechts,1,
,dotcolour,dotcolour,dotcolour,48,3,228,228,main,positivefb,-99,hard,42,0.6012464999998883,['c'],1,left,['9'],5,0.18754570000010062,,,58333,19,Vrouw,Rechts,1,
,dotcolour,dotcolour,dotcolour,49,3,229,229,main,positivefb,-99,average,52,0.40055260000008275,['c'],1,left,['9'],5,0.22908230000030017,,,58333,19,Vrouw,Rechts,1,
,dotcolour,dotcolour,dotcolour,50,3,230,230,main,positivefb,-99,easy,63,0.45127980000006573,['c'],1,left,['9'],5,0.40281899999990856,,,58333,19,Vrouw,Rechts,1,
,dotcolour,dotcolour,dotcolour,51,3,231,231,main,positivefb,-99,average,55,0.6845721999998204,['c'],1,left,['9'],5,0.1681759000002785,,,58333,19,Vrouw,Rechts,1,
,dotcolour,dotcolour,dotcolour,52,3,232,232,main,positivefb,-99,hard,39,0.7674716999999873,['n'],1,right,['9'],5,0.10726710000017192,,,58333,19,Vrouw,Rechts,1,
,dotcolour,dotcolour,dotcolour,53,3,233,233,main,positivefb,-99,easy,16,0.4513842999999724,['n'],1,right,['9'],5,0.21444459999975152,,,58333,19,Vrouw,Rechts,1,
,dotcolour,dotcolour,dotcolour,54,3,234,234,main,positivefb,-99,easy,19,0.351188799999818,['n'],1,right,['9'],5,0.24055149999958303,,,58333,19,Vrouw,Rechts,1,
,dotcolour,dotcolour,dotcolour,55,3,235,235,main,positivefb,-99,hard,36,0.4496232000001328,['n'],1,right,['9'],5,0.19008359999997992,,,58333,19,Vrouw,Rechts,1,
,dotcolour,dotcolour,dotcolour,56,3,236,236,main,positivefb,-99,hard,44,0.4328998999999385,['c'],1,left,['9'],5,0.20627979999972013,,,58333,19,Vrouw,Rechts,1,
,dotcolour,dotcolour,dotcolour,57,3,237,237,main,positivefb,-99,easy,64,0.48241760000018985,['c'],1,left,['9'],5,0.15551430000004984,,,58333,19,Vrouw,Rechts,1,
,dotcolour,dotcolour,dotcolour,58,3,238,238,main,positivefb,-99,hard,35,0.5832977999998548,['n'],1,right,['9'],5,0.1179124000000229,,,58333,19,Vrouw,Rechts,1,
,dotcolour,dotcolour,dotcolour,59,3,239,239,main,positivefb,-99,easy,15,0.5003556000001481,['n'],1,right,['9'],5,0.18997499999977663,,,58333,19,Vrouw,Rechts,1,
,dotcolour,dotcolour,dotcolour,0,4,240,240,main,positivefb,-99,easy,16,0.5500254999997196,['n'],1,right,['9'],5,0.21511809999992693,,,58333,19,Vrouw,Rechts,1,
,dotcolour,dotcolour,dotcolour,1,4,241,241,main,positivefb,-99,hard,44,0.5510236999998597,['c'],1,left,['9'],5,0.15311670000028244,,,58333,19,Vrouw,Rechts,1,
,dotcolour,dotcolour,dotcolour,2,4,242,242,main,positivefb,-99,easy,61,0.45120760000008886,['c'],1,left,['9'],5,0.20925260000012713,,,58333,19,Vrouw,Rechts,1,
,dotcolour,dotcolour,dotcolour,3,4,243,243,main,positivefb,-99,easy,16,0.6004472999998143,['n'],1,right,['9'],5,0.17828740000004473,,,58333,19,Vrouw,Rechts,1,
,dotcolour,dotcolour,dotcolour,4,4,244,244,main,positivefb,-99,easy,63,0.3503584999998566,['n'],0,left,['2'],2,0.7025066000001061,,,58333,19,Vrouw,Rechts,1,
,dotcolour,dotcolour,dotcolour,5,4,245,245,main,positivefb,-99,average,51,1.3007384000002276,['n'],0,left,['9'],5,0.20698489999995218,,,58333,19,Vrouw,Rechts,1,
,dotcolour,dotcolour,dotcolour,6,4,246,246,main,positivefb,-99,hard,42,2.1177669999997306,['c'],1,left,['9'],5,0.595177700000022,,,58333,19,Vrouw,Rechts,1,
,dotcolour,dotcolour,dotcolour,7,4,247,247,main,positivefb,-99,average,51,0.8172081999996408,['c'],1,left,['9'],5,0.13968629999999393,,,58333,19,Vrouw,Rechts,1,
,dotcolour,dotcolour,dotcolour,8,4,248,248,main,positivefb,-99,average,52,1.2834732999999687,['c'],1,left,['9'],5,0.6123800000000301,,,58333,19,Vrouw,Rechts,1,
,dotcolour,dotcolour,dotcolour,9,4,249,249,main,positivefb,-99,hard,36,0.5671188999999686,['n'],1,right,['9'],5,0.19785159999992175,,,58333,19,Vrouw,Rechts,1,
,dotcolour,dotcolour,dotcolour,10,4,250,250,main,positivefb,-99,hard,36,0.46820930000012595,['n'],1,right,['9'],5,0.16353839999965203,,,58333,19,Vrouw,Rechts,1,
,dotcolour,dotcolour,dotcolour,11,4,251,251,main,positivefb,-99,hard,37,0.6674944000001233,['n'],1,right,['9'],5,0.18722470000011526,,,58333,19,Vrouw,Rechts,1,
,dotcolour,dotcolour,dotcolour,12,4,252,252,main,positivefb,-99,easy,15,0.40141789999961475,['n'],1,right,['9'],5,0.22923360000004323,,,58333,19,Vrouw,Rechts,1,
,dotcolour,dotcolour,dotcolour,13,4,253,253,main,positivefb,-99,average,26,0.3675489000002017,['n'],1,right,['9'],5,0.24666879999995217,,,58333,19,Vrouw,Rechts,1,
,dotcolour,dotcolour,dotcolour,14,4,254,254,main,positivefb,-99,average,52,0.35056589999976495,['n'],0,left,['2'],2,0.6954031999998733,,,58333,19,Vrouw,Rechts,1,
,dotcolour,dotcolour,dotcolour,15,4,255,255,main,positivefb,-99,hard,35,0.5676988000000165,['n'],1,right,['9'],5,0.22240830000009737,,,58333,19,Vrouw,Rechts,1,
,dotcolour,dotcolour,dotcolour,16,4,256,256,main,positivefb,-99,easy,15,0.3823465999998916,['n'],1,right,['9'],5,0.24709280000024592,,,58333,19,Vrouw,Rechts,1,
,dotcolour,dotcolour,dotcolour,17,4,257,257,main,positivefb,-99,easy,17,0.4166230999999243,['n'],1,right,['9'],5,0.26202909999983603,,,58333,19,Vrouw,Rechts,1,
,dotcolour,dotcolour,dotcolour,18,4,258,258,main,positivefb,-99,hard,38,0.3662139999996725,['n'],1,right,['9'],5,0.23785670000006576,,,58333,19,Vrouw,Rechts,1,
,dotcolour,dotcolour,dotcolour,19,4,259,259,main,positivefb,-99,easy,65,0.5670270000000528,['c'],1,left,['9'],5,0.17485900000019683,,,58333,19,Vrouw,Rechts,1,
,dotcolour,dotcolour,dotcolour,20,4,260,260,main,positivefb,-99,average,26,0.8671967000000222,['n'],1,right,['9'],5,0.5733817999998791,,,58333,19,Vrouw,Rechts,1,
,dotcolour,dotcolour,dotcolour,21,4,261,261,main,positivefb,-99,easy,65,0.5673686000000089,['c'],1,left,['9'],5,0.24921489999996993,,,58333,19,Vrouw,Rechts,1,
,dotcolour,dotcolour,dotcolour,22,4,262,262,main,positivefb,-99,hard,38,0.7839733999999225,['n'],1,right,['9'],5,0.16007889999991676,,,58333,19,Vrouw,Rechts,1,
,dotcolour,dotcolour,dotcolour,23,4,263,263,main,positivefb,-99,average,28,0.6682789000001321,['n'],1,right,['9'],5,0.200861199999963,,,58333,19,Vrouw,Rechts,1,
,dotcolour,dotcolour,dotcolour,24,4,264,264,main,positivefb,-99,hard,42,0.45047139999996944,['n'],0,left,['9'],5,0.23162470000033863,,,58333,19,Vrouw,Rechts,1,
,dotcolour,dotcolour,dotcolour,25,4,265,265,main,positivefb,-99,easy,64,0.3335642000001826,['c'],1,left,['9'],5,0.2573122000003423,,,58333,19,Vrouw,Rechts,1,
,dotcolour,dotcolour,dotcolour,26,4,266,266,main,positivefb,-99,average,54,0.5176950999998553,['c'],1,left,['9'],5,0.1796329999997397,,,58333,19,Vrouw,Rechts,1,
,dotcolour,dotcolour,dotcolour,27,4,267,267,main,positivefb,-99,easy,18,0.6349547999998322,['n'],1,right,['9'],5,0.25195720000010624,,,58333,19,Vrouw,Rechts,1,
,dotcolour,dotcolour,dotcolour,28,4,268,268,main,positivefb,-99,average,25,0.4513726999998653,['n'],1,right,['9'],5,0.26503580000007787,,,58333,19,Vrouw,Rechts,1,
,dotcolour,dotcolour,dotcolour,29,4,269,269,main,positivefb,-99,average,28,0.4338351999999759,['n'],1,right,['9'],5,0.30920500000001994,,,58333,19,Vrouw,Rechts,1,
,dotcolour,dotcolour,dotcolour,30,4,270,270,main,positivefb,-99,hard,36,0.5673722000001362,['c'],0,right,['2'],2,0.5789644999999837,,,58333,19,Vrouw,Rechts,1,
,dotcolour,dotcolour,dotcolour,31,4,271,271,main,positivefb,-99,hard,45,1.1843208000000232,['c'],1,left,['2'],2,0.3095944000001509,,,58333,19,Vrouw,Rechts,1,
,dotcolour,dotcolour,dotcolour,32,4,272,272,main,positivefb,-99,average,27,0.5333968999998433,['n'],1,right,['9'],5,0.18915000000015425,,,58333,19,Vrouw,Rechts,1,
,dotcolour,dotcolour,dotcolour,33,4,273,273,main,positivefb,-99,easy,18,0.3681378000001132,['n'],1,right,['9'],5,0.1442285000002812,,,58333,19,Vrouw,Rechts,1,
,dotcolour,dotcolour,dotcolour,34,4,274,274,main,positivefb,-99,hard,45,0.568041699999867,['c'],1,left,['9'],5,0.14826680000032866,,,58333,19,Vrouw,Rechts,1,
,dotcolour,dotcolour,dotcolour,35,4,275,275,main,positivefb,-99,easy,61,0.5009214000001521,['c'],1,left,['9'],5,0.1634660999998232,,,58333,19,Vrouw,Rechts,1,
,dotcolour,dotcolour,dotcolour,36,4,276,276,main,positivefb,-99,average,53,0.4847678999999516,['c'],1,left,['9'],5,0.13046810000014375,,,58333,19,Vrouw,Rechts,1,
,dotcolour,dotcolour,dotcolour,37,4,277,277,main,positivefb,-99,hard,35,0.3525743000000148,['n'],1,right,['9'],5,0.2090978000001087,,,58333,19,Vrouw,Rechts,1,
,dotcolour,dotcolour,dotcolour,38,4,278,278,main,positivefb,-99,hard,45,0.35113289999981134,['n'],0,left,['9'],5,0.15569420000019818,,,58333,19,Vrouw,Rechts,1,
,dotcolour,dotcolour,dotcolour,39,4,279,279,main,positivefb,-99,easy,15,0.317008199999691,['n'],1,right,['9'],5,0.1373914999999215,,,58333,19,Vrouw,Rechts,1,
,dotcolour,dotcolour,dotcolour,40,4,280,280,main,positivefb,-99,average,51,0.4510686999997233,['n'],0,left,['9'],5,0.1546014999998988,,,58333,19,Vrouw,Rechts,1,
,dotcolour,dotcolour,dotcolour,41,4,281,281,main,positivefb,-99,average,25,0.5845816999999442,['n'],1,right,['9'],5,0.10959529999990991,,,58333,19,Vrouw,Rechts,1,
,dotcolour,dotcolour,dotcolour,42,4,282,282,main,positivefb,-99,hard,42,1.5167919999998958,['c'],1,left,['3'],3,0.9981107999997221,,,58333,19,Vrouw,Rechts,1,
,dotcolour,dotcolour,dotcolour,43,4,283,283,main,positivefb,-99,easy,17,0.7511690000001181,['n'],1,right,['9'],5,0.2165301999998519,,,58333,19,Vrouw,Rechts,1,
,dotcolour,dotcolour,dotcolour,44,4,284,284,main,positivefb,-99,hard,42,0.5684016000000156,['n'],0,left,['9'],5,0.13805350000029648,,,58333,19,Vrouw,Rechts,1,
,dotcolour,dotcolour,dotcolour,45,4,285,285,main,positivefb,-99,average,29,0.4512693000001491,['n'],1,right,['9'],5,0.13128490000008242,,,58333,19,Vrouw,Rechts,1,
,dotcolour,dotcolour,dotcolour,46,4,286,286,main,positivefb,-99,average,55,0.7677698000002238,['c'],1,left,['9'],5,0.1998214000000189,,,58333,19,Vrouw,Rechts,1,
,dotcolour,dotcolour,dotcolour,47,4,287,287,main,positivefb,-99,easy,63,0.36759840000013355,['c'],1,left,['9'],5,0.20214480000004187,,,58333,19,Vrouw,Rechts,1,
,dotcolour,dotcolour,dotcolour,48,4,288,288,main,positivefb,-99,easy,18,0.46763590000000477,['n'],1,right,['9'],5,0.21617979999973613,,,58333,19,Vrouw,Rechts,1,
,dotcolour,dotcolour,dotcolour,49,4,289,289,main,positivefb,-99,average,51,0.3676620000001094,['c'],1,left,['9'],5,0.1775390000002517,,,58333,19,Vrouw,Rechts,1,
,dotcolour,dotcolour,dotcolour,50,4,290,290,main,positivefb,-99,hard,36,0.5018918000000667,['n'],1,right,['9'],5,0.15962459999991552,,,58333,19,Vrouw,Rechts,1,
,dotcolour,dotcolour,dotcolour,51,4,291,291,main,positivefb,-99,easy,65,0.3179089999998723,['c'],1,left,['9'],5,0.1891349999996237,,,58333,19,Vrouw,Rechts,1,
,dotcolour,dotcolour,dotcolour,52,4,292,292,main,positivefb,-99,hard,45,0.4338615000001482,['c'],1,left,['9'],5,0.11709780000001047,,,58333,19,Vrouw,Rechts,1,
,dotcolour,dotcolour,dotcolour,53,4,293,293,main,positivefb,-99,hard,38,1.0831198999999287,['c'],0,right,['3'],3,0.30175080000026355,,,58333,19,Vrouw,Rechts,1,
,dotcolour,dotcolour,dotcolour,54,4,294,294,main,positivefb,-99,average,53,0.6353359999998247,['c'],1,left,['9'],5,0.9136834999999337,,,58333,19,Vrouw,Rechts,1,
,dotcolour,dotcolour,dotcolour,55,4,295,295,main,positivefb,-99,easy,62,0.5341779000000315,['c'],1,left,['9'],5,0.18500270000004093,,,58333,19,Vrouw,Rechts,1,
,dotcolour,dotcolour,dotcolour,56,4,296,296,main,positivefb,-99,hard,44,1.233977700000196,['c'],1,left,['3'],3,0.2812896999998884,,,58333,19,Vrouw,Rechts,1,
,dotcolour,dotcolour,dotcolour,57,4,297,297,main,positivefb,-99,average,28,0.6340665000002446,['n'],1,right,['9'],5,0.16497500000014043,,,58333,19,Vrouw,Rechts,1,
,dotcolour,dotcolour,dotcolour,58,4,298,298,main,positivefb,-99,easy,62,0.5172098999996706,['c'],1,left,['9'],5,0.2429440999999315,,,58333,19,Vrouw,Rechts,1,
,dotcolour,dotcolour,dotcolour,59,4,299,299,main,positivefb,-99,average,25,0.5504525000001195,['n'],1,right,['9'],5,0.11522980000017924,,,58333,19,Vrouw,Rechts,1,
,dotcolour,dotcolour,dotcolour,0,0,0,300,training,positivefb,95,average,28,0.7341576000003442,['n'],1,right,['9'],5,1.7051375000000917,,,58333,19,Vrouw,Rechts,1,
,dotcolour,dotcolour,dotcolour,1,0,1,301,training,positivefb,93,easy,61,0.7499711999998908,['c'],1,left,['9'],5,0.20548599999983708,,,58333,19,Vrouw,Rechts,1,
,dotcolour,dotcolour,dotcolour,2,0,2,302,training,positivefb,70,average,51,1.1174660000001495,['n'],0,left,['9'],5,0.41713960000015504,,,58333,19,Vrouw,Rechts,1,
,dotcolour,dotcolour,dotcolour,3,0,3,303,training,positivefb,97,easy,17,0.549547099999927,['n'],1,right,['9'],5,0.18631580000010217,,,58333,19,Vrouw,Rechts,1,
,dotcolour,dotcolour,dotcolour,4,0,4,304,training,positivefb,86,average,52,0.5174385000000257,['c'],1,left,['9'],5,0.16618340000013632,,,58333,19,Vrouw,Rechts,1,
,dotcolour,dotcolour,dotcolour,5,0,5,305,training,positivefb,99,average,53,0.5832566999997653,['c'],1,left,['9'],5,0.08868950000032783,,,58333,19,Vrouw,Rechts,1,
,dotcolour,dotcolour,dotcolour,6,0,6,306,training,positivefb,96,hard,42,0.5830808000000616,['n'],0,left,['9'],5,0.1740113000000747,,,58333,19,Vrouw,Rechts,1,
,dotcolour,dotcolour,dotcolour,7,0,7,307,training,positivefb,97,average,26,0.24917690000029324,['c'],0,right,['9'],5,0.14059929999984888,,,58333,19,Vrouw,Rechts,1,
,dotcolour,dotcolour,dotcolour,8,0,8,308,training,positivefb,100,easy,62,0.23159099999975297,['c'],1,left,['9'],5,0.1743138000001636,,,58333,19,Vrouw,Rechts,1,
,dotcolour,dotcolour,dotcolour,9,0,9,309,training,positivefb,99,hard,45,0.24897349999992002,['c'],1,left,['9'],5,0.15034640000021682,,,58333,19,Vrouw,Rechts,1,
,dotcolour,dotcolour,dotcolour,10,0,10,310,training,positivefb,99,hard,42,0.232041400000071,['c'],1,left,['9'],5,0.07852090000005774,,,58333,19,Vrouw,Rechts,1,
,dotcolour,dotcolour,dotcolour,11,0,11,311,training,positivefb,99,average,28,0.12605189999976574,['n'],1,right,['9'],5,0.04452800000035495,,,58333,19,Vrouw,Rechts,1,
,dotcolour,dotcolour,dotcolour,12,0,12,312,training,positivefb,90,average,26,0.250193599999875,['c'],0,right,['9'],5,0.12074750000010681,,,58333,19,Vrouw,Rechts,1,
,dotcolour,dotcolour,dotcolour,13,0,13,313,training,positivefb,99,easy,19,0.566868599999907,['n'],1,right,['9'],5,0.14109460000008767,,,58333,19,Vrouw,Rechts,1,
,dotcolour,dotcolour,dotcolour,14,0,14,314,training,positivefb,97,easy,62,0.5661638000001403,['c'],1,left,['9'],5,0.12949029999981576,,,58333,19,Vrouw,Rechts,1,
,dotcolour,dotcolour,dotcolour,15,0,15,315,training,positivefb,93,easy,19,0.4999784000001455,['n'],1,right,['9'],5,0.1290979000000334,,,58333,19,Vrouw,Rechts,1,
,dotcolour,dotcolour,dotcolour,16,0,16,316,training,positivefb,99,easy,15,0.5001294000003327,['n'],1,right,['9'],5,0.14426100000036968,,,58333,19,Vrouw,Rechts,1,
,dotcolour,dotcolour,dotcolour,17,0,17,317,training,positivefb,98,hard,41,0.36655359999986104,['n'],0,left,['9'],5,0.11547350000000733,,,58333,19,Vrouw,Rechts,1,
,dotcolour,dotcolour,dotcolour,18,0,18,318,training,positivefb,95,easy,18,0.5681070000000545,['n'],1,right,['9'],5,0.11302810000006502,,,58333,19,Vrouw,Rechts,1,
,dotcolour,dotcolour,dotcolour,19,0,19,319,training,positivefb,92,average,28,0.5491632000002937,['n'],1,right,['9'],5,0.16692980000016178,,,58333,19,Vrouw,Rechts,1,
,dotcolour,dotcolour,dotcolour,20,0,20,320,training,positivefb,87,easy,15,0.400029099999756,['n'],1,right,['9'],5,0.1282983000000968,,,58333,19,Vrouw,Rechts,1,
,dotcolour,dotcolour,dotcolour,21,0,21,321,training,positivefb,100,easy,15,0.2669386000002305,['n'],1,right,['9'],5,0.13665639999999257,,,58333,19,Vrouw,Rechts,1,
,dotcolour,dotcolour,dotcolour,22,0,22,322,training,positivefb,88,hard,41,0.25014820000023974,['n'],0,left,['9'],5,0.20155560000011974,,,58333,19,Vrouw,Rechts,1,
,dotcolour,dotcolour,dotcolour,23,0,23,323,training,positivefb,99,easy,61,0.23259069999994608,['c'],1,left,['9'],5,0.0722993000003953,,,58333,19,Vrouw,Rechts,1,
,dotcolour,dotcolour,dotcolour,24,0,24,324,training,positivefb,77,average,53,0.34911369999963426,['c'],1,left,['3'],3,1.6960782000001018,,,58333,19,Vrouw,Rechts,1,
,dotcolour,dotcolour,dotcolour,25,0,25,325,training,positivefb,96,average,27,0.3845814999999675,['c'],0,right,['9'],5,0.06034840000029362,,,58333,19,Vrouw,Rechts,1,
,dotcolour,dotcolour,dotcolour,26,0,26,326,training,positivefb,92,hard,43,0.766580100000283,['c'],1,left,['9'],5,0.14720870000019204,,,58333,19,Vrouw,Rechts,1,
,dotcolour,dotcolour,dotcolour,27,0,27,327,training,positivefb,97,hard,37,0.2317644999998265,['c'],0,right,['9'],5,0.08523019999984172,,,58333,19,Vrouw,Rechts,1,
,dotcolour,dotcolour,dotcolour,28,0,28,328,training,positivefb,18,easy,19,0.24926649999997608,['c'],0,right,['3'],3,0.8478506000001289,,,58333,19,Vrouw,Rechts,1,
,dotcolour,dotcolour,dotcolour,29,0,29,329,training,positivefb,93,average,53,0.9846449000001485,['n'],0,left,['9'],5,0.49463379999997414,,,58333,19,Vrouw,Rechts,1,
,dotcolour,dotcolour,dotcolour,30,0,30,330,training,positivefb,95,average,29,0.5328595999999379,['n'],1,right,['9'],5,0.11032090000026074,,,58333,19,Vrouw,Rechts,1,
,dotcolour,dotcolour,dotcolour,31,0,31,331,training,positivefb,98,average,52,0.23346010000022943,['c'],1,left,['9'],5,1.888699799999813,,,58333,19,Vrouw,Rechts,1,
,dotcolour,dotcolour,dotcolour,32,0,32,332,training,positivefb,98,easy,61,0.551054799999747,['c'],1,left,['9'],5,0.09458050000012008,,,58333,19,Vrouw,Rechts,1,
,dotcolour,dotcolour,dotcolour,33,0,33,333,training,positivefb,98,hard,39,0.3001024000000143,['n'],1,right,['9'],5,0.17497000000003027,,,58333,19,Vrouw,Rechts,1,
,dotcolour,dotcolour,dotcolour,34,0,34,334,training,positivefb,97,hard,36,0.583332000000155,['c'],0,right,['3'],3,0.377253600000131,,,58333,19,Vrouw,Rechts,1,
,dotcolour,dotcolour,dotcolour,35,0,35,335,training,positivefb,98,easy,64,0.26775580000003174,['c'],1,left,['3'],3,0.12741430000005494,,,58333,19,Vrouw,Rechts,1,
,dotcolour,dotcolour,dotcolour,36,0,36,336,training,positivefb,86,average,26,0.6661556999997629,['n'],1,right,['9'],5,0.09593539999968925,,,58333,19,Vrouw,Rechts,1,
,dotcolour,dotcolour,dotcolour,37,0,37,337,training,positivefb,96,average,52,0.48291040000003704,['c'],1,left,['9'],5,0.11385350000000471,,,58333,19,Vrouw,Rechts,1,
,dotcolour,dotcolour,dotcolour,38,0,38,338,training,positivefb,97,hard,43,0.36588239999991856,['c'],1,left,['9'],5,0.25515360000008513,,,58333,19,Vrouw,Rechts,1,
,dotcolour,dotcolour,dotcolour,39,0,39,339,training,positivefb,91,average,29,0.6001728999999614,['n'],1,right,['9'],5,0.10108660000014424,,,58333,19,Vrouw,Rechts,1,
,dotcolour,dotcolour,dotcolour,40,0,40,340,training,positivefb,99,hard,38,0.28296229999978095,['c'],0,right,['9'],5,0.15823719999980312,,,58333,19,Vrouw,Rechts,1,
,dotcolour,dotcolour,dotcolour,41,0,41,341,training,positivefb,81,hard,37,0.26616089999970427,['n'],1,right,['9'],5,0.11771399999997811,,,58333,19,Vrouw,Rechts,1,
,dotcolour,dotcolour,dotcolour,42,0,42,342,training,positivefb,100,easy,61,0.11479039999994711,['c'],1,left,['3'],3,0.025214499999947293,,,58333,19,Vrouw,Rechts,1,
,dotcolour,dotcolour,dotcolour,43,0,43,343,training,positivefb,99,easy,65,0.41701430000011896,['c'],1,left,['9'],5,0.519615000000158,,,58333,19,Vrouw,Rechts,1,
,dotcolour,dotcolour,dotcolour,44,0,44,344,training,positivefb,98,hard,36,0.7330800999998246,['n'],1,right,['3'],3,0.5013284999999996,,,58333,19,Vrouw,Rechts,1,
,dotcolour,dotcolour,dotcolour,45,0,45,345,training,positivefb,75,hard,41,0.6163636000001134,['n'],0,left,['9'],5,0.12064559999998892,,,58333,19,Vrouw,Rechts,1,
,dotcolour,dotcolour,dotcolour,46,0,46,346,training,positivefb,95,hard,36,0.5499716999997872,['n'],1,right,['9'],5,0.10175309999976889,,,58333,19,Vrouw,Rechts,1,
,dotcolour,dotcolour,dotcolour,47,0,47,347,training,positivefb,89,average,52,0.6672991000000366,['n'],0,left,['9'],5,0.13540430000011838,,,58333,19,Vrouw,Rechts,1,
,dotcolour,dotcolour,dotcolour,48,0,48,348,training,positivefb,28,easy,61,0.6335048999999344,['n'],0,left,['3'],3,0.6884644000001572,,,58333,19,Vrouw,Rechts,1,
,dotcolour,dotcolour,dotcolour,49,0,49,349,training,positivefb,94,hard,44,0.6670831000001272,['c'],1,left,['9'],5,0.162746700000298,,,58333,19,Vrouw,Rechts,1,
,dotcolour,dotcolour,dotcolour,50,0,50,350,training,positivefb,92,hard,44,0.9501068999998097,['c'],1,left,['9'],5,0.11948670000037964,,,58333,19,Vrouw,Rechts,1,
,dotcolour,dotcolour,dotcolour,51,0,51,351,training,positivefb,56,easy,16,5.516470000000027,['c'],0,right,['8'],4,0.9981889000000592,,,58333,19,Vrouw,Rechts,1,
,dotcolour,dotcolour,dotcolour,52,0,52,352,training,positivefb,52,hard,38,1.8161635999999817,['n'],1,right,['3'],3,0.9260792999998557,,,58333,19,Vrouw,Rechts,1,
,dotcolour,dotcolour,dotcolour,53,0,53,353,training,positivefb,89,average,51,1.0844849999998587,['n'],0,left,['8'],4,0.16607440000007045,,,58333,19,Vrouw,Rechts,1,
,dotcolour,dotcolour,dotcolour,54,0,54,354,training,positivefb,75,easy,63,0.9501897999998619,['c'],1,left,['3'],3,0.24143550000007963,,,58333,19,Vrouw,Rechts,1,
,dotcolour,dotcolour,dotcolour,55,0,55,355,training,positivefb,97,hard,35,0.517330800000309,['n'],1,right,['9'],5,0.3635185999996793,,,58333,19,Vrouw,Rechts,1,
,dotcolour,dotcolour,dotcolour,56,0,56,356,training,positivefb,96,average,27,0.4997223000000304,['n'],1,right,['9'],5,0.19317990000035934,,,58333,19,Vrouw,Rechts,1,
,dotcolour,dotcolour,dotcolour,57,0,57,357,training,positivefb,89,hard,38,0.4840259000002334,['n'],1,right,['1'],1,0.2549103000001196,,,58333,19,Vrouw,Rechts,1,
,dotcolour,dotcolour,dotcolour,58,0,58,358,training,positivefb,95,easy,18,0.4334036999998716,['n'],1,right,['1'],1,0.299821300000076,,,58333,19,Vrouw,Rechts,1,
,dotcolour,dotcolour,dotcolour,59,0,59,359,training,positivefb,91,average,54,0.700561000000107,['c'],1,left,['9'],5,0.09991940000008981,,,58333,19,Vrouw,Rechts,1,
,dotcolour,dotcolour,dotcolour,0,1,60,360,training,positivefb,71,hard,42,1.6667050999999447,['n'],0,left,['9'],5,0.9475875000002816,,,58333,19,Vrouw,Rechts,1,
,dotcolour,dotcolour,dotcolour,1,1,61,361,training,positivefb,89,hard,35,1.4004487999995945,['n'],1,right,['9'],5,0.3982467999999244,,,58333,19,Vrouw,Rechts,1,
,dotcolour,dotcolour,dotcolour,2,1,62,362,training,positivefb,98,average,54,0.4328537999999753,['c'],1,left,['9'],5,0.284390500000427,,,58333,19,Vrouw,Rechts,1,
,dotcolour,dotcolour,dotcolour,3,1,63,363,training,positivefb,93,average,53,0.49975799999992887,['n'],0,left,['9'],5,0.14911660000007032,,,58333,19,Vrouw,Rechts,1,
,dotcolour,dotcolour,dotcolour,4,1,64,364,training,positivefb,96,hard,38,0.46640860000024986,['n'],1,right,['9'],5,0.14841649999971196,,,58333,19,Vrouw,Rechts,1,
,dotcolour,dotcolour,dotcolour,5,1,65,365,training,positivefb,26,easy,61,0.4836749000000964,['n'],0,left,['2'],2,0.7153204000001097,,,58333,19,Vrouw,Rechts,1,
,dotcolour,dotcolour,dotcolour,6,1,66,366,training,positivefb,98,easy,63,0.4995723000001817,['c'],1,left,['2'],2,0.22639600000002247,,,58333,19,Vrouw,Rechts,1,
,dotcolour,dotcolour,dotcolour,7,1,67,367,training,positivefb,96,easy,65,0.566167200000109,['c'],1,left,['9'],5,0.1792236999999659,,,58333,19,Vrouw,Rechts,1,
,dotcolour,dotcolour,dotcolour,8,1,68,368,training,positivefb,97,easy,17,0.5003178000001753,['n'],1,right,['9'],5,0.12028860000009445,,,58333,19,Vrouw,Rechts,1,
,dotcolour,dotcolour,dotcolour,9,1,69,369,training,positivefb,91,easy,62,0.44934520000015254,['c'],1,left,['9'],5,0.08956540000008317,,,58333,19,Vrouw,Rechts,1,
,dotcolour,dotcolour,dotcolour,10,1,70,370,training,positivefb,98,hard,43,0.6828466000001754,['n'],0,left,['9'],5,0.09051730000010139,,,58333,19,Vrouw,Rechts,1,
,dotcolour,dotcolour,dotcolour,11,1,71,371,training,positivefb,97,easy,61,0.48377830000026734,['c'],1,left,['9'],5,0.09233590000030745,,,58333,19,Vrouw,Rechts,1,
,dotcolour,dotcolour,dotcolour,12,1,72,372,training,positivefb,97,hard,37,0.5334788999998636,['n'],1,right,['9'],5,0.13162450000027093,,,58333,19,Vrouw,Rechts,1,
,dotcolour,dotcolour,dotcolour,13,1,73,373,training,positivefb,99,hard,44,0.2842638000001898,['c'],1,left,['9'],5,0.18721440000035727,,,58333,19,Vrouw,Rechts,1,
,dotcolour,dotcolour,dotcolour,14,1,74,374,training,positivefb,98,hard,41,0.19025719999990542,['c'],1,left,['9'],5,0.052642699999978504,,,58333,19,Vrouw,Rechts,1,
,dotcolour,dotcolour,dotcolour,15,1,75,375,training,positivefb,93,average,25,0.2168087000000014,['c'],0,right,['9'],5,0.13712820000000647,,,58333,19,Vrouw,Rechts,1,
,dotcolour,dotcolour,dotcolour,16,1,76,376,training,positivefb,98,average,26,0.4675513000001956,['n'],1,right,['9'],5,0.14588409999987562,,,58333,19,Vrouw,Rechts,1,
,dotcolour,dotcolour,dotcolour,17,1,77,377,training,positivefb,62,easy,17,0.4171968000000561,['c'],0,right,['2'],2,0.5395826999997553,,,58333,19,Vrouw,Rechts,1,
,dotcolour,dotcolour,dotcolour,18,1,78,378,training,positivefb,90,hard,39,0.5668608000000859,['n'],1,right,['9'],5,0.1752344000001358,,,58333,19,Vrouw,Rechts,1,
,dotcolour,dotcolour,dotcolour,19,1,79,379,training,positivefb,96,easy,16,0.5996140999995987,['n'],1,right,['9'],5,0.12870799999973315,,,58333,19,Vrouw,Rechts,1,
,dotcolour,dotcolour,dotcolour,20,1,80,380,training,positivefb,94,hard,41,0.5495725000000675,['n'],0,left,['9'],5,0.15012830000023314,,,58333,19,Vrouw,Rechts,1,
,dotcolour,dotcolour,dotcolour,21,1,81,381,training,positivefb,97,average,27,0.5338916000000609,['n'],1,right,['9'],5,0.14623379999966346,,,58333,19,Vrouw,Rechts,1,
,dotcolour,dotcolour,dotcolour,22,1,82,382,training,positivefb,98,easy,15,0.4507668000001104,['n'],1,right,['8'],4,0.09992499999998472,,,58333,19,Vrouw,Rechts,1,
,dotcolour,dotcolour,dotcolour,23,1,83,383,training,positivefb,94,easy,62,0.4837241999998696,['c'],1,left,['9'],5,0.16420319999997446,,,58333,19,Vrouw,Rechts,1,
,dotcolour,dotcolour,dotcolour,24,1,84,384,training,positivefb,94,easy,18,0.9006964000000153,['n'],1,right,['9'],5,0.1702040999998644,,,58333,19,Vrouw,Rechts,1,
,dotcolour,dotcolour,dotcolour,25,1,85,385,training,positivefb,93,hard,42,0.7005159999998796,['n'],0,left,['9'],5,0.28693820000034975,,,58333,19,Vrouw,Rechts,1,
,dotcolour,dotcolour,dotcolour,26,1,86,386,training,positivefb,97,average,52,0.4324557999998433,['c'],1,left,['9'],5,0.19422549999990224,,,58333,19,Vrouw,Rechts,1,
,dotcolour,dotcolour,dotcolour,27,1,87,387,training,positivefb,98,hard,37,0.4338348000001133,['n'],1,right,['9'],5,0.1532560000000558,,,58333,19,Vrouw,Rechts,1,
,dotcolour,dotcolour,dotcolour,28,1,88,388,training,positivefb,98,easy,16,0.44958730000007563,['n'],1,right,['9'],5,0.20185889999993378,,,58333,19,Vrouw,Rechts,1,
,dotcolour,dotcolour,dotcolour,29,1,89,389,training,positivefb,94,hard,37,0.6003995000000941,['n'],1,right,['9'],5,0.17746579999993628,,,58333,19,Vrouw,Rechts,1,
,dotcolour,dotcolour,dotcolour,30,1,90,390,training,positivefb,97,average,53,0.5673545999998169,['c'],1,left,['9'],5,0.3639769999999771,,,58333,19,Vrouw,Rechts,1,
,dotcolour,dotcolour,dotcolour,31,1,91,391,training,positivefb,88,average,55,0.45097519999990254,['c'],1,left,['9'],5,0.08369220000031419,,,58333,19,Vrouw,Rechts,1,
,dotcolour,dotcolour,dotcolour,32,1,92,392,training,positivefb,97,average,28,0.4821762999999919,['n'],1,right,['9'],5,0.10089370000014242,,,58333,19,Vrouw,Rechts,1,
,dotcolour,dotcolour,dotcolour,33,1,93,393,training,positivefb,97,easy,17,0.5173955000000205,['n'],1,right,['9'],5,0.8280655000003208,,,58333,19,Vrouw,Rechts,1,
,dotcolour,dotcolour,dotcolour,34,1,94,394,training,positivefb,98,average,27,0.3503467999998975,['n'],1,right,['9'],5,0.23805570000013176,,,58333,19,Vrouw,Rechts,1,
,dotcolour,dotcolour,dotcolour,35,1,95,395,training,positivefb,93,hard,41,0.39969550000023446,['n'],0,left,['9'],5,0.5240647000000536,,,58333,19,Vrouw,Rechts,1,
,dotcolour,dotcolour,dotcolour,36,1,96,396,training,positivefb,97,average,55,0.6331257000001642,['c'],1,left,['9'],5,0.12636860000020533,,,58333,19,Vrouw,Rechts,1,
,dotcolour,dotcolour,dotcolour,37,1,97,397,training,positivefb,96,average,26,0.43284670000002734,['n'],1,right,['9'],5,0.11190139999962412,,,58333,19,Vrouw,Rechts,1,
,dotcolour,dotcolour,dotcolour,38,1,98,398,training,positivefb,98,hard,39,0.5503883999999744,['n'],1,right,['9'],5,0.08647080000037022,,,58333,19,Vrouw,Rechts,1,
,dotcolour,dotcolour,dotcolour,39,1,99,399,training,positivefb,96,average,54,0.46615750000000844,['c'],1,left,['9'],5,0.0881600999996408,,,58333,19,Vrouw,Rechts,1,
,dotcolour,dotcolour,dotcolour,40,1,100,400,training,positivefb,98,easy,62,0.48364559999981793,['c'],1,left,['9'],5,0.08199289999993198,,,58333,19,Vrouw,Rechts,1,
,dotcolour,dotcolour,dotcolour,41,1,101,401,training,positivefb,96,hard,39,0.8836356000001615,['c'],0,right,['9'],5,0.051257300000088435,,,58333,19,Vrouw,Rechts,1,
,dotcolour,dotcolour,dotcolour,42,1,102,402,training,positivefb,85,easy,18,0.5343736999998328,['n'],1,right,['9'],5,0.08356610000009823,,,58333,19,Vrouw,Rechts,1,
,dotcolour,dotcolour,dotcolour,43,1,103,403,training,positivefb,96,easy,62,0.6831265000000712,['c'],1,left,['9'],5,0.6689922999998998,,,58333,19,Vrouw,Rechts,1,
,dotcolour,dotcolour,dotcolour,44,1,104,404,training,positivefb,93,easy,18,0.46667470000011235,['n'],1,right,['9'],5,0.05611170000020138,,,58333,19,Vrouw,Rechts,1,
,dotcolour,dotcolour,dotcolour,45,1,105,405,training,positivefb,93,hard,36,0.500003800000286,['n'],1,right,['9'],5,0.10573479999993651,,,58333,19,Vrouw,Rechts,1,
,dotcolour,dotcolour,dotcolour,46,1,106,406,training,positivefb,98,average,27,0.433775500000138,['n'],1,right,['9'],5,0.0842504000002009,,,58333,19,Vrouw,Rechts,1,
,dotcolour,dotcolour,dotcolour,47,1,107,407,training,positivefb,88,hard,42,0.2500806999996712,['c'],1,left,['9'],5,0.09495100000003731,,,58333,19,Vrouw,Rechts,1,
,dotcolour,dotcolour,dotcolour,48,1,108,408,training,positivefb,98,average,55,0.4514702000001307,['c'],1,left,['9'],5,0.08981500000027154,,,58333,19,Vrouw,Rechts,1,
,dotcolour,dotcolour,dotcolour,49,1,109,409,training,positivefb,96,hard,37,0.5833943000002364,['c'],0,right,['9'],5,0.07170760000008158,,,58333,19,Vrouw,Rechts,1,
,dotcolour,dotcolour,dotcolour,50,1,110,410,training,positivefb,96,easy,15,0.4008960000001025,['n'],1,right,['9'],5,0.060502899999846704,,,58333,19,Vrouw,Rechts,1,
,dotcolour,dotcolour,dotcolour,51,1,111,411,training,positivefb,97,average,52,0.5673632000002726,['c'],1,left,['9'],5,0.08389480000005278,,,58333,19,Vrouw,Rechts,1,
,dotcolour,dotcolour,dotcolour,52,1,112,412,training,positivefb,93,average,27,0.5005654999999933,['n'],1,right,['9'],5,0.092873900000086,,,58333,19,Vrouw,Rechts,1,
,dotcolour,dotcolour,dotcolour,53,1,113,413,training,positivefb,63,easy,62,0.4690129999999044,['n'],0,left,['2'],2,0.7749462000001586,,,58333,19,Vrouw,Rechts,1,
,dotcolour,dotcolour,dotcolour,54,1,114,414,training,positivefb,85,average,27,0.8009408000002622,['n'],1,right,['9'],5,0.13628120000021227,,,58333,19,Vrouw,Rechts,1,
,dotcolour,dotcolour,dotcolour,55,1,115,415,training,positivefb,98,average,53,0.44987019999962286,['c'],1,left,['9'],5,0.1125342999998793,,,58333,19,Vrouw,Rechts,1,
,dotcolour,dotcolour,dotcolour,56,1,116,416,training,positivefb,97,average,26,0.5169109000003118,['n'],1,right,['9'],5,0.05600720000029469,,,58333,19,Vrouw,Rechts,1,
,dotcolour,dotcolour,dotcolour,57,1,117,417,training,positivefb,98,hard,42,0.40037870000014664,['c'],1,left,['9'],5,0.07885850000002392,,,58333,19,Vrouw,Rechts,1,
,dotcolour,dotcolour,dotcolour,58,1,118,418,training,positivefb,28,easy,61,0.41736489999993864,['n'],0,left,['2'],2,0.5388106999998854,,,58333,19,Vrouw,Rechts,1,
,dotcolour,dotcolour,dotcolour,59,1,119,419,training,positivefb,66,hard,42,1.1671389000002819,['n'],0,left,['9'],5,0.6141951999998128,,,58333,19,Vrouw,Rechts,1,
,xotask,dotcolour,dotcolour,0,2,120,420,main,positivefb,-99,easy,,0.9178477999998904,['n'],1,right,['9'],5,0.732635300000311,5,,58333,19,Vrouw,Rechts,1,
,xotask,dotcolour,dotcolour,1,2,121,421,main,positivefb,-99,average,,0.7175797999998395,['n'],1,right,['9'],5,0.12321079999992435,15,,58333,19,Vrouw,Rechts,1,
,xotask,dotcolour,dotcolour,2,2,122,422,main,positivefb,-99,average,,0.6849280000001272,['n'],1,right,['9'],5,0.12346999999999753,15,,58333,19,Vrouw,Rechts,1,
,xotask,dotcolour,dotcolour,3,2,123,423,main,positivefb,-99,hard,,0.5336646999999175,['n'],1,right,['9'],5,0.09098549999998795,27,,58333,19,Vrouw,Rechts,1,
,xotask,dotcolour,dotcolour,4,2,124,424,main,positivefb,-99,average,,0.5660794000000351,['n'],1,right,['9'],5,0.1217252000001281,17,,58333,19,Vrouw,Rechts,1,
,xotask,dotcolour,dotcolour,5,2,125,425,main,positivefb,-99,easy,,0.5338699999997516,['c'],1,left,['9'],5,0.09621420000030412,71,,58333,19,Vrouw,Rechts,1,
,xotask,dotcolour,dotcolour,6,2,126,426,main,positivefb,-99,easy,,0.5838790000002518,['c'],1,left,['9'],5,0.07777950000036071,74,,58333,19,Vrouw,Rechts,1,
,xotask,dotcolour,dotcolour,7,2,127,427,main,positivefb,-99,hard,,0.6844190000001618,['c'],1,left,['9'],5,0.14421679999986736,54,,58333,19,Vrouw,Rechts,1,
,xotask,dotcolour,dotcolour,8,2,128,428,main,positivefb,-99,average,,0.5506006000000525,['c'],1,left,['9'],5,0.16582050000033632,62,,58333,19,Vrouw,Rechts,1,
,xotask,dotcolour,dotcolour,9,2,129,429,main,positivefb,-99,average,,0.6843017999999574,['n'],0,left,['9'],5,0.09213540000018838,60,,58333,19,Vrouw,Rechts,1,
,xotask,dotcolour,dotcolour,10,2,130,430,main,positivefb,-99,hard,,0.5176231000000371,['n'],1,right,['9'],5,0.13320840000005774,29,,58333,19,Vrouw,Rechts,1,
,xotask,dotcolour,dotcolour,11,2,131,431,main,positivefb,-99,easy,,0.5336754999998448,['n'],1,right,['9'],5,0.098445300000094,8,,58333,19,Vrouw,Rechts,1,
,xotask,dotcolour,dotcolour,12,2,132,432,main,positivefb,-99,hard,,0.467814399999952,['n'],1,right,['9'],5,0.14080960000001141,26,,58333,19,Vrouw,Rechts,1,
,xotask,dotcolour,dotcolour,13,2,133,433,main,positivefb,-99,average,,0.5162344999998822,['n'],0,left,['2'],2,0.6278503999997156,61,,58333,19,Vrouw,Rechts,1,
,xotask,dotcolour,dotcolour,14,2,134,434,main,positivefb,-99,easy,,0.5676715000004151,['n'],1,right,['9'],5,0.15757829999984097,6,,58333,19,Vrouw,Rechts,1,
,xotask,dotcolour,dotcolour,15,2,135,435,main,positivefb,-99,average,,0.5173213000002761,['n'],1,right,['9'],5,0.08347660000026735,19,,58333,19,Vrouw,Rechts,1,
,xotask,dotcolour,dotcolour,16,2,136,436,main,positivefb,-99,easy,,0.46773050000001604,['c'],1,left,['9'],5,0.08597700000018449,74,,58333,19,Vrouw,Rechts,1,
,xotask,dotcolour,dotcolour,17,2,137,437,main,positivefb,-99,easy,,0.5170798999997714,['n'],1,right,['9'],5,0.07865339999989374,6,,58333,19,Vrouw,Rechts,1,
,xotask,dotcolour,dotcolour,18,2,138,438,main,positivefb,-99,average,,0.5678714999999102,['n'],1,right,['9'],5,0.1015796000001501,19,,58333,19,Vrouw,Rechts,1,
,xotask,dotcolour,dotcolour,19,2,139,439,main,positivefb,-99,hard,,0.5668562999999267,['c'],1,left,['9'],5,0.1076535000001968,52,,58333,19,Vrouw,Rechts,1,
,xotask,dotcolour,dotcolour,20,2,140,440,main,positivefb,-99,hard,,0.5166077000003497,['n'],1,right,['9'],5,0.07568440000022747,25,,58333,19,Vrouw,Rechts,1,
,xotask,dotcolour,dotcolour,21,2,141,441,main,positivefb,-99,easy,,0.5510872999998355,['n'],1,right,['9'],5,0.10001779999993232,6,,58333,19,Vrouw,Rechts,1,
,xotask,dotcolour,dotcolour,22,2,142,442,main,positivefb,-99,hard,,0.6175031999996463,['n'],1,right,['9'],5,0.13575140000011743,25,,58333,19,Vrouw,Rechts,1,
,xotask,dotcolour,dotcolour,23,2,143,443,main,positivefb,-99,easy,,0.5180013999997755,['c'],1,left,['9'],5,0.11008040000024266,72,,58333,19,Vrouw,Rechts,1,
,xotask,dotcolour,dotcolour,24,2,144,444,main,positivefb,-99,hard,,0.5007934000000205,['n'],1,right,['9'],5,0.07969910000019809,25,,58333,19,Vrouw,Rechts,1,
,xotask,dotcolour,dotcolour,25,2,145,445,main,positivefb,-99,easy,,0.4514195000001564,['c'],1,left,['9'],5,0.1154738999998699,70,,58333,19,Vrouw,Rechts,1,
,xotask,dotcolour,dotcolour,26,2,146,446,main,positivefb,-99,easy,,0.450777300000027,['n'],1,right,['9'],5,0.09321829999998954,5,,58333,19,Vrouw,Rechts,1,
,xotask,dotcolour,dotcolour,27,2,147,447,main,positivefb,-99,easy,,0.5008724999997867,['n'],1,right,['9'],5,0.1102694999999585,9,,58333,19,Vrouw,Rechts,1,
,xotask,dotcolour,dotcolour,28,2,148,448,main,positivefb,-99,hard,,0.40151909999985946,['n'],1,right,['9'],5,0.09935129999985293,27,,58333,19,Vrouw,Rechts,1,
,xotask,dotcolour,dotcolour,29,2,149,449,main,positivefb,-99,hard,,0.5006217999998626,['c'],1,left,['9'],5,0.09262269999999262,52,,58333,19,Vrouw,Rechts,1,
,xotask,dotcolour,dotcolour,30,2,150,450,main,positivefb,-99,hard,,0.7837174000001141,['n'],0,left,['9'],5,0.12160869999979695,51,,58333,19,Vrouw,Rechts,1,
,xotask,dotcolour,dotcolour,31,2,151,451,main,positivefb,-99,hard,,0.5506325999999717,['c'],1,left,['9'],5,0.08802700000023833,53,,58333,19,Vrouw,Rechts,1,
,xotask,dotcolour,dotcolour,32,2,152,452,main,positivefb,-99,easy,,0.4180102000000261,['n'],1,right,['9'],5,0.100394900000083,6,,58333,19,Vrouw,Rechts,1,
,xotask,dotcolour,dotcolour,33,2,153,453,main,positivefb,-99,hard,,0.46836419999999634,['n'],0,left,['9'],5,0.07081450000032419,54,,58333,19,Vrouw,Rechts,1,
,xotask,dotcolour,dotcolour,34,2,154,454,main,positivefb,-99,average,,0.5674221999997826,['c'],1,left,['9'],5,0.08583329999964917,63,,58333,19,Vrouw,Rechts,1,
,xotask,dotcolour,dotcolour,35,2,155,455,main,positivefb,-99,average,,0.5189990999997462,['c'],1,left,['9'],5,0.07862300000033429,63,,58333,19,Vrouw,Rechts,1,
,xotask,dotcolour,dotcolour,36,2,156,456,main,positivefb,-99,hard,,0.48460690000001705,['c'],0,right,['9'],5,0.08068550000007235,25,,58333,19,Vrouw,Rechts,1,
,xotask,dotcolour,dotcolour,37,2,157,457,main,positivefb,-99,average,,0.38498459999982515,['n'],1,right,['9'],5,0.023372399999971094,19,,58333,19,Vrouw,Rechts,1,
,xotask,dotcolour,dotcolour,38,2,158,458,main,positivefb,-99,hard,,0.5171230000000833,['c'],1,left,['9'],5,0.04291239999975005,50,,58333,19,Vrouw,Rechts,1,
,xotask,dotcolour,dotcolour,39,2,159,459,main,positivefb,-99,easy,,0.5342150999999831,['c'],1,left,['9'],5,0.08483609999984765,74,,58333,19,Vrouw,Rechts,1,
,xotask,dotcolour,dotcolour,40,2,160,460,main,positivefb,-99,hard,,0.7679943999996794,['c'],1,left,['9'],5,0.05955570000014632,53,,58333,19,Vrouw,Rechts,1,
,xotask,dotcolour,dotcolour,41,2,161,461,main,positivefb,-99,average,,0.417060699999638,['n'],1,right,['9'],5,0.07327719999966575,19,,58333,19,Vrouw,Rechts,1,
,xotask,dotcolour,dotcolour,42,2,162,462,main,positivefb,-99,average,,0.40025420000029044,['n'],1,right,['9'],5,0.1510683000001336,18,,58333,19,Vrouw,Rechts,1,
,xotask,dotcolour,dotcolour,43,2,163,463,main,positivefb,-99,average,,0.4008774999997513,['c'],1,left,['9'],5,0.08948800000007395,61,,58333,19,Vrouw,Rechts,1,
,xotask,dotcolour,dotcolour,44,2,164,464,main,positivefb,-99,easy,,0.3833298999998078,['c'],1,left,['9'],5,0.04796010000018214,70,,58333,19,Vrouw,Rechts,1,
,xotask,dotcolour,dotcolour,45,2,165,465,main,positivefb,-99,easy,,0.48436649999985093,['n'],1,right,['9'],5,0.07491699999991397,8,,58333,19,Vrouw,Rechts,1,
,xotask,dotcolour,dotcolour,46,2,166,466,main,positivefb,-99,average,,0.45060600000033446,['c'],1,left,['9'],5,0.03915510000024369,61,,58333,19,Vrouw,Rechts,1,
,xotask,dotcolour,dotcolour,47,2,167,467,main,positivefb,-99,easy,,0.48400870000023133,['c'],1,left,['9'],5,0.05943219999971916,71,,58333,19,Vrouw,Rechts,1,
,xotask,dotcolour,dotcolour,48,2,168,468,main,positivefb,-99,average,,0.4347404000000097,['c'],1,left,['9'],5,0.1290305000002263,60,,58333,19,Vrouw,Rechts,1,
,xotask,dotcolour,dotcolour,49,2,169,469,main,positivefb,-99,easy,,0.3513591999999335,['c'],1,left,['9'],5,0.2542746000003717,74,,58333,19,Vrouw,Rechts,1,
,xotask,dotcolour,dotcolour,50,2,170,470,main,positivefb,-99,hard,,0.5676902000000155,['n'],1,right,['9'],5,0.05460160000029646,25,,58333,19,Vrouw,Rechts,1,
,xotask,dotcolour,dotcolour,51,2,171,471,main,positivefb,-99,average,,0.4180532000000312,['n'],1,right,['9'],5,0.004213900000195281,16,,58333,19,Vrouw,Rechts,1,
,xotask,dotcolour,dotcolour,52,2,172,472,main,positivefb,-99,average,,0.4505280999997012,['n'],1,right,['9'],5,0.7796824000001834,16,,58333,19,Vrouw,Rechts,1,
,xotask,dotcolour,dotcolour,53,2,173,473,main,positivefb,-99,easy,,0.4184898000003159,['n'],1,right,['9'],5,0.03684720000001107,5,,58333,19,Vrouw,Rechts,1,
,xotask,dotcolour,dotcolour,54,2,174,474,main,positivefb,-99,hard,,0.41841950000025463,['n'],0,left,['2'],2,0.6272844000000077,51,,58333,19,Vrouw,Rechts,1,
,xotask,dotcolour,dotcolour,55,2,175,475,main,positivefb,-99,hard,,0.7344346999998379,['n'],0,left,['9'],5,0.20591419999982463,51,,58333,19,Vrouw,Rechts,1,
,xotask,dotcolour,dotcolour,56,2,176,476,main,positivefb,-99,easy,,0.4842842000002747,['c'],1,left,['9'],5,0.09951790000013716,71,,58333,19,Vrouw,Rechts,1,
,xotask,dotcolour,dotcolour,57,2,177,477,main,positivefb,-99,hard,,0.6511498999998366,['n'],1,right,['9'],5,0.03013620000001538,29,,58333,19,Vrouw,Rechts,1,
,xotask,dotcolour,dotcolour,58,2,178,478,main,positivefb,-99,average,,0.599408399999902,['c'],1,left,['9'],5,0.07774040000003879,60,,58333,19,Vrouw,Rechts,1,
,xotask,dotcolour,dotcolour,59,2,179,479,main,positivefb,-99,average,,0.6347470000000612,['c'],1,left,['9'],5,0.0189303000001928,63,,58333,19,Vrouw,Rechts,1,
,xotask,dotcolour,dotcolour,0,3,180,480,main,positivefb,-99,hard,,0.8179347999998754,['c'],1,left,['9'],5,0.024351500000193482,53,,58333,19,Vrouw,Rechts,1,
,xotask,dotcolour,dotcolour,1,3,181,481,main,positivefb,-99,hard,,0.5169049000000996,['n'],1,right,['9'],5,0.07630120000021634,27,,58333,19,Vrouw,Rechts,1,
,xotask,dotcolour,dotcolour,2,3,182,482,main,positivefb,-99,hard,,0.5171895999997105,['c'],1,left,['9'],5,0.06154389999983323,50,,58333,19,Vrouw,Rechts,1,
,xotask,dotcolour,dotcolour,3,3,183,483,main,positivefb,-99,average,,1.235062199999902,['c'],1,left,['9'],5,0.08266730000013922,62,,58333,19,Vrouw,Rechts,1,
,xotask,dotcolour,dotcolour,4,3,184,484,main,positivefb,-99,hard,,0.6178576000002067,['n'],1,right,['9'],5,0.07966579999992973,27,,58333,19,Vrouw,Rechts,1,
,xotask,dotcolour,dotcolour,5,3,185,485,main,positivefb,-99,average,,0.8336604000000989,['n'],1,right,['9'],5,0.0364425000002484,17,,58333,19,Vrouw,Rechts,1,
,xotask,dotcolour,dotcolour,6,3,186,486,main,positivefb,-99,hard,,0.7334369000000152,['c'],0,right,['9'],5,0.0866916999998466,28,,58333,19,Vrouw,Rechts,1,
,xotask,dotcolour,dotcolour,7,3,187,487,main,positivefb,-99,easy,,0.5341479000003346,['c'],1,left,['9'],5,0.07020950000014636,72,,58333,19,Vrouw,Rechts,1,
,xotask,dotcolour,dotcolour,8,3,188,488,main,positivefb,-99,easy,,0.5012037000001328,['c'],1,left,['9'],5,0.03995770000028642,70,,58333,19,Vrouw,Rechts,1,
,xotask,dotcolour,dotcolour,9,3,189,489,main,positivefb,-99,easy,,0.4497024999996029,['c'],1,left,['9'],5,0.04586449999987963,73,,58333,19,Vrouw,Rechts,1,
,xotask,dotcolour,dotcolour,10,3,190,490,main,positivefb,-99,hard,,0.7834750000001804,['c'],1,left,['9'],5,0.08613770000010845,50,,58333,19,Vrouw,Rechts,1,
,xotask,dotcolour,dotcolour,11,3,191,491,main,positivefb,-99,average,,0.7520604999999705,['c'],1,left,['9'],5,0.49303980000013325,60,,58333,19,Vrouw,Rechts,1,
,xotask,dotcolour,dotcolour,12,3,192,492,main,positivefb,-99,hard,,1.1009960000001229,['c'],1,left,['8'],4,0.45376219999980094,50,,58333,19,Vrouw,Rechts,1,
,xotask,dotcolour,dotcolour,13,3,193,493,main,positivefb,-99,hard,,0.6673706000001403,['n'],1,right,['9'],5,0.08239679999996952,26,,58333,19,Vrouw,Rechts,1,
,xotask,dotcolour,dotcolour,14,3,194,494,main,positivefb,-99,average,,0.6836683999999877,['c'],1,left,['9'],5,0.07649270000001707,64,,58333,19,Vrouw,Rechts,1,
,xotask,dotcolour,dotcolour,15,3,195,495,main,positivefb,-99,average,,0.5678527000000031,['n'],1,right,['8'],4,0.05960010000035254,18,,58333,19,Vrouw,Rechts,1,
,xotask,dotcolour,dotcolour,16,3,196,496,main,positivefb,-99,hard,,0.6841180000001259,['c'],1,left,['8'],4,0.8150448000001234,54,,58333,19,Vrouw,Rechts,1,
,xotask,dotcolour,dotcolour,17,3,197,497,main,positivefb,-99,average,,0.8340408999997635,['c'],1,left,['8'],4,0.17365460000019084,61,,58333,19,Vrouw,Rechts,1,
,xotask,dotcolour,dotcolour,18,3,198,498,main,positivefb,-99,hard,,0.6169706999999107,['c'],1,left,['8'],4,0.10293890000002648,52,,58333,19,Vrouw,Rechts,1,
,xotask,dotcolour,dotcolour,19,3,199,499,main,positivefb,-99,average,,0.7007548000001407,['c'],1,left,['8'],4,0.016248299999915616,62,,58333,19,Vrouw,Rechts,1,
,xotask,dotcolour,dotcolour,20,3,200,500,main,positivefb,-99,easy,,0.7834892000000764,['c'],1,left,['8'],4,0.49666960000013205,74,,58333,19,Vrouw,Rechts,1,
,xotask,dotcolour,dotcolour,21,3,201,501,main,positivefb,-99,easy,,0.7515500999998039,['c'],1,left,['8'],4,0.06341580000025715,74,,58333,19,Vrouw,Rechts,1,
,xotask,dotcolour,dotcolour,22,3,202,502,main,positivefb,-99,easy,,0.5339527999999518,['n'],1,right,['8'],4,0.049129399999856105,7,,58333,19,Vrouw,Rechts,1,
,xotask,dotcolour,dotcolour,23,3,203,503,main,positivefb,-99,easy,,0.43454549999978553,['n'],1,right,['8'],4,0.07054710000011255,8,,58333,19,Vrouw,Rechts,1,
,xotask,dotcolour,dotcolour,24,3,204,504,main,positivefb,-99,easy,,0.4677678999996715,['c'],1,left,['8'],4,0.05769149999969159,72,,58333,19,Vrouw,Rechts,1,
,xotask,dotcolour,dotcolour,25,3,205,505,main,positivefb,-99,easy,,0.30010600000014165,['n'],1,right,['8'],4,0.004655300000194984,5,,58333,19,Vrouw,Rechts,1,
,xotask,dotcolour,dotcolour,26,3,206,506,main,positivefb,-99,average,,0.5331783000001451,['c'],1,left,['8'],4,0.06412319999981264,64,,58333,19,Vrouw,Rechts,1,
,xotask,dotcolour,dotcolour,27,3,207,507,main,positivefb,-99,hard,,0.43505059999961304,['n'],0,left,['8'],4,0.013385700000071665,50,,58333,19,Vrouw,Rechts,1,
,xotask,dotcolour,dotcolour,28,3,208,508,main,positivefb,-99,easy,,0.3499916000000667,['c'],0,right,['2'],2,0.5918114000000969,7,,58333,19,Vrouw,Rechts,1,
,xotask,dotcolour,dotcolour,29,3,209,509,main,positivefb,-99,easy,,0.5502753000000666,['n'],1,right,['8'],4,0.0991092999997818,6,,58333,19,Vrouw,Rechts,1,
,xotask,dotcolour,dotcolour,30,3,210,510,main,positivefb,-99,easy,,0.3840788000002249,['n'],1,right,['8'],4,0.09608590000016193,6,,58333,19,Vrouw,Rechts,1,
,xotask,dotcolour,dotcolour,31,3,211,511,main,positivefb,-99,average,,0.40027740000004997,['n'],1,right,['8'],4,0.046121100000164006,17,,58333,19,Vrouw,Rechts,1,
,xotask,dotcolour,dotcolour,32,3,212,512,main,positivefb,-99,average,,0.34995570000000953,['n'],0,left,['8'],4,0.07921200000009776,63,,58333,19,Vrouw,Rechts,1,
,xotask,dotcolour,dotcolour,33,3,213,513,main,positivefb,-99,average,,0.5679786000000604,['c'],1,left,['8'],4,0.07086419999995996,61,,58333,19,Vrouw,Rechts,1,
,xotask,dotcolour,dotcolour,34,3,214,514,main,positivefb,-99,easy,,0.46816670000043814,['c'],0,right,['2'],2,0.6097149000001991,8,,58333,19,Vrouw,Rechts,1,
,xotask,dotcolour,dotcolour,35,3,215,515,main,positivefb,-99,easy,,0.5672242000000551,['c'],1,left,['8'],4,0.1073180999997021,74,,58333,19,Vrouw,Rechts,1,
,xotask,dotcolour,dotcolour,36,3,216,516,main,positivefb,-99,average,,0.41791979999970863,['n'],1,right,['8'],4,0.05627329999970243,15,,58333,19,Vrouw,Rechts,1,
,xotask,dotcolour,dotcolour,37,3,217,517,main,positivefb,-99,easy,,0.40118340000026365,['c'],1,left,['8'],4,0.10254519999989498,71,,58333,19,Vrouw,Rechts,1,
,xotask,dotcolour,dotcolour,38,3,218,518,main,positivefb,-99,average,,0.3176573000000644,['n'],1,right,['8'],4,0.022710499999902822,17,,58333,19,Vrouw,Rechts,1,
,xotask,dotcolour,dotcolour,39,3,219,519,main,positivefb,-99,hard,,0.7340963999999985,['n'],1,right,['8'],4,0.057219199999963166,28,,58333,19,Vrouw,Rechts,1,
,xotask,dotcolour,dotcolour,40,3,220,520,main,positivefb,-99,hard,,0.4172551999999996,['n'],1,right,['8'],4,0.07929349999994884,27,,58333,19,Vrouw,Rechts,1,
,xotask,dotcolour,dotcolour,41,3,221,521,main,positivefb,-99,average,,0.5014706000001752,['c'],1,left,['8'],4,0.07319430000006832,64,,58333,19,Vrouw,Rechts,1,
,xotask,dotcolour,dotcolour,42,3,222,522,main,positivefb,-99,easy,,0.3011561999996957,['n'],1,right,['8'],4,0.09174570000004678,7,,58333,19,Vrouw,Rechts,1,
,xotask,dotcolour,dotcolour,43,3,223,523,main,positivefb,-99,average,,0.46697400000039124,['n'],1,right,['8'],4,0.062066800000138755,15,,58333,19,Vrouw,Rechts,1,
,xotask,dotcolour,dotcolour,44,3,224,524,main,positivefb,-99,hard,,0.4332836000003226,['n'],1,right,['8'],4,0.027098400000340916,26,,58333,19,Vrouw,Rechts,1,
,xotask,dotcolour,dotcolour,45,3,225,525,main,positivefb,-99,easy,,0.5335758000001078,['c'],1,left,['8'],4,0.09395999999969717,73,,58333,19,Vrouw,Rechts,1,
,xotask,dotcolour,dotcolour,46,3,226,526,main,positivefb,-99,hard,,0.33452400000032867,['n'],1,right,['8'],4,0.08692950000022392,28,,58333,19,Vrouw,Rechts,1,
,xotask,dotcolour,dotcolour,47,3,227,527,main,positivefb,-99,easy,,0.4009190000001581,['n'],1,right,['8'],4,0.08292869999968389,9,,58333,19,Vrouw,Rechts,1,
,xotask,dotcolour,dotcolour,48,3,228,528,main,positivefb,-99,average,,0.366561300000285,['n'],1,right,['8'],4,0.06667489999972531,19,,58333,19,Vrouw,Rechts,1,
,xotask,dotcolour,dotcolour,49,3,229,529,main,positivefb,-99,hard,,0.9508415000000241,['c'],1,left,['8'],4,0.07426200000008976,54,,58333,19,Vrouw,Rechts,1,
,xotask,dotcolour,dotcolour,50,3,230,530,main,positivefb,-99,hard,,0.6511284000002888,['c'],1,left,['8'],4,0.07042619999992894,54,,58333,19,Vrouw,Rechts,1,
,xotask,dotcolour,dotcolour,51,3,231,531,main,positivefb,-99,average,,0.3174917999999707,['n'],1,right,['8'],4,0.05545560000018668,15,,58333,19,Vrouw,Rechts,1,
,xotask,dotcolour,dotcolour,52,3,232,532,main,positivefb,-99,hard,,0.3007990000000973,['n'],1,right,['8'],4,0.09035799999992378,26,,58333,19,Vrouw,Rechts,1,
,xotask,dotcolour,dotcolour,53,3,233,533,main,positivefb,-99,easy,,0.2673347999998441,['n'],1,right,['8'],4,0.1083267000003616,5,,58333,19,Vrouw,Rechts,1,
,xotask,dotcolour,dotcolour,54,3,234,534,main,positivefb,-99,easy,,0.500401299999794,['n'],0,left,['2'],2,0.6211296999999831,74,,58333,19,Vrouw,Rechts,1,
,xotask,dotcolour,dotcolour,55,3,235,535,main,positivefb,-99,average,,0.5022109999999884,['n'],1,right,['8'],4,0.08157829999981914,17,,58333,19,Vrouw,Rechts,1,
,xotask,dotcolour,dotcolour,56,3,236,536,main,positivefb,-99,average,,0.7344537999997556,['c'],1,left,['8'],4,0.07326499999999214,62,,58333,19,Vrouw,Rechts,1,
,xotask,dotcolour,dotcolour,57,3,237,537,main,positivefb,-99,hard,,0.49979549999989104,['n'],1,right,['8'],4,0.06807519999983924,29,,58333,19,Vrouw,Rechts,1,
,xotask,dotcolour,dotcolour,58,3,238,538,main,positivefb,-99,hard,,0.334504399999787,['c'],1,left,['2'],2,0.580224299999827,53,,58333,19,Vrouw,Rechts,1,
,xotask,dotcolour,dotcolour,59,3,239,539,main,positivefb,-99,average,,0.6843550999997206,['n'],1,right,['8'],4,0.09840680000024804,15,,58333,19,Vrouw,Rechts,1,
,xotask,dotcolour,dotcolour,0,4,240,540,main,positivefb,-99,easy,,0.6000399999998081,['n'],1,right,['8'],4,0.10821340000029522,5,,58333,19,Vrouw,Rechts,1,
,xotask,dotcolour,dotcolour,1,4,241,541,main,positivefb,-99,easy,,0.4506682000001092,['c'],1,left,['8'],4,0.055434199999581324,72,,58333,19,Vrouw,Rechts,1,
,xotask,dotcolour,dotcolour,2,4,242,542,main,positivefb,-99,average,,0.6158854999998766,['c'],1,left,['8'],4,0.06198409999979049,64,,58333,19,Vrouw,Rechts,1,
,xotask,dotcolour,dotcolour,3,4,243,543,main,positivefb,-99,hard,,0.4507709999998042,['n'],0,left,['8'],4,0.0501060999999936,53,,58333,19,Vrouw,Rechts,1,
,xotask,dotcolour,dotcolour,4,4,244,544,main,positivefb,-99,hard,,0.4995528999997987,['n'],0,left,['2'],2,0.86851039999965,53,,58333,19,Vrouw,Rechts,1,
,xotask,dotcolour,dotcolour,5,4,245,545,main,positivefb,-99,hard,,0.6175754000000779,['n'],1,right,['8'],4,0.09850069999993138,29,,58333,19,Vrouw,Rechts,1,
,xotask,dotcolour,dotcolour,6,4,246,546,main,positivefb,-99,average,,0.5668214000002081,['c'],1,left,['8'],4,0.08834919999981139,62,,58333,19,Vrouw,Rechts,1,
,xotask,dotcolour,dotcolour,7,4,247,547,main,positivefb,-99,easy,,0.2676062999998976,['n'],0,left,['2'],2,0.4904602999999952,70,,58333,19,Vrouw,Rechts,1,
,xotask,dotcolour,dotcolour,8,4,248,548,main,positivefb,-99,hard,,0.734757300000183,['n'],1,right,['8'],4,0.09081990000004225,29,,58333,19,Vrouw,Rechts,1,
,xotask,dotcolour,dotcolour,9,4,249,549,main,positivefb,-99,easy,,0.5672781999996914,['c'],1,left,['8'],4,0.11331689999997252,73,,58333,19,Vrouw,Rechts,1,
,xotask,dotcolour,dotcolour,10,4,250,550,main,positivefb,-99,easy,,0.48430240000016056,['c'],1,left,['8'],4,0.10620909999988726,73,,58333,19,Vrouw,Rechts,1,
,xotask,dotcolour,dotcolour,11,4,251,551,main,positivefb,-99,hard,,0.5180078999997022,['n'],1,right,['8'],4,0.10687599999982922,28,,58333,19,Vrouw,Rechts,1,
,xotask,dotcolour,dotcolour,12,4,252,552,main,positivefb,-99,easy,,0.4344129000000976,['n'],1,right,['8'],4,0.054188300000078016,6,,58333,19,Vrouw,Rechts,1,
,xotask,dotcolour,dotcolour,13,4,253,553,main,positivefb,-99,easy,,0.38504820000025575,['n'],1,right,['8'],4,0.0771617000000333,5,,58333,19,Vrouw,Rechts,1,
,xotask,dotcolour,dotcolour,14,4,254,554,main,positivefb,-99,hard,,0.3009004999998979,['c'],1,left,['8'],4,0.19962040000018533,51,,58333,19,Vrouw,Rechts,1,
,xotask,dotcolour,dotcolour,15,4,255,555,main,positivefb,-99,average,,0.25100320000001375,['n'],0,left,['2'],2,0.8228417000000263,64,,58333,19,Vrouw,Rechts,1,
,xotask,dotcolour,dotcolour,16,4,256,556,main,positivefb,-99,average,,0.6180632000000514,['n'],1,right,['8'],4,1.165638499999659,16,,58333,19,Vrouw,Rechts,1,
,xotask,dotcolour,dotcolour,17,4,257,557,main,positivefb,-99,hard,,0.7843557999999575,['n'],1,right,['8'],4,0.16014270000005126,28,,58333,19,Vrouw,Rechts,1,
,xotask,dotcolour,dotcolour,18,4,258,558,main,positivefb,-99,easy,,0.6520307000000685,['n'],1,right,['9'],5,0.46461079999971844,8,,58333,19,Vrouw,Rechts,1,
,xotask,dotcolour,dotcolour,19,4,259,559,main,positivefb,-99,hard,,0.7514289999999164,['n'],1,right,['9'],5,0.06556739999996353,29,,58333,19,Vrouw,Rechts,1,
,xotask,dotcolour,dotcolour,20,4,260,560,main,positivefb,-99,average,,0.6019098000001577,['c'],1,left,['9'],5,0.08658749999995052,63,,58333,19,Vrouw,Rechts,1,
,xotask,dotcolour,dotcolour,21,4,261,561,main,positivefb,-99,hard,,0.4350488000000041,['c'],1,left,['9'],5,0.09888760000012553,51,,58333,19,Vrouw,Rechts,1,
,xotask,dotcolour,dotcolour,22,4,262,562,main,positivefb,-99,easy,,0.33436600000004546,['c'],1,left,['9'],5,0.09097130000009201,70,,58333,19,Vrouw,Rechts,1,
,xotask,dotcolour,dotcolour,23,4,263,563,main,positivefb,-99,hard,,0.5169258000000809,['c'],1,left,['9'],5,0.09965809999994235,54,,58333,19,Vrouw,Rechts,1,
,xotask,dotcolour,dotcolour,24,4,264,564,main,positivefb,-99,hard,,0.533813900000041,['n'],0,left,['9'],5,0.0750081000001046,50,,58333,19,Vrouw,Rechts,1,
,xotask,dotcolour,dotcolour,25,4,265,565,main,positivefb,-99,average,,0.467348199999833,['n'],1,right,['9'],5,0.07830520000015895,16,,58333,19,Vrouw,Rechts,1,
,xotask,dotcolour,dotcolour,26,4,266,566,main,positivefb,-99,easy,,0.34927049999987503,['n'],1,right,['9'],5,0.08620559999963007,6,,58333,19,Vrouw,Rechts,1,
,xotask,dotcolour,dotcolour,27,4,267,567,main,positivefb,-99,easy,,0.46700559999999314,['c'],1,left,['9'],5,0.08923140000024432,70,,58333,19,Vrouw,Rechts,1,
,xotask,dotcolour,dotcolour,28,4,268,568,main,positivefb,-99,average,,0.44938409999986106,['c'],1,left,['9'],5,0.10026060000018333,60,,58333,19,Vrouw,Rechts,1,
,xotask,dotcolour,dotcolour,29,4,269,569,main,positivefb,-99,average,,0.5673251000002892,['n'],1,right,['9'],5,0.11475130000007994,15,,58333,19,Vrouw,Rechts,1,
,xotask,dotcolour,dotcolour,30,4,270,570,main,positivefb,-99,hard,,0.4504093999998986,['n'],1,right,['9'],5,0.08499540000002526,28,,58333,19,Vrouw,Rechts,1,
,xotask,dotcolour,dotcolour,31,4,271,571,main,positivefb,-99,average,,0.40128109999977823,['n'],1,right,['9'],5,0.11427439999988565,18,,58333,19,Vrouw,Rechts,1,
,xotask,dotcolour,dotcolour,32,4,272,572,main,positivefb,-99,hard,,0.334114999999656,['n'],1,right,['9'],5,0.11365109999997003,27,,58333,19,Vrouw,Rechts,1,
,xotask,dotcolour,dotcolour,33,4,273,573,main,positivefb,-99,easy,,0.5501431000002412,['c'],1,left,['9'],5,0.09637780000002749,70,,58333,19,Vrouw,Rechts,1,
,xotask,dotcolour,dotcolour,34,4,274,574,main,positivefb,-99,average,,0.4167192999998406,['c'],1,left,['9'],5,0.028953500000170607,60,,58333,19,Vrouw,Rechts,1,
,xotask,dotcolour,dotcolour,35,4,275,575,main,positivefb,-99,hard,,0.5497577000001002,['n'],1,right,['9'],5,0.07900810000001002,26,,58333,19,Vrouw,Rechts,1,
,xotask,dotcolour,dotcolour,36,4,276,576,main,positivefb,-99,easy,,0.3667457999999897,['n'],1,right,['9'],5,0.038379300000087824,7,,58333,19,Vrouw,Rechts,1,
,xotask,dotcolour,dotcolour,37,4,277,577,main,positivefb,-99,average,,0.6667537000002994,['c'],1,left,['9'],5,0.08289639999975407,62,,58333,19,Vrouw,Rechts,1,
,xotask,dotcolour,dotcolour,38,4,278,578,main,positivefb,-99,easy,,0.6836616000000504,['n'],1,right,['9'],5,0.04534879999982877,7,,58333,19,Vrouw,Rechts,1,
,xotask,dotcolour,dotcolour,39,4,279,579,main,positivefb,-99,hard,,0.5670107000000826,['c'],1,left,['9'],5,0.08574369999996634,53,,58333,19,Vrouw,Rechts,1,
,xotask,dotcolour,dotcolour,40,4,280,580,main,positivefb,-99,hard,,0.6668500999999196,['n'],0,left,['9'],5,0.808364999999867,53,,58333,19,Vrouw,Rechts,1,
,xotask,dotcolour,dotcolour,41,4,281,581,main,positivefb,-99,average,,0.6174283000000287,['c'],1,left,['9'],5,0.10442200000034063,62,,58333,19,Vrouw,Rechts,1,
,xotask,dotcolour,dotcolour,42,4,282,582,main,positivefb,-99,average,,0.7662139999997635,['n'],0,left,['9'],5,0.04637449999972887,63,,58333,19,Vrouw,Rechts,1,
,xotask,dotcolour,dotcolour,43,4,283,583,main,positivefb,-99,hard,,0.7513117999997121,['c'],0,right,['9'],5,0.07975880000003599,28,,58333,19,Vrouw,Rechts,1,
,xotask,dotcolour,dotcolour,44,4,284,584,main,positivefb,-99,average,,0.4846247000000403,['n'],1,right,['9'],5,0.01045990000011443,19,,58333,19,Vrouw,Rechts,1,
,xotask,dotcolour,dotcolour,45,4,285,585,main,positivefb,-99,average,,0.36680159999968964,['n'],1,right,['9'],5,0.035802500000045256,17,,58333,19,Vrouw,Rechts,1,
,xotask,dotcolour,dotcolour,46,4,286,586,main,positivefb,-99,average,,0.6005035000002863,['c'],1,left,['9'],5,0.050938099999711994,63,,58333,19,Vrouw,Rechts,1,
,xotask,dotcolour,dotcolour,47,4,287,587,main,positivefb,-99,average,,0.9340248000003157,['n'],1,right,['9'],5,0.06138390000023719,15,,58333,19,Vrouw,Rechts,1,
,xotask,dotcolour,dotcolour,48,4,288,588,main,positivefb,-99,hard,,0.5511558000002879,['c'],1,left,['9'],5,0.11774210000021412,54,,58333,19,Vrouw,Rechts,1,
,xotask,dotcolour,dotcolour,49,4,289,589,main,positivefb,-99,hard,,0.5338403000000653,['c'],1,left,['9'],5,0.052238799999940966,50,,58333,19,Vrouw,Rechts,1,
,xotask,dotcolour,dotcolour,50,4,290,590,main,positivefb,-99,average,,0.5505569000001742,['n'],1,right,['9'],5,0.036702599999898666,17,,58333,19,Vrouw,Rechts,1,
,xotask,dotcolour,dotcolour,51,4,291,591,main,positivefb,-99,average,,0.41601859999991575,['n'],1,right,['9'],5,0.043262700000013865,19,,58333,19,Vrouw,Rechts,1,
,xotask,dotcolour,dotcolour,52,4,292,592,main,positivefb,-99,easy,,0.35046760000022914,['n'],1,right,['9'],5,0.06879179999987173,5,,58333,19,Vrouw,Rechts,1,
,xotask,dotcolour,dotcolour,53,4,293,593,main,positivefb,-99,easy,,0.38388750000012806,['n'],0,left,['2'],2,0.571017700000084,70,,58333,19,Vrouw,Rechts,1,
,xotask,dotcolour,dotcolour,54,4,294,594,main,positivefb,-99,easy,,0.5842274999999972,['c'],1,left,['9'],5,0.07753570000022592,71,,58333,19,Vrouw,Rechts,1,
,xotask,dotcolour,dotcolour,55,4,295,595,main,positivefb,-99,average,,0.5502900000001318,['n'],1,right,['9'],5,0.09383780000007391,17,,58333,19,Vrouw,Rechts,1,
,xotask,dotcolour,dotcolour,56,4,296,596,main,positivefb,-99,easy,,0.5839660000001459,['n'],1,right,['9'],5,0.028099199999815028,8,,58333,19,Vrouw,Rechts,1,
,xotask,dotcolour,dotcolour,57,4,297,597,main,positivefb,-99,hard,,0.41704259999960414,['n'],1,right,['9'],5,0.027780899999925168,28,,58333,19,Vrouw,Rechts,1,
,xotask,dotcolour,dotcolour,58,4,298,598,main,positivefb,-99,easy,,0.750740400000268,['c'],1,left,['9'],5,0.18946629999982179,74,,58333,19,Vrouw,Rechts,1,
,xotask,dotcolour,dotcolour,59,4,299,599,main,positivefb,-99,easy,,0.6506055999998352,['n'],1,right,['9'],5,0.16483629999993354,7,,58333,19,Vrouw,Rechts,1,
,dotcolour,dotcolour,dotcolour,0,0,0,600,training,positivefb,58,hard,41,3.1340932000002795,['n'],0,left,['2'],2,0.7092556999996305,,,58333,19,Vrouw,Rechts,1,
,dotcolour,dotcolour,dotcolour,1,0,1,601,training,positivefb,91,average,52,1.2333300000000236,['c'],1,left,['9'],5,0.312778999999864,,,58333,19,Vrouw,Rechts,1,
,dotcolour,dotcolour,dotcolour,2,0,2,602,training,positivefb,95,hard,36,0.5164168999999674,['n'],1,right,['9'],5,0.15154739999979938,,,58333,19,Vrouw,Rechts,1,
,dotcolour,dotcolour,dotcolour,3,0,3,603,training,positivefb,93,hard,39,0.5165476999995917,['n'],1,right,['9'],5,0.13247659999979078,,,58333,19,Vrouw,Rechts,1,
,dotcolour,dotcolour,dotcolour,4,0,4,604,training,positivefb,97,average,28,0.717172500000288,['n'],1,right,['9'],5,0.10657630000014251,,,58333,19,Vrouw,Rechts,1,
,dotcolour,dotcolour,dotcolour,5,0,5,605,training,positivefb,93,easy,62,0.41797489999999016,['c'],1,left,['9'],5,0.1502994000002218,,,58333,19,Vrouw,Rechts,1,
,dotcolour,dotcolour,dotcolour,6,0,6,606,training,positivefb,88,hard,38,0.6339041999999608,['c'],0,right,['9'],5,0.07970860000023094,,,58333,19,Vrouw,Rechts,1,
,dotcolour,dotcolour,dotcolour,7,0,7,607,training,positivefb,97,average,53,0.5840935999999601,['c'],1,left,['9'],5,0.08506900000020323,,,58333,19,Vrouw,Rechts,1,
,dotcolour,dotcolour,dotcolour,8,0,8,608,training,positivefb,84,hard,42,0.7665705999997954,['c'],1,left,['9'],5,0.2906481999998505,,,58333,19,Vrouw,Rechts,1,
,dotcolour,dotcolour,dotcolour,9,0,9,609,training,positivefb,96,hard,38,1.5342517000003681,['n'],1,right,['9'],5,1.162380000000212,,,58333,19,Vrouw,Rechts,1,
,dotcolour,dotcolour,dotcolour,10,0,10,610,training,positivefb,97,hard,45,0.23302160000002914,['c'],1,left,['9'],5,0.04304899999988265,,,58333,19,Vrouw,Rechts,1,
,dotcolour,dotcolour,dotcolour,11,0,11,611,training,positivefb,96,average,53,0.45028590000038093,['c'],1,left,['9'],5,0.10340539999970133,,,58333,19,Vrouw,Rechts,1,
,dotcolour,dotcolour,dotcolour,12,0,12,612,training,positivefb,48,hard,37,1.0155590999997912,['c'],0,right,['9'],5,2.1786772000000383,,,58333,19,Vrouw,Rechts,1,
,dotcolour,dotcolour,dotcolour,13,0,13,613,training,positivefb,99,easy,15,1.118152900000041,['n'],1,right,['9'],5,1.0233098000003338,,,58333,19,Vrouw,Rechts,1,
,dotcolour,dotcolour,dotcolour,14,0,14,614,training,positivefb,94,hard,35,0.7338509999999587,['c'],0,right,['9'],5,0.07278069999983927,,,58333,19,Vrouw,Rechts,1,
,dotcolour,dotcolour,dotcolour,15,0,15,615,training,positivefb,98,easy,61,0.4002221999999165,['c'],1,left,['9'],5,0.03913989999955447,,,58333,19,Vrouw,Rechts,1,
,dotcolour,dotcolour,dotcolour,16,0,16,616,training,positivefb,96,easy,64,0.4004509000001235,['c'],1,left,['9'],5,0.07720440000002782,,,58333,19,Vrouw,Rechts,1,
,dotcolour,dotcolour,dotcolour,17,0,17,617,training,positivefb,89,hard,45,0.43364100000007966,['c'],1,left,['9'],5,0.11335589999998774,,,58333,19,Vrouw,Rechts,1,
,dotcolour,dotcolour,dotcolour,18,0,18,618,training,positivefb,97,average,54,0.36736819999987347,['c'],1,left,['9'],5,0.07797170000003462,,,58333,19,Vrouw,Rechts,1,
,dotcolour,dotcolour,dotcolour,19,0,19,619,training,positivefb,91,easy,15,1.0503395000000637,['n'],1,right,['9'],5,0.21028350000005958,,,58333,19,Vrouw,Rechts,1,
,dotcolour,dotcolour,dotcolour,20,0,20,620,training,positivefb,97,hard,42,0.6168668999998772,['n'],0,left,['9'],5,0.09660589999975855,,,58333,19,Vrouw,Rechts,1,
,dotcolour,dotcolour,dotcolour,21,0,21,621,training,positivefb,90,hard,42,0.5495136999998067,['c'],1,left,['9'],5,0.0640957000000526,,,58333,19,Vrouw,Rechts,1,
,dotcolour,dotcolour,dotcolour,22,0,22,622,training,positivefb,92,easy,18,0.799670000000333,['n'],1,right,['9'],5,0.20623969999996916,,,58333,19,Vrouw,Rechts,1,
,dotcolour,dotcolour,dotcolour,23,0,23,623,training,positivefb,98,easy,65,0.4997812999999951,['c'],1,left,['9'],5,0.12233689999993658,,,58333,19,Vrouw,Rechts,1,
