starttime,task,fbtask,firsttask,withinblocktrial,block,withintasktrial,trial,running,feedback,fbscore,difflevel,n_xes,rt,resp,cor,cresp,conf_press,cj,RTconf,reddots,stoptime,sub,age,gender,handedness,session,
1714984245,xotask,xotask,dotcolour,0,0,0,0,training,negativefb,4,easy,7,1.5177450000001045,['c'],0,right,['1'],1,3.1980665999999474,,,11,19,Man,Rechts,1,
,xotask,xotask,dotcolour,1,0,1,1,training,negativefb,100,easy,6,0.5833090000005541,['n'],1,right,['8'],4,3.6132591999994474,,,11,19,Man,Rechts,1,
,xotask,xotask,dotcolour,2,0,2,2,training,negativefb,98,easy,9,0.7325980999994499,['n'],1,right,['9'],5,2.9023662999998123,,,11,19,Man,Rechts,1,
,xotask,xotask,dotcolour,3,0,3,3,training,negativefb,4,easy,9,1.0341159999998126,['c'],0,right,['8'],4,2.129092600000149,,,11,19,Man,Rechts,1,
,xotask,xotask,dotcolour,4,0,4,4,training,negativefb,27,hard,29,1.234340599999996,['n'],1,right,['8'],4,2.8660564000001614,,,11,19,Man,Rechts,1,
,xotask,xotask,dotcolour,5,0,5,5,training,negativefb,76,average,64,1.1338296000003538,['c'],1,left,['9'],5,1.6574843999997029,,,11,19,Man,Rechts,1,
,xotask,xotask,dotcolour,6,0,6,6,training,negativefb,3,hard,54,0.8179141000000527,['n'],0,left,['8'],4,2.109977699999945,,,11,19,Man,Rechts,1,
,xotask,xotask,dotcolour,7,0,7,7,training,negativefb,86,average,19,1.033129800000097,['n'],1,right,['9'],5,1.1603388999992603,,,11,19,Man,Rechts,1,
,xotask,xotask,dotcolour,8,0,8,8,training,negativefb,96,hard,51,1.3167880999999397,['n'],0,left,['8'],4,1.3491389999999228,,,11,19,Man,Rechts,1,
,xotask,xotask,dotcolour,9,0,9,9,training,negativefb,38,hard,54,1.0999731000001702,['n'],0,left,['8'],4,2.019546500000615,,,11,19,Man,Rechts,1,
,xotask,xotask,dotcolour,10,0,10,10,training,negativefb,77,hard,27,0.9656828999995923,['n'],1,right,['8'],4,0.8352308000003177,,,11,19,Man,Rechts,1,
,xotask,xotask,dotcolour,11,0,11,11,training,negativefb,21,average,17,1.468195000000378,['n'],1,right,['3'],3,1.1357476999992286,,,11,19,Man,Rechts,1,
,xotask,xotask,dotcolour,12,0,12,12,training,negativefb,2,hard,51,0.8991354999998293,['n'],0,left,['9'],5,1.6060454999997091,,,11,19,Man,Rechts,1,
,xotask,xotask,dotcolour,13,0,13,13,training,negativefb,39,easy,72,1.5008018999997148,['c'],1,left,['8'],4,0.8333044999999402,,,11,19,Man,Rechts,1,
,xotask,xotask,dotcolour,14,0,14,14,training,negativefb,29,hard,27,1.6001760999997714,['n'],1,right,['9'],5,0.8398292000001675,,,11,19,Man,Rechts,1,
,xotask,xotask,dotcolour,15,0,15,15,training,negativefb,74,easy,71,0.8493109999999433,['c'],1,left,['9'],5,0.9172417999998288,,,11,19,Man,Rechts,1,
,xotask,xotask,dotcolour,16,0,16,16,training,negativefb,88,hard,26,0.8002977999994982,['n'],1,right,['9'],5,0.4399348999995709,,,11,19,Man,Rechts,1,
,xotask,xotask,dotcolour,17,0,17,17,training,negativefb,80,average,17,1.2168674000004103,['n'],1,right,['8'],4,0.7589853999998013,,,11,19,Man,Rechts,1,
,xotask,xotask,dotcolour,18,0,18,18,training,negativefb,9,average,18,1.2000637999999526,['c'],0,right,['2'],2,1.2803410999995322,,,11,19,Man,Rechts,1,
,xotask,xotask,dotcolour,19,0,19,19,training,negativefb,97,average,16,0.8829927000006137,['n'],1,right,['8'],4,0.8588246999997864,,,11,19,Man,Rechts,1,
,xotask,xotask,dotcolour,20,0,20,20,training,negativefb,79,hard,27,0.7994474000006448,['n'],1,right,['8'],4,0.48033550000036485,,,11,19,Man,Rechts,1,
,xotask,xotask,dotcolour,21,0,21,21,training,negativefb,76,hard,26,1.217222799999945,['n'],1,right,['8'],4,0.46121339999990596,,,11,19,Man,Rechts,1,
,xotask,xotask,dotcolour,22,0,22,22,training,negativefb,85,hard,53,1.1176600000007966,['n'],0,left,['8'],4,0.5104990999998336,,,11,19,Man,Rechts,1,
,xotask,xotask,dotcolour,23,0,23,23,training,negativefb,49,average,15,1.0996905000001789,['n'],1,right,['9'],5,1.0865367999995215,,,11,19,Man,Rechts,1,
,xotask,xotask,dotcolour,24,0,24,24,training,negativefb,5,easy,7,1.565910399999666,['c'],0,right,['2'],2,1.980867300000682,,,11,19,Man,Rechts,1,
,xotask,xotask,dotcolour,25,0,25,25,training,negativefb,91,easy,74,1.1845640000001367,['c'],1,left,['2'],2,1.2779468999997334,,,11,19,Man,Rechts,1,
,xotask,xotask,dotcolour,26,0,26,26,training,negativefb,39,hard,50,1.434259600000587,['c'],1,left,['8'],4,1.569923999999446,,,11,19,Man,Rechts,1,
,xotask,xotask,dotcolour,27,0,27,27,training,negativefb,87,average,61,1.5326037000004362,['c'],1,left,['8'],4,0.9738057000004119,,,11,19,Man,Rechts,1,
,xotask,xotask,dotcolour,28,0,28,28,training,negativefb,98,easy,9,1.2502060000006168,['n'],1,right,['8'],4,1.3966611999994711,,,11,19,Man,Rechts,1,
,xotask,xotask,dotcolour,29,0,29,29,training,negativefb,88,easy,8,0.9823998000001666,['n'],1,right,['9'],5,1.6545997000002899,,,11,19,Man,Rechts,1,
,xotask,xotask,dotcolour,30,0,30,30,training,negativefb,84,easy,72,0.9002219000003606,['c'],1,left,['9'],5,0.8077230999997482,,,11,19,Man,Rechts,1,
,xotask,xotask,dotcolour,31,0,31,31,training,negativefb,50,hard,25,1.3997527999999875,['n'],1,right,['2'],2,0.967642400000841,,,11,19,Man,Rechts,1,
,xotask,xotask,dotcolour,32,0,32,32,training,negativefb,12,easy,73,0.9504970999996658,['n'],0,left,['9'],5,1.0271143999998458,,,11,19,Man,Rechts,1,
,xotask,xotask,dotcolour,33,0,33,33,training,negativefb,71,hard,27,2.0827939000000697,['n'],1,right,['8'],4,0.8310775999998441,,,11,19,Man,Rechts,1,
,xotask,xotask,dotcolour,34,0,34,34,training,negativefb,95,average,15,1.0008322000003318,['n'],1,right,['8'],4,0.39729170000009617,,,11,19,Man,Rechts,1,
,xotask,xotask,dotcolour,35,0,35,35,training,negativefb,92,hard,51,1.3337271000000328,['c'],1,left,['9'],5,0.9607041999997818,,,11,19,Man,Rechts,1,
,xotask,xotask,dotcolour,36,0,36,36,training,negativefb,93,easy,5,0.8162480000000869,['n'],1,right,['9'],5,0.8732822000001761,,,11,19,Man,Rechts,1,
,xotask,xotask,dotcolour,37,0,37,37,training,negativefb,92,easy,73,1.149720399999751,['c'],1,left,['9'],5,0.8406159999994998,,,11,19,Man,Rechts,1,
,xotask,xotask,dotcolour,38,0,38,38,training,negativefb,97,average,18,1.14999379999972,['n'],1,right,['9'],5,2.657927899999777,,,11,19,Man,Rechts,1,
,xotask,xotask,dotcolour,39,0,39,39,training,negativefb,80,easy,70,1.13330120000046,['c'],1,left,['0'],6,0.8337281000003713,,,11,19,Man,Rechts,1,
,xotask,xotask,dotcolour,40,0,40,40,training,negativefb,86,easy,6,0.7160070999998425,['n'],1,right,['0'],6,0.8678488999994443,,,11,19,Man,Rechts,1,
,xotask,xotask,dotcolour,41,0,41,41,training,negativefb,93,hard,50,1.3172966000001907,['c'],1,left,['8'],4,2.4446633999996266,,,11,19,Man,Rechts,1,
,xotask,xotask,dotcolour,42,0,42,42,training,negativefb,16,average,61,1.2166800000004514,['n'],0,left,['1'],1,1.7863268000000971,,,11,19,Man,Rechts,1,
,xotask,xotask,dotcolour,43,0,43,43,training,negativefb,91,average,62,0.8838104999995267,['c'],1,left,['0'],6,0.9902070999996795,,,11,19,Man,Rechts,1,
,xotask,xotask,dotcolour,44,0,44,44,training,negativefb,49,average,60,0.8348795000001701,['c'],1,left,['0'],6,0.7578043000003163,,,11,19,Man,Rechts,1,
,xotask,xotask,dotcolour,45,0,45,45,training,negativefb,89,hard,53,2.266559600000619,['c'],1,left,['0'],6,1.5736230000002251,,,11,19,Man,Rechts,1,
,xotask,xotask,dotcolour,46,0,46,46,training,negativefb,20,average,17,2.05067710000003,['c'],0,right,['3'],3,1.108146399999896,,,11,19,Man,Rechts,1,
,xotask,xotask,dotcolour,47,0,47,47,training,negativefb,56,hard,28,0.8492095999999947,['n'],1,right,['0'],6,0.9661070000001928,,,11,19,Man,Rechts,1,
,xotask,xotask,dotcolour,48,0,48,48,training,negativefb,93,average,18,0.9331199000007473,['n'],1,right,['0'],6,0.8659281999998711,,,11,19,Man,Rechts,1,
,xotask,xotask,dotcolour,49,0,49,49,training,negativefb,73,average,61,0.6499091999994562,['c'],1,left,['0'],6,1.2217405999999755,,,11,19,Man,Rechts,1,
,xotask,xotask,dotcolour,50,0,50,50,training,negativefb,91,average,62,1.5337718999999197,['c'],1,left,['8'],4,1.1837064999999711,,,11,19,Man,Rechts,1,
,xotask,xotask,dotcolour,51,0,51,51,training,negativefb,80,easy,72,0.8510176999998293,['c'],1,left,['0'],6,1.110259699999915,,,11,19,Man,Rechts,1,
,xotask,xotask,dotcolour,52,0,52,52,training,negativefb,89,easy,74,1.0005549000006795,['c'],1,left,['0'],6,0.7621656999999686,,,11,19,Man,Rechts,1,
,xotask,xotask,dotcolour,53,0,53,53,training,negativefb,71,average,64,1.55023970000002,['c'],1,left,['8'],4,1.598493000000417,,,11,19,Man,Rechts,1,
,xotask,xotask,dotcolour,54,0,54,54,training,negativefb,33,hard,27,0.900604999999814,['n'],1,right,['8'],4,1.114136199999848,,,11,19,Man,Rechts,1,
,xotask,xotask,dotcolour,55,0,55,55,training,negativefb,93,average,64,0.9994168000002901,['c'],1,left,['0'],6,1.2463730999998006,,,11,19,Man,Rechts,1,
,xotask,xotask,dotcolour,56,0,56,56,training,negativefb,94,easy,9,0.9999133999999685,['n'],1,right,['0'],6,0.8842340000001059,,,11,19,Man,Rechts,1,
,xotask,xotask,dotcolour,57,0,57,57,training,negativefb,98,easy,74,0.799704500000189,['c'],1,left,['0'],6,0.8172937999997885,,,11,19,Man,Rechts,1,
,xotask,xotask,dotcolour,58,0,58,58,training,negativefb,87,average,64,1.267382699999871,['c'],1,left,['3'],3,1.4943421999996644,,,11,19,Man,Rechts,1,
,xotask,xotask,dotcolour,59,0,59,59,training,negativefb,14,hard,53,1.3010008000001108,['c'],1,left,['9'],5,2.5113337000002502,,,11,19,Man,Rechts,1,
,xotask,xotask,dotcolour,0,1,60,60,training,negativefb,16,easy,8,1.8838018000005832,['c'],0,right,['3'],3,0.4555947999997443,,,11,19,Man,Rechts,1,
,xotask,xotask,dotcolour,1,1,61,61,training,negativefb,93,easy,7,1.500420800000029,['n'],1,right,['0'],6,1.345586800000092,,,11,19,Man,Rechts,1,
,xotask,xotask,dotcolour,2,1,62,62,training,negativefb,85,hard,53,1.6336039999996501,['c'],1,left,['9'],5,1.8824938000007023,,,11,19,Man,Rechts,1,
,xotask,xotask,dotcolour,3,1,63,63,training,negativefb,35,hard,29,1.2342621000007057,['c'],0,right,['3'],3,1.5814695000008214,,,11,19,Man,Rechts,1,
,xotask,xotask,dotcolour,4,1,64,64,training,negativefb,61,average,60,1.1842932999998084,['n'],0,left,['3'],3,1.3427965999999287,,,11,19,Man,Rechts,1,
,xotask,xotask,dotcolour,5,1,65,65,training,negativefb,60,easy,74,1.1500604000002568,['c'],1,left,['0'],6,1.690779599999587,,,11,19,Man,Rechts,1,
,xotask,xotask,dotcolour,6,1,66,66,training,negativefb,42,hard,28,1.5999441000003571,['c'],0,right,['3'],3,1.039142499999798,,,11,19,Man,Rechts,1,
,xotask,xotask,dotcolour,7,1,67,67,training,negativefb,65,hard,51,1.183910300000207,['c'],1,left,['8'],4,1.6939956999995047,,,11,19,Man,Rechts,1,
,xotask,xotask,dotcolour,8,1,68,68,training,negativefb,93,easy,5,0.9496212000003652,['n'],1,right,['0'],6,0.907985899999403,,,11,19,Man,Rechts,1,
,xotask,xotask,dotcolour,9,1,69,69,training,negativefb,78,hard,25,0.8335641000003307,['n'],1,right,['0'],6,0.863392200000817,,,11,19,Man,Rechts,1,
,xotask,xotask,dotcolour,10,1,70,70,training,negativefb,56,hard,25,0.8671061999993981,['n'],1,right,['0'],6,0.8667978000003131,,,11,19,Man,Rechts,1,
,xotask,xotask,dotcolour,11,1,71,71,training,negativefb,46,hard,29,1.6495937999998205,['n'],1,right,['0'],6,1.013563599999543,,,11,19,Man,Rechts,1,
,xotask,xotask,dotcolour,12,1,72,72,training,negativefb,93,average,61,1.216702400000031,['c'],1,left,['3'],3,1.5253594999994675,,,11,19,Man,Rechts,1,
,xotask,xotask,dotcolour,13,1,73,73,training,negativefb,98,average,15,0.8330066999997143,['n'],1,right,['0'],6,0.8384894999999233,,,11,19,Man,Rechts,1,
,xotask,xotask,dotcolour,14,1,74,74,training,negativefb,89,easy,71,1.2503968999999415,['c'],1,left,['0'],6,1.971705199999633,,,11,19,Man,Rechts,1,
,xotask,xotask,dotcolour,15,1,75,75,training,negativefb,29,average,19,1.9662563000001683,['c'],0,right,['3'],3,1.677264500000092,,,11,19,Man,Rechts,1,
,xotask,xotask,dotcolour,16,1,76,76,training,negativefb,93,easy,73,1.616964900000312,['c'],1,left,['3'],3,0.5296184999997422,,,11,19,Man,Rechts,1,
,xotask,xotask,dotcolour,17,1,77,77,training,negativefb,30,average,15,1.633720899999389,['n'],1,right,['0'],6,0.8196796000001996,,,11,19,Man,Rechts,1,
,xotask,xotask,dotcolour,18,1,78,78,training,negativefb,94,hard,50,2.183882399999675,['c'],1,left,['8'],4,3.059656599999471,,,11,19,Man,Rechts,1,
,xotask,xotask,dotcolour,19,1,79,79,training,negativefb,96,easy,5,0.9663157000004503,['n'],1,right,['0'],6,1.0180192999996507,,,11,19,Man,Rechts,1,
,xotask,xotask,dotcolour,20,1,80,80,training,negativefb,93,easy,9,0.8832855000000563,['n'],1,right,['0'],6,0.8538402999993195,,,11,19,Man,Rechts,1,
,xotask,xotask,dotcolour,21,1,81,81,training,negativefb,95,hard,53,1.6497072000001936,['c'],1,left,['8'],4,1.6266443000004074,,,11,19,Man,Rechts,1,
,xotask,xotask,dotcolour,22,1,82,82,training,negativefb,36,average,61,1.0512139000002207,['c'],1,left,['8'],4,1.2231884000002538,,,11,19,Man,Rechts,1,
,xotask,xotask,dotcolour,23,1,83,83,training,negativefb,98,average,17,1.167438299999958,['n'],1,right,['8'],4,1.800287699999899,,,11,19,Man,Rechts,1,
,xotask,xotask,dotcolour,24,1,84,84,training,negativefb,91,hard,29,0.9841623000002073,['n'],1,right,['8'],4,0.5037180999997872,,,11,19,Man,Rechts,1,
,xotask,xotask,dotcolour,25,1,85,85,training,negativefb,90,average,61,1.7002019999999902,['c'],1,left,['8'],4,2.0318130000005112,,,11,19,Man,Rechts,1,
,xotask,xotask,dotcolour,26,1,86,86,training,negativefb,71,hard,25,1.0507112000004781,['n'],1,right,['9'],5,1.076279799999611,,,11,19,Man,Rechts,1,
,xotask,xotask,dotcolour,27,1,87,87,training,negativefb,64,easy,9,1.0328673000003619,['n'],1,right,['0'],6,1.1195631999999023,,,11,19,Man,Rechts,1,
,xotask,xotask,dotcolour,28,1,88,88,training,negativefb,81,hard,50,2.233450100000482,['n'],0,left,['8'],4,0.8577862999991339,,,11,19,Man,Rechts,1,
,xotask,xotask,dotcolour,29,1,89,89,training,negativefb,96,easy,5,0.8831346000006306,['n'],1,right,['9'],5,0.7965333999991344,,,11,19,Man,Rechts,1,
,xotask,xotask,dotcolour,30,1,90,90,training,negativefb,93,average,61,1.4495115999998234,['c'],1,left,['8'],4,1.2511393999993743,,,11,19,Man,Rechts,1,
,xotask,xotask,dotcolour,31,1,91,91,training,negativefb,86,average,19,1.1668283999997584,['n'],1,right,['8'],4,1.2430845999997473,,,11,19,Man,Rechts,1,
,xotask,xotask,dotcolour,32,1,92,92,training,negativefb,52,hard,54,2.4499454000006153,['c'],1,left,['9'],5,0.8707131000001027,,,11,19,Man,Rechts,1,
,xotask,xotask,dotcolour,33,1,93,93,training,negativefb,97,easy,70,1.100902500000302,['c'],1,left,['0'],6,1.016768200000115,,,11,19,Man,Rechts,1,
,xotask,xotask,dotcolour,34,1,94,94,training,negativefb,97,easy,72,0.917034799999783,['c'],1,left,['0'],6,0.8353942000003372,,,11,19,Man,Rechts,1,
,xotask,xotask,dotcolour,35,1,95,95,training,negativefb,64,average,19,0.8841664999999921,['n'],1,right,['0'],6,0.9112380999995366,,,11,19,Man,Rechts,1,
,xotask,xotask,dotcolour,36,1,96,96,training,negativefb,86,average,63,0.8674442999999883,['c'],1,left,['0'],6,1.040262000000439,,,11,19,Man,Rechts,1,
,xotask,xotask,dotcolour,37,1,97,97,training,negativefb,13,hard,28,1.7502309999999852,['n'],1,right,['8'],4,0.904939199999717,,,11,19,Man,Rechts,1,
,xotask,xotask,dotcolour,38,1,98,98,training,negativefb,77,average,18,1.250435899999502,['n'],1,right,['9'],5,1.2511485999993965,,,11,19,Man,Rechts,1,
,xotask,xotask,dotcolour,39,1,99,99,training,negativefb,92,average,18,1.1666924999999537,['n'],1,right,['0'],6,1.2667230999995809,,,11,19,Man,Rechts,1,
,xotask,xotask,dotcolour,40,1,100,100,training,negativefb,45,hard,27,1.233643800000209,['n'],1,right,['9'],5,0.8866850999993403,,,11,19,Man,Rechts,1,
,xotask,xotask,dotcolour,41,1,101,101,training,negativefb,88,hard,27,0.9341397999996843,['n'],1,right,['0'],6,0.8135822000003827,,,11,19,Man,Rechts,1,
,xotask,xotask,dotcolour,42,1,102,102,training,negativefb,97,average,63,0.8997015000004467,['c'],1,left,['9'],5,3.6099392000005537,,,11,19,Man,Rechts,1,
,xotask,xotask,dotcolour,43,1,103,103,training,negativefb,92,easy,6,0.767031099999258,['n'],1,right,['0'],6,0.7864239999998972,,,11,19,Man,Rechts,1,
,xotask,xotask,dotcolour,44,1,104,104,training,negativefb,87,easy,70,1.0837620000002062,['c'],1,left,['8'],4,0.8874728999999206,,,11,19,Man,Rechts,1,
,xotask,xotask,dotcolour,45,1,105,105,training,negativefb,27,hard,52,2.1663964999997916,['n'],0,left,['8'],4,1.4938277999999627,,,11,19,Man,Rechts,1,
,xotask,xotask,dotcolour,46,1,106,106,training,negativefb,52,hard,54,1.1001938999997947,['c'],1,left,['9'],5,0.9496102000002793,,,11,19,Man,Rechts,1,
,xotask,xotask,dotcolour,47,1,107,107,training,negativefb,53,easy,73,1.4332972000001973,['c'],1,left,['0'],6,0.3991384000000835,,,11,19,Man,Rechts,1,
,xotask,xotask,dotcolour,48,1,108,108,training,negativefb,100,easy,6,0.7003825000001598,['n'],1,right,['0'],6,0.9149897000006604,,,11,19,Man,Rechts,1,
,xotask,xotask,dotcolour,49,1,109,109,training,negativefb,89,easy,5,0.650093399999605,['n'],1,right,['0'],6,0.6436452999996618,,,11,19,Man,Rechts,1,
,xotask,xotask,dotcolour,50,1,110,110,training,negativefb,24,average,63,1.1322653999995964,['n'],0,left,['8'],4,1.1574714999997013,,,11,19,Man,Rechts,1,
,xotask,xotask,dotcolour,51,1,111,111,training,negativefb,72,easy,70,0.8664764000004652,['c'],1,left,['9'],5,0.7965261999997892,,,11,19,Man,Rechts,1,
,xotask,xotask,dotcolour,52,1,112,112,training,negativefb,67,hard,50,1.1835778000004211,['c'],1,left,['9'],5,0.7020398000004207,,,11,19,Man,Rechts,1,
,xotask,xotask,dotcolour,53,1,113,113,training,negativefb,47,average,17,0.699837899999693,['n'],1,right,['0'],6,0.7984244999997827,,,11,19,Man,Rechts,1,
,xotask,xotask,dotcolour,54,1,114,114,training,negativefb,75,average,17,0.7008346000002348,['n'],1,right,['0'],6,0.6580272999999579,,,11,19,Man,Rechts,1,
,xotask,xotask,dotcolour,55,1,115,115,training,negativefb,84,average,60,0.7840087000004132,['n'],0,left,['0'],6,0.5044150000003356,,,11,19,Man,Rechts,1,
,xotask,xotask,dotcolour,56,1,116,116,training,negativefb,22,average,63,0.9335407999997187,['n'],0,left,['0'],6,0.4950712999998359,,,11,19,Man,Rechts,1,
,xotask,xotask,dotcolour,57,1,117,117,training,negativefb,93,easy,74,0.8497662999998283,['c'],1,left,['0'],6,0.44167819999984204,,,11,19,Man,Rechts,1,
,xotask,xotask,dotcolour,58,1,118,118,training,negativefb,63,hard,53,3.1004287000005206,['c'],1,left,['8'],4,0.6932064000002356,,,11,19,Man,Rechts,1,
,xotask,xotask,dotcolour,59,1,119,119,training,negativefb,57,easy,74,0.9828889000000345,['c'],1,left,['0'],6,0.7225734000003285,,,11,19,Man,Rechts,1,
,dotcolour,xotask,dotcolour,0,2,120,120,main,negativefb,-99,easy,,1.6844579999997222,['c'],0,right,['3'],3,0.926874100000532,16,,11,19,Man,Rechts,1,
,dotcolour,xotask,dotcolour,1,2,121,121,main,negativefb,-99,hard,,0.751052399999935,['c'],0,right,['8'],4,2.0611308999996254,39,,11,19,Man,Rechts,1,
,dotcolour,xotask,dotcolour,2,2,122,122,main,negativefb,-99,hard,,1.2845102999999654,['c'],1,left,['8'],4,1.3846106999999392,43,,11,19,Man,Rechts,1,
,dotcolour,xotask,dotcolour,3,2,123,123,main,negativefb,-99,hard,,0.900733799999216,['c'],1,left,['8'],4,0.9497323000005053,45,,11,19,Man,Rechts,1,
,dotcolour,xotask,dotcolour,4,2,124,124,main,negativefb,-99,easy,,0.8175698000004559,['n'],1,right,['0'],6,1.224262799999451,15,,11,19,Man,Rechts,1,
,dotcolour,xotask,dotcolour,5,2,125,125,main,negativefb,-99,easy,,0.8672759000000951,['c'],1,left,['0'],6,0.6219307000001209,61,,11,19,Man,Rechts,1,
,dotcolour,xotask,dotcolour,6,2,126,126,main,negativefb,-99,average,,0.7841066000000865,['c'],1,left,['0'],6,0.7336945999995805,53,,11,19,Man,Rechts,1,
,dotcolour,xotask,dotcolour,7,2,127,127,main,negativefb,-99,hard,,1.900333800000226,['c'],1,left,['3'],3,1.1253239999996367,43,,11,19,Man,Rechts,1,
,dotcolour,xotask,dotcolour,8,2,128,128,main,negativefb,-99,average,,0.966898300000139,['c'],1,left,['0'],6,1.3712091999996119,54,,11,19,Man,Rechts,1,
,dotcolour,xotask,dotcolour,9,2,129,129,main,negativefb,-99,easy,,0.9005579000004218,['n'],1,right,['0'],6,1.7609659999998257,18,,11,19,Man,Rechts,1,
,dotcolour,xotask,dotcolour,10,2,130,130,main,negativefb,-99,easy,,0.8509809999995923,['c'],1,left,['0'],6,0.5369216999997661,61,,11,19,Man,Rechts,1,
,dotcolour,xotask,dotcolour,11,2,131,131,main,negativefb,-99,average,,1.0501130000002377,['c'],1,left,['9'],5,1.8429080000005342,52,,11,19,Man,Rechts,1,
,dotcolour,xotask,dotcolour,12,2,132,132,main,negativefb,-99,average,,0.750978899999609,['c'],1,left,['0'],6,0.46007379999991826,53,,11,19,Man,Rechts,1,
,dotcolour,xotask,dotcolour,13,2,133,133,main,negativefb,-99,easy,,0.6842392999997173,['c'],1,left,['0'],6,0.4156204999999318,61,,11,19,Man,Rechts,1,
,dotcolour,xotask,dotcolour,14,2,134,134,main,negativefb,-99,average,,0.8004537000006167,['n'],1,right,['8'],4,1.4235801000004358,29,,11,19,Man,Rechts,1,
,dotcolour,xotask,dotcolour,15,2,135,135,main,negativefb,-99,easy,,0.9010656000000381,['c'],1,left,['0'],6,0.9155895000003511,65,,11,19,Man,Rechts,1,
,dotcolour,xotask,dotcolour,16,2,136,136,main,negativefb,-99,hard,,1.300618299999769,['c'],1,left,['8'],4,0.9072928999994474,45,,11,19,Man,Rechts,1,
,dotcolour,xotask,dotcolour,17,2,137,137,main,negativefb,-99,average,,0.7339227000002211,['n'],1,right,['9'],5,0.7549262000002273,29,,11,19,Man,Rechts,1,
,dotcolour,xotask,dotcolour,18,2,138,138,main,negativefb,-99,average,,0.8670134999993024,['c'],1,left,['9'],5,1.0748883999995087,55,,11,19,Man,Rechts,1,
,dotcolour,xotask,dotcolour,19,2,139,139,main,negativefb,-99,easy,,0.7680027000005794,['c'],1,left,['0'],6,0.7464798000000883,65,,11,19,Man,Rechts,1,
,dotcolour,xotask,dotcolour,20,2,140,140,main,negativefb,-99,hard,,1.0342350999999326,['n'],1,right,['8'],4,1.0361916000001656,36,,11,19,Man,Rechts,1,
,dotcolour,xotask,dotcolour,21,2,141,141,main,negativefb,-99,hard,,1.6513024000005316,['c'],0,right,['8'],4,0.6973050999995394,35,,11,19,Man,Rechts,1,
,dotcolour,xotask,dotcolour,22,2,142,142,main,negativefb,-99,average,,0.8004981000003681,['c'],1,left,['9'],5,0.550661800000853,51,,11,19,Man,Rechts,1,
,dotcolour,xotask,dotcolour,23,2,143,143,main,negativefb,-99,easy,,0.7006556999995155,['n'],1,right,['0'],6,1.0127484000004188,18,,11,19,Man,Rechts,1,
,dotcolour,xotask,dotcolour,24,2,144,144,main,negativefb,-99,hard,,1.0178366000000096,['c'],1,left,['3'],3,2.1010440999998536,41,,11,19,Man,Rechts,1,
,dotcolour,xotask,dotcolour,25,2,145,145,main,negativefb,-99,hard,,0.8170495000003939,['n'],1,right,['8'],4,1.6655283000000054,37,,11,19,Man,Rechts,1,
,dotcolour,xotask,dotcolour,26,2,146,146,main,negativefb,-99,average,,0.9183334999997896,['n'],1,right,['9'],5,1.202538900000036,29,,11,19,Man,Rechts,1,
,dotcolour,xotask,dotcolour,27,2,147,147,main,negativefb,-99,hard,,0.8842767999994976,['c'],1,left,['8'],4,1.7674882000001162,44,,11,19,Man,Rechts,1,
,dotcolour,xotask,dotcolour,28,2,148,148,main,negativefb,-99,easy,,0.9668881999996302,['c'],1,left,['0'],6,0.8911837999994532,62,,11,19,Man,Rechts,1,
,dotcolour,xotask,dotcolour,29,2,149,149,main,negativefb,-99,hard,,1.050412900000083,['n'],1,right,['9'],5,1.3345526000002792,38,,11,19,Man,Rechts,1,
,dotcolour,xotask,dotcolour,30,2,150,150,main,negativefb,-99,hard,,1.91854450000028,['c'],0,right,['3'],3,1.1569589999999152,35,,11,19,Man,Rechts,1,
,dotcolour,xotask,dotcolour,31,2,151,151,main,negativefb,-99,hard,,1.1839086999998472,['n'],0,left,['8'],4,1.832954200000131,44,,11,19,Man,Rechts,1,
,dotcolour,xotask,dotcolour,32,2,152,152,main,negativefb,-99,hard,,1.1011743999997634,['n'],0,left,['3'],3,0.6358315999996194,45,,11,19,Man,Rechts,1,
,dotcolour,xotask,dotcolour,33,2,153,153,main,negativefb,-99,average,,1.0169751000003089,['n'],1,right,['9'],5,2.1710092000002987,27,,11,19,Man,Rechts,1,
,dotcolour,xotask,dotcolour,34,2,154,154,main,negativefb,-99,hard,,1.1342820999998366,['n'],1,right,['9'],5,1.151042100000268,35,,11,19,Man,Rechts,1,
,dotcolour,xotask,dotcolour,35,2,155,155,main,negativefb,-99,easy,,0.9012914000004457,['c'],0,right,['1'],1,1.4542927000002237,17,,11,19,Man,Rechts,1,
,dotcolour,xotask,dotcolour,36,2,156,156,main,negativefb,-99,hard,,2.0343168999997943,['n'],1,right,['8'],4,1.3549901000005775,38,,11,19,Man,Rechts,1,
,dotcolour,xotask,dotcolour,37,2,157,157,main,negativefb,-99,easy,,0.8181415999997625,['n'],1,right,['0'],6,1.1420932999999422,18,,11,19,Man,Rechts,1,
,dotcolour,xotask,dotcolour,38,2,158,158,main,negativefb,-99,easy,,0.6671190000006391,['n'],1,right,['0'],6,1.1175549999998111,16,,11,19,Man,Rechts,1,
,dotcolour,xotask,dotcolour,39,2,159,159,main,negativefb,-99,average,,0.8338573999999426,['n'],1,right,['8'],4,1.488982599999872,29,,11,19,Man,Rechts,1,
,dotcolour,xotask,dotcolour,40,2,160,160,main,negativefb,-99,average,,1.0341709000003902,['n'],1,right,['9'],5,1.3006939999995666,29,,11,19,Man,Rechts,1,
,dotcolour,xotask,dotcolour,41,2,161,161,main,negativefb,-99,easy,,0.8177599999999074,['c'],1,left,['0'],6,0.7367227999993702,65,,11,19,Man,Rechts,1,
,dotcolour,xotask,dotcolour,42,2,162,162,main,negativefb,-99,average,,1.0013922999996794,['n'],1,right,['0'],6,1.0844485999996323,25,,11,19,Man,Rechts,1,
,dotcolour,xotask,dotcolour,43,2,163,163,main,negativefb,-99,easy,,0.6174528999999893,['n'],1,right,['0'],6,1.0405367000003025,17,,11,19,Man,Rechts,1,
,dotcolour,xotask,dotcolour,44,2,164,164,main,negativefb,-99,easy,,1.8845750999998927,['n'],1,right,['0'],6,1.5727563000000373,15,,11,19,Man,Rechts,1,
,dotcolour,xotask,dotcolour,45,2,165,165,main,negativefb,-99,average,,1.0348606999996264,['c'],1,left,['3'],3,1.6850504000003639,51,,11,19,Man,Rechts,1,
,dotcolour,xotask,dotcolour,46,2,166,166,main,negativefb,-99,average,,1.7172266999996282,['c'],1,left,['8'],4,1.6462352999997165,51,,11,19,Man,Rechts,1,
,dotcolour,xotask,dotcolour,47,2,167,167,main,negativefb,-99,hard,,2.317234699999972,['c'],0,right,['3'],3,1.5372393000006923,35,,11,19,Man,Rechts,1,
,dotcolour,xotask,dotcolour,48,2,168,168,main,negativefb,-99,average,,1.401150300000154,['c'],1,left,['0'],6,1.5887924999997267,54,,11,19,Man,Rechts,1,
,dotcolour,xotask,dotcolour,49,2,169,169,main,negativefb,-99,average,,1.80150120000053,['n'],1,right,['3'],3,0.861698300000171,29,,11,19,Man,Rechts,1,
,dotcolour,xotask,dotcolour,50,2,170,170,main,negativefb,-99,hard,,1.7513933999998699,['n'],1,right,['3'],3,0.49473029999990104,35,,11,19,Man,Rechts,1,
,dotcolour,xotask,dotcolour,51,2,171,171,main,negativefb,-99,easy,,1.2852961999997206,['n'],1,right,['0'],6,0.7686194999996587,15,,11,19,Man,Rechts,1,
,dotcolour,xotask,dotcolour,52,2,172,172,main,negativefb,-99,average,,0.9002996999997777,['c'],1,left,['0'],6,0.9186350999998467,52,,11,19,Man,Rechts,1,
,dotcolour,xotask,dotcolour,53,2,173,173,main,negativefb,-99,hard,,1.6505857000001924,['n'],0,left,['3'],3,1.057100700000774,42,,11,19,Man,Rechts,1,
,dotcolour,xotask,dotcolour,54,2,174,174,main,negativefb,-99,hard,,1.8842926999996052,['c'],1,left,['8'],4,1.5802032000001418,45,,11,19,Man,Rechts,1,
,dotcolour,xotask,dotcolour,55,2,175,175,main,negativefb,-99,easy,,1.0344923000002382,['c'],1,left,['9'],5,0.8212021999997887,61,,11,19,Man,Rechts,1,
,dotcolour,xotask,dotcolour,56,2,176,176,main,negativefb,-99,easy,,0.9008188000007067,['c'],1,left,['0'],6,0.7846879999997327,63,,11,19,Man,Rechts,1,
,dotcolour,xotask,dotcolour,57,2,177,177,main,negativefb,-99,average,,0.8170164000002842,['n'],1,right,['0'],6,0.6569776000005731,25,,11,19,Man,Rechts,1,
,dotcolour,xotask,dotcolour,58,2,178,178,main,negativefb,-99,easy,,0.817859299999327,['c'],1,left,['0'],6,0.43936500000017986,65,,11,19,Man,Rechts,1,
,dotcolour,xotask,dotcolour,59,2,179,179,main,negativefb,-99,average,,1.0511425999993662,['n'],1,right,['9'],5,1.7651538999998593,26,,11,19,Man,Rechts,1,
,dotcolour,xotask,dotcolour,0,3,180,180,main,negativefb,-99,average,,0.867133400000057,['n'],1,right,['8'],4,2.002067700000225,28,,11,19,Man,Rechts,1,
,dotcolour,xotask,dotcolour,1,3,181,181,main,negativefb,-99,easy,,0.6507110000002285,['n'],1,right,['0'],6,0.7927483000003122,15,,11,19,Man,Rechts,1,
,dotcolour,xotask,dotcolour,2,3,182,182,main,negativefb,-99,easy,,0.7012226999995619,['c'],1,left,['0'],6,1.3183418000007805,64,,11,19,Man,Rechts,1,
,dotcolour,xotask,dotcolour,3,3,183,183,main,negativefb,-99,average,,0.7345428999997239,['n'],1,right,['9'],5,1.2527241999996477,26,,11,19,Man,Rechts,1,
,dotcolour,xotask,dotcolour,4,3,184,184,main,negativefb,-99,hard,,1.200944299999719,['c'],1,left,['3'],3,1.5474487999999837,41,,11,19,Man,Rechts,1,
,dotcolour,xotask,dotcolour,5,3,185,185,main,negativefb,-99,hard,,2.000687100000505,['c'],0,right,['3'],3,0.35846159999982774,38,,11,19,Man,Rechts,1,
,dotcolour,xotask,dotcolour,6,3,186,186,main,negativefb,-99,average,,1.3671989000004032,['n'],0,left,['2'],2,1.4420218000004752,54,,11,19,Man,Rechts,1,
,dotcolour,xotask,dotcolour,7,3,187,187,main,negativefb,-99,hard,,2.399857399999746,['n'],1,right,['3'],3,1.817294899999979,39,,11,19,Man,Rechts,1,
,dotcolour,xotask,dotcolour,8,3,188,188,main,negativefb,-99,easy,,1.0840323000002172,['n'],1,right,['0'],6,0.8706102000005558,18,,11,19,Man,Rechts,1,
,dotcolour,xotask,dotcolour,9,3,189,189,main,negativefb,-99,average,,1.0682384000001548,['n'],1,right,['8'],4,0.889774799999941,26,,11,19,Man,Rechts,1,
,dotcolour,xotask,dotcolour,10,3,190,190,main,negativefb,-99,average,,1.4506039999996574,['n'],1,right,['8'],4,1.0451835000003484,28,,11,19,Man,Rechts,1,
,dotcolour,xotask,dotcolour,11,3,191,191,main,negativefb,-99,average,,1.3007574000002933,['c'],1,left,['9'],5,1.400638799999797,55,,11,19,Man,Rechts,1,
,dotcolour,xotask,dotcolour,12,3,192,192,main,negativefb,-99,average,,0.7506623999997828,['c'],1,left,['9'],5,0.5387000999999145,55,,11,19,Man,Rechts,1,
,dotcolour,xotask,dotcolour,13,3,193,193,main,negativefb,-99,easy,,0.6848559999998542,['c'],1,left,['0'],6,0.6189628999991328,62,,11,19,Man,Rechts,1,
,dotcolour,xotask,dotcolour,14,3,194,194,main,negativefb,-99,hard,,1.400852799999484,['c'],1,left,['8'],4,1.2028335999993942,42,,11,19,Man,Rechts,1,
,dotcolour,xotask,dotcolour,15,3,195,195,main,negativefb,-99,average,,0.951383700000406,['c'],1,left,['9'],5,0.7257134000001315,54,,11,19,Man,Rechts,1,
,dotcolour,xotask,dotcolour,16,3,196,196,main,negativefb,-99,average,,0.9674148000003697,['n'],1,right,['9'],5,0.9235867999996117,26,,11,19,Man,Rechts,1,
,dotcolour,xotask,dotcolour,17,3,197,197,main,negativefb,-99,easy,,2.084151600000041,['c'],1,left,['9'],5,1.588220900000124,63,,11,19,Man,Rechts,1,
,dotcolour,xotask,dotcolour,18,3,198,198,main,negativefb,-99,average,,1.0178992000001017,['n'],1,right,['9'],5,0.5970065999999861,29,,11,19,Man,Rechts,1,
,dotcolour,xotask,dotcolour,19,3,199,199,main,negativefb,-99,hard,,1.8848929999994652,['c'],0,right,['3'],3,1.202591900000698,35,,11,19,Man,Rechts,1,
,dotcolour,xotask,dotcolour,20,3,200,200,main,negativefb,-99,easy,,1.3006971000004341,['c'],1,left,['0'],6,0.9115879999999379,61,,11,19,Man,Rechts,1,
,dotcolour,xotask,dotcolour,21,3,201,201,main,negativefb,-99,average,,1.0174418000005971,['n'],1,right,['0'],6,0.7473442999998952,25,,11,19,Man,Rechts,1,
,dotcolour,xotask,dotcolour,22,3,202,202,main,negativefb,-99,average,,1.534335999999712,['c'],0,right,['3'],3,1.2095806000006633,29,,11,19,Man,Rechts,1,
,dotcolour,xotask,dotcolour,23,3,203,203,main,negativefb,-99,average,,1.3339201999997385,['c'],1,left,['0'],6,1.1805610999999772,55,,11,19,Man,Rechts,1,
,dotcolour,xotask,dotcolour,24,3,204,204,main,negativefb,-99,easy,,1.3003036000000066,['n'],1,right,['0'],6,0.9947756000001391,17,,11,19,Man,Rechts,1,
,dotcolour,xotask,dotcolour,25,3,205,205,main,negativefb,-99,hard,,0.9338626999997359,['c'],1,left,['0'],6,0.4306797999997798,45,,11,19,Man,Rechts,1,
,dotcolour,xotask,dotcolour,26,3,206,206,main,negativefb,-99,hard,,1.4679955000001428,['c'],0,right,['3'],3,0.7235822000002372,39,,11,19,Man,Rechts,1,
,dotcolour,xotask,dotcolour,27,3,207,207,main,negativefb,-99,easy,,1.7504182000002402,['n'],1,right,['0'],6,1.2182770999997956,18,,11,19,Man,Rechts,1,
,dotcolour,xotask,dotcolour,28,3,208,208,main,negativefb,-99,hard,,2.201444299999821,['n'],1,right,['8'],4,1.9145152999999482,37,,11,19,Man,Rechts,1,
,dotcolour,xotask,dotcolour,29,3,209,209,main,negativefb,-99,easy,,1.068315800000164,['n'],1,right,['0'],6,0.8118280999997296,15,,11,19,Man,Rechts,1,
,dotcolour,xotask,dotcolour,30,3,210,210,main,negativefb,-99,easy,,0.6831285999996908,['n'],1,right,['0'],6,1.0248854999999821,16,,11,19,Man,Rechts,1,
,dotcolour,xotask,dotcolour,31,3,211,211,main,negativefb,-99,average,,1.0673978999993778,['c'],1,left,['0'],6,3.718490500000371,51,,11,19,Man,Rechts,1,
,dotcolour,xotask,dotcolour,32,3,212,212,main,negativefb,-99,hard,,1.2184072999998534,['n'],1,right,['8'],4,1.5452110999995057,37,,11,19,Man,Rechts,1,
,dotcolour,xotask,dotcolour,33,3,213,213,main,negativefb,-99,average,,0.8999250000006214,['c'],1,left,['9'],5,1.377033400000073,53,,11,19,Man,Rechts,1,
,dotcolour,xotask,dotcolour,34,3,214,214,main,negativefb,-99,easy,,0.9009507999999187,['n'],1,right,['0'],6,0.8073850999999195,15,,11,19,Man,Rechts,1,
,dotcolour,xotask,dotcolour,35,3,215,215,main,negativefb,-99,easy,,0.6838471000000936,['c'],1,left,['0'],6,0.5083485000004657,65,,11,19,Man,Rechts,1,
,dotcolour,xotask,dotcolour,36,3,216,216,main,negativefb,-99,hard,,1.7849458999999115,['c'],1,left,['8'],4,1.2095716999992874,45,,11,19,Man,Rechts,1,
,dotcolour,xotask,dotcolour,37,3,217,217,main,negativefb,-99,easy,,1.1512884000003396,['n'],0,left,['1'],1,1.156708399999843,62,,11,19,Man,Rechts,1,
,dotcolour,xotask,dotcolour,38,3,218,218,main,negativefb,-99,hard,,1.750332100000378,['c'],0,right,['3'],3,1.72917679999955,38,,11,19,Man,Rechts,1,
,dotcolour,xotask,dotcolour,39,3,219,219,main,negativefb,-99,hard,,1.01833969999916,['c'],1,left,['8'],4,0.9566541999993206,45,,11,19,Man,Rechts,1,
,dotcolour,xotask,dotcolour,40,3,220,220,main,negativefb,-99,easy,,0.7682485000004817,['n'],1,right,['0'],6,0.8162288000003173,17,,11,19,Man,Rechts,1,
,dotcolour,xotask,dotcolour,41,3,221,221,main,negativefb,-99,average,,0.7680862999995952,['n'],1,right,['0'],6,0.7299929000000702,29,,11,19,Man,Rechts,1,
,dotcolour,xotask,dotcolour,42,3,222,222,main,negativefb,-99,easy,,0.9515460000002349,['c'],1,left,['0'],6,0.4960345999998026,65,,11,19,Man,Rechts,1,
,dotcolour,xotask,dotcolour,43,3,223,223,main,negativefb,-99,average,,0.7347632999999405,['c'],1,left,['0'],6,0.46456469999975525,53,,11,19,Man,Rechts,1,
,dotcolour,xotask,dotcolour,44,3,224,224,main,negativefb,-99,hard,,1.1502260999995997,['n'],1,right,['8'],4,1.2491245999999592,39,,11,19,Man,Rechts,1,
,dotcolour,xotask,dotcolour,45,3,225,225,main,negativefb,-99,easy,,0.734767599999941,['c'],1,left,['0'],6,0.7780746999997064,65,,11,19,Man,Rechts,1,
,dotcolour,xotask,dotcolour,46,3,226,226,main,negativefb,-99,easy,,0.7848675000004732,['n'],1,right,['0'],6,0.500862099999722,19,,11,19,Man,Rechts,1,
,dotcolour,xotask,dotcolour,47,3,227,227,main,negativefb,-99,average,,0.7004541000005702,['c'],1,left,['0'],6,0.7171987000001536,54,,11,19,Man,Rechts,1,
,dotcolour,xotask,dotcolour,48,3,228,228,main,negativefb,-99,easy,,0.6349382999997033,['c'],1,left,['0'],6,0.35964379999950324,63,,11,19,Man,Rechts,1,
,dotcolour,xotask,dotcolour,49,3,229,229,main,negativefb,-99,hard,,1.2174998000000414,['c'],1,left,['8'],4,1.0417068999995536,43,,11,19,Man,Rechts,1,
,dotcolour,xotask,dotcolour,50,3,230,230,main,negativefb,-99,easy,,0.9175312999996095,['c'],1,left,['0'],6,0.6444173999998384,63,,11,19,Man,Rechts,1,
,dotcolour,xotask,dotcolour,51,3,231,231,main,negativefb,-99,easy,,0.7010989999998856,['n'],1,right,['0'],6,0.4156796999996004,16,,11,19,Man,Rechts,1,
,dotcolour,xotask,dotcolour,52,3,232,232,main,negativefb,-99,average,,0.7171798000008494,['c'],1,left,['9'],5,0.8199541000003592,52,,11,19,Man,Rechts,1,
,dotcolour,xotask,dotcolour,53,3,233,233,main,negativefb,-99,hard,,1.2167462999996133,['c'],1,left,['9'],5,0.33902370000032533,41,,11,19,Man,Rechts,1,
,dotcolour,xotask,dotcolour,54,3,234,234,main,negativefb,-99,average,,0.8509792999993806,['c'],0,right,['3'],3,1.7478846999993038,27,,11,19,Man,Rechts,1,
,dotcolour,xotask,dotcolour,55,3,235,235,main,negativefb,-99,hard,,1.100387800000135,['n'],1,right,['8'],4,1.2989348000000973,39,,11,19,Man,Rechts,1,
,dotcolour,xotask,dotcolour,56,3,236,236,main,negativefb,-99,hard,,1.201787100000729,['c'],1,left,['8'],4,0.9119085000002087,44,,11,19,Man,Rechts,1,
,dotcolour,xotask,dotcolour,57,3,237,237,main,negativefb,-99,hard,,1.701495100000102,['c'],1,left,['8'],4,0.36037840000062715,43,,11,19,Man,Rechts,1,
,dotcolour,xotask,dotcolour,58,3,238,238,main,negativefb,-99,hard,,0.9345258999992438,['n'],1,right,['8'],4,0.5971599999993487,36,,11,19,Man,Rechts,1,
,dotcolour,xotask,dotcolour,59,3,239,239,main,negativefb,-99,hard,,0.8178435999998328,['c'],1,left,['8'],4,0.5981621999999334,45,,11,19,Man,Rechts,1,
,dotcolour,xotask,dotcolour,0,4,240,240,main,negativefb,-99,hard,,1.4016958000001978,['c'],1,left,['3'],3,1.606386599999496,41,,11,19,Man,Rechts,1,
,dotcolour,xotask,dotcolour,1,4,241,241,main,negativefb,-99,easy,,1.0176203999999416,['c'],1,left,['0'],6,0.8791097000002992,65,,11,19,Man,Rechts,1,
,dotcolour,xotask,dotcolour,2,4,242,242,main,negativefb,-99,easy,,0.768611299999975,['n'],1,right,['0'],6,0.39000859999941895,18,,11,19,Man,Rechts,1,
,dotcolour,xotask,dotcolour,3,4,243,243,main,negativefb,-99,hard,,1.2003168999999616,['c'],0,right,['8'],4,1.2316076999995857,37,,11,19,Man,Rechts,1,
,dotcolour,xotask,dotcolour,4,4,244,244,main,negativefb,-99,hard,,1.0175011999999697,['c'],0,right,['8'],4,0.701316499999848,39,,11,19,Man,Rechts,1,
,dotcolour,xotask,dotcolour,5,4,245,245,main,negativefb,-99,average,,0.7515456999999515,['n'],1,right,['0'],6,1.5005304000005708,26,,11,19,Man,Rechts,1,
,dotcolour,xotask,dotcolour,6,4,246,246,main,negativefb,-99,hard,,1.2000377000003937,['c'],1,left,['3'],3,1.0254010999997263,44,,11,19,Man,Rechts,1,
,dotcolour,xotask,dotcolour,7,4,247,247,main,negativefb,-99,easy,,0.8166205999996237,['c'],1,left,['0'],6,0.9041391000000658,61,,11,19,Man,Rechts,1,
,dotcolour,xotask,dotcolour,8,4,248,248,main,negativefb,-99,hard,,1.1500947999993514,['c'],1,left,['8'],4,0.7191851999996288,43,,11,19,Man,Rechts,1,
,dotcolour,xotask,dotcolour,9,4,249,249,main,negativefb,-99,easy,,1.2675434000002497,['n'],1,right,['0'],6,0.7606915999995181,15,,11,19,Man,Rechts,1,
,dotcolour,xotask,dotcolour,10,4,250,250,main,negativefb,-99,average,,0.6836057000000437,['c'],1,left,['0'],6,0.9202549999999974,52,,11,19,Man,Rechts,1,
,dotcolour,xotask,dotcolour,11,4,251,251,main,negativefb,-99,easy,,0.600741499999458,['c'],1,left,['0'],6,0.3638427000005322,61,,11,19,Man,Rechts,1,
,dotcolour,xotask,dotcolour,12,4,252,252,main,negativefb,-99,hard,,1.5348565000003873,['c'],1,left,['0'],6,0.2575851000001421,41,,11,19,Man,Rechts,1,
,dotcolour,xotask,dotcolour,13,4,253,253,main,negativefb,-99,average,,1.1501532000002044,['n'],1,right,['0'],6,0.5214157000000341,25,,11,19,Man,Rechts,1,
,dotcolour,xotask,dotcolour,14,4,254,254,main,negativefb,-99,hard,,0.8507285999994565,['c'],1,left,['9'],5,1.0599814999995942,44,,11,19,Man,Rechts,1,
,dotcolour,xotask,dotcolour,15,4,255,255,main,negativefb,-99,average,,0.667691300000115,['c'],1,left,['9'],5,0.2717694000002666,53,,11,19,Man,Rechts,1,
,dotcolour,xotask,dotcolour,16,4,256,256,main,negativefb,-99,hard,,0.8171431999999186,['c'],1,left,['9'],5,0.2535918000003221,42,,11,19,Man,Rechts,1,
,dotcolour,xotask,dotcolour,17,4,257,257,main,negativefb,-99,hard,,0.9512463999999454,['c'],1,left,['9'],5,0.2618302999999287,44,,11,19,Man,Rechts,1,
,dotcolour,xotask,dotcolour,18,4,258,258,main,negativefb,-99,hard,,0.9007614000001922,['n'],1,right,['9'],5,0.5765602999999828,35,,11,19,Man,Rechts,1,
,dotcolour,xotask,dotcolour,19,4,259,259,main,negativefb,-99,easy,,0.7510776999997688,['n'],1,right,['0'],6,0.6930792000002839,16,,11,19,Man,Rechts,1,
,dotcolour,xotask,dotcolour,20,4,260,260,main,negativefb,-99,average,,0.6514438000003793,['c'],1,left,['0'],6,0.5123008999999001,54,,11,19,Man,Rechts,1,
,dotcolour,xotask,dotcolour,21,4,261,261,main,negativefb,-99,easy,,0.9512981999996555,['n'],1,right,['0'],6,0.7753726999999344,15,,11,19,Man,Rechts,1,
,dotcolour,xotask,dotcolour,22,4,262,262,main,negativefb,-99,easy,,0.6006953999994948,['c'],1,left,['0'],6,0.36051640000005136,65,,11,19,Man,Rechts,1,
,dotcolour,xotask,dotcolour,23,4,263,263,main,negativefb,-99,easy,,0.6503905999998096,['c'],1,left,['0'],6,0.26532940000015515,64,,11,19,Man,Rechts,1,
,dotcolour,xotask,dotcolour,24,4,264,264,main,negativefb,-99,average,,0.6844916999998532,['n'],1,right,['0'],6,0.3409077999995134,27,,11,19,Man,Rechts,1,
,dotcolour,xotask,dotcolour,25,4,265,265,main,negativefb,-99,easy,,0.6000822000005428,['n'],1,right,['0'],6,0.35980209999979706,15,,11,19,Man,Rechts,1,
,dotcolour,xotask,dotcolour,26,4,266,266,main,negativefb,-99,hard,,1.550632299999961,['c'],0,right,['8'],4,0.907927700000073,38,,11,19,Man,Rechts,1,
,dotcolour,xotask,dotcolour,27,4,267,267,main,negativefb,-99,hard,,0.801863400000002,['c'],1,left,['8'],4,0.3444960999995601,44,,11,19,Man,Rechts,1,
,dotcolour,xotask,dotcolour,28,4,268,268,main,negativefb,-99,easy,,0.6517533000005642,['n'],1,right,['0'],6,0.8259208999998009,19,,11,19,Man,Rechts,1,
,dotcolour,xotask,dotcolour,29,4,269,269,main,negativefb,-99,average,,0.600543700000344,['n'],1,right,['0'],6,0.3457413000005545,26,,11,19,Man,Rechts,1,
,dotcolour,xotask,dotcolour,30,4,270,270,main,negativefb,-99,hard,,1.3853601999999228,['n'],1,right,['8'],4,0.8937206999999034,36,,11,19,Man,Rechts,1,
,dotcolour,xotask,dotcolour,31,4,271,271,main,negativefb,-99,easy,,0.9686973000007129,['c'],1,left,['0'],6,0.35744919999979174,62,,11,19,Man,Rechts,1,
,dotcolour,xotask,dotcolour,32,4,272,272,main,negativefb,-99,average,,0.801205900000241,['c'],1,left,['0'],6,0.3115920999998707,53,,11,19,Man,Rechts,1,
,dotcolour,xotask,dotcolour,33,4,273,273,main,negativefb,-99,average,,0.7180430999997043,['c'],1,left,['0'],6,0.36840070000016567,55,,11,19,Man,Rechts,1,
,dotcolour,xotask,dotcolour,34,4,274,274,main,negativefb,-99,average,,0.7170839999998861,['c'],1,left,['0'],6,0.5010370999998486,55,,11,19,Man,Rechts,1,
,dotcolour,xotask,dotcolour,35,4,275,275,main,negativefb,-99,average,,0.8844849999995859,['n'],1,right,['9'],5,0.7345175999998901,25,,11,19,Man,Rechts,1,
,dotcolour,xotask,dotcolour,36,4,276,276,main,negativefb,-99,easy,,0.8667714000002888,['c'],0,right,['1'],1,1.4231001999996806,16,,11,19,Man,Rechts,1,
,dotcolour,xotask,dotcolour,37,4,277,277,main,negativefb,-99,hard,,1.75123320000057,['n'],1,right,['8'],4,0.8887921000005008,37,,11,19,Man,Rechts,1,
,dotcolour,xotask,dotcolour,38,4,278,278,main,negativefb,-99,easy,,0.6509783999999854,['c'],1,left,['0'],6,2.4531292000001486,62,,11,19,Man,Rechts,1,
,dotcolour,xotask,dotcolour,39,4,279,279,main,negativefb,-99,easy,,0.7176611000004414,['n'],1,right,['0'],6,0.4632509000002756,15,,11,19,Man,Rechts,1,
,dotcolour,xotask,dotcolour,40,4,280,280,main,negativefb,-99,hard,,1.2500360000003639,['c'],0,right,['3'],3,1.5229044999996404,35,,11,19,Man,Rechts,1,
,dotcolour,xotask,dotcolour,41,4,281,281,main,negativefb,-99,easy,,0.6841175999998086,['n'],1,right,['0'],6,2.140118100000109,17,,11,19,Man,Rechts,1,
,dotcolour,xotask,dotcolour,42,4,282,282,main,negativefb,-99,hard,,1.7683597000004738,['c'],0,right,['8'],4,0.7685370999997758,35,,11,19,Man,Rechts,1,
,dotcolour,xotask,dotcolour,43,4,283,283,main,negativefb,-99,average,,0.7338528999998744,['n'],1,right,['9'],5,1.021463699999913,25,,11,19,Man,Rechts,1,
,dotcolour,xotask,dotcolour,44,4,284,284,main,negativefb,-99,average,,0.8677025999995749,['n'],1,right,['9'],5,0.6268129000000044,28,,11,19,Man,Rechts,1,
,dotcolour,xotask,dotcolour,45,4,285,285,main,negativefb,-99,average,,0.7508088999993561,['c'],1,left,['0'],6,0.9566930999999386,55,,11,19,Man,Rechts,1,
,dotcolour,xotask,dotcolour,46,4,286,286,main,negativefb,-99,hard,,1.2840603000004194,['c'],0,right,['8'],4,1.0277319000006173,37,,11,19,Man,Rechts,1,
,dotcolour,xotask,dotcolour,47,4,287,287,main,negativefb,-99,hard,,0.7995269000002736,['c'],1,left,['8'],4,0.34847890000037296,42,,11,19,Man,Rechts,1,
,dotcolour,xotask,dotcolour,48,4,288,288,main,negativefb,-99,easy,,1.1011736000000383,['c'],1,left,['0'],6,0.6110836999996536,63,,11,19,Man,Rechts,1,
,dotcolour,xotask,dotcolour,49,4,289,289,main,negativefb,-99,average,,1.3170370000007097,['n'],1,right,['9'],5,0.4865635999994993,26,,11,19,Man,Rechts,1,
,dotcolour,xotask,dotcolour,50,4,290,290,main,negativefb,-99,easy,,0.7843861999999717,['c'],1,left,['0'],6,0.5240297999998802,62,,11,19,Man,Rechts,1,
,dotcolour,xotask,dotcolour,51,4,291,291,main,negativefb,-99,average,,0.7346943000002284,['c'],1,left,['0'],6,0.3954880999999659,52,,11,19,Man,Rechts,1,
,dotcolour,xotask,dotcolour,52,4,292,292,main,negativefb,-99,average,,1.1179299999994328,['n'],1,right,['9'],5,1.9521835999994437,29,,11,19,Man,Rechts,1,
,dotcolour,xotask,dotcolour,53,4,293,293,main,negativefb,-99,average,,0.8011870000000272,['c'],1,left,['0'],6,2.227227700000185,53,,11,19,Man,Rechts,1,
,dotcolour,xotask,dotcolour,54,4,294,294,main,negativefb,-99,easy,,0.6842999000000418,['c'],1,left,['0'],6,0.3836066000003484,64,,11,19,Man,Rechts,1,
,dotcolour,xotask,dotcolour,55,4,295,295,main,negativefb,-99,hard,,0.8667559000004985,['n'],1,right,['9'],5,0.5661104999999225,35,,11,19,Man,Rechts,1,
,dotcolour,xotask,dotcolour,56,4,296,296,main,negativefb,-99,hard,,1.6841240000003381,['c'],1,left,['9'],5,0.6046341000001121,42,,11,19,Man,Rechts,1,
,dotcolour,xotask,dotcolour,57,4,297,297,main,negativefb,-99,average,,0.8499596000001475,['n'],1,right,['0'],6,0.6191759000003003,29,,11,19,Man,Rechts,1,
,dotcolour,xotask,dotcolour,58,4,298,298,main,negativefb,-99,average,,0.683347600000161,['c'],1,left,['9'],5,0.4719708000002356,54,,11,19,Man,Rechts,1,
,dotcolour,xotask,dotcolour,59,4,299,299,main,negativefb,-99,easy,,1.2170740999999907,['n'],1,right,['0'],6,0.6380167000006622,17,,11,19,Man,Rechts,1,
,xotask,xotask,dotcolour,0,0,0,300,training,negativefb,83,average,60,1.101152799999909,['c'],1,left,['8'],4,2.151906400000371,,,11,19,Man,Rechts,1,
,xotask,xotask,dotcolour,1,0,1,301,training,negativefb,56,hard,26,1.2006811000001107,['c'],0,right,['8'],4,0.31338510000023234,,,11,19,Man,Rechts,1,
,xotask,xotask,dotcolour,2,0,2,302,training,negativefb,93,average,19,0.933576900000844,['n'],1,right,['9'],5,1.3522972000000664,,,11,19,Man,Rechts,1,
,xotask,xotask,dotcolour,3,0,3,303,training,negativefb,87,hard,27,0.66810119999991,['n'],1,right,['0'],6,0.8231902999996237,,,11,19,Man,Rechts,1,
,xotask,xotask,dotcolour,4,0,4,304,training,negativefb,98,easy,72,0.6324873999992633,['c'],1,left,['0'],6,2.284192400000393,,,11,19,Man,Rechts,1,
,xotask,xotask,dotcolour,5,0,5,305,training,negativefb,66,hard,27,0.85070800000085,['n'],1,right,['0'],6,1.8869007000002966,,,11,19,Man,Rechts,1,
,xotask,xotask,dotcolour,6,0,6,306,training,negativefb,79,hard,26,1.0508613000001787,['n'],1,right,['9'],5,0.46470009999939066,,,11,19,Man,Rechts,1,
,xotask,xotask,dotcolour,7,0,7,307,training,negativefb,33,easy,8,0.7175216000005094,['n'],1,right,['0'],6,0.4896019999996497,,,11,19,Man,Rechts,1,
,xotask,xotask,dotcolour,8,0,8,308,training,negativefb,67,average,17,0.7671143999996275,['n'],1,right,['0'],6,0.9437557000001107,,,11,19,Man,Rechts,1,
,xotask,xotask,dotcolour,9,0,9,309,training,negativefb,23,easy,71,1.7161991000002672,['n'],0,left,['8'],4,0.9899587999998403,,,11,19,Man,Rechts,1,
,xotask,xotask,dotcolour,10,0,10,310,training,negativefb,4,hard,54,1.0661536999996315,['n'],0,left,['8'],4,1.1239081999992777,,,11,19,Man,Rechts,1,
,xotask,xotask,dotcolour,11,0,11,311,training,negativefb,90,easy,73,0.918001799999729,['c'],1,left,['0'],6,0.7863300999997591,,,11,19,Man,Rechts,1,
,xotask,xotask,dotcolour,12,0,12,312,training,negativefb,63,average,19,0.9502958999992188,['n'],1,right,['9'],5,0.8449097000002439,,,11,19,Man,Rechts,1,
,xotask,xotask,dotcolour,13,0,13,313,training,negativefb,32,hard,54,0.9491528999997172,['c'],1,left,['0'],6,1.1095389000001887,,,11,19,Man,Rechts,1,
,xotask,xotask,dotcolour,14,0,14,314,training,negativefb,59,average,62,1.1338548000003357,['c'],1,left,['0'],6,0.4044450000001234,,,11,19,Man,Rechts,1,
,xotask,xotask,dotcolour,15,0,15,315,training,negativefb,24,easy,71,0.6998496000005616,['c'],1,left,['0'],6,0.9921069000001808,,,11,19,Man,Rechts,1,
,xotask,xotask,dotcolour,16,0,16,316,training,negativefb,81,hard,53,1.266575699999521,['c'],1,left,['8'],4,0.5906049000004714,,,11,19,Man,Rechts,1,
,xotask,xotask,dotcolour,17,0,17,317,training,negativefb,92,average,61,0.7341052000001582,['c'],1,left,['0'],6,0.6661538000007567,,,11,19,Man,Rechts,1,
,xotask,xotask,dotcolour,18,0,18,318,training,negativefb,78,easy,70,1.5343215000002601,['c'],1,left,['9'],5,0.6021009999994931,,,11,19,Man,Rechts,1,
,xotask,xotask,dotcolour,19,0,19,319,training,negativefb,96,average,61,0.7669248000001971,['c'],1,left,['9'],5,0.4030675000003612,,,11,19,Man,Rechts,1,
,xotask,xotask,dotcolour,20,0,20,320,training,negativefb,80,easy,72,0.7167756999997437,['c'],1,left,['0'],6,0.8787749000002805,,,11,19,Man,Rechts,1,
,xotask,xotask,dotcolour,21,0,21,321,training,negativefb,72,hard,50,0.6667231999999785,['c'],1,left,['0'],6,0.345078199999989,,,11,19,Man,Rechts,1,
,xotask,xotask,dotcolour,22,0,22,322,training,negativefb,79,easy,6,0.7338117999997849,['n'],1,right,['0'],6,0.4144075000003795,,,11,19,Man,Rechts,1,
,xotask,xotask,dotcolour,23,0,23,323,training,negativefb,87,average,62,0.7174204000002646,['c'],1,left,['0'],6,0.4971070999999938,,,11,19,Man,Rechts,1,
,xotask,xotask,dotcolour,24,0,24,324,training,negativefb,67,hard,53,1.2837114999992991,['c'],1,left,['9'],5,0.330207099999825,,,11,19,Man,Rechts,1,
,xotask,xotask,dotcolour,25,0,25,325,training,negativefb,76,hard,27,1.4663445000005595,['n'],1,right,['9'],5,0.7233873000004678,,,11,19,Man,Rechts,1,
,xotask,xotask,dotcolour,26,0,26,326,training,negativefb,73,easy,74,0.7002183999993576,['c'],1,left,['0'],6,0.5064336999994339,,,11,19,Man,Rechts,1,
,xotask,xotask,dotcolour,27,0,27,327,training,negativefb,63,average,61,0.9003317999995488,['c'],1,left,['8'],4,1.0584923000005801,,,11,19,Man,Rechts,1,
,xotask,xotask,dotcolour,28,0,28,328,training,negativefb,78,easy,73,0.7160055999993347,['c'],1,left,['0'],6,0.892354499999783,,,11,19,Man,Rechts,1,
,xotask,xotask,dotcolour,29,0,29,329,training,negativefb,54,average,19,0.7664276000004975,['c'],0,right,['0'],6,0.4661519999999655,,,11,19,Man,Rechts,1,
,xotask,xotask,dotcolour,30,0,30,330,training,negativefb,35,hard,25,0.6843130999995992,['n'],1,right,['8'],4,1.707806399999754,,,11,19,Man,Rechts,1,
,xotask,xotask,dotcolour,31,0,31,331,training,negativefb,91,easy,7,0.833097099999577,['n'],1,right,['0'],6,0.8220929999997679,,,11,19,Man,Rechts,1,
,xotask,xotask,dotcolour,32,0,32,332,training,negativefb,74,easy,8,0.733535700000175,['n'],1,right,['0'],6,0.368757999999616,,,11,19,Man,Rechts,1,
,xotask,xotask,dotcolour,33,0,33,333,training,negativefb,59,hard,26,0.766285799999423,['n'],1,right,['0'],6,0.4347797000000355,,,11,19,Man,Rechts,1,
,xotask,xotask,dotcolour,34,0,34,334,training,negativefb,96,average,64,1.2339689999998882,['c'],1,left,['3'],3,1.3363878000000113,,,11,19,Man,Rechts,1,
,xotask,xotask,dotcolour,35,0,35,335,training,negativefb,86,easy,8,0.8665295999999216,['n'],1,right,['9'],5,0.8806064000000333,,,11,19,Man,Rechts,1,
,xotask,xotask,dotcolour,36,0,36,336,training,negativefb,71,hard,25,1.3332045999995898,['n'],1,right,['0'],6,0.7760127999999895,,,11,19,Man,Rechts,1,
,xotask,xotask,dotcolour,37,0,37,337,training,negativefb,84,hard,27,0.6677905999995346,['n'],1,right,['0'],6,0.4385960999998133,,,11,19,Man,Rechts,1,
,xotask,xotask,dotcolour,38,0,38,338,training,negativefb,49,hard,54,1.2829628999998022,['c'],1,left,['9'],5,0.7464715000005526,,,11,19,Man,Rechts,1,
,xotask,xotask,dotcolour,39,0,39,339,training,negativefb,87,average,15,0.851616599999943,['n'],1,right,['0'],6,0.5228203000006033,,,11,19,Man,Rechts,1,
,xotask,xotask,dotcolour,40,0,40,340,training,negativefb,87,easy,6,1.3328527000003305,['n'],1,right,['0'],6,0.608692599999813,,,11,19,Man,Rechts,1,
,xotask,xotask,dotcolour,41,0,41,341,training,negativefb,26,average,64,0.7000938000001042,['n'],0,left,['0'],6,0.45285710000007384,,,11,19,Man,Rechts,1,
,xotask,xotask,dotcolour,42,0,42,342,training,negativefb,74,average,16,0.7671720999996978,['n'],1,right,['0'],6,0.3803243999991537,,,11,19,Man,Rechts,1,
,xotask,xotask,dotcolour,43,0,43,343,training,negativefb,79,average,16,0.6829635000003691,['n'],1,right,['0'],6,0.45089139999981853,,,11,19,Man,Rechts,1,
,xotask,xotask,dotcolour,44,0,44,344,training,negativefb,25,hard,53,0.9998007000003781,['n'],0,left,['9'],5,0.3206356999999116,,,11,19,Man,Rechts,1,
,xotask,xotask,dotcolour,45,0,45,345,training,negativefb,79,hard,53,1.1669982000003074,['n'],0,left,['9'],5,0.3175951000002897,,,11,19,Man,Rechts,1,
,xotask,xotask,dotcolour,46,0,46,346,training,negativefb,75,hard,54,0.9507744000002276,['n'],0,left,['9'],5,0.7305186000003232,,,11,19,Man,Rechts,1,
,xotask,xotask,dotcolour,47,0,47,347,training,negativefb,93,easy,5,0.6673447000002852,['n'],1,right,['0'],6,0.5554806999998618,,,11,19,Man,Rechts,1,
,xotask,xotask,dotcolour,48,0,48,348,training,negativefb,85,average,16,0.6503221000002668,['n'],1,right,['0'],6,0.7321408999996493,,,11,19,Man,Rechts,1,
,xotask,xotask,dotcolour,49,0,49,349,training,negativefb,72,easy,6,0.5834048999995503,['n'],1,right,['0'],6,0.35122899999987567,,,11,19,Man,Rechts,1,
,xotask,xotask,dotcolour,50,0,50,350,training,negativefb,27,hard,54,0.800222500000018,['n'],0,left,['8'],4,1.3444964999998774,,,11,19,Man,Rechts,1,
,xotask,xotask,dotcolour,51,0,51,351,training,negativefb,85,easy,8,0.7341427000001204,['n'],1,right,['0'],6,1.1498725999999806,,,11,19,Man,Rechts,1,
,xotask,xotask,dotcolour,52,0,52,352,training,negativefb,82,average,19,0.883010500000637,['n'],1,right,['9'],5,0.35676210000019637,,,11,19,Man,Rechts,1,
,xotask,xotask,dotcolour,53,0,53,353,training,negativefb,66,easy,5,0.8160110999997414,['n'],1,right,['9'],5,0.3825587999999698,,,11,19,Man,Rechts,1,
,xotask,xotask,dotcolour,54,0,54,354,training,negativefb,77,easy,71,0.8509205000000293,['c'],1,left,['0'],6,0.788829899999655,,,11,19,Man,Rechts,1,
,xotask,xotask,dotcolour,55,0,55,355,training,negativefb,45,average,18,1.0490350000000035,['n'],1,right,['8'],4,0.5867305000001579,,,11,19,Man,Rechts,1,
,xotask,xotask,dotcolour,56,0,56,356,training,negativefb,78,average,62,0.8177655999998024,['c'],1,left,['0'],6,0.611562000000049,,,11,19,Man,Rechts,1,
,xotask,xotask,dotcolour,57,0,57,357,training,negativefb,62,average,61,0.6673462999997355,['c'],1,left,['0'],6,0.433290300000408,,,11,19,Man,Rechts,1,
,xotask,xotask,dotcolour,58,0,58,358,training,negativefb,94,easy,74,0.5839539999997214,['c'],1,left,['0'],6,1.1201183000002857,,,11,19,Man,Rechts,1,
,xotask,xotask,dotcolour,59,0,59,359,training,negativefb,90,hard,28,1.3662653000001228,['n'],1,right,['9'],5,1.4051669999998921,,,11,19,Man,Rechts,1,
,xotask,xotask,dotcolour,0,1,60,360,training,negativefb,58,easy,8,1.5512917999994897,['n'],1,right,['0'],6,0.6858703999996578,,,11,19,Man,Rechts,1,
,xotask,xotask,dotcolour,1,1,61,361,training,negativefb,95,easy,9,0.5835109999998167,['n'],1,right,['9'],5,0.707123700000011,,,11,19,Man,Rechts,1,
,xotask,xotask,dotcolour,2,1,62,362,training,negativefb,65,average,60,0.7837052000004405,['c'],1,left,['9'],5,1.9522498000005726,,,11,19,Man,Rechts,1,
,xotask,xotask,dotcolour,3,1,63,363,training,negativefb,85,hard,28,0.7004022999999506,['n'],1,right,['9'],5,0.5097614000005706,,,11,19,Man,Rechts,1,
,xotask,xotask,dotcolour,4,1,64,364,training,negativefb,99,easy,70,0.6838774999996531,['c'],1,left,['0'],6,1.437664400000358,,,11,19,Man,Rechts,1,
,xotask,xotask,dotcolour,5,1,65,365,training,negativefb,53,hard,51,1.1499846999995498,['n'],0,left,['8'],4,1.1348725999996532,,,11,19,Man,Rechts,1,
,xotask,xotask,dotcolour,6,1,66,366,training,negativefb,84,easy,7,1.0336432000003697,['n'],1,right,['0'],6,0.7761574000005567,,,11,19,Man,Rechts,1,
,xotask,xotask,dotcolour,7,1,67,367,training,negativefb,85,average,61,0.8009212999995725,['c'],1,left,['0'],6,0.9296504000003551,,,11,19,Man,Rechts,1,
,xotask,xotask,dotcolour,8,1,68,368,training,negativefb,68,hard,53,0.8328055000001768,['c'],1,left,['0'],6,0.2191988999993555,,,11,19,Man,Rechts,1,
,xotask,xotask,dotcolour,9,1,69,369,training,negativefb,79,easy,8,1.316475100000389,['n'],1,right,['0'],6,0.5495107999995525,,,11,19,Man,Rechts,1,
,xotask,xotask,dotcolour,10,1,70,370,training,negativefb,31,hard,53,1.3668164000000615,['n'],0,left,['9'],5,0.4570272999999361,,,11,19,Man,Rechts,1,
,xotask,xotask,dotcolour,11,1,71,371,training,negativefb,35,average,15,0.7827280999999857,['n'],1,right,['0'],6,0.6317450999995344,,,11,19,Man,Rechts,1,
,xotask,xotask,dotcolour,12,1,72,372,training,negativefb,43,average,15,0.9344059999993988,['n'],1,right,['0'],6,0.9211256999997204,,,11,19,Man,Rechts,1,
,xotask,xotask,dotcolour,13,1,73,373,training,negativefb,71,average,15,0.7827471000000514,['n'],1,right,['0'],6,0.4129892999999356,,,11,19,Man,Rechts,1,
,xotask,xotask,dotcolour,14,1,74,374,training,negativefb,65,average,17,0.667148300000008,['n'],1,right,['0'],6,0.42715620000035415,,,11,19,Man,Rechts,1,
,xotask,xotask,dotcolour,15,1,75,375,training,negativefb,93,easy,70,0.8171338999991349,['c'],1,left,['0'],6,0.4656710999997813,,,11,19,Man,Rechts,1,
,xotask,xotask,dotcolour,16,1,76,376,training,negativefb,73,average,63,1.851145199999337,['c'],1,left,['3'],3,1.1169162999995024,,,11,19,Man,Rechts,1,
,xotask,xotask,dotcolour,17,1,77,377,training,negativefb,76,average,16,0.7837282999998934,['n'],1,right,['0'],6,0.6731184000000212,,,11,19,Man,Rechts,1,
,xotask,xotask,dotcolour,18,1,78,378,training,negativefb,23,hard,52,1.3324865000004138,['n'],0,left,['0'],6,0.4090799999994488,,,11,19,Man,Rechts,1,
,xotask,xotask,dotcolour,19,1,79,379,training,negativefb,88,easy,8,0.8006619999996474,['n'],1,right,['0'],6,0.3771817999995619,,,11,19,Man,Rechts,1,
,xotask,xotask,dotcolour,20,1,80,380,training,negativefb,28,average,16,0.7336889999996856,['n'],1,right,['0'],6,0.41265410000050906,,,11,19,Man,Rechts,1,
,xotask,xotask,dotcolour,21,1,81,381,training,negativefb,50,average,60,0.8008577000000514,['c'],1,left,['9'],5,0.7732704999998532,,,11,19,Man,Rechts,1,
,xotask,xotask,dotcolour,22,1,82,382,training,negativefb,49,easy,7,0.9666384999991351,['n'],1,right,['0'],6,0.4554914000000281,,,11,19,Man,Rechts,1,
,xotask,xotask,dotcolour,23,1,83,383,training,negativefb,38,hard,54,0.8508641999997053,['n'],0,left,['9'],5,0.8841755000003104,,,11,19,Man,Rechts,1,
,xotask,xotask,dotcolour,24,1,84,384,training,negativefb,48,hard,51,0.6343704000000798,['c'],1,left,['0'],6,0.831213999999818,,,11,19,Man,Rechts,1,
,xotask,xotask,dotcolour,25,1,85,385,training,negativefb,95,average,17,0.6008199000007153,['n'],1,right,['9'],5,0.5259015999999974,,,11,19,Man,Rechts,1,
,xotask,xotask,dotcolour,26,1,86,386,training,negativefb,91,easy,5,1.1167239999995218,['n'],1,right,['0'],6,0.5649625999994896,,,11,19,Man,Rechts,1,
,xotask,xotask,dotcolour,27,1,87,387,training,negativefb,57,hard,26,0.9000091999996584,['n'],1,right,['0'],6,0.31406429999969987,,,11,19,Man,Rechts,1,
,xotask,xotask,dotcolour,28,1,88,388,training,negativefb,68,average,60,1.2340100000001257,['c'],1,left,['9'],5,0.5720658999998705,,,11,19,Man,Rechts,1,
,xotask,xotask,dotcolour,29,1,89,389,training,negativefb,93,hard,28,0.6332973999997193,['n'],1,right,['0'],6,0.8443274000001111,,,11,19,Man,Rechts,1,
,xotask,xotask,dotcolour,30,1,90,390,training,negativefb,75,hard,26,0.6841895000006843,['n'],1,right,['0'],6,0.31983039999977336,,,11,19,Man,Rechts,1,
,xotask,xotask,dotcolour,31,1,91,391,training,negativefb,49,easy,72,0.7665106000004016,['c'],1,left,['0'],6,0.5726549999999406,,,11,19,Man,Rechts,1,
,xotask,xotask,dotcolour,32,1,92,392,training,negativefb,96,hard,54,1.0002451999998812,['c'],1,left,['8'],4,0.6619118999997227,,,11,19,Man,Rechts,1,
,xotask,xotask,dotcolour,33,1,93,393,training,negativefb,67,hard,52,0.8344478999997591,['n'],0,left,['8'],4,0.6190041999998357,,,11,19,Man,Rechts,1,
,xotask,xotask,dotcolour,34,1,94,394,training,negativefb,63,average,60,0.8173587000001135,['c'],1,left,['9'],5,0.7938862999999401,,,11,19,Man,Rechts,1,
,xotask,xotask,dotcolour,35,1,95,395,training,negativefb,19,average,15,1.2508637000000817,['c'],0,right,['8'],4,0.5196751000003133,,,11,19,Man,Rechts,1,
,xotask,xotask,dotcolour,36,1,96,396,training,negativefb,71,easy,9,0.7678553000005195,['n'],1,right,['0'],6,0.8770426999999472,,,11,19,Man,Rechts,1,
,xotask,xotask,dotcolour,37,1,97,397,training,negativefb,99,average,61,0.8999630999996953,['c'],1,left,['0'],6,0.798021599999629,,,11,19,Man,Rechts,1,
,xotask,xotask,dotcolour,38,1,98,398,training,negativefb,55,hard,27,1.9827116000005844,['n'],1,right,['9'],5,0.4388981000001877,,,11,19,Man,Rechts,1,
,xotask,xotask,dotcolour,39,1,99,399,training,negativefb,81,easy,71,1.1839915999998993,['c'],1,left,['0'],6,0.4626903999997012,,,11,19,Man,Rechts,1,
,xotask,xotask,dotcolour,40,1,100,400,training,negativefb,76,hard,25,0.834074999999757,['n'],1,right,['0'],6,0.371174300000348,,,11,19,Man,Rechts,1,
,xotask,xotask,dotcolour,41,1,101,401,training,negativefb,86,easy,73,0.9665421999998216,['c'],1,left,['0'],6,0.7494683999993867,,,11,19,Man,Rechts,1,
,xotask,xotask,dotcolour,42,1,102,402,training,negativefb,73,average,63,0.7672585999998773,['c'],1,left,['0'],6,0.2652440000001661,,,11,19,Man,Rechts,1,
,xotask,xotask,dotcolour,43,1,103,403,training,negativefb,89,hard,26,1.2839772999996057,['n'],1,right,['8'],4,0.7552665000002889,,,11,19,Man,Rechts,1,
,xotask,xotask,dotcolour,44,1,104,404,training,negativefb,90,easy,5,0.8172841999994489,['n'],1,right,['0'],6,0.7085852999998679,,,11,19,Man,Rechts,1,
,xotask,xotask,dotcolour,45,1,105,405,training,negativefb,91,easy,70,0.7345228000003772,['c'],1,left,['0'],6,0.6914440000000468,,,11,19,Man,Rechts,1,
,xotask,xotask,dotcolour,46,1,106,406,training,negativefb,60,hard,50,1.234255100000155,['c'],1,left,['8'],4,0.8790558999999121,,,11,19,Man,Rechts,1,
,xotask,xotask,dotcolour,47,1,107,407,training,negativefb,90,easy,5,0.6667929999994158,['n'],1,right,['0'],6,0.5607718000001114,,,11,19,Man,Rechts,1,
,xotask,xotask,dotcolour,48,1,108,408,training,negativefb,21,hard,27,1.1678734000006443,['c'],0,right,['8'],4,0.4366135000000213,,,11,19,Man,Rechts,1,
,xotask,xotask,dotcolour,49,1,109,409,training,negativefb,54,average,60,1.6164353999993182,['c'],1,left,['0'],6,1.1625004999996236,,,11,19,Man,Rechts,1,
,xotask,xotask,dotcolour,50,1,110,410,training,negativefb,82,hard,25,0.6837389000002077,['n'],1,right,['9'],5,0.44202949999998964,,,11,19,Man,Rechts,1,
,xotask,xotask,dotcolour,51,1,111,411,training,negativefb,19,easy,74,0.8328585999997813,['c'],1,left,['0'],6,0.9268867999999202,,,11,19,Man,Rechts,1,
,xotask,xotask,dotcolour,52,1,112,412,training,negativefb,51,easy,71,0.8338518999998996,['c'],1,left,['0'],6,0.40105080000012094,,,11,19,Man,Rechts,1,
,xotask,xotask,dotcolour,53,1,113,413,training,negativefb,62,hard,29,1.049724100000276,['n'],1,right,['9'],5,0.6870038000006389,,,11,19,Man,Rechts,1,
,xotask,xotask,dotcolour,54,1,114,414,training,negativefb,64,average,15,0.7338359000004857,['n'],1,right,['0'],6,0.47832199999993463,,,11,19,Man,Rechts,1,
,xotask,xotask,dotcolour,55,1,115,415,training,negativefb,93,easy,70,0.7496136000008846,['c'],1,left,['0'],6,1.301988000000165,,,11,19,Man,Rechts,1,
,xotask,xotask,dotcolour,56,1,116,416,training,negativefb,78,easy,74,0.7166177000008247,['c'],1,left,['0'],6,0.3085264000001189,,,11,19,Man,Rechts,1,
,xotask,xotask,dotcolour,57,1,117,417,training,negativefb,59,hard,54,0.749507900000026,['c'],1,left,['0'],6,0.33881530000053317,,,11,19,Man,Rechts,1,
,xotask,xotask,dotcolour,58,1,118,418,training,negativefb,84,average,62,1.066469700000198,['c'],1,left,['0'],6,0.3388338000004296,,,11,19,Man,Rechts,1,
,xotask,xotask,dotcolour,59,1,119,419,training,negativefb,80,average,15,0.6656909999992422,['n'],1,right,['0'],6,0.3393711999997322,,,11,19,Man,Rechts,1,
,xotask,xotask,dotcolour,0,2,120,420,main,negativefb,-99,easy,71,0.8169897999996465,['c'],1,left,['9'],5,1.5327975000000151,,,11,19,Man,Rechts,1,
,xotask,xotask,dotcolour,1,2,121,421,main,negativefb,-99,average,17,0.6844930999995995,['n'],1,right,['0'],6,1.0761838999997053,,,11,19,Man,Rechts,1,
,xotask,xotask,dotcolour,2,2,122,422,main,negativefb,-99,easy,7,1.5341221999997288,['n'],1,right,['0'],6,0.3970998000004329,,,11,19,Man,Rechts,1,
,xotask,xotask,dotcolour,3,2,123,423,main,negativefb,-99,easy,5,0.8000729000004867,['n'],1,right,['0'],6,0.37435759999971197,,,11,19,Man,Rechts,1,
,xotask,xotask,dotcolour,4,2,124,424,main,negativefb,-99,easy,7,0.6504471999996895,['n'],1,right,['0'],6,0.3748349000006783,,,11,19,Man,Rechts,1,
,xotask,xotask,dotcolour,5,2,125,425,main,negativefb,-99,hard,26,0.6347380999995949,['n'],1,right,['0'],6,0.4074511999997412,,,11,19,Man,Rechts,1,
,xotask,xotask,dotcolour,6,2,126,426,main,negativefb,-99,average,19,0.7997771999998804,['n'],1,right,['8'],4,1.0320194999994783,,,11,19,Man,Rechts,1,
,xotask,xotask,dotcolour,7,2,127,427,main,negativefb,-99,average,64,1.0832879999998113,['c'],1,left,['8'],4,0.42813159999968775,,,11,19,Man,Rechts,1,
,xotask,xotask,dotcolour,8,2,128,428,main,negativefb,-99,average,17,0.7847421000005852,['n'],1,right,['9'],5,0.5562487999995938,,,11,19,Man,Rechts,1,
,xotask,xotask,dotcolour,9,2,129,429,main,negativefb,-99,average,63,0.9342777000001661,['c'],1,left,['9'],5,0.5459082999996099,,,11,19,Man,Rechts,1,
,xotask,xotask,dotcolour,10,2,130,430,main,negativefb,-99,easy,6,1.650931700000001,['n'],1,right,['8'],4,0.5397154000002047,,,11,19,Man,Rechts,1,
,xotask,xotask,dotcolour,11,2,131,431,main,negativefb,-99,hard,54,1.3670947000000524,['c'],1,left,['8'],4,0.5605290000003151,,,11,19,Man,Rechts,1,
,xotask,xotask,dotcolour,12,2,132,432,main,negativefb,-99,hard,51,1.2504457999993974,['c'],1,left,['9'],5,0.6004682000002504,,,11,19,Man,Rechts,1,
,xotask,xotask,dotcolour,13,2,133,433,main,negativefb,-99,hard,26,1.6685145999999804,['n'],1,right,['8'],4,1.0389370999992025,,,11,19,Man,Rechts,1,
,xotask,xotask,dotcolour,14,2,134,434,main,negativefb,-99,average,16,1.0003628000004028,['n'],1,right,['9'],5,0.469876999999542,,,11,19,Man,Rechts,1,
,xotask,xotask,dotcolour,15,2,135,435,main,negativefb,-99,average,60,1.067725099999734,['c'],1,left,['9'],5,0.5216198999996777,,,11,19,Man,Rechts,1,
,xotask,xotask,dotcolour,16,2,136,436,main,negativefb,-99,hard,54,1.1504856999999902,['c'],1,left,['9'],5,0.3193656000003102,,,11,19,Man,Rechts,1,
,xotask,xotask,dotcolour,17,2,137,437,main,negativefb,-99,easy,6,0.850803100000121,['n'],1,right,['0'],6,0.9220261999998911,,,11,19,Man,Rechts,1,
,xotask,xotask,dotcolour,18,2,138,438,main,negativefb,-99,easy,71,1.3818093999998382,['c'],1,left,['0'],6,0.5020505000002231,,,11,19,Man,Rechts,1,
,xotask,xotask,dotcolour,19,2,139,439,main,negativefb,-99,average,16,2.8850867999999537,['n'],1,right,['0'],6,0.43967830000019603,,,11,19,Man,Rechts,1,
,xotask,xotask,dotcolour,20,2,140,440,main,negativefb,-99,easy,72,0.6840259999999034,['c'],1,left,['0'],6,0.3875691999992341,,,11,19,Man,Rechts,1,
,xotask,xotask,dotcolour,21,2,141,441,main,negativefb,-99,hard,51,0.8176309000000401,['c'],1,left,['0'],6,0.35572729999967123,,,11,19,Man,Rechts,1,
,xotask,xotask,dotcolour,22,2,142,442,main,negativefb,-99,hard,29,0.9167548000004899,['n'],1,right,['9'],5,1.0104079000002457,,,11,19,Man,Rechts,1,
,xotask,xotask,dotcolour,23,2,143,443,main,negativefb,-99,easy,73,0.9838208999999551,['c'],1,left,['0'],6,0.2994461999996929,,,11,19,Man,Rechts,1,
,xotask,xotask,dotcolour,24,2,144,444,main,negativefb,-99,hard,50,1.317076100000122,['c'],1,left,['8'],4,0.2996932999994897,,,11,19,Man,Rechts,1,
,xotask,xotask,dotcolour,25,2,145,445,main,negativefb,-99,average,16,0.767223599999852,['n'],1,right,['0'],6,0.6171868000001268,,,11,19,Man,Rechts,1,
,xotask,xotask,dotcolour,26,2,146,446,main,negativefb,-99,average,19,0.8999593000007735,['n'],1,right,['0'],6,0.46971209999992425,,,11,19,Man,Rechts,1,
,xotask,xotask,dotcolour,27,2,147,447,main,negativefb,-99,average,19,0.7836921999996775,['n'],1,right,['0'],6,0.4044989000003625,,,11,19,Man,Rechts,1,
,xotask,xotask,dotcolour,28,2,148,448,main,negativefb,-99,hard,54,1.3850509999992937,['c'],1,left,['9'],5,0.5419195999993462,,,11,19,Man,Rechts,1,
,xotask,xotask,dotcolour,29,2,149,449,main,negativefb,-99,easy,8,0.8006915999994817,['n'],1,right,['0'],6,0.5931263000002218,,,11,19,Man,Rechts,1,
,xotask,xotask,dotcolour,30,2,150,450,main,negativefb,-99,easy,7,0.7839137999999366,['n'],1,right,['0'],6,0.32331060000069556,,,11,19,Man,Rechts,1,
,xotask,xotask,dotcolour,31,2,151,451,main,negativefb,-99,easy,73,0.7169921000004251,['c'],1,left,['0'],6,0.36995630000092206,,,11,19,Man,Rechts,1,
,xotask,xotask,dotcolour,32,2,152,452,main,negativefb,-99,hard,27,1.51817740000115,['c'],0,right,['9'],5,0.14366189999964263,,,11,19,Man,Rechts,1,
,xotask,xotask,dotcolour,33,2,153,453,main,negativefb,-99,average,15,0.8347267000008287,['c'],0,right,['9'],5,0.5377857999992557,,,11,19,Man,Rechts,1,
,xotask,xotask,dotcolour,34,2,154,454,main,negativefb,-99,hard,54,1.100765399998636,['c'],1,left,['9'],5,1.0567464000014297,,,11,19,Man,Rechts,1,
,xotask,xotask,dotcolour,35,2,155,455,main,negativefb,-99,average,63,0.6844394999989163,['c'],1,left,['9'],5,0.42869450000034703,,,11,19,Man,Rechts,1,
,xotask,xotask,dotcolour,36,2,156,456,main,negativefb,-99,average,62,0.6179936999997153,['c'],1,left,['0'],6,0.5799822999997559,,,11,19,Man,Rechts,1,
,xotask,xotask,dotcolour,37,2,157,457,main,negativefb,-99,easy,72,0.7177537000006851,['c'],1,left,['0'],6,0.3129609999996319,,,11,19,Man,Rechts,1,
,xotask,xotask,dotcolour,38,2,158,458,main,negativefb,-99,easy,70,0.9345427000007476,['c'],1,left,['0'],6,0.4885567000001174,,,11,19,Man,Rechts,1,
,xotask,xotask,dotcolour,39,2,159,459,main,negativefb,-99,average,64,0.6337834999994811,['c'],1,left,['0'],6,0.37219890000051237,,,11,19,Man,Rechts,1,
,xotask,xotask,dotcolour,40,2,160,460,main,negativefb,-99,easy,71,0.6851268000009441,['c'],1,left,['0'],6,0.3957176999992953,,,11,19,Man,Rechts,1,
,xotask,xotask,dotcolour,41,2,161,461,main,negativefb,-99,hard,28,1.3018029000013485,['c'],0,right,['0'],6,0.3688053999994736,,,11,19,Man,Rechts,1,
,xotask,xotask,dotcolour,42,2,162,462,main,negativefb,-99,average,60,0.6840396000006876,['c'],1,left,['0'],6,0.5273608999996213,,,11,19,Man,Rechts,1,
,xotask,xotask,dotcolour,43,2,163,463,main,negativefb,-99,hard,29,1.0685856999989483,['c'],0,right,['8'],4,0.5207386000001861,,,11,19,Man,Rechts,1,
,xotask,xotask,dotcolour,44,2,164,464,main,negativefb,-99,easy,74,0.900841800001217,['c'],1,left,['0'],6,0.6330194000001939,,,11,19,Man,Rechts,1,
,xotask,xotask,dotcolour,45,2,165,465,main,negativefb,-99,easy,70,0.700221999999485,['c'],1,left,['0'],6,0.3960227000006853,,,11,19,Man,Rechts,1,
,xotask,xotask,dotcolour,46,2,166,466,main,negativefb,-99,average,64,0.7502648000008776,['c'],1,left,['0'],6,0.42351159999998345,,,11,19,Man,Rechts,1,
,xotask,xotask,dotcolour,47,2,167,467,main,negativefb,-99,hard,54,0.9681399000000965,['c'],1,left,['0'],6,0.5440328000004229,,,11,19,Man,Rechts,1,
,xotask,xotask,dotcolour,48,2,168,468,main,negativefb,-99,hard,29,1.151090600000316,['c'],0,right,['8'],4,1.069884299999103,,,11,19,Man,Rechts,1,
,xotask,xotask,dotcolour,49,2,169,469,main,negativefb,-99,hard,29,1.184452000001329,['c'],0,right,['8'],4,0.780453999999736,,,11,19,Man,Rechts,1,
,xotask,xotask,dotcolour,50,2,170,470,main,negativefb,-99,easy,9,0.9334357000007003,['n'],1,right,['8'],4,0.6890604999989591,,,11,19,Man,Rechts,1,
,xotask,xotask,dotcolour,51,2,171,471,main,negativefb,-99,hard,26,0.8341325000001234,['n'],1,right,['8'],4,0.5177432999989833,,,11,19,Man,Rechts,1,
,xotask,xotask,dotcolour,52,2,172,472,main,negativefb,-99,easy,5,0.9512075000002369,['n'],1,right,['8'],4,0.7321277999999438,,,11,19,Man,Rechts,1,
,xotask,xotask,dotcolour,53,2,173,473,main,negativefb,-99,average,64,0.9177710000003572,['n'],0,left,['8'],4,0.4501464999993914,,,11,19,Man,Rechts,1,
,xotask,xotask,dotcolour,54,2,174,474,main,negativefb,-99,easy,7,0.9515424000001076,['n'],1,right,['9'],5,0.4425236999995832,,,11,19,Man,Rechts,1,
,xotask,xotask,dotcolour,55,2,175,475,main,negativefb,-99,average,60,1.1008534000011423,['c'],1,left,['9'],5,1.2701758000002883,,,11,19,Man,Rechts,1,
,xotask,xotask,dotcolour,56,2,176,476,main,negativefb,-99,hard,28,1.5356346999997186,['c'],0,right,['8'],4,0.29477720000068075,,,11,19,Man,Rechts,1,
,xotask,xotask,dotcolour,57,2,177,477,main,negativefb,-99,hard,53,1.1667512000003626,['c'],1,left,['9'],5,0.6053019000009954,,,11,19,Man,Rechts,1,
,xotask,xotask,dotcolour,58,2,178,478,main,negativefb,-99,average,16,1.084560600000259,['c'],0,right,['3'],3,1.8991807000002154,,,11,19,Man,Rechts,1,
,xotask,xotask,dotcolour,59,2,179,479,main,negativefb,-99,hard,52,1.0014705000012327,['c'],1,left,['9'],5,1.3757176999988587,,,11,19,Man,Rechts,1,
,xotask,xotask,dotcolour,0,3,180,480,main,negativefb,-99,average,62,1.8011385000008886,['c'],1,left,['9'],5,2.248017699999764,,,11,19,Man,Rechts,1,
,xotask,xotask,dotcolour,1,3,181,481,main,negativefb,-99,average,17,1.2183676999993622,['n'],1,right,['0'],6,0.6539118000000599,,,11,19,Man,Rechts,1,
,xotask,xotask,dotcolour,2,3,182,482,main,negativefb,-99,hard,28,0.7514141999999993,['n'],1,right,['0'],6,0.36662169999908656,,,11,19,Man,Rechts,1,
,xotask,xotask,dotcolour,3,3,183,483,main,negativefb,-99,easy,74,0.7347797000002174,['c'],1,left,['0'],6,1.5236939000005805,,,11,19,Man,Rechts,1,
,xotask,xotask,dotcolour,4,3,184,484,main,negativefb,-99,easy,71,0.8012037999997119,['c'],1,left,['0'],6,0.3679288000002998,,,11,19,Man,Rechts,1,
,xotask,xotask,dotcolour,5,3,185,485,main,negativefb,-99,average,16,0.7509493999987171,['n'],1,right,['0'],6,1.2197947000004206,,,11,19,Man,Rechts,1,
,xotask,xotask,dotcolour,6,3,186,486,main,negativefb,-99,hard,26,0.7355233999987831,['n'],1,right,['0'],6,0.3498868000006041,,,11,19,Man,Rechts,1,
,xotask,xotask,dotcolour,7,3,187,487,main,negativefb,-99,average,17,0.6672851999992417,['n'],1,right,['0'],6,0.31811130000096455,,,11,19,Man,Rechts,1,
,xotask,xotask,dotcolour,8,3,188,488,main,negativefb,-99,easy,8,0.5681812000002537,['n'],1,right,['0'],6,0.33976090000032855,,,11,19,Man,Rechts,1,
,xotask,xotask,dotcolour,9,3,189,489,main,negativefb,-99,hard,25,0.46734509999987495,['n'],1,right,['0'],6,0.31598440000016126,,,11,19,Man,Rechts,1,
,xotask,xotask,dotcolour,10,3,190,490,main,negativefb,-99,hard,28,0.550848800001404,['n'],1,right,['0'],6,0.3220244999993156,,,11,19,Man,Rechts,1,
,xotask,xotask,dotcolour,11,3,191,491,main,negativefb,-99,easy,8,0.4509116000008362,['n'],1,right,['0'],6,0.3399825000014971,,,11,19,Man,Rechts,1,
,xotask,xotask,dotcolour,12,3,192,492,main,negativefb,-99,hard,50,1.0013662000001204,['c'],1,left,['9'],5,1.0082780000011553,,,11,19,Man,Rechts,1,
,xotask,xotask,dotcolour,13,3,193,493,main,negativefb,-99,average,15,0.7173994999993738,['n'],1,right,['0'],6,0.5324239999990823,,,11,19,Man,Rechts,1,
,xotask,xotask,dotcolour,14,3,194,494,main,negativefb,-99,hard,50,0.4339666000014404,['n'],0,left,['8'],4,1.2776388000002044,,,11,19,Man,Rechts,1,
,xotask,xotask,dotcolour,15,3,195,495,main,negativefb,-99,average,63,1.467803499999718,['n'],0,left,['8'],4,0.5613326999991841,,,11,19,Man,Rechts,1,
,xotask,xotask,dotcolour,16,3,196,496,main,negativefb,-99,average,63,0.8835629000004701,['c'],1,left,['9'],5,0.45612549999896146,,,11,19,Man,Rechts,1,
,xotask,xotask,dotcolour,17,3,197,497,main,negativefb,-99,easy,8,0.9015448000009201,['n'],1,right,['0'],6,0.5155582999996113,,,11,19,Man,Rechts,1,
,xotask,xotask,dotcolour,18,3,198,498,main,negativefb,-99,easy,8,0.667382000001453,['n'],1,right,['0'],6,0.32406089999858523,,,11,19,Man,Rechts,1,
,xotask,xotask,dotcolour,19,3,199,499,main,negativefb,-99,average,18,0.5505967999997665,['n'],1,right,['0'],6,0.3386749000001146,,,11,19,Man,Rechts,1,
,xotask,xotask,dotcolour,20,3,200,500,main,negativefb,-99,easy,71,0.8002329999999347,['c'],1,left,['0'],6,0.33417869999902905,,,11,19,Man,Rechts,1,
,xotask,xotask,dotcolour,21,3,201,501,main,negativefb,-99,easy,74,0.6181329999999434,['c'],1,left,['0'],6,0.2883906000006391,,,11,19,Man,Rechts,1,
,xotask,xotask,dotcolour,22,3,202,502,main,negativefb,-99,easy,7,0.7509724000010465,['n'],1,right,['0'],6,0.3123424999994313,,,11,19,Man,Rechts,1,
,xotask,xotask,dotcolour,23,3,203,503,main,negativefb,-99,average,62,0.7008194000009098,['c'],1,left,['0'],6,0.31238440000015544,,,11,19,Man,Rechts,1,
,xotask,xotask,dotcolour,24,3,204,504,main,negativefb,-99,hard,28,0.7344854999992094,['n'],1,right,['9'],5,0.5921140000009473,,,11,19,Man,Rechts,1,
,xotask,xotask,dotcolour,25,3,205,505,main,negativefb,-99,easy,8,0.8683764999987034,['n'],1,right,['0'],6,1.1108898000002227,,,11,19,Man,Rechts,1,
,xotask,xotask,dotcolour,26,3,206,506,main,negativefb,-99,easy,71,0.7510855000000447,['c'],1,left,['0'],6,0.46132310000029975,,,11,19,Man,Rechts,1,
,xotask,xotask,dotcolour,27,3,207,507,main,negativefb,-99,hard,50,1.2016573999990214,['c'],1,left,['8'],4,0.29990660000112257,,,11,19,Man,Rechts,1,
,xotask,xotask,dotcolour,28,3,208,508,main,negativefb,-99,hard,52,0.9339903000000049,['c'],1,left,['9'],5,0.2596099000002141,,,11,19,Man,Rechts,1,
,xotask,xotask,dotcolour,29,3,209,509,main,negativefb,-99,hard,51,0.7839621000002808,['c'],1,left,['0'],6,0.29132229999959236,,,11,19,Man,Rechts,1,
,xotask,xotask,dotcolour,30,3,210,510,main,negativefb,-99,easy,73,0.5014068000000407,['c'],1,left,['0'],6,0.3004579000007652,,,11,19,Man,Rechts,1,
,xotask,xotask,dotcolour,31,3,211,511,main,negativefb,-99,hard,51,0.8171760999994149,['c'],1,left,['0'],6,0.35215810000045167,,,11,19,Man,Rechts,1,
,xotask,xotask,dotcolour,32,3,212,512,main,negativefb,-99,easy,74,0.6504227999994328,['c'],1,left,['0'],6,0.3850592999988294,,,11,19,Man,Rechts,1,
,xotask,xotask,dotcolour,33,3,213,513,main,negativefb,-99,average,63,0.7840721000011399,['c'],1,left,['0'],6,0.5067165000000386,,,11,19,Man,Rechts,1,
,xotask,xotask,dotcolour,34,3,214,514,main,negativefb,-99,hard,52,0.6337904000010894,['c'],1,left,['0'],6,0.4222626999999193,,,11,19,Man,Rechts,1,
,xotask,xotask,dotcolour,35,3,215,515,main,negativefb,-99,average,15,1.433545600000798,['c'],0,right,['9'],5,0.6132187000002887,,,11,19,Man,Rechts,1,
,xotask,xotask,dotcolour,36,3,216,516,main,negativefb,-99,hard,28,1.117304099998364,['c'],0,right,['3'],3,2.5774192999997467,,,11,19,Man,Rechts,1,
,xotask,xotask,dotcolour,37,3,217,517,main,negativefb,-99,average,64,1.1339250999990327,['c'],1,left,['0'],6,0.4380271999998513,,,11,19,Man,Rechts,1,
,xotask,xotask,dotcolour,38,3,218,518,main,negativefb,-99,average,17,0.8176968000007037,['n'],1,right,['9'],5,0.7966711999997642,,,11,19,Man,Rechts,1,
,xotask,xotask,dotcolour,39,3,219,519,main,negativefb,-99,average,62,0.8172991999999795,['c'],1,left,['0'],6,0.6292752999997901,,,11,19,Man,Rechts,1,
,xotask,xotask,dotcolour,40,3,220,520,main,negativefb,-99,average,19,1.00016880000112,['c'],0,right,['8'],4,0.5257703999996011,,,11,19,Man,Rechts,1,
,xotask,xotask,dotcolour,41,3,221,521,main,negativefb,-99,hard,27,0.8518824000002496,['n'],1,right,['0'],6,0.9748045999986061,,,11,19,Man,Rechts,1,
,xotask,xotask,dotcolour,42,3,222,522,main,negativefb,-99,average,60,1.050994699999137,['c'],1,left,['0'],6,1.950828699998965,,,11,19,Man,Rechts,1,
,xotask,xotask,dotcolour,43,3,223,523,main,negativefb,-99,hard,25,1.0004112999995414,['n'],1,right,['0'],6,0.4102069999989908,,,11,19,Man,Rechts,1,
,xotask,xotask,dotcolour,44,3,224,524,main,negativefb,-99,average,61,0.733583200000794,['c'],1,left,['0'],6,0.5809888999992836,,,11,19,Man,Rechts,1,
,xotask,xotask,dotcolour,45,3,225,525,main,negativefb,-99,easy,70,0.9842551999990974,['c'],1,left,['0'],6,0.48758230000021285,,,11,19,Man,Rechts,1,
,xotask,xotask,dotcolour,46,3,226,526,main,negativefb,-99,easy,72,0.5842314000001352,['c'],1,left,['0'],6,0.485186199999589,,,11,19,Man,Rechts,1,
,xotask,xotask,dotcolour,47,3,227,527,main,negativefb,-99,average,16,0.6670321999990847,['n'],1,right,['0'],6,0.3358385999999882,,,11,19,Man,Rechts,1,
,xotask,xotask,dotcolour,48,3,228,528,main,negativefb,-99,easy,5,0.48454149999997753,['n'],1,right,['0'],6,0.35147460000007413,,,11,19,Man,Rechts,1,
,xotask,xotask,dotcolour,49,3,229,529,main,negativefb,-99,easy,5,0.45106549999945855,['n'],1,right,['0'],6,0.3678842999997869,,,11,19,Man,Rechts,1,
,xotask,xotask,dotcolour,50,3,230,530,main,negativefb,-99,easy,8,0.5504755000001751,['n'],1,right,['0'],6,0.43610529999932623,,,11,19,Man,Rechts,1,
,xotask,xotask,dotcolour,51,3,231,531,main,negativefb,-99,hard,25,1.3174726000015653,['c'],0,right,['9'],5,0.5033531999997649,,,11,19,Man,Rechts,1,
,xotask,xotask,dotcolour,52,3,232,532,main,negativefb,-99,easy,70,0.8512112999997044,['c'],1,left,['0'],6,0.313991499999247,,,11,19,Man,Rechts,1,
,xotask,xotask,dotcolour,53,3,233,533,main,negativefb,-99,average,60,0.6336415000005218,['c'],1,left,['0'],6,0.3248459999995248,,,11,19,Man,Rechts,1,
,xotask,xotask,dotcolour,54,3,234,534,main,negativefb,-99,hard,51,0.9000280999989627,['c'],1,left,['9'],5,0.22090319999915664,,,11,19,Man,Rechts,1,
,xotask,xotask,dotcolour,55,3,235,535,main,negativefb,-99,average,16,1.9840640999991592,['c'],0,right,['9'],5,1.2304656000014802,,,11,19,Man,Rechts,1,
,xotask,xotask,dotcolour,56,3,236,536,main,negativefb,-99,hard,54,0.7508085000008577,['c'],1,left,['8'],4,0.8481644999992568,,,11,19,Man,Rechts,1,
,xotask,xotask,dotcolour,57,3,237,537,main,negativefb,-99,easy,9,0.6345638000002509,['n'],1,right,['0'],6,0.9093420000008337,,,11,19,Man,Rechts,1,
,xotask,xotask,dotcolour,58,3,238,538,main,negativefb,-99,hard,26,0.8997694999998203,['n'],1,right,['0'],6,0.3264622999995481,,,11,19,Man,Rechts,1,
,xotask,xotask,dotcolour,59,3,239,539,main,negativefb,-99,hard,53,1.5671316999996634,['c'],1,left,['0'],6,0.30733580000014626,,,11,19,Man,Rechts,1,
,xotask,xotask,dotcolour,0,4,240,540,main,negativefb,-99,average,64,0.9014200000001438,['c'],1,left,['9'],5,0.6741653999997652,,,11,19,Man,Rechts,1,
,xotask,xotask,dotcolour,1,4,241,541,main,negativefb,-99,average,63,0.5841693000002124,['c'],1,left,['9'],5,0.3534599000013259,,,11,19,Man,Rechts,1,
,xotask,xotask,dotcolour,2,4,242,542,main,negativefb,-99,hard,27,1.1185485000005428,['n'],1,right,['0'],6,0.6233783999996376,,,11,19,Man,Rechts,1,
,xotask,xotask,dotcolour,3,4,243,543,main,negativefb,-99,hard,27,0.7672118999998929,['n'],1,right,['8'],4,1.057158999999956,,,11,19,Man,Rechts,1,
,xotask,xotask,dotcolour,4,4,244,544,main,negativefb,-99,easy,6,0.75125350000053,['n'],1,right,['0'],6,0.9772310999996989,,,11,19,Man,Rechts,1,
,xotask,xotask,dotcolour,5,4,245,545,main,negativefb,-99,easy,7,0.5347184999991441,['n'],1,right,['0'],6,0.3100144,,,11,19,Man,Rechts,1,
,xotask,xotask,dotcolour,6,4,246,546,main,negativefb,-99,average,60,0.6353126999983942,['c'],1,left,['0'],6,0.29764630000136094,,,11,19,Man,Rechts,1,
,xotask,xotask,dotcolour,7,4,247,547,main,negativefb,-99,hard,51,0.8338819999989937,['c'],1,left,['8'],4,0.5970710000001418,,,11,19,Man,Rechts,1,
,xotask,xotask,dotcolour,8,4,248,548,main,negativefb,-99,easy,70,0.8337178000001586,['c'],1,left,['9'],5,0.4767735999994329,,,11,19,Man,Rechts,1,
,xotask,xotask,dotcolour,9,4,249,549,main,negativefb,-99,average,19,0.7177205999996659,['c'],0,right,['9'],5,0.31834170000001905,,,11,19,Man,Rechts,1,
,xotask,xotask,dotcolour,10,4,250,550,main,negativefb,-99,easy,6,0.801117199998771,['n'],1,right,['0'],6,0.6503578000010748,,,11,19,Man,Rechts,1,
,xotask,xotask,dotcolour,11,4,251,551,main,negativefb,-99,hard,25,1.050694099998509,['n'],1,right,['8'],4,0.6951957999990555,,,11,19,Man,Rechts,1,
,xotask,xotask,dotcolour,12,4,252,552,main,negativefb,-99,average,61,0.9849088000009942,['c'],1,left,['0'],6,0.5731336999997438,,,11,19,Man,Rechts,1,
,xotask,xotask,dotcolour,13,4,253,553,main,negativefb,-99,average,19,1.1333995000004506,['n'],1,right,['9'],5,1.0580821000003198,,,11,19,Man,Rechts,1,
,xotask,xotask,dotcolour,14,4,254,554,main,negativefb,-99,hard,50,1.4666715000003023,['c'],1,left,['8'],4,0.4939000999984273,,,11,19,Man,Rechts,1,
,xotask,xotask,dotcolour,15,4,255,555,main,negativefb,-99,easy,8,0.9174065999995946,['c'],0,right,['8'],4,0.33377240000118036,,,11,19,Man,Rechts,1,
,xotask,xotask,dotcolour,16,4,256,556,main,negativefb,-99,average,61,1.3005388000001403,['c'],1,left,['9'],5,0.38999609999882523,,,11,19,Man,Rechts,1,
,xotask,xotask,dotcolour,17,4,257,557,main,negativefb,-99,average,17,1.5508089999984804,['n'],1,right,['8'],4,1.0009146000011242,,,11,19,Man,Rechts,1,
,xotask,xotask,dotcolour,18,4,258,558,main,negativefb,-99,average,64,1.0011622000001807,['c'],1,left,['9'],5,0.3214977000006911,,,11,19,Man,Rechts,1,
,xotask,xotask,dotcolour,19,4,259,559,main,negativefb,-99,average,16,0.8825938000009046,['n'],1,right,['8'],4,1.2911201000006258,,,11,19,Man,Rechts,1,
,xotask,xotask,dotcolour,20,4,260,560,main,negativefb,-99,easy,71,1.367247199999838,['c'],1,left,['0'],6,1.009135199999946,,,11,19,Man,Rechts,1,
,xotask,xotask,dotcolour,21,4,261,561,main,negativefb,-99,easy,73,0.7005865999999514,['c'],1,left,['0'],6,0.26240289999987,,,11,19,Man,Rechts,1,
,xotask,xotask,dotcolour,22,4,262,562,main,negativefb,-99,hard,29,0.9505477999991854,['c'],0,right,['8'],4,0.6553554000001895,,,11,19,Man,Rechts,1,
,xotask,xotask,dotcolour,23,4,263,563,main,negativefb,-99,hard,25,1.0348246000012296,['c'],0,right,['8'],4,0.2687037000014243,,,11,19,Man,Rechts,1,
,xotask,xotask,dotcolour,24,4,264,564,main,negativefb,-99,hard,29,1.5347287000004144,['c'],0,right,['8'],4,0.25244819999898027,,,11,19,Man,Rechts,1,
,xotask,xotask,dotcolour,25,4,265,565,main,negativefb,-99,hard,28,1.3186578000004374,['n'],1,right,['8'],4,0.39064719999987574,,,11,19,Man,Rechts,1,
,xotask,xotask,dotcolour,26,4,266,566,main,negativefb,-99,hard,29,0.6842453999997815,['n'],1,right,['8'],4,0.3889424000008148,,,11,19,Man,Rechts,1,
,xotask,xotask,dotcolour,27,4,267,567,main,negativefb,-99,easy,6,0.6839135000009264,['n'],1,right,['8'],4,0.46649239999896963,,,11,19,Man,Rechts,1,
,xotask,xotask,dotcolour,28,4,268,568,main,negativefb,-99,hard,53,0.7335407000009582,['n'],0,left,['8'],4,0.45937360000061744,,,11,19,Man,Rechts,1,
,xotask,xotask,dotcolour,29,4,269,569,main,negativefb,-99,hard,53,0.7835389000010764,['n'],0,left,['8'],4,0.45856690000073286,,,11,19,Man,Rechts,1,
,xotask,xotask,dotcolour,30,4,270,570,main,negativefb,-99,hard,29,0.701631300000372,['n'],1,right,['8'],4,0.5014487000007648,,,11,19,Man,Rechts,1,
,xotask,xotask,dotcolour,31,4,271,571,main,negativefb,-99,easy,7,0.733686100000341,['n'],1,right,['8'],4,0.6041652999992948,,,11,19,Man,Rechts,1,
,xotask,xotask,dotcolour,32,4,272,572,main,negativefb,-99,average,18,0.6667600000000675,['n'],1,right,['0'],6,1.4350194999988162,,,11,19,Man,Rechts,1,
,xotask,xotask,dotcolour,33,4,273,573,main,negativefb,-99,easy,7,0.6167065000008733,['n'],1,right,['0'],6,0.4491135000007489,,,11,19,Man,Rechts,1,
,xotask,xotask,dotcolour,34,4,274,574,main,negativefb,-99,average,19,0.600902700000006,['n'],1,right,['0'],6,0.41584789999978966,,,11,19,Man,Rechts,1,
,xotask,xotask,dotcolour,35,4,275,575,main,negativefb,-99,easy,5,0.7671172999998817,['n'],1,right,['0'],6,0.36119269999835524,,,11,19,Man,Rechts,1,
,xotask,xotask,dotcolour,36,4,276,576,main,negativefb,-99,average,15,0.5170013999995717,['n'],1,right,['0'],6,0.47121750000042084,,,11,19,Man,Rechts,1,
,xotask,xotask,dotcolour,37,4,277,577,main,negativefb,-99,easy,70,1.0502792999996018,['c'],1,left,['0'],6,0.6271537000011449,,,11,19,Man,Rechts,1,
,xotask,xotask,dotcolour,38,4,278,578,main,negativefb,-99,hard,50,1.6016721999985748,['n'],0,left,['8'],4,1.0272385999996914,,,11,19,Man,Rechts,1,
,xotask,xotask,dotcolour,39,4,279,579,main,negativefb,-99,average,15,0.8509073000004719,['n'],1,right,['9'],5,0.4017605999997613,,,11,19,Man,Rechts,1,
,xotask,xotask,dotcolour,40,4,280,580,main,negativefb,-99,hard,52,0.9165129000011802,['n'],0,left,['9'],5,0.358059800000774,,,11,19,Man,Rechts,1,
,xotask,xotask,dotcolour,41,4,281,581,main,negativefb,-99,hard,50,1.3838775000003807,['c'],1,left,['8'],4,0.35299680000025546,,,11,19,Man,Rechts,1,
,xotask,xotask,dotcolour,42,4,282,582,main,negativefb,-99,hard,28,0.7847233000011329,['c'],0,right,['8'],4,0.3003356999997777,,,11,19,Man,Rechts,1,
,xotask,xotask,dotcolour,43,4,283,583,main,negativefb,-99,average,62,1.0847420999998576,['c'],1,left,['9'],5,0.3896669000005204,,,11,19,Man,Rechts,1,
,xotask,xotask,dotcolour,44,4,284,584,main,negativefb,-99,average,61,1.2681913999986136,['c'],1,left,['9'],5,0.30799109999861685,,,11,19,Man,Rechts,1,
,xotask,xotask,dotcolour,45,4,285,585,main,negativefb,-99,hard,51,0.9844828000004782,['c'],1,left,['8'],4,0.5536388000000443,,,11,19,Man,Rechts,1,
,xotask,xotask,dotcolour,46,4,286,586,main,negativefb,-99,average,61,0.7338165000001027,['c'],1,left,['9'],5,0.4792040000011184,,,11,19,Man,Rechts,1,
,xotask,xotask,dotcolour,47,4,287,587,main,negativefb,-99,easy,71,0.9844296000010218,['c'],1,left,['9'],5,0.30967409999902884,,,11,19,Man,Rechts,1,
,xotask,xotask,dotcolour,48,4,288,588,main,negativefb,-99,average,18,1.4172371000004205,['n'],1,right,['9'],5,0.46591259999877366,,,11,19,Man,Rechts,1,
,xotask,xotask,dotcolour,49,4,289,589,main,negativefb,-99,easy,73,0.7847412000010081,['c'],1,left,['0'],6,1.1764050999991014,,,11,19,Man,Rechts,1,
,xotask,xotask,dotcolour,50,4,290,590,main,negativefb,-99,hard,53,0.7673720999991929,['c'],1,left,['9'],5,0.31549400000039896,,,11,19,Man,Rechts,1,
,xotask,xotask,dotcolour,51,4,291,591,main,negativefb,-99,easy,7,1.118907100000797,['n'],1,right,['9'],5,0.6353961000004347,,,11,19,Man,Rechts,1,
,xotask,xotask,dotcolour,52,4,292,592,main,negativefb,-99,easy,73,0.9677601999992476,['c'],1,left,['9'],5,0.4437894000002416,,,11,19,Man,Rechts,1,
,xotask,xotask,dotcolour,53,4,293,593,main,negativefb,-99,average,60,1.2180449000006774,['c'],1,left,['8'],4,0.3389798000007431,,,11,19,Man,Rechts,1,
,xotask,xotask,dotcolour,54,4,294,594,main,negativefb,-99,average,19,0.9004076999990502,['n'],1,right,['9'],5,0.8255406999996922,,,11,19,Man,Rechts,1,
,xotask,xotask,dotcolour,55,4,295,595,main,negativefb,-99,easy,74,0.8842561999990721,['c'],1,left,['0'],6,0.6783353000009811,,,11,19,Man,Rechts,1,
,xotask,xotask,dotcolour,56,4,296,596,main,negativefb,-99,hard,50,0.6340574999994715,['c'],1,left,['0'],6,0.2835362999994686,,,11,19,Man,Rechts,1,
,xotask,xotask,dotcolour,57,4,297,597,main,negativefb,-99,easy,6,0.7174501000008604,['n'],1,right,['0'],6,0.7241602999984025,,,11,19,Man,Rechts,1,
,xotask,xotask,dotcolour,58,4,298,598,main,negativefb,-99,easy,72,0.567583599999125,['c'],1,left,['0'],6,0.3129246999997122,,,11,19,Man,Rechts,1,
,xotask,xotask,dotcolour,59,4,299,599,main,negativefb,-99,easy,70,0.6008636000005936,['c'],1,left,['0'],6,0.30962759999965783,,,11,19,Man,Rechts,1,
,xotask,xotask,dotcolour,0,0,0,600,training,negativefb,99,average,63,0.8509262000006856,['c'],1,left,['9'],5,1.752526799999032,,,11,19,Man,Rechts,1,
,xotask,xotask,dotcolour,1,0,1,601,training,negativefb,40,hard,28,0.9169378000005963,['n'],1,right,['9'],5,0.47742790000120294,,,11,19,Man,Rechts,1,
,xotask,xotask,dotcolour,2,0,2,602,training,negativefb,39,average,63,0.6333481000001484,['c'],1,left,['0'],6,0.7859814000003098,,,11,19,Man,Rechts,1,
,xotask,xotask,dotcolour,3,0,3,603,training,negativefb,56,easy,72,0.7679676999996445,['c'],1,left,['0'],6,0.37197720000040135,,,11,19,Man,Rechts,1,
,xotask,xotask,dotcolour,4,0,4,604,training,negativefb,99,easy,73,0.6999783999999636,['c'],1,left,['0'],6,0.38514109999960056,,,11,19,Man,Rechts,1,
,xotask,xotask,dotcolour,5,0,5,605,training,negativefb,75,average,60,0.8173939999996946,['c'],1,left,['0'],6,0.345009000000573,,,11,19,Man,Rechts,1,
,xotask,xotask,dotcolour,6,0,6,606,training,negativefb,54,hard,29,1.266364600000088,['n'],1,right,['9'],5,0.649004299999433,,,11,19,Man,Rechts,1,
,xotask,xotask,dotcolour,7,0,7,607,training,negativefb,57,average,19,0.7166826000011497,['n'],1,right,['0'],6,0.5301937999993243,,,11,19,Man,Rechts,1,
,xotask,xotask,dotcolour,8,0,8,608,training,negativefb,49,average,63,0.8496056000003591,['c'],1,left,['0'],6,0.33942369999931543,,,11,19,Man,Rechts,1,
,xotask,xotask,dotcolour,9,0,9,609,training,negativefb,94,average,18,0.6012329000004684,['n'],1,right,['0'],6,1.1902816999991046,,,11,19,Man,Rechts,1,
,xotask,xotask,dotcolour,10,0,10,610,training,negativefb,81,easy,72,0.8166431999998167,['c'],1,left,['0'],6,0.943097299999863,,,11,19,Man,Rechts,1,
,xotask,xotask,dotcolour,11,0,11,611,training,negativefb,54,average,17,1.0664655000000494,['n'],1,right,['0'],6,0.5907635999992635,,,11,19,Man,Rechts,1,
,xotask,xotask,dotcolour,12,0,12,612,training,negativefb,89,hard,52,0.6510920999990049,['c'],1,left,['0'],6,2.2207264000007854,,,11,19,Man,Rechts,1,
,xotask,xotask,dotcolour,13,0,13,613,training,negativefb,92,average,62,0.8006611999990128,['c'],1,left,['0'],6,0.78747470000053,,,11,19,Man,Rechts,1,
,xotask,xotask,dotcolour,14,0,14,614,training,negativefb,100,easy,7,0.7494043999995483,['n'],1,right,['0'],6,1.3108133000005182,,,11,19,Man,Rechts,1,
,xotask,xotask,dotcolour,15,0,15,615,training,negativefb,89,hard,50,2.1004554999999527,['c'],1,left,['8'],4,1.4551747999994404,,,11,19,Man,Rechts,1,
,xotask,xotask,dotcolour,16,0,16,616,training,negativefb,97,easy,7,0.7339845999995305,['n'],1,right,['0'],6,0.9427142999993521,,,11,19,Man,Rechts,1,
,xotask,xotask,dotcolour,17,0,17,617,training,negativefb,96,average,62,0.7835465000007389,['c'],1,left,['0'],6,0.2741430999994918,,,11,19,Man,Rechts,1,
,xotask,xotask,dotcolour,18,0,18,618,training,negativefb,92,easy,8,1.1997812999998132,['n'],1,right,['0'],6,0.4153504999994766,,,11,19,Man,Rechts,1,
,xotask,xotask,dotcolour,19,0,19,619,training,negativefb,85,average,15,1.1333269000006112,['n'],1,right,['0'],6,0.28891680000015185,,,11,19,Man,Rechts,1,
,xotask,xotask,dotcolour,20,0,20,620,training,negativefb,72,hard,54,1.1825847000000067,['c'],1,left,['0'],6,0.3906321000013122,,,11,19,Man,Rechts,1,
,xotask,xotask,dotcolour,21,0,21,621,training,negativefb,83,hard,28,1.0505663000003551,['n'],1,right,['0'],6,0.4048884000003454,,,11,19,Man,Rechts,1,
,xotask,xotask,dotcolour,22,0,22,622,training,negativefb,4,hard,52,1.666653199999928,['n'],0,left,['8'],4,1.3713423999997758,,,11,19,Man,Rechts,1,
,xotask,xotask,dotcolour,23,0,23,623,training,negativefb,54,average,60,0.9177085000010266,['c'],1,left,['0'],6,0.8073900999988837,,,11,19,Man,Rechts,1,
,xotask,xotask,dotcolour,24,0,24,624,training,negativefb,75,easy,71,0.8499047000004794,['c'],1,left,['0'],6,0.3494578999998339,,,11,19,Man,Rechts,1,
,xotask,xotask,dotcolour,25,0,25,625,training,negativefb,60,easy,71,0.7326919000006455,['c'],1,left,['0'],6,1.1703477000010025,,,11,19,Man,Rechts,1,
,xotask,xotask,dotcolour,26,0,26,626,training,negativefb,79,average,17,0.6335603999996238,['n'],1,right,['0'],6,0.482541699999274,,,11,19,Man,Rechts,1,
,xotask,xotask,dotcolour,27,0,27,627,training,negativefb,93,easy,74,0.6171498000003339,['c'],1,left,['0'],6,0.4068289000006189,,,11,19,Man,Rechts,1,
,xotask,xotask,dotcolour,28,0,28,628,training,negativefb,70,easy,8,0.6151613000001817,['n'],1,right,['0'],6,0.38941870000053314,,,11,19,Man,Rechts,1,
,xotask,xotask,dotcolour,29,0,29,629,training,negativefb,27,easy,9,0.8153261000006751,['n'],1,right,['0'],6,0.5014121000003797,,,11,19,Man,Rechts,1,
,xotask,xotask,dotcolour,30,0,30,630,training,negativefb,4,average,62,0.9832132999999885,['n'],0,left,['0'],6,0.43456829999922775,,,11,19,Man,Rechts,1,
,xotask,xotask,dotcolour,31,0,31,631,training,negativefb,53,hard,50,1.2339553000001615,['n'],0,left,['9'],5,1.6953872999984014,,,11,19,Man,Rechts,1,
,xotask,xotask,dotcolour,32,0,32,632,training,negativefb,57,average,16,0.6844254000006913,['n'],1,right,['0'],6,0.5046156999997038,,,11,19,Man,Rechts,1,
,xotask,xotask,dotcolour,33,0,33,633,training,negativefb,64,hard,26,0.6343987000000197,['n'],1,right,['0'],6,0.4032704000001104,,,11,19,Man,Rechts,1,
,xotask,xotask,dotcolour,34,0,34,634,training,negativefb,99,easy,8,0.6337926999985939,['n'],1,right,['0'],6,0.5381335000001854,,,11,19,Man,Rechts,1,
,xotask,xotask,dotcolour,35,0,35,635,training,negativefb,34,average,19,0.6157167999990634,['n'],1,right,['0'],6,0.6195766000000731,,,11,19,Man,Rechts,1,
,xotask,xotask,dotcolour,36,0,36,636,training,negativefb,67,easy,6,0.5664033000011841,['n'],1,right,['0'],6,0.3643133999994461,,,11,19,Man,Rechts,1,
,xotask,xotask,dotcolour,37,0,37,637,training,negativefb,60,average,18,0.5325886999999057,['n'],1,right,['0'],6,0.41615319999982603,,,11,19,Man,Rechts,1,
,xotask,xotask,dotcolour,38,0,38,638,training,negativefb,89,easy,6,0.6506704999992508,['n'],1,right,['0'],6,0.3904847999983758,,,11,19,Man,Rechts,1,
,xotask,xotask,dotcolour,39,0,39,639,training,negativefb,65,easy,8,0.48303409999971336,['n'],1,right,['0'],6,0.4110373999992589,,,11,19,Man,Rechts,1,
,xotask,xotask,dotcolour,40,0,40,640,training,negativefb,21,average,19,0.666829299998426,['n'],1,right,['0'],6,0.38490960000126506,,,11,19,Man,Rechts,1,
,xotask,xotask,dotcolour,41,0,41,641,training,negativefb,82,average,61,0.8654456000003847,['c'],1,left,['0'],6,0.9192645000002813,,,11,19,Man,Rechts,1,
,xotask,xotask,dotcolour,42,0,42,642,training,negativefb,30,hard,27,0.9508285000010801,['c'],0,right,['9'],5,0.4515451999996003,,,11,19,Man,Rechts,1,
,xotask,xotask,dotcolour,43,0,43,643,training,negativefb,53,hard,52,0.7833712999999989,['c'],1,left,['9'],5,0.2188231000000087,,,11,19,Man,Rechts,1,
,xotask,xotask,dotcolour,44,0,44,644,training,negativefb,51,hard,29,0.6675023000007059,['n'],1,right,['9'],5,0.5998572999997123,,,11,19,Man,Rechts,1,
,xotask,xotask,dotcolour,45,0,45,645,training,negativefb,68,average,17,0.766555199999857,['n'],1,right,['8'],4,0.3365040999997291,,,11,19,Man,Rechts,1,
,xotask,xotask,dotcolour,46,0,46,646,training,negativefb,57,hard,51,0.9167779999988852,['n'],0,left,['8'],4,0.31874470000002475,,,11,19,Man,Rechts,1,
,xotask,xotask,dotcolour,47,0,47,647,training,negativefb,86,easy,74,0.9166478000006464,['c'],1,left,['0'],6,0.917537799999991,,,11,19,Man,Rechts,1,
,xotask,xotask,dotcolour,48,0,48,648,training,negativefb,59,average,63,0.6659951000001456,['c'],1,left,['0'],6,0.34292830000049435,,,11,19,Man,Rechts,1,
,xotask,xotask,dotcolour,49,0,49,649,training,negativefb,64,easy,74,0.5829666999998153,['c'],1,left,['0'],6,0.33741899999949965,,,11,19,Man,Rechts,1,
,xotask,xotask,dotcolour,50,0,50,650,training,negativefb,96,easy,5,0.8833018999994238,['n'],1,right,['0'],6,1.5132799000002706,,,11,19,Man,Rechts,1,
,xotask,xotask,dotcolour,51,0,51,651,training,negativefb,66,hard,50,0.9003589000003558,['n'],0,left,['0'],6,0.39998479999849224,,,11,19,Man,Rechts,1,
,xotask,xotask,dotcolour,52,0,52,652,training,negativefb,84,hard,51,0.715708400000949,['c'],1,left,['0'],6,0.4034027999987302,,,11,19,Man,Rechts,1,
,xotask,xotask,dotcolour,53,0,53,653,training,negativefb,51,hard,28,2.5167442000001756,['n'],1,right,['9'],5,0.5195112000001245,,,11,19,Man,Rechts,1,
,xotask,xotask,dotcolour,54,0,54,654,training,negativefb,39,hard,25,0.7665588999989268,['n'],1,right,['9'],5,0.6356833999998344,,,11,19,Man,Rechts,1,
,xotask,xotask,dotcolour,55,0,55,655,training,negativefb,67,easy,71,0.6004459000014322,['c'],1,left,['0'],6,0.5619726999993873,,,11,19,Man,Rechts,1,
,xotask,xotask,dotcolour,56,0,56,656,training,negativefb,66,hard,27,0.9660865999994712,['c'],0,right,['9'],5,0.31748679999873275,,,11,19,Man,Rechts,1,
,xotask,xotask,dotcolour,57,0,57,657,training,negativefb,52,hard,54,1.0834599999998318,['c'],1,left,['9'],5,0.46951199999966775,,,11,19,Man,Rechts,1,
,xotask,xotask,dotcolour,58,0,58,658,training,negativefb,91,hard,28,1.0829821999996057,['n'],1,right,['9'],5,0.6720989999994345,,,11,19,Man,Rechts,1,
,xotask,xotask,dotcolour,59,0,59,659,training,negativefb,56,easy,74,0.8003449999996519,['c'],1,left,['0'],6,0.44560490000003483,,,11,19,Man,Rechts,1,
,xotask,xotask,dotcolour,0,1,60,660,training,negativefb,99,easy,6,1.1011791999990237,['n'],1,right,['0'],6,1.2552940000005037,,,11,19,Man,Rechts,1,
,xotask,xotask,dotcolour,1,1,61,661,training,negativefb,76,easy,7,0.6497966000006272,['n'],1,right,['0'],6,0.5156822000008106,,,11,19,Man,Rechts,1,
,xotask,xotask,dotcolour,2,1,62,662,training,negativefb,24,hard,54,1.3837435000004916,['c'],1,left,['8'],4,0.6147940999999264,,,11,19,Man,Rechts,1,
,xotask,xotask,dotcolour,3,1,63,663,training,negativefb,49,average,16,1.4014396000002307,['n'],1,right,['9'],5,0.4464213000010204,,,11,19,Man,Rechts,1,
,xotask,xotask,dotcolour,4,1,64,664,training,negativefb,97,easy,9,0.616968899999847,['n'],1,right,['0'],6,1.076347899999746,,,11,19,Man,Rechts,1,
,xotask,xotask,dotcolour,5,1,65,665,training,negativefb,49,average,61,0.7503893000011885,['c'],1,left,['0'],6,0.500050899998314,,,11,19,Man,Rechts,1,
,xotask,xotask,dotcolour,6,1,66,666,training,negativefb,29,hard,50,2.2850101999993058,['n'],0,left,['0'],6,1.0121338000008109,,,11,19,Man,Rechts,1,
