starttime,task,fbtask,firsttask,withinblocktrial,block,withintasktrial,trial,running,feedback,fbscore,difflevel,n_xes,rt,resp,cor,cresp,conf_press,cj,RTconf,reddots,stoptime,sub,age,gender,handedness,session,
1714978819,xotask,xotask,dotcolour,0,0,0,0,training,positivefb,84,hard,28,2.7006942000000436,['n'],1,right,['1'],1,2.4915098999999827,,,9,18,Man,Rechts,1,
,xotask,xotask,dotcolour,1,0,1,1,training,positivefb,64,hard,25,2.3012123999999403,['n'],1,right,['8'],4,2.5865671000001385,,,9,18,Man,Rechts,1,
,xotask,xotask,dotcolour,2,0,2,2,training,positivefb,91,average,63,1.367670500000031,['c'],1,left,['3'],3,2.068794799999978,,,9,18,Man,Rechts,1,
,xotask,xotask,dotcolour,3,0,3,3,training,positivefb,99,easy,8,1.6511399999999412,['n'],1,right,['9'],5,2.262928600000123,,,9,18,Man,Rechts,1,
,xotask,xotask,dotcolour,4,0,4,4,training,positivefb,94,hard,51,1.3666172000000643,['c'],1,left,['8'],4,1.0459805999998935,,,9,18,Man,Rechts,1,
,xotask,xotask,dotcolour,5,0,5,5,training,positivefb,87,average,64,1.5997532999999748,['n'],0,left,['9'],5,0.8768093000001045,,,9,18,Man,Rechts,1,
,xotask,xotask,dotcolour,6,0,6,6,training,positivefb,92,easy,7,1.2836017000001902,['n'],1,right,['0'],6,0.607039900000018,,,9,18,Man,Rechts,1,
,xotask,xotask,dotcolour,7,0,7,7,training,positivefb,54,average,18,1.7006281999999828,['c'],0,right,['8'],4,1.226958699999841,,,9,18,Man,Rechts,1,
,xotask,xotask,dotcolour,8,0,8,8,training,positivefb,88,hard,28,1.2661209000000326,['n'],1,right,['9'],5,0.7269389000000501,,,9,18,Man,Rechts,1,
,xotask,xotask,dotcolour,9,0,9,9,training,positivefb,39,hard,54,1.5999329999999645,['n'],0,left,['8'],4,0.978281700000025,,,9,18,Man,Rechts,1,
,xotask,xotask,dotcolour,10,0,10,10,training,positivefb,85,average,15,0.8849167999999281,['n'],1,right,['0'],6,0.6633116000000427,,,9,18,Man,Rechts,1,
,xotask,xotask,dotcolour,11,0,11,11,training,positivefb,91,easy,71,1.0490687999999864,['c'],1,left,['0'],6,0.3724492999999711,,,9,18,Man,Rechts,1,
,xotask,xotask,dotcolour,12,0,12,12,training,positivefb,76,hard,27,1.4339752999999291,['n'],1,right,['9'],5,0.6843978000001698,,,9,18,Man,Rechts,1,
,xotask,xotask,dotcolour,13,0,13,13,training,positivefb,90,easy,71,1.1163382999998248,['c'],1,left,['0'],6,0.2753120999998373,,,9,18,Man,Rechts,1,
,xotask,xotask,dotcolour,14,0,14,14,training,positivefb,97,hard,51,1.0160690999998678,['n'],0,left,['0'],6,0.2973407000001771,,,9,18,Man,Rechts,1,
,xotask,xotask,dotcolour,15,0,15,15,training,positivefb,84,average,64,0.7674854999997933,['c'],1,left,['0'],6,0.24716530000000603,,,9,18,Man,Rechts,1,
,xotask,xotask,dotcolour,16,0,16,16,training,positivefb,73,hard,54,3.4161916000000474,['n'],0,left,['3'],3,1.0852525000000242,,,9,18,Man,Rechts,1,
,xotask,xotask,dotcolour,17,0,17,17,training,positivefb,99,average,15,0.8995752000000721,['n'],1,right,['9'],5,1.4534217000000353,,,9,18,Man,Rechts,1,
,xotask,xotask,dotcolour,18,0,18,18,training,positivefb,98,easy,73,0.9682141000000684,['c'],1,left,['9'],5,0.444202500000074,,,9,18,Man,Rechts,1,
,xotask,xotask,dotcolour,19,0,19,19,training,positivefb,89,hard,27,3.033516399999826,['n'],1,right,['8'],4,0.7620758999998998,,,9,18,Man,Rechts,1,
,xotask,xotask,dotcolour,20,0,20,20,training,positivefb,97,average,18,1.135596200000009,['n'],1,right,['9'],5,1.510788100000127,,,9,18,Man,Rechts,1,
,xotask,xotask,dotcolour,21,0,21,21,training,positivefb,82,average,18,0.9154742000000624,['c'],0,right,['9'],5,0.766151900000068,,,9,18,Man,Rechts,1,
,xotask,xotask,dotcolour,22,0,22,22,training,positivefb,86,hard,52,4.434501299999965,['c'],1,left,['2'],2,0.3820608999999422,,,9,18,Man,Rechts,1,
,xotask,xotask,dotcolour,23,0,23,23,training,positivefb,86,hard,27,1.2009809000001042,['n'],1,right,['8'],4,1.629834399999936,,,9,18,Man,Rechts,1,
,xotask,xotask,dotcolour,24,0,24,24,training,positivefb,47,easy,70,0.7999508999998852,['n'],0,left,['9'],5,0.6773256000001311,,,9,18,Man,Rechts,1,
,xotask,xotask,dotcolour,25,0,25,25,training,positivefb,87,easy,71,1.1491628000001128,['n'],0,left,['0'],6,0.5475189000001137,,,9,18,Man,Rechts,1,
,xotask,xotask,dotcolour,26,0,26,26,training,positivefb,89,hard,54,1.8001173000000108,['n'],0,left,['8'],4,0.7578588999999738,,,9,18,Man,Rechts,1,
,xotask,xotask,dotcolour,27,0,27,27,training,positivefb,21,average,19,1.1842925000000832,['c'],0,right,['9'],5,2.3374719000000823,,,9,18,Man,Rechts,1,
,xotask,xotask,dotcolour,28,0,28,28,training,positivefb,95,average,60,1.5496949999999288,['c'],1,left,['9'],5,0.7176252000001568,,,9,18,Man,Rechts,1,
,xotask,xotask,dotcolour,29,0,29,29,training,positivefb,85,hard,25,0.866606099999899,['n'],1,right,['9'],5,0.3096892000000935,,,9,18,Man,Rechts,1,
,xotask,xotask,dotcolour,30,0,30,30,training,positivefb,97,average,63,1.4009186000000682,['c'],1,left,['9'],5,0.2262468000001263,,,9,18,Man,Rechts,1,
,xotask,xotask,dotcolour,31,0,31,31,training,positivefb,96,average,61,1.200602900000149,['c'],1,left,['0'],6,0.40969849999987673,,,9,18,Man,Rechts,1,
,xotask,xotask,dotcolour,32,0,32,32,training,positivefb,97,easy,74,0.8497101999998904,['c'],1,left,['0'],6,0.29590669999993224,,,9,18,Man,Rechts,1,
,xotask,xotask,dotcolour,33,0,33,33,training,positivefb,82,hard,50,1.1835717999999815,['c'],1,left,['8'],4,1.291960300000028,,,9,18,Man,Rechts,1,
,xotask,xotask,dotcolour,34,0,34,34,training,positivefb,97,easy,70,0.8172346999999718,['c'],1,left,['9'],5,0.3689514000000145,,,9,18,Man,Rechts,1,
,xotask,xotask,dotcolour,35,0,35,35,training,positivefb,88,hard,50,0.9165530000000217,['c'],1,left,['9'],5,0.2927187000000231,,,9,18,Man,Rechts,1,
,xotask,xotask,dotcolour,36,0,36,36,training,positivefb,70,average,18,1.8993134999998347,['n'],1,right,['9'],5,0.27720960000010564,,,9,18,Man,Rechts,1,
,xotask,xotask,dotcolour,37,0,37,37,training,positivefb,90,average,16,1.483838900000137,['n'],1,right,['8'],4,0.8164388000000145,,,9,18,Man,Rechts,1,
,xotask,xotask,dotcolour,38,0,38,38,training,positivefb,94,easy,5,1.3495737000000645,['n'],1,right,['9'],5,0.5212857999999869,,,9,18,Man,Rechts,1,
,xotask,xotask,dotcolour,39,0,39,39,training,positivefb,99,hard,26,1.3009229000001596,['n'],1,right,['0'],6,1.449199599999929,,,9,18,Man,Rechts,1,
,xotask,xotask,dotcolour,40,0,40,40,training,positivefb,76,easy,72,0.834048900000198,['n'],0,left,['0'],6,0.7259270000001834,,,9,18,Man,Rechts,1,
,xotask,xotask,dotcolour,41,0,41,41,training,positivefb,18,easy,73,1.0664682000001449,['n'],0,left,['9'],5,1.6864415999998528,,,9,18,Man,Rechts,1,
,xotask,xotask,dotcolour,42,0,42,42,training,positivefb,91,easy,5,1.3159952000000885,['n'],1,right,['0'],6,1.1097950999999284,,,9,18,Man,Rechts,1,
,xotask,xotask,dotcolour,43,0,43,43,training,positivefb,98,easy,9,0.9848618999999417,['n'],1,right,['9'],5,1.2180089000000862,,,9,18,Man,Rechts,1,
,xotask,xotask,dotcolour,44,0,44,44,training,positivefb,99,hard,51,0.8505593999998382,['c'],1,left,['0'],6,1.4468234999999368,,,9,18,Man,Rechts,1,
,xotask,xotask,dotcolour,45,0,45,45,training,positivefb,88,average,17,0.9011371999999938,['n'],1,right,['0'],6,0.4264578999998321,,,9,18,Man,Rechts,1,
,xotask,xotask,dotcolour,46,0,46,46,training,positivefb,97,easy,6,0.750201000000061,['n'],1,right,['0'],6,0.5400156999999126,,,9,18,Man,Rechts,1,
,xotask,xotask,dotcolour,47,0,47,47,training,positivefb,93,easy,7,0.6837015000000974,['n'],1,right,['0'],6,0.291408199999978,,,9,18,Man,Rechts,1,
,xotask,xotask,dotcolour,48,0,48,48,training,positivefb,97,easy,6,0.7508182999999917,['n'],1,right,['0'],6,0.33019530000001396,,,9,18,Man,Rechts,1,
,xotask,xotask,dotcolour,49,0,49,49,training,positivefb,98,hard,26,1.2833237999998346,['n'],1,right,['8'],4,1.0741321999998945,,,9,18,Man,Rechts,1,
,xotask,xotask,dotcolour,50,0,50,50,training,positivefb,96,hard,25,0.801341500000035,['n'],1,right,['8'],4,0.43104779999998755,,,9,18,Man,Rechts,1,
,xotask,xotask,dotcolour,51,0,51,51,training,positivefb,100,average,64,1.4340488000000278,['c'],1,left,['8'],4,1.2853900000000067,,,9,18,Man,Rechts,1,
,xotask,xotask,dotcolour,52,0,52,52,training,positivefb,94,hard,54,1.7505873000000065,['c'],1,left,['9'],5,2.2924264000000676,,,9,18,Man,Rechts,1,
,xotask,xotask,dotcolour,53,0,53,53,training,positivefb,96,average,64,1.3677631999998994,['c'],1,left,['9'],5,0.8090608999998494,,,9,18,Man,Rechts,1,
,xotask,xotask,dotcolour,54,0,54,54,training,positivefb,86,average,60,1.301187599999821,['c'],1,left,['9'],5,0.8215445999999247,,,9,18,Man,Rechts,1,
,xotask,xotask,dotcolour,55,0,55,55,training,positivefb,93,easy,71,1.1176570000000083,['c'],1,left,['0'],6,0.9277907000000596,,,9,18,Man,Rechts,1,
,xotask,xotask,dotcolour,56,0,56,56,training,positivefb,91,easy,8,0.8504010999999991,['n'],1,right,['0'],6,0.24143419999995785,,,9,18,Man,Rechts,1,
,xotask,xotask,dotcolour,57,0,57,57,training,positivefb,92,easy,9,0.8000429000001077,['n'],1,right,['0'],6,0.19961869999997361,,,9,18,Man,Rechts,1,
,xotask,xotask,dotcolour,58,0,58,58,training,positivefb,99,average,19,0.9327465999999731,['n'],1,right,['0'],6,0.225881900000104,,,9,18,Man,Rechts,1,
,xotask,xotask,dotcolour,59,0,59,59,training,positivefb,97,average,64,1.884277099999963,['c'],1,left,['3'],3,1.1343526000000566,,,9,18,Man,Rechts,1,
,xotask,xotask,dotcolour,0,1,60,60,training,positivefb,94,easy,8,2.3833483000000797,['n'],1,right,['9'],5,0.7942599000000428,,,9,18,Man,Rechts,1,
,xotask,xotask,dotcolour,1,1,61,61,training,positivefb,90,hard,29,0.6671954999999343,['n'],1,right,['9'],5,0.46427969999990637,,,9,18,Man,Rechts,1,
,xotask,xotask,dotcolour,2,1,62,62,training,positivefb,94,average,17,0.7667022999999062,['n'],1,right,['0'],6,1.039940099999967,,,9,18,Man,Rechts,1,
,xotask,xotask,dotcolour,3,1,63,63,training,positivefb,80,hard,29,0.8845673999999235,['n'],1,right,['9'],5,0.2589479000000665,,,9,18,Man,Rechts,1,
,xotask,xotask,dotcolour,4,1,64,64,training,positivefb,83,hard,27,1.0673219000000245,['n'],1,right,['0'],6,0.47843630000011217,,,9,18,Man,Rechts,1,
,xotask,xotask,dotcolour,5,1,65,65,training,positivefb,92,hard,29,0.6839625000000069,['n'],1,right,['0'],6,0.175926200000049,,,9,18,Man,Rechts,1,
,xotask,xotask,dotcolour,6,1,66,66,training,positivefb,93,easy,71,0.6333998000000065,['c'],1,left,['0'],6,0.19232039999997141,,,9,18,Man,Rechts,1,
,xotask,xotask,dotcolour,7,1,67,67,training,positivefb,84,hard,53,1.3173303000000942,['n'],0,left,['0'],6,0.22823539999990317,,,9,18,Man,Rechts,1,
,xotask,xotask,dotcolour,8,1,68,68,training,positivefb,94,average,18,1.3183595999998943,['n'],1,right,['0'],6,0.19850670000005266,,,9,18,Man,Rechts,1,
,xotask,xotask,dotcolour,9,1,69,69,training,positivefb,89,average,64,2.4503466999999546,['c'],1,left,['3'],3,0.27727679999998145,,,9,18,Man,Rechts,1,
,xotask,xotask,dotcolour,10,1,70,70,training,positivefb,88,hard,26,1.7324725000000853,['n'],1,right,['9'],5,1.2452694000000974,,,9,18,Man,Rechts,1,
,xotask,xotask,dotcolour,11,1,71,71,training,positivefb,93,hard,25,1.4842710999998872,['n'],1,right,['8'],4,0.4724670000000515,,,9,18,Man,Rechts,1,
,xotask,xotask,dotcolour,12,1,72,72,training,positivefb,79,average,64,1.5169731999999385,['c'],1,left,['9'],5,0.5527432000001227,,,9,18,Man,Rechts,1,
,xotask,xotask,dotcolour,13,1,73,73,training,positivefb,80,easy,74,1.41662180000003,['c'],1,left,['9'],5,0.602594100000033,,,9,18,Man,Rechts,1,
,xotask,xotask,dotcolour,14,1,74,74,training,positivefb,83,hard,52,2.3669322999999167,['n'],0,left,['2'],2,0.4519952000000558,,,9,18,Man,Rechts,1,
,xotask,xotask,dotcolour,15,1,75,75,training,positivefb,74,average,17,1.3176118999999744,['n'],1,right,['8'],4,1.7734272000000146,,,9,18,Man,Rechts,1,
,xotask,xotask,dotcolour,16,1,76,76,training,positivefb,92,easy,7,1.2341323000000557,['n'],1,right,['0'],6,0.25965910000013537,,,9,18,Man,Rechts,1,
,xotask,xotask,dotcolour,17,1,77,77,training,positivefb,97,easy,7,1.0489830999999867,['n'],1,right,['9'],5,0.608851500000128,,,9,18,Man,Rechts,1,
,xotask,xotask,dotcolour,18,1,78,78,training,positivefb,97,average,19,1.6161314000000857,['n'],1,right,['8'],4,1.527575699999943,,,9,18,Man,Rechts,1,
,xotask,xotask,dotcolour,19,1,79,79,training,positivefb,93,average,64,0.8837894000000688,['c'],1,left,['8'],4,1.1428965999998582,,,9,18,Man,Rechts,1,
,xotask,xotask,dotcolour,20,1,80,80,training,positivefb,97,average,63,0.8347283999999036,['c'],1,left,['9'],5,0.7201222000001053,,,9,18,Man,Rechts,1,
,xotask,xotask,dotcolour,21,1,81,81,training,positivefb,97,hard,51,0.7664307000000008,['c'],1,left,['0'],6,0.3965241999999307,,,9,18,Man,Rechts,1,
,xotask,xotask,dotcolour,22,1,82,82,training,positivefb,91,easy,8,2.1172043999999914,['n'],1,right,['0'],6,0.5294306999999208,,,9,18,Man,Rechts,1,
,xotask,xotask,dotcolour,23,1,83,83,training,positivefb,86,average,16,0.9001782999998795,['n'],1,right,['0'],6,0.2410672999999406,,,9,18,Man,Rechts,1,
,xotask,xotask,dotcolour,24,1,84,84,training,positivefb,83,hard,27,0.8335981000000174,['n'],1,right,['0'],6,0.2942084999999679,,,9,18,Man,Rechts,1,
,xotask,xotask,dotcolour,25,1,85,85,training,positivefb,97,average,63,1.9006778000000395,['c'],1,left,['9'],5,1.3671117999999751,,,9,18,Man,Rechts,1,
,xotask,xotask,dotcolour,26,1,86,86,training,positivefb,98,average,19,0.99964349999982,['n'],1,right,['9'],5,0.8642882999999983,,,9,18,Man,Rechts,1,
,xotask,xotask,dotcolour,27,1,87,87,training,positivefb,88,hard,54,1.0498231000001397,['c'],1,left,['9'],5,0.283932699999923,,,9,18,Man,Rechts,1,
,xotask,xotask,dotcolour,28,1,88,88,training,positivefb,32,hard,52,2.0014055999999982,['n'],0,left,['9'],5,0.6329279999999926,,,9,18,Man,Rechts,1,
,xotask,xotask,dotcolour,29,1,89,89,training,positivefb,92,easy,73,1.318029499999966,['c'],1,left,['0'],6,0.3299709000000348,,,9,18,Man,Rechts,1,
,xotask,xotask,dotcolour,30,1,90,90,training,positivefb,97,average,64,0.9662768999999116,['c'],1,left,['8'],4,1.1517198000001372,,,9,18,Man,Rechts,1,
,xotask,xotask,dotcolour,31,1,91,91,training,positivefb,73,hard,50,1.933889200000067,['c'],1,left,['3'],3,0.22743519999994533,,,9,18,Man,Rechts,1,
,xotask,xotask,dotcolour,32,1,92,92,training,positivefb,95,average,19,1.4850331000000097,['n'],1,right,['0'],6,0.9680627000000186,,,9,18,Man,Rechts,1,
,xotask,xotask,dotcolour,33,1,93,93,training,positivefb,14,easy,5,1.0344720000000507,['c'],0,right,['1'],1,1.4152983999999833,,,9,18,Man,Rechts,1,
,xotask,xotask,dotcolour,34,1,94,94,training,positivefb,86,easy,8,2.0509795999998914,['n'],1,right,['9'],5,0.47722700000008444,,,9,18,Man,Rechts,1,
,xotask,xotask,dotcolour,35,1,95,95,training,positivefb,96,easy,9,1.0506628999999066,['n'],1,right,['0'],6,0.22482689999992544,,,9,18,Man,Rechts,1,
,xotask,xotask,dotcolour,36,1,96,96,training,positivefb,98,easy,6,0.7169686999998248,['n'],1,right,['0'],6,0.251150300000063,,,9,18,Man,Rechts,1,
,xotask,xotask,dotcolour,37,1,97,97,training,positivefb,95,easy,70,1.3498619000001781,['c'],1,left,['8'],4,0.33085410000012416,,,9,18,Man,Rechts,1,
,xotask,xotask,dotcolour,38,1,98,98,training,positivefb,92,hard,52,1.4835866999999325,['c'],1,left,['0'],6,0.21898880000003373,,,9,18,Man,Rechts,1,
,xotask,xotask,dotcolour,39,1,99,99,training,positivefb,90,hard,52,1.3160438999998405,['c'],1,left,['0'],6,0.3099712000000636,,,9,18,Man,Rechts,1,
,xotask,xotask,dotcolour,40,1,100,100,training,positivefb,91,hard,27,0.8503798000001552,['n'],1,right,['0'],6,0.22380250000014712,,,9,18,Man,Rechts,1,
,xotask,xotask,dotcolour,41,1,101,101,training,positivefb,91,average,18,0.9672855000001164,['n'],1,right,['0'],6,0.23955079999996087,,,9,18,Man,Rechts,1,
,xotask,xotask,dotcolour,42,1,102,102,training,positivefb,96,average,64,1.2844817999998668,['c'],1,left,['8'],4,0.3792903999999453,,,9,18,Man,Rechts,1,
,xotask,xotask,dotcolour,43,1,103,103,training,positivefb,92,easy,73,1.1981947000001583,['c'],1,left,['8'],4,0.2200564000002032,,,9,18,Man,Rechts,1,
,xotask,xotask,dotcolour,44,1,104,104,training,positivefb,89,easy,71,1.4336536999999225,['c'],1,left,['9'],5,0.4183794999999009,,,9,18,Man,Rechts,1,
,xotask,xotask,dotcolour,45,1,105,105,training,positivefb,85,easy,71,0.9001623000001473,['c'],1,left,['0'],6,0.18156260000000657,,,9,18,Man,Rechts,1,
,xotask,xotask,dotcolour,46,1,106,106,training,positivefb,96,average,63,0.6837946999999076,['c'],1,left,['0'],6,0.19597599999997328,,,9,18,Man,Rechts,1,
,xotask,xotask,dotcolour,47,1,107,107,training,positivefb,94,easy,74,0.7665664000001016,['c'],1,left,['0'],6,0.22143670000014026,,,9,18,Man,Rechts,1,
,xotask,xotask,dotcolour,48,1,108,108,training,positivefb,96,easy,5,0.7670783999999458,['n'],1,right,['0'],6,0.19076730000006137,,,9,18,Man,Rechts,1,
,xotask,xotask,dotcolour,49,1,109,109,training,positivefb,99,average,15,0.6816779999999198,['n'],1,right,['0'],6,0.22810659999981908,,,9,18,Man,Rechts,1,
,xotask,xotask,dotcolour,50,1,110,110,training,positivefb,86,hard,54,1.100951699999996,['c'],1,left,['0'],6,0.23927889999981744,,,9,18,Man,Rechts,1,
,xotask,xotask,dotcolour,51,1,111,111,training,positivefb,86,average,61,1.2010840000000371,['c'],1,left,['0'],6,0.1895735999999033,,,9,18,Man,Rechts,1,
,xotask,xotask,dotcolour,52,1,112,112,training,positivefb,95,hard,26,1.3844033000000309,['n'],1,right,['9'],5,0.22363150000001042,,,9,18,Man,Rechts,1,
,xotask,xotask,dotcolour,53,1,113,113,training,positivefb,91,average,19,0.9997344999999314,['n'],1,right,['9'],5,0.2698324999998931,,,9,18,Man,Rechts,1,
,xotask,xotask,dotcolour,54,1,114,114,training,positivefb,76,average,64,0.93305579999992,['c'],1,left,['8'],4,0.7662511000000904,,,9,18,Man,Rechts,1,
,xotask,xotask,dotcolour,55,1,115,115,training,positivefb,84,hard,25,1.0508472000001348,['c'],0,right,['9'],5,0.23782610000012028,,,9,18,Man,Rechts,1,
,xotask,xotask,dotcolour,56,1,116,116,training,positivefb,90,hard,53,1.3174387999999908,['c'],1,left,['9'],5,0.32007229999999254,,,9,18,Man,Rechts,1,
,xotask,xotask,dotcolour,57,1,117,117,training,positivefb,94,easy,9,0.6168657999999141,['n'],1,right,['0'],6,0.258418200000051,,,9,18,Man,Rechts,1,
,xotask,xotask,dotcolour,58,1,118,118,training,positivefb,97,easy,74,0.7165669000000889,['c'],1,left,['0'],6,0.39535239999986516,,,9,18,Man,Rechts,1,
,xotask,xotask,dotcolour,59,1,119,119,training,positivefb,88,easy,71,1.3834160999999767,['c'],1,left,['0'],6,0.14894729999991796,,,9,18,Man,Rechts,1,
,dotcolour,xotask,dotcolour,0,2,120,120,main,positivefb,-99,easy,,1.699673999999959,['c'],1,left,['9'],5,1.3497044000000642,61,,9,18,Man,Rechts,1,
,dotcolour,xotask,dotcolour,1,2,121,121,main,positivefb,-99,easy,,2.2003826000000117,['n'],1,right,['1'],1,0.9130110999999488,18,,9,18,Man,Rechts,1,
,dotcolour,xotask,dotcolour,2,2,122,122,main,positivefb,-99,average,,1.3827229000000898,['c'],1,left,['0'],6,0.5012658000000556,55,,9,18,Man,Rechts,1,
,dotcolour,xotask,dotcolour,3,2,123,123,main,positivefb,-99,average,,2.9510724000001574,['n'],1,right,['3'],3,0.5399335999998129,29,,9,18,Man,Rechts,1,
,dotcolour,xotask,dotcolour,4,2,124,124,main,positivefb,-99,easy,,1.7333623999998053,['c'],1,left,['0'],6,0.5144806999999219,63,,9,18,Man,Rechts,1,
,dotcolour,xotask,dotcolour,5,2,125,125,main,positivefb,-99,hard,,2.7343817000000854,['c'],1,left,['8'],4,0.953074400000105,41,,9,18,Man,Rechts,1,
,dotcolour,xotask,dotcolour,6,2,126,126,main,positivefb,-99,average,,1.6346349000000373,['c'],1,left,['0'],6,0.3460841999999502,51,,9,18,Man,Rechts,1,
,dotcolour,xotask,dotcolour,7,2,127,127,main,positivefb,-99,average,,1.6497401999999965,['n'],1,right,['0'],6,0.2992239000000154,27,,9,18,Man,Rechts,1,
,dotcolour,xotask,dotcolour,8,2,128,128,main,positivefb,-99,average,,4.051901599999837,['n'],1,right,['3'],3,0.33399069999995845,28,,9,18,Man,Rechts,1,
,dotcolour,xotask,dotcolour,9,2,129,129,main,positivefb,-99,hard,,3.7832464999999047,['n'],1,right,['8'],4,0.25050209999994877,36,,9,18,Man,Rechts,1,
,dotcolour,xotask,dotcolour,10,2,130,130,main,positivefb,-99,average,,1.3178190000000995,['n'],1,right,['8'],4,0.1636555000000044,25,,9,18,Man,Rechts,1,
,dotcolour,xotask,dotcolour,11,2,131,131,main,positivefb,-99,easy,,1.468074599999909,['c'],1,left,['0'],6,0.2677496000001156,64,,9,18,Man,Rechts,1,
,dotcolour,xotask,dotcolour,12,2,132,132,main,positivefb,-99,hard,,2.801644000000124,['n'],0,left,['8'],4,0.2734744000001683,42,,9,18,Man,Rechts,1,
,dotcolour,xotask,dotcolour,13,2,133,133,main,positivefb,-99,average,,3.7843015000000833,['c'],1,left,['8'],4,1.5615349999998216,51,,9,18,Man,Rechts,1,
,dotcolour,xotask,dotcolour,14,2,134,134,main,positivefb,-99,average,,2.701124499999878,['c'],1,left,['0'],6,0.7920534999998381,52,,9,18,Man,Rechts,1,
,dotcolour,xotask,dotcolour,15,2,135,135,main,positivefb,-99,easy,,0.8346079000000373,['c'],1,left,['0'],6,0.23911199999997734,65,,9,18,Man,Rechts,1,
,dotcolour,xotask,dotcolour,16,2,136,136,main,positivefb,-99,easy,,0.8844868999999562,['n'],1,right,['0'],6,0.24418919999993705,17,,9,18,Man,Rechts,1,
,dotcolour,xotask,dotcolour,17,2,137,137,main,positivefb,-99,easy,,0.7181537999999819,['c'],1,left,['0'],6,0.24573419999978796,62,,9,18,Man,Rechts,1,
,dotcolour,xotask,dotcolour,18,2,138,138,main,positivefb,-99,average,,1.7345562000000427,['n'],1,right,['9'],5,0.2968432000000121,27,,9,18,Man,Rechts,1,
,dotcolour,xotask,dotcolour,19,2,139,139,main,positivefb,-99,average,,0.7013512999999421,['c'],1,left,['9'],5,0.31377199999997174,53,,9,18,Man,Rechts,1,
,dotcolour,xotask,dotcolour,20,2,140,140,main,positivefb,-99,average,,1.334852200000114,['n'],1,right,['9'],5,0.22494770000002973,28,,9,18,Man,Rechts,1,
,dotcolour,xotask,dotcolour,21,2,141,141,main,positivefb,-99,easy,,0.7009230000001025,['c'],1,left,['0'],6,0.24498139999991508,64,,9,18,Man,Rechts,1,
,dotcolour,xotask,dotcolour,22,2,142,142,main,positivefb,-99,easy,,0.8672565000001669,['n'],1,right,['0'],6,0.19351330000017697,16,,9,18,Man,Rechts,1,
,dotcolour,xotask,dotcolour,23,2,143,143,main,positivefb,-99,easy,,0.6505640000000312,['c'],1,left,['0'],6,0.24088940000001458,65,,9,18,Man,Rechts,1,
,dotcolour,xotask,dotcolour,24,2,144,144,main,positivefb,-99,hard,,3.366735800000015,['c'],0,right,['3'],3,0.842015199999878,38,,9,18,Man,Rechts,1,
,dotcolour,xotask,dotcolour,25,2,145,145,main,positivefb,-99,easy,,0.8009677000000011,['n'],1,right,['0'],6,0.24096069999995962,15,,9,18,Man,Rechts,1,
,dotcolour,xotask,dotcolour,26,2,146,146,main,positivefb,-99,easy,,0.7335147000001143,['n'],1,right,['0'],6,0.21923710000010033,17,,9,18,Man,Rechts,1,
,dotcolour,xotask,dotcolour,27,2,147,147,main,positivefb,-99,average,,0.5835886999998365,['c'],1,left,['0'],6,0.2601841000000604,52,,9,18,Man,Rechts,1,
,dotcolour,xotask,dotcolour,28,2,148,148,main,positivefb,-99,easy,,0.516850500000146,['c'],0,right,['0'],6,0.23033380000015313,15,,9,18,Man,Rechts,1,
,dotcolour,xotask,dotcolour,29,2,149,149,main,positivefb,-99,average,,3.799107499999991,['c'],0,right,['8'],4,0.5906979999999749,27,,9,18,Man,Rechts,1,
,dotcolour,xotask,dotcolour,30,2,150,150,main,positivefb,-99,hard,,2.051288399999976,['c'],0,right,['9'],5,0.5411312999999609,39,,9,18,Man,Rechts,1,
,dotcolour,xotask,dotcolour,31,2,151,151,main,positivefb,-99,average,,2.851043699999991,['c'],1,left,['0'],6,0.32649639999999636,53,,9,18,Man,Rechts,1,
,dotcolour,xotask,dotcolour,32,2,152,152,main,positivefb,-99,average,,0.5995403999997961,['c'],1,left,['0'],6,0.2271347999999307,54,,9,18,Man,Rechts,1,
,dotcolour,xotask,dotcolour,33,2,153,153,main,positivefb,-99,hard,,1.1351362999998855,['n'],1,right,['8'],4,0.6289902999999413,36,,9,18,Man,Rechts,1,
,dotcolour,xotask,dotcolour,34,2,154,154,main,positivefb,-99,hard,,0.7334855000001426,['c'],1,left,['9'],5,1.4477990000000318,44,,9,18,Man,Rechts,1,
,dotcolour,xotask,dotcolour,35,2,155,155,main,positivefb,-99,average,,0.7006860999999844,['c'],1,left,['0'],6,0.21869900000001508,54,,9,18,Man,Rechts,1,
,dotcolour,xotask,dotcolour,36,2,156,156,main,positivefb,-99,easy,,0.9178162000000611,['n'],1,right,['0'],6,0.20589539999991757,15,,9,18,Man,Rechts,1,
,dotcolour,xotask,dotcolour,37,2,157,157,main,positivefb,-99,average,,0.8164682000001449,['n'],1,right,['0'],6,0.23789689999989605,27,,9,18,Man,Rechts,1,
,dotcolour,xotask,dotcolour,38,2,158,158,main,positivefb,-99,hard,,2.366558199999872,['c'],1,left,['8'],4,0.29548060000001897,43,,9,18,Man,Rechts,1,
,dotcolour,xotask,dotcolour,39,2,159,159,main,positivefb,-99,easy,,0.8673989000001256,['c'],1,left,['9'],5,0.22584550000010495,62,,9,18,Man,Rechts,1,
,dotcolour,xotask,dotcolour,40,2,160,160,main,positivefb,-99,hard,,2.2170239000001857,['c'],1,left,['8'],4,0.24919150000005175,41,,9,18,Man,Rechts,1,
,dotcolour,xotask,dotcolour,41,2,161,161,main,positivefb,-99,easy,,1.0331948000000466,['n'],1,right,['0'],6,0.26259060000006684,17,,9,18,Man,Rechts,1,
,dotcolour,xotask,dotcolour,42,2,162,162,main,positivefb,-99,hard,,1.4671332999998867,['c'],1,left,['9'],5,0.37051599999995233,44,,9,18,Man,Rechts,1,
,dotcolour,xotask,dotcolour,43,2,163,163,main,positivefb,-99,hard,,1.184292300000152,['n'],0,left,['8'],4,0.46909900000014204,43,,9,18,Man,Rechts,1,
,dotcolour,xotask,dotcolour,44,2,164,164,main,positivefb,-99,hard,,1.483883300000116,['c'],0,right,['8'],4,0.29616390000001047,39,,9,18,Man,Rechts,1,
,dotcolour,xotask,dotcolour,45,2,165,165,main,positivefb,-99,hard,,1.5513214999998581,['c'],0,right,['9'],5,0.3265326000000641,38,,9,18,Man,Rechts,1,
,dotcolour,xotask,dotcolour,46,2,166,166,main,positivefb,-99,easy,,0.8678767999999764,['c'],1,left,['0'],6,0.3040330000001177,63,,9,18,Man,Rechts,1,
,dotcolour,xotask,dotcolour,47,2,167,167,main,positivefb,-99,easy,,1.3844011000001046,['n'],1,right,['9'],5,0.22978549999993447,17,,9,18,Man,Rechts,1,
,dotcolour,xotask,dotcolour,48,2,168,168,main,positivefb,-99,hard,,2.217408500000147,['n'],1,right,['8'],4,0.16473470000005364,37,,9,18,Man,Rechts,1,
,dotcolour,xotask,dotcolour,49,2,169,169,main,positivefb,-99,hard,,0.8677368999999544,['c'],1,left,['9'],5,0.24481859999991684,43,,9,18,Man,Rechts,1,
,dotcolour,xotask,dotcolour,50,2,170,170,main,positivefb,-99,hard,,2.4680081999999857,['c'],0,right,['1'],1,0.6410618999998405,38,,9,18,Man,Rechts,1,
,dotcolour,xotask,dotcolour,51,2,171,171,main,positivefb,-99,easy,,0.8514083000000028,['n'],1,right,['0'],6,0.22202309999988756,15,,9,18,Man,Rechts,1,
,dotcolour,xotask,dotcolour,52,2,172,172,main,positivefb,-99,hard,,1.184543000000076,['c'],0,right,['0'],6,0.21434179999982916,39,,9,18,Man,Rechts,1,
,dotcolour,xotask,dotcolour,53,2,173,173,main,positivefb,-99,hard,,2.0675529000000097,['c'],0,right,['8'],4,0.243770700000141,35,,9,18,Man,Rechts,1,
,dotcolour,xotask,dotcolour,54,2,174,174,main,positivefb,-99,average,,0.9018844999998237,['c'],1,left,['0'],6,0.2957481999999345,55,,9,18,Man,Rechts,1,
,dotcolour,xotask,dotcolour,55,2,175,175,main,positivefb,-99,hard,,1.0678146999998717,['c'],1,left,['0'],6,0.2420523000000685,42,,9,18,Man,Rechts,1,
,dotcolour,xotask,dotcolour,56,2,176,176,main,positivefb,-99,easy,,1.1006085999999868,['c'],1,left,['0'],6,0.23749739999993835,63,,9,18,Man,Rechts,1,
,dotcolour,xotask,dotcolour,57,2,177,177,main,positivefb,-99,average,,2.7837903000001916,['n'],1,right,['3'],3,0.1819869999999355,29,,9,18,Man,Rechts,1,
,dotcolour,xotask,dotcolour,58,2,178,178,main,positivefb,-99,average,,1.884600999999975,['n'],1,right,['3'],3,0.15610579999997753,29,,9,18,Man,Rechts,1,
,dotcolour,xotask,dotcolour,59,2,179,179,main,positivefb,-99,hard,,1.0167622999999821,['c'],1,left,['0'],6,0.3260740999999143,44,,9,18,Man,Rechts,1,
,dotcolour,xotask,dotcolour,0,3,180,180,main,positivefb,-99,easy,,1.4339018000000578,['c'],1,left,['0'],6,0.5562442999998893,64,,9,18,Man,Rechts,1,
,dotcolour,xotask,dotcolour,1,3,181,181,main,positivefb,-99,average,,3.416503299999931,['n'],1,right,['8'],4,0.2464526000001115,26,,9,18,Man,Rechts,1,
,dotcolour,xotask,dotcolour,2,3,182,182,main,positivefb,-99,easy,,1.0336419000000205,['n'],1,right,['0'],6,0.23627520000013646,18,,9,18,Man,Rechts,1,
,dotcolour,xotask,dotcolour,3,3,183,183,main,positivefb,-99,easy,,0.716966100000036,['n'],1,right,['0'],6,0.2549375000000964,16,,9,18,Man,Rechts,1,
,dotcolour,xotask,dotcolour,4,3,184,184,main,positivefb,-99,easy,,0.7670226000000184,['n'],1,right,['0'],6,0.23108030000003055,19,,9,18,Man,Rechts,1,
,dotcolour,xotask,dotcolour,5,3,185,185,main,positivefb,-99,hard,,0.8338157999999112,['c'],1,left,['0'],6,0.28552620000004936,45,,9,18,Man,Rechts,1,
,dotcolour,xotask,dotcolour,6,3,186,186,main,positivefb,-99,hard,,2.0174606999999014,['c'],0,right,['9'],5,0.2023504999999659,36,,9,18,Man,Rechts,1,
,dotcolour,xotask,dotcolour,7,3,187,187,main,positivefb,-99,average,,0.9015604999999596,['c'],1,left,['0'],6,0.31856230000016694,53,,9,18,Man,Rechts,1,
,dotcolour,xotask,dotcolour,8,3,188,188,main,positivefb,-99,hard,,1.7336683999999423,['c'],0,right,['3'],3,0.2375485000000026,37,,9,18,Man,Rechts,1,
,dotcolour,xotask,dotcolour,9,3,189,189,main,positivefb,-99,hard,,2.3336314999999104,['c'],0,right,['8'],4,0.19113199999992503,39,,9,18,Man,Rechts,1,
,dotcolour,xotask,dotcolour,10,3,190,190,main,positivefb,-99,hard,,1.5170064999999795,['c'],1,left,['8'],4,0.22033779999992475,43,,9,18,Man,Rechts,1,
,dotcolour,xotask,dotcolour,11,3,191,191,main,positivefb,-99,easy,,2.017899899999975,['c'],1,left,['0'],6,0.1878523000000314,65,,9,18,Man,Rechts,1,
,dotcolour,xotask,dotcolour,12,3,192,192,main,positivefb,-99,easy,,1.301098199999842,['n'],1,right,['9'],5,0.6403525999999147,18,,9,18,Man,Rechts,1,
,dotcolour,xotask,dotcolour,13,3,193,193,main,positivefb,-99,easy,,0.800796900000023,['c'],1,left,['0'],6,0.22437369999988732,65,,9,18,Man,Rechts,1,
,dotcolour,xotask,dotcolour,14,3,194,194,main,positivefb,-99,average,,0.5335559999998623,['c'],1,left,['0'],6,0.27407879999987017,54,,9,18,Man,Rechts,1,
,dotcolour,xotask,dotcolour,15,3,195,195,main,positivefb,-99,average,,1.0676915999999892,['n'],1,right,['9'],5,0.32597180000016124,29,,9,18,Man,Rechts,1,
,dotcolour,xotask,dotcolour,16,3,196,196,main,positivefb,-99,average,,0.8343870999999581,['c'],1,left,['9'],5,0.19222860000013497,54,,9,18,Man,Rechts,1,
,dotcolour,xotask,dotcolour,17,3,197,197,main,positivefb,-99,easy,,0.6846236999999746,['c'],0,right,['0'],6,0.23856080000018665,17,,9,18,Man,Rechts,1,
,dotcolour,xotask,dotcolour,18,3,198,198,main,positivefb,-99,easy,,3.1850197000001117,['n'],0,left,['1'],1,0.4466761999999562,64,,9,18,Man,Rechts,1,
,dotcolour,xotask,dotcolour,19,3,199,199,main,positivefb,-99,average,,1.0848303000000215,['c'],1,left,['9'],5,0.6988431000002038,52,,9,18,Man,Rechts,1,
,dotcolour,xotask,dotcolour,20,3,200,200,main,positivefb,-99,average,,3.066348199999993,['c'],1,left,['9'],5,0.22064909999994597,51,,9,18,Man,Rechts,1,
,dotcolour,xotask,dotcolour,21,3,201,201,main,positivefb,-99,easy,,0.8183011000000988,['c'],1,left,['0'],6,0.2516427000000476,64,,9,18,Man,Rechts,1,
,dotcolour,xotask,dotcolour,22,3,202,202,main,positivefb,-99,hard,,1.0348410000001422,['c'],1,left,['9'],5,0.2654362000000674,45,,9,18,Man,Rechts,1,
,dotcolour,xotask,dotcolour,23,3,203,203,main,positivefb,-99,hard,,1.3513499000000593,['c'],0,right,['8'],4,0.2731915999997909,35,,9,18,Man,Rechts,1,
,dotcolour,xotask,dotcolour,24,3,204,204,main,positivefb,-99,easy,,0.8837277000000086,['n'],1,right,['0'],6,0.2602988999999525,17,,9,18,Man,Rechts,1,
,dotcolour,xotask,dotcolour,25,3,205,205,main,positivefb,-99,average,,1.5335817000000134,['n'],1,right,['9'],5,0.2691641999999774,27,,9,18,Man,Rechts,1,
,dotcolour,xotask,dotcolour,26,3,206,206,main,positivefb,-99,average,,0.8847926999999345,['c'],1,left,['9'],5,0.22389509999993606,54,,9,18,Man,Rechts,1,
,dotcolour,xotask,dotcolour,27,3,207,207,main,positivefb,-99,easy,,0.8514165999999932,['n'],1,right,['0'],6,0.2776320999998916,15,,9,18,Man,Rechts,1,
,dotcolour,xotask,dotcolour,28,3,208,208,main,positivefb,-99,average,,1.635370899999998,['c'],0,right,['8'],4,0.3784428999999818,25,,9,18,Man,Rechts,1,
,dotcolour,xotask,dotcolour,29,3,209,209,main,positivefb,-99,hard,,4.4179169999999885,['n'],0,left,['8'],4,0.2279425000001538,42,,9,18,Man,Rechts,1,
,dotcolour,xotask,dotcolour,30,3,210,210,main,positivefb,-99,hard,,1.3504986000000372,['c'],0,right,['8'],4,0.2622532999998839,39,,9,18,Man,Rechts,1,
,dotcolour,xotask,dotcolour,31,3,211,211,main,positivefb,-99,average,,0.8846832000001541,['c'],1,left,['0'],6,0.47353500000008353,53,,9,18,Man,Rechts,1,
,dotcolour,xotask,dotcolour,32,3,212,212,main,positivefb,-99,average,,2.084004499999992,['c'],0,right,['1'],1,0.7881927999999334,29,,9,18,Man,Rechts,1,
,dotcolour,xotask,dotcolour,33,3,213,213,main,positivefb,-99,hard,,1.6176020000000335,['c'],1,left,['9'],5,0.2284757999998419,45,,9,18,Man,Rechts,1,
,dotcolour,xotask,dotcolour,34,3,214,214,main,positivefb,-99,hard,,0.9344802000000527,['c'],1,left,['0'],6,0.23968039999999746,44,,9,18,Man,Rechts,1,
,dotcolour,xotask,dotcolour,35,3,215,215,main,positivefb,-99,easy,,0.7017364000000725,['n'],1,right,['0'],6,0.2504449000000477,17,,9,18,Man,Rechts,1,
,dotcolour,xotask,dotcolour,36,3,216,216,main,positivefb,-99,easy,,0.7173442000000705,['c'],1,left,['0'],6,0.31713059999992765,65,,9,18,Man,Rechts,1,
,dotcolour,xotask,dotcolour,37,3,217,217,main,positivefb,-99,average,,0.6343054999999822,['c'],1,left,['0'],6,0.25566120000007686,55,,9,18,Man,Rechts,1,
,dotcolour,xotask,dotcolour,38,3,218,218,main,positivefb,-99,average,,1.0168091999998978,['c'],0,right,['1'],1,0.9656978000000436,25,,9,18,Man,Rechts,1,
,dotcolour,xotask,dotcolour,39,3,219,219,main,positivefb,-99,hard,,2.950734700000112,['c'],0,right,['8'],4,0.22549180000009983,37,,9,18,Man,Rechts,1,
,dotcolour,xotask,dotcolour,40,3,220,220,main,positivefb,-99,hard,,2.666550500000085,['c'],0,right,['9'],5,1.062966299999971,38,,9,18,Man,Rechts,1,
,dotcolour,xotask,dotcolour,41,3,221,221,main,positivefb,-99,easy,,1.3177120000000286,['n'],1,right,['9'],5,0.2574862999999823,15,,9,18,Man,Rechts,1,
,dotcolour,xotask,dotcolour,42,3,222,222,main,positivefb,-99,average,,1.183813599999894,['n'],1,right,['8'],4,0.3287698999999975,26,,9,18,Man,Rechts,1,
,dotcolour,xotask,dotcolour,43,3,223,223,main,positivefb,-99,easy,,1.0007226000000173,['c'],1,left,['0'],6,0.20477160000018557,64,,9,18,Man,Rechts,1,
,dotcolour,xotask,dotcolour,44,3,224,224,main,positivefb,-99,easy,,0.6173804000000018,['c'],1,left,['0'],6,0.2356397000000925,63,,9,18,Man,Rechts,1,
,dotcolour,xotask,dotcolour,45,3,225,225,main,positivefb,-99,hard,,2.3178352999998424,['c'],1,left,['3'],3,0.2224788000000899,41,,9,18,Man,Rechts,1,
,dotcolour,xotask,dotcolour,46,3,226,226,main,positivefb,-99,average,,1.0673910999998952,['c'],1,left,['0'],6,0.228068900000153,52,,9,18,Man,Rechts,1,
,dotcolour,xotask,dotcolour,47,3,227,227,main,positivefb,-99,hard,,1.4004509000001235,['c'],1,left,['8'],4,0.6769297999999253,43,,9,18,Man,Rechts,1,
,dotcolour,xotask,dotcolour,48,3,228,228,main,positivefb,-99,hard,,2.7340659000001324,['n'],0,left,['2'],2,0.20505359999992834,42,,9,18,Man,Rechts,1,
,dotcolour,xotask,dotcolour,49,3,229,229,main,positivefb,-99,easy,,1.2345828999998503,['c'],1,left,['9'],5,0.2434889999999541,64,,9,18,Man,Rechts,1,
,dotcolour,xotask,dotcolour,50,3,230,230,main,positivefb,-99,easy,,1.1012814000000617,['c'],0,right,['0'],6,0.15177590000007513,16,,9,18,Man,Rechts,1,
,dotcolour,xotask,dotcolour,51,3,231,231,main,positivefb,-99,easy,,1.3330952000001162,['n'],0,left,['9'],5,0.22105400000009467,62,,9,18,Man,Rechts,1,
,dotcolour,xotask,dotcolour,52,3,232,232,main,positivefb,-99,hard,,2.1848473000000013,['c'],0,right,['8'],4,0.4060704999999416,37,,9,18,Man,Rechts,1,
,dotcolour,xotask,dotcolour,53,3,233,233,main,positivefb,-99,average,,1.6176742000000104,['n'],1,right,['8'],4,0.16597180000007938,29,,9,18,Man,Rechts,1,
,dotcolour,xotask,dotcolour,54,3,234,234,main,positivefb,-99,average,,1.184859200000119,['n'],1,right,['8'],4,0.16069539999989502,27,,9,18,Man,Rechts,1,
,dotcolour,xotask,dotcolour,55,3,235,235,main,positivefb,-99,hard,,2.4676480999999058,['c'],0,right,['8'],4,0.27276069999993524,37,,9,18,Man,Rechts,1,
,dotcolour,xotask,dotcolour,56,3,236,236,main,positivefb,-99,hard,,1.6181966000001466,['c'],1,left,['8'],4,0.22978760000000875,44,,9,18,Man,Rechts,1,
,dotcolour,xotask,dotcolour,57,3,237,237,main,positivefb,-99,average,,3.734055600000147,['c'],0,right,['8'],4,0.12056699999993725,29,,9,18,Man,Rechts,1,
,dotcolour,xotask,dotcolour,58,3,238,238,main,positivefb,-99,hard,,2.051293199999691,['n'],1,right,['8'],4,0.17024839999976393,38,,9,18,Man,Rechts,1,
,dotcolour,xotask,dotcolour,59,3,239,239,main,positivefb,-99,average,,0.8504557000001114,['c'],1,left,['9'],5,0.21864089999962744,54,,9,18,Man,Rechts,1,
,dotcolour,xotask,dotcolour,0,4,240,240,main,positivefb,-99,easy,,1.1016297000001032,['n'],1,right,['0'],6,0.4653069000000869,19,,9,18,Man,Rechts,1,
,dotcolour,xotask,dotcolour,1,4,241,241,main,positivefb,-99,average,,1.433704999999918,['n'],1,right,['8'],4,0.28605259999994814,28,,9,18,Man,Rechts,1,
,dotcolour,xotask,dotcolour,2,4,242,242,main,positivefb,-99,average,,0.8832038999998986,['c'],1,left,['0'],6,0.2233673999999155,52,,9,18,Man,Rechts,1,
,dotcolour,xotask,dotcolour,3,4,243,243,main,positivefb,-99,hard,,0.8504092000002856,['c'],0,right,['9'],5,0.2541578999998819,39,,9,18,Man,Rechts,1,
,dotcolour,xotask,dotcolour,4,4,244,244,main,positivefb,-99,hard,,0.7016842999996697,['c'],1,left,['9'],5,0.2409234000001561,44,,9,18,Man,Rechts,1,
,dotcolour,xotask,dotcolour,5,4,245,245,main,positivefb,-99,easy,,0.8178077000002304,['c'],0,right,['1'],1,1.2635051000002022,19,,9,18,Man,Rechts,1,
,dotcolour,xotask,dotcolour,6,4,246,246,main,positivefb,-99,average,,1.667912299999898,['n'],1,right,['9'],5,1.0914298000002418,27,,9,18,Man,Rechts,1,
,dotcolour,xotask,dotcolour,7,4,247,247,main,positivefb,-99,easy,,0.8517674999998235,['n'],1,right,['0'],6,0.22288669999988997,17,,9,18,Man,Rechts,1,
,dotcolour,xotask,dotcolour,8,4,248,248,main,positivefb,-99,easy,,0.9510799999998198,['c'],1,left,['0'],6,0.24039910000010423,63,,9,18,Man,Rechts,1,
,dotcolour,xotask,dotcolour,9,4,249,249,main,positivefb,-99,average,,0.8677278000000115,['c'],0,right,['0'],6,0.2612254999999095,27,,9,18,Man,Rechts,1,
,dotcolour,xotask,dotcolour,10,4,250,250,main,positivefb,-99,easy,,0.7847922000000835,['c'],0,right,['1'],1,0.9248579000000063,19,,9,18,Man,Rechts,1,
,dotcolour,xotask,dotcolour,11,4,251,251,main,positivefb,-99,hard,,2.7681923999998617,['n'],1,right,['8'],4,0.22590300000001662,35,,9,18,Man,Rechts,1,
,dotcolour,xotask,dotcolour,12,4,252,252,main,positivefb,-99,average,,1.50126709999995,['n'],1,right,['9'],5,0.741609299999709,29,,9,18,Man,Rechts,1,
,dotcolour,xotask,dotcolour,13,4,253,253,main,positivefb,-99,easy,,0.7683309000003646,['n'],1,right,['0'],6,0.2269626000002063,15,,9,18,Man,Rechts,1,
,dotcolour,xotask,dotcolour,14,4,254,254,main,positivefb,-99,average,,1.3510094000002937,['n'],1,right,['8'],4,0.19640339999978096,27,,9,18,Man,Rechts,1,
,dotcolour,xotask,dotcolour,15,4,255,255,main,positivefb,-99,hard,,0.9340373,['c'],0,right,['9'],5,0.5768714999999247,37,,9,18,Man,Rechts,1,
,dotcolour,xotask,dotcolour,16,4,256,256,main,positivefb,-99,average,,0.9509353000003102,['c'],1,left,['0'],6,0.4284013000001323,54,,9,18,Man,Rechts,1,
,dotcolour,xotask,dotcolour,17,4,257,257,main,positivefb,-99,average,,1.5682570999997552,['n'],1,right,['8'],4,0.3336985000000823,26,,9,18,Man,Rechts,1,
,dotcolour,xotask,dotcolour,18,4,258,258,main,positivefb,-99,average,,0.684661799999958,['c'],1,left,['0'],6,0.28594010000006165,54,,9,18,Man,Rechts,1,
,dotcolour,xotask,dotcolour,19,4,259,259,main,positivefb,-99,average,,1.5012503000002653,['n'],1,right,['9'],5,0.21557450000000244,26,,9,18,Man,Rechts,1,
,dotcolour,xotask,dotcolour,20,4,260,260,main,positivefb,-99,hard,,1.517995300000166,['c'],0,right,['8'],4,0.30653439999969123,39,,9,18,Man,Rechts,1,
,dotcolour,xotask,dotcolour,21,4,261,261,main,positivefb,-99,easy,,0.9514563999996426,['c'],1,left,['0'],6,0.2255606999997326,61,,9,18,Man,Rechts,1,
,dotcolour,xotask,dotcolour,22,4,262,262,main,positivefb,-99,average,,2.3350925999998253,['n'],1,right,['3'],3,0.12421279999989565,28,,9,18,Man,Rechts,1,
,dotcolour,xotask,dotcolour,23,4,263,263,main,positivefb,-99,hard,,4.151404100000036,['c'],1,left,['9'],5,0.22586870000031922,41,,9,18,Man,Rechts,1,
,dotcolour,xotask,dotcolour,24,4,264,264,main,positivefb,-99,average,,0.9674678999999742,['c'],0,right,['0'],6,0.26777200000015,29,,9,18,Man,Rechts,1,
,dotcolour,xotask,dotcolour,25,4,265,265,main,positivefb,-99,easy,,1.2175509999997303,['c'],1,left,['9'],5,1.9687407999999778,63,,9,18,Man,Rechts,1,
,dotcolour,xotask,dotcolour,26,4,266,266,main,positivefb,-99,easy,,0.5850428000003376,['c'],1,left,['0'],6,0.2682172999998329,62,,9,18,Man,Rechts,1,
,dotcolour,xotask,dotcolour,27,4,267,267,main,positivefb,-99,hard,,1.0677593000000343,['c'],1,left,['9'],5,0.25463899999977,42,,9,18,Man,Rechts,1,
,dotcolour,xotask,dotcolour,28,4,268,268,main,positivefb,-99,hard,,0.5847831000000951,['c'],0,right,['8'],4,0.270819500000016,35,,9,18,Man,Rechts,1,
,dotcolour,xotask,dotcolour,29,4,269,269,main,positivefb,-99,hard,,0.8518802000003234,['c'],0,right,['3'],3,0.19431459999987055,37,,9,18,Man,Rechts,1,
,dotcolour,xotask,dotcolour,30,4,270,270,main,positivefb,-99,hard,,1.951839199999995,['c'],0,right,['2'],2,1.7095902000000933,39,,9,18,Man,Rechts,1,
,dotcolour,xotask,dotcolour,31,4,271,271,main,positivefb,-99,hard,,1.2680010000003676,['c'],1,left,['2'],2,0.599843299999975,41,,9,18,Man,Rechts,1,
,dotcolour,xotask,dotcolour,32,4,272,272,main,positivefb,-99,easy,,0.7349339000002146,['n'],1,right,['0'],6,1.0587949999999182,18,,9,18,Man,Rechts,1,
,dotcolour,xotask,dotcolour,33,4,273,273,main,positivefb,-99,average,,1.3846616999999242,['c'],1,left,['8'],4,0.4659608999995726,53,,9,18,Man,Rechts,1,
,dotcolour,xotask,dotcolour,34,4,274,274,main,positivefb,-99,easy,,1.0508233000000473,['c'],1,left,['0'],6,0.254374000000098,65,,9,18,Man,Rechts,1,
,dotcolour,xotask,dotcolour,35,4,275,275,main,positivefb,-99,easy,,0.5510849000002054,['c'],1,left,['0'],6,0.25514320000002044,64,,9,18,Man,Rechts,1,
,dotcolour,xotask,dotcolour,36,4,276,276,main,positivefb,-99,hard,,0.4503704000003381,['c'],0,right,['8'],4,2.019893499999853,36,,9,18,Man,Rechts,1,
,dotcolour,xotask,dotcolour,37,4,277,277,main,positivefb,-99,hard,,1.6511084999997365,['c'],0,right,['8'],4,0.4498497999998108,36,,9,18,Man,Rechts,1,
,dotcolour,xotask,dotcolour,38,4,278,278,main,positivefb,-99,easy,,0.8845578000000387,['n'],1,right,['0'],6,0.45272960000011153,16,,9,18,Man,Rechts,1,
,dotcolour,xotask,dotcolour,39,4,279,279,main,positivefb,-99,easy,,0.7844328999999561,['c'],1,left,['0'],6,0.26017319999982647,61,,9,18,Man,Rechts,1,
,dotcolour,xotask,dotcolour,40,4,280,280,main,positivefb,-99,average,,1.1009619999999813,['c'],1,left,['8'],4,0.6312593999996352,52,,9,18,Man,Rechts,1,
,dotcolour,xotask,dotcolour,41,4,281,281,main,positivefb,-99,average,,0.6493156000001363,['c'],1,left,['8'],4,0.30819910000036543,54,,9,18,Man,Rechts,1,
,dotcolour,xotask,dotcolour,42,4,282,282,main,positivefb,-99,easy,,0.5508540999999241,['c'],1,left,['0'],6,0.24321400000007998,64,,9,18,Man,Rechts,1,
,dotcolour,xotask,dotcolour,43,4,283,283,main,positivefb,-99,easy,,0.8007235999998557,['n'],1,right,['0'],6,0.2502153000000362,18,,9,18,Man,Rechts,1,
,dotcolour,xotask,dotcolour,44,4,284,284,main,positivefb,-99,hard,,2.134524799999781,['c'],1,left,['8'],4,0.2199452999998357,41,,9,18,Man,Rechts,1,
,dotcolour,xotask,dotcolour,45,4,285,285,main,positivefb,-99,average,,0.7007422000001498,['c'],0,right,['2'],2,2.1919874000000164,27,,9,18,Man,Rechts,1,
,dotcolour,xotask,dotcolour,46,4,286,286,main,positivefb,-99,hard,,1.451676900000166,['c'],1,left,['8'],4,0.6153254999999263,44,,9,18,Man,Rechts,1,
,dotcolour,xotask,dotcolour,47,4,287,287,main,positivefb,-99,hard,,0.7175764999997227,['c'],1,left,['8'],4,0.25018039999986286,41,,9,18,Man,Rechts,1,
,dotcolour,xotask,dotcolour,48,4,288,288,main,positivefb,-99,easy,,0.8177047000003768,['n'],1,right,['0'],6,0.20021900000028836,16,,9,18,Man,Rechts,1,
,dotcolour,xotask,dotcolour,49,4,289,289,main,positivefb,-99,hard,,0.8684744000001956,['c'],1,left,['0'],6,0.3185086000003139,44,,9,18,Man,Rechts,1,
,dotcolour,xotask,dotcolour,50,4,290,290,main,positivefb,-99,hard,,2.7175553000001855,['c'],0,right,['3'],3,0.9663430000000517,35,,9,18,Man,Rechts,1,
,dotcolour,xotask,dotcolour,51,4,291,291,main,positivefb,-99,average,,0.7682497000000694,['c'],1,left,['0'],6,0.37747899999976653,52,,9,18,Man,Rechts,1,
,dotcolour,xotask,dotcolour,52,4,292,292,main,positivefb,-99,hard,,1.3844642999997632,['c'],1,left,['0'],6,0.25175279999984923,42,,9,18,Man,Rechts,1,
,dotcolour,xotask,dotcolour,53,4,293,293,main,positivefb,-99,average,,0.5009091000001717,['c'],1,left,['0'],6,0.1987742999999682,52,,9,18,Man,Rechts,1,
,dotcolour,xotask,dotcolour,54,4,294,294,main,positivefb,-99,hard,,1.3505565999998908,['c'],1,left,['8'],4,0.4415705999999773,44,,9,18,Man,Rechts,1,
,dotcolour,xotask,dotcolour,55,4,295,295,main,positivefb,-99,average,,0.7683952000002137,['c'],1,left,['8'],4,0.5862517999999,51,,9,18,Man,Rechts,1,
,dotcolour,xotask,dotcolour,56,4,296,296,main,positivefb,-99,easy,,0.7499607999998261,['n'],1,right,['8'],4,0.2297217999998793,16,,9,18,Man,Rechts,1,
,dotcolour,xotask,dotcolour,57,4,297,297,main,positivefb,-99,easy,,0.8843526999999085,['c'],1,left,['0'],6,0.8903065999998034,61,,9,18,Man,Rechts,1,
,dotcolour,xotask,dotcolour,58,4,298,298,main,positivefb,-99,easy,,1.485316199999943,['c'],1,left,['0'],6,0.8201292000003377,63,,9,18,Man,Rechts,1,
,dotcolour,xotask,dotcolour,59,4,299,299,main,positivefb,-99,average,,0.6844765999999254,['c'],1,left,['0'],6,0.23307900000008885,52,,9,18,Man,Rechts,1,
,xotask,xotask,dotcolour,0,0,0,300,training,positivefb,49,average,64,1.684328099999675,['n'],0,left,['8'],4,0.7064052999999149,,,9,18,Man,Rechts,1,
,xotask,xotask,dotcolour,1,0,1,301,training,positivefb,74,easy,7,1.2330145999999331,['n'],1,right,['9'],5,0.3406099000003451,,,9,18,Man,Rechts,1,
,xotask,xotask,dotcolour,2,0,2,302,training,positivefb,87,easy,5,0.7172659000002568,['n'],1,right,['0'],6,0.2265612000001056,,,9,18,Man,Rechts,1,
,xotask,xotask,dotcolour,3,0,3,303,training,positivefb,93,easy,9,0.5161407000000509,['n'],1,right,['0'],6,0.22969590000002427,,,9,18,Man,Rechts,1,
,xotask,xotask,dotcolour,4,0,4,304,training,positivefb,91,hard,50,0.8672714999997879,['c'],1,left,['8'],4,0.546297500000037,,,9,18,Man,Rechts,1,
,xotask,xotask,dotcolour,5,0,5,305,training,positivefb,92,easy,9,0.8333228999999847,['n'],1,right,['0'],6,0.33967260000008537,,,9,18,Man,Rechts,1,
,xotask,xotask,dotcolour,6,0,6,306,training,positivefb,94,average,19,0.6344116999998732,['n'],1,right,['0'],6,0.2205866999997852,,,9,18,Man,Rechts,1,
,xotask,xotask,dotcolour,7,0,7,307,training,positivefb,90,easy,6,0.7830063999999766,['n'],1,right,['0'],6,0.18104980000043724,,,9,18,Man,Rechts,1,
,xotask,xotask,dotcolour,8,0,8,308,training,positivefb,92,hard,52,0.8330374000001939,['c'],1,left,['8'],4,0.18039790000011635,,,9,18,Man,Rechts,1,
,xotask,xotask,dotcolour,9,0,9,309,training,positivefb,92,average,63,1.1841967999998815,['c'],1,left,['0'],6,0.574436599999899,,,9,18,Man,Rechts,1,
,xotask,xotask,dotcolour,10,0,10,310,training,positivefb,89,hard,51,3.1679048999999395,['c'],1,left,['1'],1,0.1454639000003226,,,9,18,Man,Rechts,1,
,xotask,xotask,dotcolour,11,0,11,311,training,positivefb,84,easy,72,1.216396000000259,['c'],1,left,['0'],6,0.1472753999996712,,,9,18,Man,Rechts,1,
,xotask,xotask,dotcolour,12,0,12,312,training,positivefb,76,easy,8,1.2509282999999414,['n'],1,right,['0'],6,0.22789250000005268,,,9,18,Man,Rechts,1,
,xotask,xotask,dotcolour,13,0,13,313,training,positivefb,95,hard,27,0.9332179000002725,['n'],1,right,['9'],5,0.3420754999997371,,,9,18,Man,Rechts,1,
,xotask,xotask,dotcolour,14,0,14,314,training,positivefb,99,easy,5,0.7343324000003122,['n'],1,right,['0'],6,0.18760109999993801,,,9,18,Man,Rechts,1,
,xotask,xotask,dotcolour,15,0,15,315,training,positivefb,90,average,15,0.5831799999996292,['n'],1,right,['9'],5,0.24453660000017408,,,9,18,Man,Rechts,1,
,xotask,xotask,dotcolour,16,0,16,316,training,positivefb,87,easy,72,1.33292449999999,['c'],1,left,['0'],6,0.16533800000024712,,,9,18,Man,Rechts,1,
,xotask,xotask,dotcolour,17,0,17,317,training,positivefb,86,hard,50,2.067625300000145,['c'],1,left,['8'],4,0.20422269999971832,,,9,18,Man,Rechts,1,
,xotask,xotask,dotcolour,18,0,18,318,training,positivefb,86,average,63,0.7663779999998042,['n'],0,left,['1'],1,0.8139870999998493,,,9,18,Man,Rechts,1,
,xotask,xotask,dotcolour,19,0,19,319,training,positivefb,85,average,18,0.8005668000000696,['n'],1,right,['0'],6,0.2781696999995802,,,9,18,Man,Rechts,1,
,xotask,xotask,dotcolour,20,0,20,320,training,positivefb,69,hard,29,1.2162308000001758,['n'],1,right,['8'],4,0.4341729000002488,,,9,18,Man,Rechts,1,
,xotask,xotask,dotcolour,21,0,21,321,training,positivefb,92,average,61,0.8333036000003631,['c'],1,left,['9'],5,0.18459170000005543,,,9,18,Man,Rechts,1,
,xotask,xotask,dotcolour,22,0,22,322,training,positivefb,89,easy,70,0.8835035000001881,['c'],1,left,['0'],6,0.16594249999980093,,,9,18,Man,Rechts,1,
,xotask,xotask,dotcolour,23,0,23,323,training,positivefb,87,easy,70,1.0493930000002365,['c'],1,left,['0'],6,0.18019850000018778,,,9,18,Man,Rechts,1,
,xotask,xotask,dotcolour,24,0,24,324,training,positivefb,86,average,19,0.8009296999998696,['n'],1,right,['8'],4,0.550134899999648,,,9,18,Man,Rechts,1,
,xotask,xotask,dotcolour,25,0,25,325,training,positivefb,92,hard,27,0.8167321999999331,['n'],1,right,['0'],6,0.5991542000001573,,,9,18,Man,Rechts,1,
,xotask,xotask,dotcolour,26,0,26,326,training,positivefb,88,hard,51,0.7996057999998811,['c'],1,left,['9'],5,0.2874195999997937,,,9,18,Man,Rechts,1,
,xotask,xotask,dotcolour,27,0,27,327,training,positivefb,85,average,19,1.9332727000000887,['n'],1,right,['8'],4,0.7504684000000452,,,9,18,Man,Rechts,1,
,xotask,xotask,dotcolour,28,0,28,328,training,positivefb,85,average,16,0.8504072999999153,['n'],1,right,['0'],6,0.3589390000001913,,,9,18,Man,Rechts,1,
,xotask,xotask,dotcolour,29,0,29,329,training,positivefb,97,average,62,0.6837212000000363,['c'],1,left,['9'],5,0.4133948999997301,,,9,18,Man,Rechts,1,
,xotask,xotask,dotcolour,30,0,30,330,training,positivefb,93,hard,25,0.7510627000001477,['c'],0,right,['0'],6,0.21513159999994969,,,9,18,Man,Rechts,1,
,xotask,xotask,dotcolour,31,0,31,331,training,positivefb,98,easy,71,1.4673078999999234,['c'],1,left,['0'],6,3.844739699999991,,,9,18,Man,Rechts,1,
,xotask,xotask,dotcolour,32,0,32,332,training,positivefb,97,average,60,0.8009061000002475,['c'],1,left,['9'],5,0.1939357999999629,,,9,18,Man,Rechts,1,
,xotask,xotask,dotcolour,33,0,33,333,training,positivefb,94,easy,70,0.5505752000003667,['c'],1,left,['9'],5,0.24505619999990813,,,9,18,Man,Rechts,1,
,xotask,xotask,dotcolour,34,0,34,334,training,positivefb,100,average,64,0.5503122000000076,['c'],1,left,['0'],6,0.26947889999973995,,,9,18,Man,Rechts,1,
,xotask,xotask,dotcolour,35,0,35,335,training,positivefb,94,easy,8,0.701213899999857,['n'],1,right,['0'],6,0.19920719999981884,,,9,18,Man,Rechts,1,
,xotask,xotask,dotcolour,36,0,36,336,training,positivefb,88,hard,29,1.2345720999996956,['n'],1,right,['9'],5,0.26206509999974514,,,9,18,Man,Rechts,1,
,xotask,xotask,dotcolour,37,0,37,337,training,positivefb,99,easy,9,0.833628200000021,['n'],1,right,['8'],4,0.242012799999884,,,9,18,Man,Rechts,1,
,xotask,xotask,dotcolour,38,0,38,338,training,positivefb,98,average,64,0.6512802000002011,['c'],1,left,['9'],5,0.29586539999991146,,,9,18,Man,Rechts,1,
,xotask,xotask,dotcolour,39,0,39,339,training,positivefb,27,hard,29,2.1182158999999956,['c'],0,right,['1'],1,0.8073749999998654,,,9,18,Man,Rechts,1,
,xotask,xotask,dotcolour,40,0,40,340,training,positivefb,61,hard,50,0.750227200000154,['c'],1,left,['9'],5,1.1052239999999074,,,9,18,Man,Rechts,1,
,xotask,xotask,dotcolour,41,0,41,341,training,positivefb,86,average,60,0.8500291000000288,['c'],1,left,['8'],4,0.21070360000021537,,,9,18,Man,Rechts,1,
,xotask,xotask,dotcolour,42,0,42,342,training,positivefb,91,average,19,0.7008442000001196,['n'],1,right,['9'],5,0.18373220000012225,,,9,18,Man,Rechts,1,
,xotask,xotask,dotcolour,43,0,43,343,training,positivefb,89,hard,54,0.7335489000001871,['n'],0,left,['8'],4,0.6581163000000743,,,9,18,Man,Rechts,1,
,xotask,xotask,dotcolour,44,0,44,344,training,positivefb,84,hard,26,0.8837879999996403,['n'],1,right,['9'],5,0.22923069999978907,,,9,18,Man,Rechts,1,
,xotask,xotask,dotcolour,45,0,45,345,training,positivefb,98,hard,25,0.8498915999998644,['n'],1,right,['9'],5,0.21849980000024516,,,9,18,Man,Rechts,1,
,xotask,xotask,dotcolour,46,0,46,346,training,positivefb,97,easy,74,0.6670266000000993,['c'],1,left,['9'],5,0.22337640000023384,,,9,18,Man,Rechts,1,
,xotask,xotask,dotcolour,47,0,47,347,training,positivefb,88,hard,53,1.0998553000003994,['n'],0,left,['9'],5,0.21021790000031615,,,9,18,Man,Rechts,1,
,xotask,xotask,dotcolour,48,0,48,348,training,positivefb,86,hard,51,0.6506285000000389,['c'],1,left,['1'],1,1.5125816999998278,,,9,18,Man,Rechts,1,
,xotask,xotask,dotcolour,49,0,49,349,training,positivefb,92,hard,25,1.6838553999996293,['n'],1,right,['9'],5,0.5369958000001134,,,9,18,Man,Rechts,1,
,xotask,xotask,dotcolour,50,0,50,350,training,positivefb,92,easy,74,0.599665400000049,['c'],1,left,['9'],5,0.2919219999998859,,,9,18,Man,Rechts,1,
,xotask,xotask,dotcolour,51,0,51,351,training,positivefb,57,hard,28,1.1004159999997682,['n'],1,right,['0'],6,0.2689617000000908,,,9,18,Man,Rechts,1,
,xotask,xotask,dotcolour,52,0,52,352,training,positivefb,87,easy,73,0.5502442000001793,['c'],1,left,['0'],6,0.5395588999999745,,,9,18,Man,Rechts,1,
,xotask,xotask,dotcolour,53,0,53,353,training,positivefb,98,average,17,0.6004491000003327,['n'],1,right,['0'],6,0.20663379999996323,,,9,18,Man,Rechts,1,
,xotask,xotask,dotcolour,54,0,54,354,training,positivefb,91,average,61,0.7003644999999779,['c'],1,left,['0'],6,0.20233149999967281,,,9,18,Man,Rechts,1,
,xotask,xotask,dotcolour,55,0,55,355,training,positivefb,96,easy,7,0.8835712999998577,['n'],1,right,['0'],6,0.21557139999958963,,,9,18,Man,Rechts,1,
,xotask,xotask,dotcolour,56,0,56,356,training,positivefb,89,easy,74,0.8003037000003133,['c'],1,left,['0'],6,0.16667370000004667,,,9,18,Man,Rechts,1,
,xotask,xotask,dotcolour,57,0,57,357,training,positivefb,74,hard,50,1.3840890999999829,['n'],0,left,['9'],5,0.20854480000025433,,,9,18,Man,Rechts,1,
,xotask,xotask,dotcolour,58,0,58,358,training,positivefb,26,average,19,1.167312800000218,['c'],0,right,['3'],3,1.3862134999999398,,,9,18,Man,Rechts,1,
,xotask,xotask,dotcolour,59,0,59,359,training,positivefb,30,average,17,0.7008568000001105,['c'],0,right,['8'],4,1.5190489999999954,,,9,18,Man,Rechts,1,
,xotask,xotask,dotcolour,0,1,60,360,training,positivefb,91,average,19,1.6013998000003085,['n'],1,right,['9'],5,0.2641342000001714,,,9,18,Man,Rechts,1,
,xotask,xotask,dotcolour,1,1,61,361,training,positivefb,84,hard,25,1.4156371999997646,['n'],1,right,['9'],5,0.7007591000001412,,,9,18,Man,Rechts,1,
,xotask,xotask,dotcolour,2,1,62,362,training,positivefb,86,easy,8,2.117556700000023,['n'],1,right,['9'],5,0.16385719999971116,,,9,18,Man,Rechts,1,
,xotask,xotask,dotcolour,3,1,63,363,training,positivefb,92,average,64,1.0158786000001783,['c'],1,left,['9'],5,0.18893230000003314,,,9,18,Man,Rechts,1,
,xotask,xotask,dotcolour,4,1,64,364,training,positivefb,95,average,16,0.8001960000001418,['n'],1,right,['0'],6,0.32590029999983017,,,9,18,Man,Rechts,1,
,xotask,xotask,dotcolour,5,1,65,365,training,positivefb,77,hard,53,0.8680434000002606,['c'],1,left,['9'],5,0.23093070000004445,,,9,18,Man,Rechts,1,
,xotask,xotask,dotcolour,6,1,66,366,training,positivefb,91,easy,74,0.6999495000000024,['n'],0,left,['1'],1,0.7928610000003573,,,9,18,Man,Rechts,1,
,xotask,xotask,dotcolour,7,1,67,367,training,positivefb,72,average,18,1.033252199999879,['n'],1,right,['0'],6,0.26430949999985387,,,9,18,Man,Rechts,1,
,xotask,xotask,dotcolour,8,1,68,368,training,positivefb,90,hard,28,1.199852799999917,['n'],1,right,['9'],5,0.4214961000002404,,,9,18,Man,Rechts,1,
,xotask,xotask,dotcolour,9,1,69,369,training,positivefb,86,hard,54,1.2830873000002612,['c'],1,left,['9'],5,0.1380619999999908,,,9,18,Man,Rechts,1,
,xotask,xotask,dotcolour,10,1,70,370,training,positivefb,97,easy,5,0.8336977999997544,['n'],1,right,['9'],5,0.1951245000000199,,,9,18,Man,Rechts,1,
,xotask,xotask,dotcolour,11,1,71,371,training,positivefb,81,hard,51,1.6666756999998142,['n'],0,left,['8'],4,0.20055249999995794,,,9,18,Man,Rechts,1,
,xotask,xotask,dotcolour,12,1,72,372,training,positivefb,87,hard,28,1.334120200000143,['n'],1,right,['8'],4,0.18821109999998953,,,9,18,Man,Rechts,1,
,xotask,xotask,dotcolour,13,1,73,373,training,positivefb,92,average,15,0.9338659999998526,['n'],1,right,['9'],5,0.19112769999992452,,,9,18,Man,Rechts,1,
,xotask,xotask,dotcolour,14,1,74,374,training,positivefb,99,average,64,0.6843020000001161,['c'],1,left,['0'],6,0.2121698999999353,,,9,18,Man,Rechts,1,
,xotask,xotask,dotcolour,15,1,75,375,training,positivefb,80,easy,70,0.9155396999999539,['c'],1,left,['0'],6,0.16746389999980238,,,9,18,Man,Rechts,1,
,xotask,xotask,dotcolour,16,1,76,376,training,positivefb,92,hard,53,0.6502749000001131,['c'],1,left,['0'],6,0.19954969999980676,,,9,18,Man,Rechts,1,
,xotask,xotask,dotcolour,17,1,77,377,training,positivefb,96,average,18,0.7004971999999725,['n'],1,right,['9'],5,0.26691170000003694,,,9,18,Man,Rechts,1,
,xotask,xotask,dotcolour,18,1,78,378,training,positivefb,93,easy,73,0.8178639000002477,['c'],1,left,['9'],5,0.19232490000013058,,,9,18,Man,Rechts,1,
,xotask,xotask,dotcolour,19,1,79,379,training,positivefb,95,easy,72,0.7337145999999848,['c'],1,left,['0'],6,0.3555124999998043,,,9,18,Man,Rechts,1,
,xotask,xotask,dotcolour,20,1,80,380,training,positivefb,95,average,63,0.5843852000002698,['c'],1,left,['9'],5,0.31810429999995904,,,9,18,Man,Rechts,1,
,xotask,xotask,dotcolour,21,1,81,381,training,positivefb,39,hard,25,1.0493207999998049,['n'],1,right,['8'],4,0.4393348000003243,,,9,18,Man,Rechts,1,
,xotask,xotask,dotcolour,22,1,82,382,training,positivefb,91,hard,29,1.4162465999997949,['n'],1,right,['8'],4,0.1893949000000248,,,9,18,Man,Rechts,1,
,xotask,xotask,dotcolour,23,1,83,383,training,positivefb,94,hard,26,0.7658648999999969,['n'],1,right,['9'],5,0.2156224000000293,,,9,18,Man,Rechts,1,
,xotask,xotask,dotcolour,24,1,84,384,training,positivefb,91,average,15,0.6335959999996703,['n'],1,right,['0'],6,0.13274950000004537,,,9,18,Man,Rechts,1,
,xotask,xotask,dotcolour,25,1,85,385,training,positivefb,97,easy,6,0.6840326999999888,['n'],1,right,['0'],6,0.15677210000012565,,,9,18,Man,Rechts,1,
,xotask,xotask,dotcolour,26,1,86,386,training,positivefb,98,easy,70,0.716416400000071,['c'],1,left,['0'],6,0.20190129999991768,,,9,18,Man,Rechts,1,
,xotask,xotask,dotcolour,27,1,87,387,training,positivefb,90,hard,27,1.2999620999999024,['n'],1,right,['8'],4,0.21461950000002616,,,9,18,Man,Rechts,1,
,xotask,xotask,dotcolour,28,1,88,388,training,positivefb,97,easy,71,0.9497760999997809,['c'],1,left,['9'],5,0.18375650000007226,,,9,18,Man,Rechts,1,
,xotask,xotask,dotcolour,29,1,89,389,training,positivefb,93,easy,74,0.6007180000001426,['c'],1,left,['0'],6,0.20751719999998386,,,9,18,Man,Rechts,1,
,xotask,xotask,dotcolour,30,1,90,390,training,positivefb,90,hard,29,1.6165712999995776,['n'],1,right,['9'],5,0.11168989999987389,,,9,18,Man,Rechts,1,
,xotask,xotask,dotcolour,31,1,91,391,training,positivefb,94,average,60,0.7173246000002109,['c'],1,left,['9'],5,0.34286599999995815,,,9,18,Man,Rechts,1,
,xotask,xotask,dotcolour,32,1,92,392,training,positivefb,98,hard,53,0.6675283999998101,['c'],1,left,['8'],4,0.23877790000005916,,,9,18,Man,Rechts,1,
,xotask,xotask,dotcolour,33,1,93,393,training,positivefb,97,average,16,1.1669625999998061,['n'],1,right,['9'],5,0.22238279999965016,,,9,18,Man,Rechts,1,
,xotask,xotask,dotcolour,34,1,94,394,training,positivefb,97,easy,9,0.799656799999866,['n'],1,right,['9'],5,0.23774069999990388,,,9,18,Man,Rechts,1,
,xotask,xotask,dotcolour,35,1,95,395,training,positivefb,95,easy,7,0.5675673000000643,['n'],1,right,['9'],5,0.20611969999981739,,,9,18,Man,Rechts,1,
,xotask,xotask,dotcolour,36,1,96,396,training,positivefb,92,average,64,0.6676164000000426,['c'],1,left,['9'],5,0.243669299999965,,,9,18,Man,Rechts,1,
,xotask,xotask,dotcolour,37,1,97,397,training,positivefb,97,average,60,0.9836190000000897,['c'],1,left,['0'],6,0.2827790000001187,,,9,18,Man,Rechts,1,
,xotask,xotask,dotcolour,38,1,98,398,training,positivefb,97,average,16,0.8167521000000306,['n'],1,right,['9'],5,0.23910569999998188,,,9,18,Man,Rechts,1,
,xotask,xotask,dotcolour,39,1,99,399,training,positivefb,99,hard,54,0.8495702000000165,['c'],1,left,['9'],5,0.26763690000007045,,,9,18,Man,Rechts,1,
,xotask,xotask,dotcolour,40,1,100,400,training,positivefb,96,average,61,0.8669755000000805,['c'],1,left,['9'],5,0.18226670000012746,,,9,18,Man,Rechts,1,
,xotask,xotask,dotcolour,41,1,101,401,training,positivefb,93,hard,28,1.5172052999996595,['c'],0,right,['8'],4,0.19378519999963828,,,9,18,Man,Rechts,1,
,xotask,xotask,dotcolour,42,1,102,402,training,positivefb,97,hard,27,0.749352700000145,['n'],1,right,['8'],4,0.23772150000013426,,,9,18,Man,Rechts,1,
,xotask,xotask,dotcolour,43,1,103,403,training,positivefb,75,hard,50,0.6003362000001289,['c'],1,left,['8'],4,0.24431460000005245,,,9,18,Man,Rechts,1,
,xotask,xotask,dotcolour,44,1,104,404,training,positivefb,85,easy,9,1.3009338000001662,['n'],1,right,['9'],5,0.2542078000001311,,,9,18,Man,Rechts,1,
,xotask,xotask,dotcolour,45,1,105,405,training,positivefb,98,easy,70,0.650119899999936,['n'],0,left,['0'],6,0.281928699999753,,,9,18,Man,Rechts,1,
,xotask,xotask,dotcolour,46,1,106,406,training,positivefb,39,average,60,1.2173341000002438,['n'],0,left,['9'],5,1.238493699999708,,,9,18,Man,Rechts,1,
,xotask,xotask,dotcolour,47,1,107,407,training,positivefb,87,easy,70,1.0838487000000896,['c'],1,left,['8'],4,0.24967040000001361,,,9,18,Man,Rechts,1,
,xotask,xotask,dotcolour,48,1,108,408,training,positivefb,77,hard,52,1.0004716999997072,['c'],1,left,['9'],5,0.4959014000000934,,,9,18,Man,Rechts,1,
,xotask,xotask,dotcolour,49,1,109,409,training,positivefb,99,easy,5,0.700107399999979,['n'],1,right,['0'],6,0.23227120000001378,,,9,18,Man,Rechts,1,
,xotask,xotask,dotcolour,50,1,110,410,training,positivefb,75,easy,6,0.8329363000002559,['n'],1,right,['0'],6,0.22980770000003758,,,9,18,Man,Rechts,1,
,xotask,xotask,dotcolour,51,1,111,411,training,positivefb,80,average,17,0.8167770999998538,['n'],1,right,['0'],6,0.25215350000007675,,,9,18,Man,Rechts,1,
,xotask,xotask,dotcolour,52,1,112,412,training,positivefb,93,easy,5,0.6330466999997952,['n'],1,right,['9'],5,0.27325669999981983,,,9,18,Man,Rechts,1,
,xotask,xotask,dotcolour,53,1,113,413,training,positivefb,89,easy,71,1.2665894000001572,['c'],1,left,['2'],2,0.2358512000000701,,,9,18,Man,Rechts,1,
,xotask,xotask,dotcolour,54,1,114,414,training,positivefb,99,easy,6,1.5156427000001713,['n'],1,right,['0'],6,0.3584940999999162,,,9,18,Man,Rechts,1,
,xotask,xotask,dotcolour,55,1,115,415,training,positivefb,93,average,60,0.8342418999995971,['c'],1,left,['9'],5,0.2301357999999709,,,9,18,Man,Rechts,1,
,xotask,xotask,dotcolour,56,1,116,416,training,positivefb,69,average,62,2.1009776999999303,['n'],0,left,['8'],4,0.1941874999997708,,,9,18,Man,Rechts,1,
,xotask,xotask,dotcolour,57,1,117,417,training,positivefb,78,hard,52,1.3168604000002233,['n'],0,left,['8'],4,0.4463536000002932,,,9,18,Man,Rechts,1,
,xotask,xotask,dotcolour,58,1,118,418,training,positivefb,81,hard,50,1.367291000000023,['n'],0,left,['3'],3,0.3819849000001341,,,9,18,Man,Rechts,1,
,xotask,xotask,dotcolour,59,1,119,419,training,positivefb,91,average,18,0.9175901999997222,['n'],1,right,['8'],4,0.2340340999999171,,,9,18,Man,Rechts,1,
,xotask,xotask,dotcolour,0,2,120,420,main,positivefb,-99,hard,28,0.03726729999971212,['n'],1,right,['1'],1,2.363538199999766,,,9,18,Man,Rechts,1,
,xotask,xotask,dotcolour,1,2,121,421,main,positivefb,-99,average,15,2.8677545000000464,['n'],1,right,['8'],4,0.5626530999998067,,,9,18,Man,Rechts,1,
,xotask,xotask,dotcolour,2,2,122,422,main,positivefb,-99,average,60,1.8508508999998412,['c'],1,left,['9'],5,0.2515303000000131,,,9,18,Man,Rechts,1,
,xotask,xotask,dotcolour,3,2,123,423,main,positivefb,-99,average,16,1.1347356000001128,['n'],1,right,['9'],5,0.2610018999998829,,,9,18,Man,Rechts,1,
,xotask,xotask,dotcolour,4,2,124,424,main,positivefb,-99,hard,25,1.5510592000000543,['n'],1,right,['8'],4,0.22945179999987886,,,9,18,Man,Rechts,1,
,xotask,xotask,dotcolour,5,2,125,425,main,positivefb,-99,easy,70,2.0512353999997686,['c'],1,left,['8'],4,0.21956970000019282,,,9,18,Man,Rechts,1,
,xotask,xotask,dotcolour,6,2,126,426,main,positivefb,-99,easy,9,3.116916299999957,['c'],0,right,['3'],3,0.8627421999999569,,,9,18,Man,Rechts,1,
,xotask,xotask,dotcolour,7,2,127,427,main,positivefb,-99,average,17,2.184243499999866,['n'],1,right,['8'],4,0.22255589999986114,,,9,18,Man,Rechts,1,
,xotask,xotask,dotcolour,8,2,128,428,main,positivefb,-99,easy,70,0.8841481000004023,['c'],1,left,['9'],5,0.2984484000003249,,,9,18,Man,Rechts,1,
,xotask,xotask,dotcolour,9,2,129,429,main,positivefb,-99,easy,5,0.9669109000001299,['n'],1,right,['0'],6,0.24917480000021897,,,9,18,Man,Rechts,1,
,xotask,xotask,dotcolour,10,2,130,430,main,positivefb,-99,easy,73,0.9346622999996725,['c'],1,left,['9'],5,0.23440530000016224,,,9,18,Man,Rechts,1,
,xotask,xotask,dotcolour,11,2,131,431,main,positivefb,-99,average,60,2.400670800000171,['c'],1,left,['3'],3,0.6973701000001711,,,9,18,Man,Rechts,1,
,xotask,xotask,dotcolour,12,2,132,432,main,positivefb,-99,hard,29,1.9348543000000973,['n'],1,right,['9'],5,1.7530758000002606,,,9,18,Man,Rechts,1,
,xotask,xotask,dotcolour,13,2,133,433,main,positivefb,-99,average,17,1.1517643999995926,['n'],1,right,['9'],5,0.38992030000008526,,,9,18,Man,Rechts,1,
,xotask,xotask,dotcolour,14,2,134,434,main,positivefb,-99,average,61,0.9680002000000059,['c'],1,left,['8'],4,0.615878099999918,,,9,18,Man,Rechts,1,
,xotask,xotask,dotcolour,15,2,135,435,main,positivefb,-99,easy,7,0.900673800000277,['n'],1,right,['8'],4,0.4044682000003377,,,9,18,Man,Rechts,1,
,xotask,xotask,dotcolour,16,2,136,436,main,positivefb,-99,hard,52,1.3342643999999382,['c'],1,left,['8'],4,0.2718445000000429,,,9,18,Man,Rechts,1,
,xotask,xotask,dotcolour,17,2,137,437,main,positivefb,-99,hard,51,1.2837475999999697,['c'],1,left,['9'],5,0.514106499999798,,,9,18,Man,Rechts,1,
,xotask,xotask,dotcolour,18,2,138,438,main,positivefb,-99,hard,25,1.3674776000002566,['n'],1,right,['3'],3,0.18356500000027154,,,9,18,Man,Rechts,1,
,xotask,xotask,dotcolour,19,2,139,439,main,positivefb,-99,hard,26,1.6843604999999116,['n'],1,right,['3'],3,0.229882500000258,,,9,18,Man,Rechts,1,
,xotask,xotask,dotcolour,20,2,140,440,main,positivefb,-99,hard,27,1.2350961000001917,['n'],1,right,['8'],4,0.24453889999995226,,,9,18,Man,Rechts,1,
,xotask,xotask,dotcolour,21,2,141,441,main,positivefb,-99,easy,9,0.9339521000001696,['n'],1,right,['9'],5,0.2864816000001156,,,9,18,Man,Rechts,1,
,xotask,xotask,dotcolour,22,2,142,442,main,positivefb,-99,hard,54,1.6506391999996595,['n'],0,left,['3'],3,0.2098971000000347,,,9,18,Man,Rechts,1,
,xotask,xotask,dotcolour,23,2,143,443,main,positivefb,-99,average,18,1.0522161000003507,['n'],1,right,['3'],3,0.21594659999982468,,,9,18,Man,Rechts,1,
,xotask,xotask,dotcolour,24,2,144,444,main,positivefb,-99,average,62,1.0847584000002826,['c'],1,left,['8'],4,0.25346700000000055,,,9,18,Man,Rechts,1,
,xotask,xotask,dotcolour,25,2,145,445,main,positivefb,-99,easy,8,0.7668275999999423,['n'],1,right,['3'],3,0.25284130000000005,,,9,18,Man,Rechts,1,
,xotask,xotask,dotcolour,26,2,146,446,main,positivefb,-99,average,19,1.8504590000002281,['n'],1,right,['9'],5,0.19379170000001977,,,9,18,Man,Rechts,1,
,xotask,xotask,dotcolour,27,2,147,447,main,positivefb,-99,easy,71,1.5017275999998674,['n'],0,left,['9'],5,0.2075198000002274,,,9,18,Man,Rechts,1,
,xotask,xotask,dotcolour,28,2,148,448,main,positivefb,-99,hard,50,1.5341781000001902,['c'],1,left,['9'],5,0.434204900000168,,,9,18,Man,Rechts,1,
,xotask,xotask,dotcolour,29,2,149,449,main,positivefb,-99,average,62,2.0007690000002185,['c'],1,left,['8'],4,0.16983920000029684,,,9,18,Man,Rechts,1,
,xotask,xotask,dotcolour,30,2,150,450,main,positivefb,-99,hard,51,1.1015054999998029,['c'],1,left,['8'],4,0.1597845999999663,,,9,18,Man,Rechts,1,
,xotask,xotask,dotcolour,31,2,151,451,main,positivefb,-99,easy,5,1.1516333999998096,['n'],1,right,['9'],5,0.196169700000155,,,9,18,Man,Rechts,1,
,xotask,xotask,dotcolour,32,2,152,452,main,positivefb,-99,average,62,1.3513385000001108,['c'],1,left,['9'],5,0.20801340000025448,,,9,18,Man,Rechts,1,
,xotask,xotask,dotcolour,33,2,153,453,main,positivefb,-99,hard,53,1.3009083000001738,['c'],1,left,['9'],5,0.17246669999985897,,,9,18,Man,Rechts,1,
,xotask,xotask,dotcolour,34,2,154,454,main,positivefb,-99,average,61,2.8512697000001026,['n'],0,left,['3'],3,0.19637759999977789,,,9,18,Man,Rechts,1,
,xotask,xotask,dotcolour,35,2,155,455,main,positivefb,-99,easy,74,1.9345328999997946,['c'],1,left,['0'],6,0.1366400000001704,,,9,18,Man,Rechts,1,
,xotask,xotask,dotcolour,36,2,156,456,main,positivefb,-99,easy,70,0.8345420000000559,['c'],1,left,['0'],6,0.24225780000006125,,,9,18,Man,Rechts,1,
,xotask,xotask,dotcolour,37,2,157,457,main,positivefb,-99,easy,5,0.9836598000001686,['n'],1,right,['0'],6,0.2426647000002049,,,9,18,Man,Rechts,1,
,xotask,xotask,dotcolour,38,2,158,458,main,positivefb,-99,hard,27,2.335308300000179,['n'],1,right,['9'],5,0.22103670000024067,,,9,18,Man,Rechts,1,
,xotask,xotask,dotcolour,39,2,159,459,main,positivefb,-99,hard,52,1.4010435999998663,['c'],1,left,['9'],5,0.20489989999987301,,,9,18,Man,Rechts,1,
,xotask,xotask,dotcolour,40,2,160,460,main,positivefb,-99,easy,71,1.1515391000002637,['c'],1,left,['0'],6,0.20711870000013732,,,9,18,Man,Rechts,1,
,xotask,xotask,dotcolour,41,2,161,461,main,positivefb,-99,easy,71,0.6504143999995904,['c'],1,left,['0'],6,0.22159719999990557,,,9,18,Man,Rechts,1,
,xotask,xotask,dotcolour,42,2,162,462,main,positivefb,-99,easy,5,0.6514130000000478,['n'],1,right,['0'],6,0.19636639999998806,,,9,18,Man,Rechts,1,
,xotask,xotask,dotcolour,43,2,163,463,main,positivefb,-99,hard,53,1.1181522000001678,['c'],1,left,['9'],5,0.2410080999998172,,,9,18,Man,Rechts,1,
,xotask,xotask,dotcolour,44,2,164,464,main,positivefb,-99,easy,73,1.0338552999996864,['c'],1,left,['0'],6,0.2787736999998742,,,9,18,Man,Rechts,1,
,xotask,xotask,dotcolour,45,2,165,465,main,positivefb,-99,average,62,0.6848042999999961,['c'],1,left,['0'],6,0.23384279999982027,,,9,18,Man,Rechts,1,
,xotask,xotask,dotcolour,46,2,166,466,main,positivefb,-99,easy,5,0.7512347000001682,['n'],1,right,['0'],6,0.20307260000026872,,,9,18,Man,Rechts,1,
,xotask,xotask,dotcolour,47,2,167,467,main,positivefb,-99,easy,74,0.901083700000072,['c'],1,left,['0'],6,0.19972710000001825,,,9,18,Man,Rechts,1,
,xotask,xotask,dotcolour,48,2,168,468,main,positivefb,-99,hard,26,1.9010277999996106,['n'],1,right,['9'],5,0.39678049999974974,,,9,18,Man,Rechts,1,
,xotask,xotask,dotcolour,49,2,169,469,main,positivefb,-99,average,61,2.5503045000000384,['n'],0,left,['3'],3,0.1440034000002015,,,9,18,Man,Rechts,1,
,xotask,xotask,dotcolour,50,2,170,470,main,positivefb,-99,average,19,1.2833729999997558,['n'],1,right,['0'],6,0.20009759999993548,,,9,18,Man,Rechts,1,
,xotask,xotask,dotcolour,51,2,171,471,main,positivefb,-99,easy,7,0.651177799999914,['n'],1,right,['0'],6,0.24682560000019294,,,9,18,Man,Rechts,1,
,xotask,xotask,dotcolour,52,2,172,472,main,positivefb,-99,hard,28,3.0010243000001537,['n'],1,right,['8'],4,0.142089500000111,,,9,18,Man,Rechts,1,
,xotask,xotask,dotcolour,53,2,173,473,main,positivefb,-99,hard,51,1.800421599999936,['c'],1,left,['3'],3,0.22572680000030232,,,9,18,Man,Rechts,1,
,xotask,xotask,dotcolour,54,2,174,474,main,positivefb,-99,average,16,2.600566399999934,['c'],0,right,['0'],6,0.13743690000001152,,,9,18,Man,Rechts,1,
,xotask,xotask,dotcolour,55,2,175,475,main,positivefb,-99,hard,27,1.084062299999914,['c'],0,right,['0'],6,0.18546539999988454,,,9,18,Man,Rechts,1,
,xotask,xotask,dotcolour,56,2,176,476,main,positivefb,-99,average,19,1.1507235999997647,['n'],1,right,['8'],4,0.8688021000002664,,,9,18,Man,Rechts,1,
,xotask,xotask,dotcolour,57,2,177,477,main,positivefb,-99,average,19,0.9660454999998365,['n'],1,right,['9'],5,0.29219379999995,,,9,18,Man,Rechts,1,
,xotask,xotask,dotcolour,58,2,178,478,main,positivefb,-99,average,62,1.5176593000001048,['c'],1,left,['9'],5,0.2691168999999718,,,9,18,Man,Rechts,1,
,xotask,xotask,dotcolour,59,2,179,479,main,positivefb,-99,hard,54,1.0341672999998082,['c'],1,left,['3'],3,1.5777180000000044,,,9,18,Man,Rechts,1,
,xotask,xotask,dotcolour,0,3,180,480,main,positivefb,-99,average,62,1.217800100000204,['c'],1,left,['9'],5,0.4716990000001715,,,9,18,Man,Rechts,1,
,xotask,xotask,dotcolour,1,3,181,481,main,positivefb,-99,average,17,1.2342728999997234,['n'],1,right,['9'],5,0.3084943000003477,,,9,18,Man,Rechts,1,
,xotask,xotask,dotcolour,2,3,182,482,main,positivefb,-99,hard,27,2.2511352000001352,['c'],0,right,['3'],3,0.2955656000003728,,,9,18,Man,Rechts,1,
,xotask,xotask,dotcolour,3,3,183,483,main,positivefb,-99,easy,5,1.0683267999997952,['n'],1,right,['9'],5,0.6819489999998041,,,9,18,Man,Rechts,1,
,xotask,xotask,dotcolour,4,3,184,484,main,positivefb,-99,hard,28,2.6338566999997965,['n'],1,right,['8'],4,0.2374362000000474,,,9,18,Man,Rechts,1,
,xotask,xotask,dotcolour,5,3,185,485,main,positivefb,-99,hard,51,1.6347537999999986,['c'],1,left,['8'],4,0.20396249999976135,,,9,18,Man,Rechts,1,
,xotask,xotask,dotcolour,6,3,186,486,main,positivefb,-99,hard,25,1.6678815999998733,['n'],1,right,['9'],5,0.21003460000019913,,,9,18,Man,Rechts,1,
,xotask,xotask,dotcolour,7,3,187,487,main,positivefb,-99,easy,8,1.034425199999987,['n'],1,right,['9'],5,0.25734300000021904,,,9,18,Man,Rechts,1,
,xotask,xotask,dotcolour,8,3,188,488,main,positivefb,-99,average,61,0.8186824999997953,['c'],1,left,['9'],5,0.231098799999927,,,9,18,Man,Rechts,1,
,xotask,xotask,dotcolour,9,3,189,489,main,positivefb,-99,average,18,2.9513159999996788,['c'],0,right,['3'],3,0.40069649999986723,,,9,18,Man,Rechts,1,
,xotask,xotask,dotcolour,10,3,190,490,main,positivefb,-99,easy,72,1.4848927999996704,['c'],1,left,['0'],6,0.1901476999996703,,,9,18,Man,Rechts,1,
,xotask,xotask,dotcolour,11,3,191,491,main,positivefb,-99,easy,74,0.7507058000001052,['c'],1,left,['0'],6,0.31323599999996077,,,9,18,Man,Rechts,1,
,xotask,xotask,dotcolour,12,3,192,492,main,positivefb,-99,average,19,0.9680051999998796,['n'],1,right,['0'],6,0.2315453000001071,,,9,18,Man,Rechts,1,
,xotask,xotask,dotcolour,13,3,193,493,main,positivefb,-99,hard,26,0.7514101000001574,['n'],1,right,['0'],6,0.2882044000002679,,,9,18,Man,Rechts,1,
,xotask,xotask,dotcolour,14,3,194,494,main,positivefb,-99,easy,73,0.768025200000011,['c'],1,left,['0'],6,0.23932220000006055,,,9,18,Man,Rechts,1,
,xotask,xotask,dotcolour,15,3,195,495,main,positivefb,-99,easy,6,0.6853606999998192,['n'],1,right,['0'],6,0.28328929999997854,,,9,18,Man,Rechts,1,
,xotask,xotask,dotcolour,16,3,196,496,main,positivefb,-99,hard,52,1.784149399999933,['n'],0,left,['8'],4,0.1926248999998279,,,9,18,Man,Rechts,1,
,xotask,xotask,dotcolour,17,3,197,497,main,positivefb,-99,hard,51,1.1349199999999655,['c'],1,left,['9'],5,0.19695469999987836,,,9,18,Man,Rechts,1,
,xotask,xotask,dotcolour,18,3,198,498,main,positivefb,-99,average,64,0.8340905000000021,['c'],1,left,['9'],5,0.2608279000000948,,,9,18,Man,Rechts,1,
,xotask,xotask,dotcolour,19,3,199,499,main,positivefb,-99,easy,72,0.5175505000001976,['c'],1,left,['0'],6,0.3034599000002345,,,9,18,Man,Rechts,1,
,xotask,xotask,dotcolour,20,3,200,500,main,positivefb,-99,average,17,1.101137000000108,['n'],1,right,['8'],4,0.19991369999979725,,,9,18,Man,Rechts,1,
,xotask,xotask,dotcolour,21,3,201,501,main,positivefb,-99,average,60,2.101443499999732,['n'],0,left,['3'],3,0.11608179999984714,,,9,18,Man,Rechts,1,
,xotask,xotask,dotcolour,22,3,202,502,main,positivefb,-99,average,62,1.334496400000262,['c'],1,left,['9'],5,0.21095789999981207,,,9,18,Man,Rechts,1,
,xotask,xotask,dotcolour,23,3,203,503,main,positivefb,-99,average,17,0.9514718999998877,['n'],1,right,['9'],5,0.26201899999978195,,,9,18,Man,Rechts,1,
,xotask,xotask,dotcolour,24,3,204,504,main,positivefb,-99,hard,25,0.7180065999996259,['c'],0,right,['0'],6,0.2316819000002397,,,9,18,Man,Rechts,1,
,xotask,xotask,dotcolour,25,3,205,505,main,positivefb,-99,average,15,0.4687844000000041,['c'],0,right,['0'],6,0.28454169999986334,,,9,18,Man,Rechts,1,
,xotask,xotask,dotcolour,26,3,206,506,main,positivefb,-99,easy,71,4.451138299999911,['c'],1,left,['8'],4,0.17641219999995883,,,9,18,Man,Rechts,1,
,xotask,xotask,dotcolour,27,3,207,507,main,positivefb,-99,easy,6,1.5673620000002302,['n'],1,right,['3'],3,0.24379159999989497,,,9,18,Man,Rechts,1,
,xotask,xotask,dotcolour,28,3,208,508,main,positivefb,-99,hard,52,1.9172389000000294,['n'],0,left,['3'],3,0.49448690000008355,,,9,18,Man,Rechts,1,
,xotask,xotask,dotcolour,29,3,209,509,main,positivefb,-99,easy,6,0.833848400000079,['c'],0,right,['9'],5,0.21763469999996232,,,9,18,Man,Rechts,1,
,xotask,xotask,dotcolour,30,3,210,510,main,positivefb,-99,hard,26,2.9845706999999493,['n'],1,right,['1'],1,0.45895130000008066,,,9,18,Man,Rechts,1,
,xotask,xotask,dotcolour,31,3,211,511,main,positivefb,-99,hard,52,1.1508561000000554,['c'],1,left,['8'],4,2.467536999999993,,,9,18,Man,Rechts,1,
,xotask,xotask,dotcolour,32,3,212,512,main,positivefb,-99,average,60,1.2010752000001048,['c'],1,left,['9'],5,0.2575944000000163,,,9,18,Man,Rechts,1,
,xotask,xotask,dotcolour,33,3,213,513,main,positivefb,-99,hard,27,1.5512797999999748,['n'],1,right,['8'],4,0.2742350000003171,,,9,18,Man,Rechts,1,
,xotask,xotask,dotcolour,34,3,214,514,main,positivefb,-99,hard,50,2.01692950000006,['c'],1,left,['8'],4,0.18357109999988097,,,9,18,Man,Rechts,1,
,xotask,xotask,dotcolour,35,3,215,515,main,positivefb,-99,easy,6,1.8511654999997518,['n'],1,right,['1'],1,0.15085369999997056,,,9,18,Man,Rechts,1,
,xotask,xotask,dotcolour,36,3,216,516,main,positivefb,-99,easy,9,0.951758300000165,['n'],1,right,['0'],6,0.24400890000015352,,,9,18,Man,Rechts,1,
,xotask,xotask,dotcolour,37,3,217,517,main,positivefb,-99,hard,54,2.133280200000172,['n'],0,left,['9'],5,0.2216483000001972,,,9,18,Man,Rechts,1,
,xotask,xotask,dotcolour,38,3,218,518,main,positivefb,-99,average,15,1.7340454000000136,['n'],1,right,['9'],5,0.21633089999977528,,,9,18,Man,Rechts,1,
,xotask,xotask,dotcolour,39,3,219,519,main,positivefb,-99,easy,73,1.0175521000001027,['c'],1,left,['0'],6,0.33605960000022606,,,9,18,Man,Rechts,1,
,xotask,xotask,dotcolour,40,3,220,520,main,positivefb,-99,average,60,0.9337860999999066,['c'],1,left,['0'],6,0.21389510000017253,,,9,18,Man,Rechts,1,
,xotask,xotask,dotcolour,41,3,221,521,main,positivefb,-99,easy,9,0.7673866999998609,['n'],1,right,['0'],6,0.23977659999991374,,,9,18,Man,Rechts,1,
,xotask,xotask,dotcolour,42,3,222,522,main,positivefb,-99,hard,53,1.4178263999997398,['n'],0,left,['8'],4,0.2779785000002448,,,9,18,Man,Rechts,1,
,xotask,xotask,dotcolour,43,3,223,523,main,positivefb,-99,easy,70,1.3845218000001296,['c'],1,left,['9'],5,0.22905760000003283,,,9,18,Man,Rechts,1,
,xotask,xotask,dotcolour,44,3,224,524,main,positivefb,-99,hard,26,0.8839097000000038,['n'],1,right,['0'],6,0.2017906999999468,,,9,18,Man,Rechts,1,
,xotask,xotask,dotcolour,45,3,225,525,main,positivefb,-99,average,19,1.7683418000001438,['n'],1,right,['8'],4,0.17935050000005504,,,9,18,Man,Rechts,1,
,xotask,xotask,dotcolour,46,3,226,526,main,positivefb,-99,average,18,2.967649100000017,['n'],1,right,['1'],1,0.11082100000021455,,,9,18,Man,Rechts,1,
,xotask,xotask,dotcolour,47,3,227,527,main,positivefb,-99,average,60,1.5342602000000625,['c'],1,left,['0'],6,0.20640999999977794,,,9,18,Man,Rechts,1,
,xotask,xotask,dotcolour,48,3,228,528,main,positivefb,-99,easy,70,0.5675412000000506,['c'],1,left,['0'],6,0.18443539999998393,,,9,18,Man,Rechts,1,
,xotask,xotask,dotcolour,49,3,229,529,main,positivefb,-99,easy,73,0.6841030000000501,['c'],1,left,['0'],6,0.2061970999998266,,,9,18,Man,Rechts,1,
,xotask,xotask,dotcolour,50,3,230,530,main,positivefb,-99,easy,73,0.5173718000000918,['c'],1,left,['0'],6,0.19421590000001743,,,9,18,Man,Rechts,1,
,xotask,xotask,dotcolour,51,3,231,531,main,positivefb,-99,easy,8,0.4511422999999013,['c'],0,right,['1'],1,0.8501235999997334,,,9,18,Man,Rechts,1,
,xotask,xotask,dotcolour,52,3,232,532,main,positivefb,-99,average,19,1.38427479999973,['n'],1,right,['9'],5,0.6888566999996328,,,9,18,Man,Rechts,1,
,xotask,xotask,dotcolour,53,3,233,533,main,positivefb,-99,average,63,1.5172788999998374,['c'],1,left,['8'],4,0.21032949999971606,,,9,18,Man,Rechts,1,
,xotask,xotask,dotcolour,54,3,234,534,main,positivefb,-99,hard,27,0.8859276999996837,['n'],1,right,['0'],6,0.18301970000038636,,,9,18,Man,Rechts,1,
,xotask,xotask,dotcolour,55,3,235,535,main,positivefb,-99,easy,8,0.6012826999999561,['n'],1,right,['0'],6,0.20889179999994667,,,9,18,Man,Rechts,1,
,xotask,xotask,dotcolour,56,3,236,536,main,positivefb,-99,hard,27,1.150928400000339,['n'],1,right,['9'],5,0.1473438999996688,,,9,18,Man,Rechts,1,
,xotask,xotask,dotcolour,57,3,237,537,main,positivefb,-99,hard,53,0.6841372000003503,['n'],0,left,['8'],4,0.20325339999999414,,,9,18,Man,Rechts,1,
,xotask,xotask,dotcolour,58,3,238,538,main,positivefb,-99,average,64,1.118027500000153,['c'],1,left,['9'],5,0.33548370000016803,,,9,18,Man,Rechts,1,
,xotask,xotask,dotcolour,59,3,239,539,main,positivefb,-99,hard,53,1.4006303999999545,['c'],1,left,['8'],4,0.170267199999671,,,9,18,Man,Rechts,1,
,xotask,xotask,dotcolour,0,4,240,540,main,positivefb,-99,hard,51,1.5846566000000166,['c'],1,left,['8'],4,0.6988335000000916,,,9,18,Man,Rechts,1,
,xotask,xotask,dotcolour,1,4,241,541,main,positivefb,-99,easy,7,0.9513248000002932,['n'],1,right,['9'],5,0.2175188999999591,,,9,18,Man,Rechts,1,
,xotask,xotask,dotcolour,2,4,242,542,main,positivefb,-99,easy,6,0.7346887999997307,['n'],1,right,['9'],5,0.29206150000027264,,,9,18,Man,Rechts,1,
,xotask,xotask,dotcolour,3,4,243,543,main,positivefb,-99,easy,8,0.6345538000000488,['n'],1,right,['9'],5,0.20836259999987305,,,9,18,Man,Rechts,1,
,xotask,xotask,dotcolour,4,4,244,544,main,positivefb,-99,easy,72,0.6677558000001227,['c'],1,left,['9'],5,0.19836039999972854,,,9,18,Man,Rechts,1,
,xotask,xotask,dotcolour,5,4,245,545,main,positivefb,-99,hard,50,5.135348400000112,['c'],1,left,['9'],5,0.2571269999998549,,,9,18,Man,Rechts,1,
,xotask,xotask,dotcolour,6,4,246,546,main,positivefb,-99,hard,52,1.0350975999999719,['c'],1,left,['8'],4,0.2306629999998222,,,9,18,Man,Rechts,1,
,xotask,xotask,dotcolour,7,4,247,547,main,positivefb,-99,hard,26,0.6173435999999128,['c'],0,right,['3'],3,1.6782337999998163,,,9,18,Man,Rechts,1,
,xotask,xotask,dotcolour,8,4,248,548,main,positivefb,-99,easy,5,0.8848550000002433,['n'],1,right,['9'],5,0.24886149999974805,,,9,18,Man,Rechts,1,
,xotask,xotask,dotcolour,9,4,249,549,main,positivefb,-99,average,17,0.9512944999996762,['n'],1,right,['9'],5,0.2257622999995874,,,9,18,Man,Rechts,1,
,xotask,xotask,dotcolour,10,4,250,550,main,positivefb,-99,hard,26,0.8014767999998185,['n'],1,right,['0'],6,0.1859002999999575,,,9,18,Man,Rechts,1,
,xotask,xotask,dotcolour,11,4,251,551,main,positivefb,-99,easy,72,0.7177424000001338,['c'],1,left,['9'],5,0.2702964999998585,,,9,18,Man,Rechts,1,
,xotask,xotask,dotcolour,12,4,252,552,main,positivefb,-99,hard,29,1.8011243999999351,['n'],1,right,['9'],5,0.4921175999998013,,,9,18,Man,Rechts,1,
,xotask,xotask,dotcolour,13,4,253,553,main,positivefb,-99,hard,29,1.0343440000001465,['c'],0,right,['9'],5,0.20846469999969486,,,9,18,Man,Rechts,1,
,xotask,xotask,dotcolour,14,4,254,554,main,positivefb,-99,easy,9,0.9849533999999949,['n'],1,right,['8'],4,0.313444200000049,,,9,18,Man,Rechts,1,
,xotask,xotask,dotcolour,15,4,255,555,main,positivefb,-99,easy,70,1.5508654999998726,['c'],1,left,['9'],5,0.200211699999727,,,9,18,Man,Rechts,1,
,xotask,xotask,dotcolour,16,4,256,556,main,positivefb,-99,average,60,0.951310100000228,['c'],1,left,['8'],4,0.21052710000003572,,,9,18,Man,Rechts,1,
,xotask,xotask,dotcolour,17,4,257,557,main,positivefb,-99,easy,74,0.7352616999996826,['c'],1,left,['0'],6,0.20658439999988332,,,9,18,Man,Rechts,1,
,xotask,xotask,dotcolour,18,4,258,558,main,positivefb,-99,average,16,0.9014790000001085,['n'],1,right,['8'],4,0.3469340000001466,,,9,18,Man,Rechts,1,
,xotask,xotask,dotcolour,19,4,259,559,main,positivefb,-99,hard,29,1.4005639000001793,['n'],1,right,['9'],5,0.2065722000002097,,,9,18,Man,Rechts,1,
,xotask,xotask,dotcolour,20,4,260,560,main,positivefb,-99,easy,73,0.8346523000000161,['c'],1,left,['0'],6,0.18998059999967154,,,9,18,Man,Rechts,1,
,xotask,xotask,dotcolour,21,4,261,561,main,positivefb,-99,hard,51,1.0161794000000555,['c'],1,left,['9'],5,0.20615020000013828,,,9,18,Man,Rechts,1,
,xotask,xotask,dotcolour,22,4,262,562,main,positivefb,-99,average,16,1.3176373999999669,['n'],1,right,['0'],6,0.17014879999987897,,,9,18,Man,Rechts,1,
,xotask,xotask,dotcolour,23,4,263,563,main,positivefb,-99,easy,71,0.9840752999998585,['c'],1,left,['0'],6,0.24447439999994458,,,9,18,Man,Rechts,1,
,xotask,xotask,dotcolour,24,4,264,564,main,positivefb,-99,easy,71,0.7179947999998149,['c'],1,left,['0'],6,0.18378849999999147,,,9,18,Man,Rechts,1,
,xotask,xotask,dotcolour,25,4,265,565,main,positivefb,-99,average,19,0.9005870999999388,['n'],1,right,['9'],5,0.228554300000269,,,9,18,Man,Rechts,1,
,xotask,xotask,dotcolour,26,4,266,566,main,positivefb,-99,hard,52,1.9330239999999321,['n'],0,left,['3'],3,0.7439894999997705,,,9,18,Man,Rechts,1,
,xotask,xotask,dotcolour,27,4,267,567,main,positivefb,-99,easy,74,0.9346795000001293,['c'],1,left,['0'],6,0.19776580000007016,,,9,18,Man,Rechts,1,
,xotask,xotask,dotcolour,28,4,268,568,main,positivefb,-99,hard,52,3.0001431000000593,['c'],1,left,['3'],3,0.9587470999999823,,,9,18,Man,Rechts,1,
,xotask,xotask,dotcolour,29,4,269,569,main,positivefb,-99,easy,5,0.8678652999997212,['n'],1,right,['0'],6,0.23074570000017047,,,9,18,Man,Rechts,1,
,xotask,xotask,dotcolour,30,4,270,570,main,positivefb,-99,easy,6,0.566932000000179,['n'],1,right,['0'],6,0.2399399999999332,,,9,18,Man,Rechts,1,
,xotask,xotask,dotcolour,31,4,271,571,main,positivefb,-99,easy,72,0.8174042000000554,['c'],1,left,['0'],6,0.25433849999990343,,,9,18,Man,Rechts,1,
,xotask,xotask,dotcolour,32,4,272,572,main,positivefb,-99,easy,8,0.7678483999998207,['n'],1,right,['0'],6,0.23807639999995445,,,9,18,Man,Rechts,1,
,xotask,xotask,dotcolour,33,4,273,573,main,positivefb,-99,average,15,1.6019161000003805,['n'],1,right,['8'],4,0.1977378999999928,,,9,18,Man,Rechts,1,
,xotask,xotask,dotcolour,34,4,274,574,main,positivefb,-99,easy,74,0.767674199999874,['c'],1,left,['9'],5,0.6394562999998925,,,9,18,Man,Rechts,1,
,xotask,xotask,dotcolour,35,4,275,575,main,positivefb,-99,hard,26,1.5331154000000424,['n'],1,right,['8'],4,0.24939750000021377,,,9,18,Man,Rechts,1,
,xotask,xotask,dotcolour,36,4,276,576,main,positivefb,-99,average,61,1.1180030000000443,['c'],1,left,['8'],4,0.24370689999977913,,,9,18,Man,Rechts,1,
,xotask,xotask,dotcolour,37,4,277,577,main,positivefb,-99,average,18,0.7839649000002282,['n'],1,right,['0'],6,0.24364990000003672,,,9,18,Man,Rechts,1,
,xotask,xotask,dotcolour,38,4,278,578,main,positivefb,-99,hard,29,1.9002382000003308,['n'],1,right,['8'],4,0.3113235999999233,,,9,18,Man,Rechts,1,
,xotask,xotask,dotcolour,39,4,279,579,main,positivefb,-99,average,61,0.7347755000000689,['c'],1,left,['9'],5,0.32693920000019716,,,9,18,Man,Rechts,1,
,xotask,xotask,dotcolour,40,4,280,580,main,positivefb,-99,hard,28,1.0840909999997166,['n'],1,right,['9'],5,0.37542619999976523,,,9,18,Man,Rechts,1,
,xotask,xotask,dotcolour,41,4,281,581,main,positivefb,-99,easy,9,1.0013355999999476,['n'],1,right,['9'],5,0.36979710000014165,,,9,18,Man,Rechts,1,
,xotask,xotask,dotcolour,42,4,282,582,main,positivefb,-99,average,16,0.7343432000002394,['n'],1,right,['0'],6,0.32598419999976613,,,9,18,Man,Rechts,1,
,xotask,xotask,dotcolour,43,4,283,583,main,positivefb,-99,average,61,1.0513448000001517,['c'],1,left,['8'],4,0.3201782999999523,,,9,18,Man,Rechts,1,
,xotask,xotask,dotcolour,44,4,284,584,main,positivefb,-99,easy,6,2.6852144000004046,['n'],1,right,['8'],4,0.20025340000029246,,,9,18,Man,Rechts,1,
,xotask,xotask,dotcolour,45,4,285,585,main,positivefb,-99,average,64,1.068593299999975,['c'],1,left,['9'],5,0.24646080000002257,,,9,18,Man,Rechts,1,
,xotask,xotask,dotcolour,46,4,286,586,main,positivefb,-99,hard,51,2.517566800000168,['c'],1,left,['8'],4,0.22517969999989873,,,9,18,Man,Rechts,1,
,xotask,xotask,dotcolour,47,4,287,587,main,positivefb,-99,hard,54,2.151365700000042,['c'],1,left,['8'],4,0.21100079999996524,,,9,18,Man,Rechts,1,
,xotask,xotask,dotcolour,48,4,288,588,main,positivefb,-99,average,19,0.9347564999998212,['n'],1,right,['9'],5,0.2542235000000801,,,9,18,Man,Rechts,1,
,xotask,xotask,dotcolour,49,4,289,589,main,positivefb,-99,average,18,1.051387099999829,['n'],1,right,['9'],5,0.18748479999976553,,,9,18,Man,Rechts,1,
,xotask,xotask,dotcolour,50,4,290,590,main,positivefb,-99,hard,25,0.7508229999998548,['n'],1,right,['9'],5,0.230084799999986,,,9,18,Man,Rechts,1,
,xotask,xotask,dotcolour,51,4,291,591,main,positivefb,-99,average,61,0.616747199999736,['c'],1,left,['9'],5,0.2863376000000244,,,9,18,Man,Rechts,1,
,xotask,xotask,dotcolour,52,4,292,592,main,positivefb,-99,average,18,0.8509725000003527,['n'],1,right,['9'],5,0.25725469999997586,,,9,18,Man,Rechts,1,
,xotask,xotask,dotcolour,53,4,293,593,main,positivefb,-99,hard,26,2.6509879999998702,['c'],0,right,['3'],3,0.2142902000000504,,,9,18,Man,Rechts,1,
,xotask,xotask,dotcolour,54,4,294,594,main,positivefb,-99,average,60,1.3355454000002283,['c'],1,left,['9'],5,0.48049280000032013,,,9,18,Man,Rechts,1,
,xotask,xotask,dotcolour,55,4,295,595,main,positivefb,-99,average,62,0.7507903000000624,['c'],1,left,['8'],4,0.4567469000003257,,,9,18,Man,Rechts,1,
,xotask,xotask,dotcolour,56,4,296,596,main,positivefb,-99,average,64,0.5683907000002364,['c'],1,left,['9'],5,0.2642695999998068,,,9,18,Man,Rechts,1,
,xotask,xotask,dotcolour,57,4,297,597,main,positivefb,-99,hard,52,0.9845425000003161,['c'],1,left,['8'],4,0.25584630000003017,,,9,18,Man,Rechts,1,
,xotask,xotask,dotcolour,58,4,298,598,main,positivefb,-99,average,64,0.817904400000316,['c'],1,left,['8'],4,0.2614571999997679,,,9,18,Man,Rechts,1,
,xotask,xotask,dotcolour,59,4,299,599,main,positivefb,-99,hard,51,0.6685793000001468,['c'],1,left,['8'],4,0.22581129999980476,,,9,18,Man,Rechts,1,
,xotask,xotask,dotcolour,0,0,0,600,training,positivefb,71,easy,73,1.5837415000000874,['c'],1,left,['9'],5,0.843599599999834,,,9,18,Man,Rechts,1,
,xotask,xotask,dotcolour,1,0,1,601,training,positivefb,79,easy,8,0.683114100000239,['n'],1,right,['0'],6,0.2144148000002133,,,9,18,Man,Rechts,1,
,xotask,xotask,dotcolour,2,0,2,602,training,positivefb,74,average,62,6.2164607999998225,['c'],1,left,['0'],6,0.6530760999999075,,,9,18,Man,Rechts,1,
,xotask,xotask,dotcolour,3,0,3,603,training,positivefb,68,hard,50,1.4658572000003005,['n'],0,left,['0'],6,0.2647426000003179,,,9,18,Man,Rechts,1,
,xotask,xotask,dotcolour,4,0,4,604,training,positivefb,89,average,64,1.100133299999925,['c'],1,left,['9'],5,0.3934921999998551,,,9,18,Man,Rechts,1,
,xotask,xotask,dotcolour,5,0,5,605,training,positivefb,80,hard,25,0.7003967999999077,['n'],1,right,['0'],6,0.23008170000002792,,,9,18,Man,Rechts,1,
,xotask,xotask,dotcolour,6,0,6,606,training,positivefb,83,hard,52,1.8008773999999903,['c'],1,left,['9'],5,0.1336938999997983,,,9,18,Man,Rechts,1,
,xotask,xotask,dotcolour,7,0,7,607,training,positivefb,68,average,17,4.6826295000000755,['n'],1,right,['9'],5,0.33317859999988286,,,9,18,Man,Rechts,1,
,xotask,xotask,dotcolour,8,0,8,608,training,positivefb,92,easy,72,1.1496163000001616,['c'],1,left,['9'],5,0.226093100000071,,,9,18,Man,Rechts,1,
,xotask,xotask,dotcolour,9,0,9,609,training,positivefb,94,hard,29,0.5333317999998144,['n'],1,right,['9'],5,0.23594460000003892,,,9,18,Man,Rechts,1,
,xotask,xotask,dotcolour,10,0,10,610,training,positivefb,76,hard,52,0.5171709000001101,['n'],0,left,['1'],1,0.7820442000002004,,,9,18,Man,Rechts,1,
,xotask,xotask,dotcolour,11,0,11,611,training,positivefb,98,easy,6,0.8337499999997817,['n'],1,right,['0'],6,0.22131739999986166,,,9,18,Man,Rechts,1,
,xotask,xotask,dotcolour,12,0,12,612,training,positivefb,89,average,16,0.5173485000000255,['n'],1,right,['0'],6,0.2163039000001845,,,9,18,Man,Rechts,1,
,xotask,xotask,dotcolour,13,0,13,613,training,positivefb,98,hard,52,0.8837837000000945,['c'],1,left,['0'],6,0.16473349999978382,,,9,18,Man,Rechts,1,
,xotask,xotask,dotcolour,14,0,14,614,training,positivefb,97,average,18,0.6345840000003591,['n'],1,right,['0'],6,0.18952459999991333,,,9,18,Man,Rechts,1,
,xotask,xotask,dotcolour,15,0,15,615,training,positivefb,91,hard,27,0.7840721000002304,['n'],1,right,['0'],6,0.17397750000009182,,,9,18,Man,Rechts,1,
,xotask,xotask,dotcolour,16,0,16,616,training,positivefb,84,hard,26,1.5340823999999884,['n'],1,right,['9'],5,0.17003230000000258,,,9,18,Man,Rechts,1,
,xotask,xotask,dotcolour,17,0,17,617,training,positivefb,90,hard,51,1.6161620000002586,['n'],0,left,['0'],6,0.23435250000011365,,,9,18,Man,Rechts,1,
,xotask,xotask,dotcolour,18,0,18,618,training,positivefb,97,easy,72,0.6833099000000402,['c'],1,left,['0'],6,0.14238550000027317,,,9,18,Man,Rechts,1,
,xotask,xotask,dotcolour,19,0,19,619,training,positivefb,82,hard,53,0.6833855999998377,['n'],0,left,['1'],1,0.6853111000000354,,,9,18,Man,Rechts,1,
,xotask,xotask,dotcolour,20,0,20,620,training,positivefb,77,average,61,1.9999081000000842,['n'],0,left,['8'],4,0.24254100000007384,,,9,18,Man,Rechts,1,
,xotask,xotask,dotcolour,21,0,21,621,training,positivefb,92,average,18,0.8844159999998737,['n'],1,right,['9'],5,0.20519119999971736,,,9,18,Man,Rechts,1,
,xotask,xotask,dotcolour,22,0,22,622,training,positivefb,92,easy,5,0.7839404999999715,['n'],1,right,['0'],6,0.18182149999984176,,,9,18,Man,Rechts,1,
,xotask,xotask,dotcolour,23,0,23,623,training,positivefb,93,easy,7,0.8326760999998442,['n'],1,right,['0'],6,0.22148500000002969,,,9,18,Man,Rechts,1,
,xotask,xotask,dotcolour,24,0,24,624,training,positivefb,98,hard,29,0.6002199999998084,['n'],1,right,['9'],5,0.2523919999998725,,,9,18,Man,Rechts,1,
,xotask,xotask,dotcolour,25,0,25,625,training,positivefb,96,average,63,0.8503675000001749,['c'],1,left,['9'],5,0.21647519999987708,,,9,18,Man,Rechts,1,
,xotask,xotask,dotcolour,26,0,26,626,training,positivefb,47,easy,74,0.5836176999996496,['n'],0,left,['1'],1,0.7775159000002532,,,9,18,Man,Rechts,1,
,xotask,xotask,dotcolour,27,0,27,627,training,positivefb,92,easy,71,0.8339069000003292,['c'],1,left,['9'],5,0.13690429999996923,,,9,18,Man,Rechts,1,
,xotask,xotask,dotcolour,28,0,28,628,training,positivefb,89,hard,54,0.6679159999998774,['c'],1,left,['9'],5,0.24917980000009265,,,9,18,Man,Rechts,1,
,xotask,xotask,dotcolour,29,0,29,629,training,positivefb,87,hard,25,1.0996903000000202,['c'],0,right,['9'],5,0.2108658000001924,,,9,18,Man,Rechts,1,
,xotask,xotask,dotcolour,30,0,30,630,training,positivefb,90,easy,73,0.650582299999769,['c'],1,left,['0'],6,0.264548300000115,,,9,18,Man,Rechts,1,
,xotask,xotask,dotcolour,31,0,31,631,training,positivefb,90,average,63,0.5667407000000821,['c'],1,left,['9'],5,0.2472048999998151,,,9,18,Man,Rechts,1,
,xotask,xotask,dotcolour,32,0,32,632,training,positivefb,98,hard,27,0.516791000000012,['n'],1,right,['9'],5,0.20949780000000828,,,9,18,Man,Rechts,1,
,xotask,xotask,dotcolour,33,0,33,633,training,positivefb,93,average,17,0.6662990999998328,['n'],1,right,['9'],5,0.23891169999978956,,,9,18,Man,Rechts,1,
,xotask,xotask,dotcolour,34,0,34,634,training,positivefb,95,easy,9,0.6835643999997956,['n'],1,right,['0'],6,0.2335213000001204,,,9,18,Man,Rechts,1,
,xotask,xotask,dotcolour,35,0,35,635,training,positivefb,55,easy,73,0.5503950000002078,['n'],0,left,['2'],2,0.7306020999999419,,,9,18,Man,Rechts,1,
,xotask,xotask,dotcolour,36,0,36,636,training,positivefb,91,hard,51,1.0662499000000025,['c'],1,left,['9'],5,0.23509819999981119,,,9,18,Man,Rechts,1,
,xotask,xotask,dotcolour,37,0,37,637,training,positivefb,94,hard,50,0.6339447999998811,['c'],1,left,['0'],6,0.2969382000001133,,,9,18,Man,Rechts,1,
,xotask,xotask,dotcolour,38,0,38,638,training,positivefb,92,average,15,0.7338048999999955,['n'],1,right,['9'],5,0.19959499999959007,,,9,18,Man,Rechts,1,
,xotask,xotask,dotcolour,39,0,39,639,training,positivefb,99,average,61,0.4511778000000959,['c'],1,left,['9'],5,0.19011819999968793,,,9,18,Man,Rechts,1,
,xotask,xotask,dotcolour,40,0,40,640,training,positivefb,83,easy,5,0.4165428000001157,['n'],1,right,['9'],5,0.21369410000033895,,,9,18,Man,Rechts,1,
,xotask,xotask,dotcolour,41,0,41,641,training,positivefb,96,average,16,0.6159455000001799,['n'],1,right,['9'],5,0.24462190000031114,,,9,18,Man,Rechts,1,
,xotask,xotask,dotcolour,42,0,42,642,training,positivefb,87,average,15,0.6831625999998323,['n'],1,right,['0'],6,0.1928422999999384,,,9,18,Man,Rechts,1,
,xotask,xotask,dotcolour,43,0,43,643,training,positivefb,100,average,62,0.7330950999999004,['c'],1,left,['8'],4,0.42752040000004854,,,9,18,Man,Rechts,1,
,xotask,xotask,dotcolour,44,0,44,644,training,positivefb,98,easy,5,0.932038299999931,['n'],1,right,['9'],5,0.3264971999997215,,,9,18,Man,Rechts,1,
,xotask,xotask,dotcolour,45,0,45,645,training,positivefb,97,easy,6,0.9167780000002494,['n'],1,right,['0'],6,0.3089411000000837,,,9,18,Man,Rechts,1,
,xotask,xotask,dotcolour,46,0,46,646,training,positivefb,83,hard,27,1.6006295000001955,['n'],1,right,['9'],5,0.18506330000036542,,,9,18,Man,Rechts,1,
,xotask,xotask,dotcolour,47,0,47,647,training,positivefb,86,hard,51,0.8498306000001321,['c'],1,left,['8'],4,0.2306746999997813,,,9,18,Man,Rechts,1,
,xotask,xotask,dotcolour,48,0,48,648,training,positivefb,47,easy,70,0.6507126999999855,['n'],0,left,['2'],2,1.0201453999998193,,,9,18,Man,Rechts,1,
,xotask,xotask,dotcolour,49,0,49,649,training,positivefb,96,easy,6,0.8165341999997509,['n'],1,right,['0'],6,0.2744743999996899,,,9,18,Man,Rechts,1,
,xotask,xotask,dotcolour,50,0,50,650,training,positivefb,95,easy,72,1.0831107999997585,['n'],0,left,['9'],5,0.2522226999999475,,,9,18,Man,Rechts,1,
,xotask,xotask,dotcolour,51,0,51,651,training,positivefb,97,hard,28,0.8334568000000218,['n'],1,right,['9'],5,0.2734082000001763,,,9,18,Man,Rechts,1,
,xotask,xotask,dotcolour,52,0,52,652,training,positivefb,93,average,60,0.8323823999999149,['c'],1,left,['9'],5,0.29335089999995034,,,9,18,Man,Rechts,1,
,xotask,xotask,dotcolour,53,0,53,653,training,positivefb,92,easy,9,0.617170100000294,['n'],1,right,['9'],5,0.2490671000000475,,,9,18,Man,Rechts,1,
,xotask,xotask,dotcolour,54,0,54,654,training,positivefb,95,hard,28,0.8332224000000679,['n'],1,right,['9'],5,0.2547313000000031,,,9,18,Man,Rechts,1,
,xotask,xotask,dotcolour,55,0,55,655,training,positivefb,96,average,15,0.6841707999997197,['n'],1,right,['9'],5,0.2885965999998916,,,9,18,Man,Rechts,1,
,xotask,xotask,dotcolour,56,0,56,656,training,positivefb,91,easy,74,0.8508529999999155,['c'],1,left,['9'],5,0.20404529999996157,,,9,18,Man,Rechts,1,
,xotask,xotask,dotcolour,57,0,57,657,training,positivefb,75,average,63,0.8180279999996856,['n'],0,left,['9'],5,0.22643099999959304,,,9,18,Man,Rechts,1,
,xotask,xotask,dotcolour,58,0,58,658,training,positivefb,88,average,15,0.716709499999979,['n'],1,right,['9'],5,0.2217051999996329,,,9,18,Man,Rechts,1,
,xotask,xotask,dotcolour,59,0,59,659,training,positivefb,95,average,60,0.7827551999998832,['c'],1,left,['9'],5,0.26181389999965177,,,9,18,Man,Rechts,1,
,xotask,xotask,dotcolour,0,1,60,660,training,positivefb,97,easy,72,0.7515769000001455,['c'],1,left,['9'],5,0.28610230000003867,,,9,18,Man,Rechts,1,
,xotask,xotask,dotcolour,1,1,61,661,training,positivefb,87,average,16,0.6661812000002101,['n'],1,right,['0'],6,0.25653060000013284,,,9,18,Man,Rechts,1,
,xotask,xotask,dotcolour,2,1,62,662,training,positivefb,72,hard,27,1.9164003999999295,['n'],1,right,['8'],4,0.25730709999970713,,,9,18,Man,Rechts,1,
,xotask,xotask,dotcolour,3,1,63,663,training,positivefb,92,average,15,0.8679277999999613,['n'],1,right,['9'],5,0.1732809999998608,,,9,18,Man,Rechts,1,
,xotask,xotask,dotcolour,4,1,64,664,training,positivefb,95,average,63,0.6174095000001216,['c'],1,left,['9'],5,0.1895408000000316,,,9,18,Man,Rechts,1,
,xotask,xotask,dotcolour,5,1,65,665,training,positivefb,86,hard,25,0.6158325999999761,['n'],1,right,['0'],6,0.2461663000003682,,,9,18,Man,Rechts,1,
,xotask,xotask,dotcolour,6,1,66,666,training,positivefb,90,hard,54,1.8666751000000659,['c'],1,left,['9'],5,0.16949320000003354,,,9,18,Man,Rechts,1,
,xotask,xotask,dotcolour,7,1,67,667,training,positivefb,99,hard,53,0.716425000000072,['c'],1,left,['0'],6,0.2224357999998574,,,9,18,Man,Rechts,1,
,xotask,xotask,dotcolour,8,1,68,668,training,positivefb,88,hard,54,1.150463899999977,['c'],1,left,['9'],5,0.1758335999998053,,,9,18,Man,Rechts,1,
