starttime,task,fbtask,firsttask,withinblocktrial,block,withintasktrial,trial,running,feedback,fbscore,difflevel,n_xes,rt,resp,cor,cresp,conf_press,cj,RTconf,reddots,stoptime,sub,age,gender,handedness,session,
1714633386,xotask,xotask,dotcolour,0,0,0,0,training,positivefb,82,average,62,10.150375800000006,['c'],1,left,['9'],2,6.70351770000002,,,1,20,Vrouw,Links,1,
,xotask,xotask,dotcolour,1,0,1,1,training,positivefb,100,easy,74,8.033427299999971,['c'],1,left,['2'],5,5.328531899999916,,,1,20,Vrouw,Links,1,
,xotask,xotask,dotcolour,2,0,2,2,training,positivefb,99,average,18,1.517652699999985,['n'],1,right,['2'],5,6.3809492999999975,,,1,20,Vrouw,Links,1,
,xotask,xotask,dotcolour,3,0,3,3,training,positivefb,86,hard,50,2.133723600000053,['c'],1,left,['9'],2,4.52654009999992,,,1,20,Vrouw,Links,1,
,xotask,xotask,dotcolour,4,0,4,4,training,positivefb,99,average,17,1.7827743000000282,['n'],1,right,['9'],2,2.5853687999999693,,,1,20,Vrouw,Links,1,
,xotask,xotask,dotcolour,5,0,5,5,training,positivefb,96,easy,72,2.3842854000001807,['c'],1,left,['3'],4,2.010226399999965,,,1,20,Vrouw,Links,1,
,xotask,xotask,dotcolour,6,0,6,6,training,positivefb,33,hard,52,3.4344039000000066,['n'],0,left,['2'],5,1.224186500000087,,,1,20,Vrouw,Links,1,
,xotask,xotask,dotcolour,7,0,7,7,training,positivefb,93,easy,8,2.1338857000000644,['n'],1,right,['9'],2,0.5305281000000832,,,1,20,Vrouw,Links,1,
,xotask,xotask,dotcolour,8,0,8,8,training,positivefb,4,easy,72,1.4169392000001153,['n'],0,left,['0'],1,3.6055407999999716,,,1,20,Vrouw,Links,1,
,xotask,xotask,dotcolour,9,0,9,9,training,positivefb,100,easy,72,4.650418500000114,['c'],1,left,['9'],2,4.530313800000158,,,1,20,Vrouw,Links,1,
,xotask,xotask,dotcolour,10,0,10,10,training,positivefb,96,easy,7,2.5671869000000243,['n'],1,right,['8'],3,1.5726497999999083,,,1,20,Vrouw,Links,1,
,xotask,xotask,dotcolour,11,0,11,11,training,positivefb,86,hard,50,2.3337134999999307,['c'],1,left,['9'],2,0.9045384000000922,,,1,20,Vrouw,Links,1,
,xotask,xotask,dotcolour,12,0,12,12,training,positivefb,87,hard,27,2.5663590000001477,['n'],1,right,['0'],1,0.5663872000000083,,,1,20,Vrouw,Links,1,
,xotask,xotask,dotcolour,13,0,13,13,training,positivefb,97,average,60,2.867321200000106,['c'],1,left,['3'],4,3.6684944000000996,,,1,20,Vrouw,Links,1,
,xotask,xotask,dotcolour,14,0,14,14,training,positivefb,95,average,62,2.350277200000164,['c'],1,left,['2'],5,2.459194000000025,,,1,20,Vrouw,Links,1,
,xotask,xotask,dotcolour,15,0,15,15,training,positivefb,96,average,64,3.2178292000000965,['c'],1,left,['2'],5,2.0718895999998495,,,1,20,Vrouw,Links,1,
,xotask,xotask,dotcolour,16,0,16,16,training,positivefb,97,easy,6,2.0844065000001137,['n'],1,right,['9'],2,0.768426399999953,,,1,20,Vrouw,Links,1,
,xotask,xotask,dotcolour,17,0,17,17,training,positivefb,65,hard,53,1.6847170000000915,['n'],0,left,['8'],3,2.02274199999988,,,1,20,Vrouw,Links,1,
,xotask,xotask,dotcolour,18,0,18,18,training,positivefb,92,hard,54,4.016982000000098,['c'],1,left,['3'],4,1.8133854999998675,,,1,20,Vrouw,Links,1,
,xotask,xotask,dotcolour,19,0,19,19,training,positivefb,98,easy,5,1.6340576000000056,['n'],1,right,['1'],6,2.5867496999999275,,,1,20,Vrouw,Links,1,
,xotask,xotask,dotcolour,20,0,20,20,training,positivefb,19,average,18,2.0679686999999376,['c'],0,right,['2'],5,2.552048700000114,,,1,20,Vrouw,Links,1,
,xotask,xotask,dotcolour,21,0,21,21,training,positivefb,47,hard,54,3.0171437999999853,['n'],0,left,['9'],2,2.4975753999999597,,,1,20,Vrouw,Links,1,
,xotask,xotask,dotcolour,22,0,22,22,training,positivefb,85,hard,28,3.217590400000063,['n'],1,right,['0'],1,1.7488660000001346,,,1,20,Vrouw,Links,1,
,xotask,xotask,dotcolour,23,0,23,23,training,positivefb,74,hard,26,2.384916100000055,['n'],1,right,['3'],4,1.2217664999998306,,,1,20,Vrouw,Links,1,
,xotask,xotask,dotcolour,0,1,24,72,training,positivefb,99,hard,51,2.0012428,['c'],1,left,['3'],4,2.5705704999998034,,,1,20,Vrouw,Links,1,
,xotask,xotask,dotcolour,1,1,25,73,training,positivefb,66,average,62,2.633590900000172,['c'],1,left,['9'],2,0.6333809999998721,,,1,20,Vrouw,Links,1,
,xotask,xotask,dotcolour,2,1,26,74,training,positivefb,86,easy,8,1.3174859000000652,['n'],1,right,['1'],6,1.2997180999998363,,,1,20,Vrouw,Links,1,
,xotask,xotask,dotcolour,3,1,27,75,training,positivefb,98,average,63,3.3676115000000664,['c'],1,left,['2'],5,1.5285851999999522,,,1,20,Vrouw,Links,1,
,xotask,xotask,dotcolour,4,1,28,76,training,positivefb,93,hard,51,1.9005652999999256,['c'],1,left,['2'],5,1.3925531999998384,,,1,20,Vrouw,Links,1,
,xotask,xotask,dotcolour,5,1,29,77,training,positivefb,89,average,16,1.083851999999979,['n'],1,right,['2'],5,0.876799599999913,,,1,20,Vrouw,Links,1,
,xotask,xotask,dotcolour,6,1,30,78,training,positivefb,98,average,64,1.417053800000076,['c'],1,left,['1'],6,0.7217631999999412,,,1,20,Vrouw,Links,1,
,xotask,xotask,dotcolour,7,1,31,79,training,positivefb,82,easy,73,1.6667099000001144,['c'],1,left,['1'],6,0.6189150000000154,,,1,20,Vrouw,Links,1,
,xotask,xotask,dotcolour,8,1,32,80,training,positivefb,92,average,62,1.8154081000000133,['c'],1,left,['1'],6,0.28926019999994423,,,1,20,Vrouw,Links,1,
,xotask,xotask,dotcolour,9,1,33,81,training,positivefb,88,easy,70,1.1669105999999374,['n'],0,left,['1'],6,0.3832001999999193,,,1,20,Vrouw,Links,1,
,xotask,xotask,dotcolour,10,1,34,82,training,positivefb,78,hard,52,1.9671786999999767,['c'],1,left,['9'],2,0.6732721000000765,,,1,20,Vrouw,Links,1,
,xotask,xotask,dotcolour,11,1,35,83,training,positivefb,91,easy,9,2.549141899999995,['n'],1,right,['9'],2,0.5443814999998722,,,1,20,Vrouw,Links,1,
,xotask,xotask,dotcolour,12,1,36,84,training,positivefb,97,easy,8,1.0840319999999792,['n'],1,right,['1'],6,0.8480521000001318,,,1,20,Vrouw,Links,1,
,xotask,xotask,dotcolour,13,1,37,85,training,positivefb,99,average,19,1.0492744999999104,['n'],1,right,['1'],6,0.3884720000000925,,,1,20,Vrouw,Links,1,
,xotask,xotask,dotcolour,14,1,38,86,training,positivefb,89,hard,25,0.8497615999999653,['n'],1,right,['1'],6,0.27535599999987426,,,1,20,Vrouw,Links,1,
,xotask,xotask,dotcolour,15,1,39,87,training,positivefb,93,average,64,1.0506494999999632,['c'],1,left,['1'],6,0.4225969999999961,,,1,20,Vrouw,Links,1,
,xotask,xotask,dotcolour,16,1,40,88,training,positivefb,29,hard,50,1.8508007999998881,['n'],0,left,['3'],4,1.019546800000171,,,1,20,Vrouw,Links,1,
,xotask,xotask,dotcolour,17,1,41,89,training,positivefb,94,hard,54,3.2005739000001086,['c'],1,left,['0'],1,1.2348962999999458,,,1,20,Vrouw,Links,1,
,xotask,xotask,dotcolour,18,1,42,90,training,positivefb,42,easy,73,1.350684999999885,['n'],0,left,['0'],1,2.2200112999998964,,,1,20,Vrouw,Links,1,
,xotask,xotask,dotcolour,19,1,43,91,training,positivefb,95,average,19,1.3339063000000806,['c'],0,right,['1'],6,0.35699499999986983,,,1,20,Vrouw,Links,1,
,xotask,xotask,dotcolour,20,1,44,92,training,positivefb,83,average,15,1.4005596000001788,['n'],1,right,['1'],6,0.6234102000000803,,,1,20,Vrouw,Links,1,
,xotask,xotask,dotcolour,21,1,45,93,training,positivefb,88,easy,8,1.182803199999853,['n'],1,right,['1'],6,0.19106169999986378,,,1,20,Vrouw,Links,1,
,xotask,xotask,dotcolour,22,1,46,94,training,positivefb,94,easy,70,1.3664686000001893,['c'],1,left,['1'],6,0.6166490999999041,,,1,20,Vrouw,Links,1,
,xotask,xotask,dotcolour,23,1,47,95,training,positivefb,76,hard,26,1.5171849999999267,['c'],0,right,['1'],6,0.27534990000003745,,,1,20,Vrouw,Links,1,
,xotask,xotask,dotcolour,0,2,48,144,training,positivefb,96,easy,74,1.1000673000000916,['c'],1,left,['1'],6,0.28820089999999254,,,1,20,Vrouw,Links,1,
,xotask,xotask,dotcolour,1,2,49,145,training,positivefb,91,average,19,0.9337736999998469,['n'],1,right,['1'],6,0.16828370000007453,,,1,20,Vrouw,Links,1,
,xotask,xotask,dotcolour,2,2,50,146,training,positivefb,98,hard,29,1.050520000000006,['n'],1,right,['1'],6,0.2955985999999484,,,1,20,Vrouw,Links,1,
,xotask,xotask,dotcolour,3,2,51,147,training,positivefb,99,average,15,0.7669028999998773,['n'],1,right,['1'],6,0.26886500000000524,,,1,20,Vrouw,Links,1,
,xotask,xotask,dotcolour,4,2,52,148,training,positivefb,97,hard,50,0.816676599999937,['c'],1,left,['2'],5,0.6581754999999703,,,1,20,Vrouw,Links,1,
,xotask,xotask,dotcolour,5,2,53,149,training,positivefb,1,average,19,1.1334766999998465,['c'],0,right,['0'],1,4.17046809999988,,,1,20,Vrouw,Links,1,
,xotask,xotask,dotcolour,6,2,54,150,training,positivefb,95,average,62,2.333883899999819,['c'],1,left,['1'],6,0.3009295000001657,,,1,20,Vrouw,Links,1,
,xotask,xotask,dotcolour,7,2,55,151,training,positivefb,94,easy,74,1.6336048999999093,['c'],1,left,['2'],5,0.4157900000000154,,,1,20,Vrouw,Links,1,
,xotask,xotask,dotcolour,8,2,56,152,training,positivefb,83,hard,53,1.1673150000001442,['c'],1,left,['2'],5,0.2406284000001051,,,1,20,Vrouw,Links,1,
,xotask,xotask,dotcolour,9,2,57,153,training,positivefb,93,easy,72,1.1328029999999671,['c'],1,left,['2'],5,0.2253932999999506,,,1,20,Vrouw,Links,1,
,xotask,xotask,dotcolour,10,2,58,154,training,positivefb,99,hard,26,0.6830102999999781,['n'],1,right,['2'],5,1.165858099999923,,,1,20,Vrouw,Links,1,
,xotask,xotask,dotcolour,11,2,59,155,training,positivefb,90,easy,9,0.6836782999998832,['n'],1,right,['2'],5,0.23623250000014195,,,1,20,Vrouw,Links,1,
,xotask,xotask,dotcolour,12,2,60,156,training,positivefb,90,hard,50,1.6827226000000337,['c'],1,left,['3'],4,1.3835679000001164,,,1,20,Vrouw,Links,1,
,xotask,xotask,dotcolour,13,2,61,157,training,positivefb,99,easy,7,0.9841431999998349,['n'],1,right,['1'],6,0.4088406999999279,,,1,20,Vrouw,Links,1,
,xotask,xotask,dotcolour,14,2,62,158,training,positivefb,75,average,64,2.0998729000000367,['n'],0,left,['1'],6,0.23626039999999193,,,1,20,Vrouw,Links,1,
,xotask,xotask,dotcolour,15,2,63,159,training,positivefb,94,average,60,1.56799100000012,['c'],1,left,['2'],5,0.39713640000013584,,,1,20,Vrouw,Links,1,
,xotask,xotask,dotcolour,16,2,64,160,training,positivefb,95,average,17,0.7009548000000905,['n'],1,right,['1'],6,0.3611603000001651,,,1,20,Vrouw,Links,1,
,xotask,xotask,dotcolour,17,2,65,161,training,positivefb,95,easy,70,0.9822679999999764,['c'],1,left,['1'],6,0.2207119000001967,,,1,20,Vrouw,Links,1,
,xotask,xotask,dotcolour,18,2,66,162,training,positivefb,93,easy,74,1.1827573999999004,['c'],1,left,['1'],6,0.2606508000001213,,,1,20,Vrouw,Links,1,
,xotask,xotask,dotcolour,19,2,67,163,training,positivefb,96,easy,71,0.6841582999998082,['c'],1,left,['1'],6,0.19845009999994545,,,1,20,Vrouw,Links,1,
,xotask,xotask,dotcolour,20,2,68,164,training,positivefb,80,average,16,0.9838869999998678,['n'],1,right,['1'],6,0.3994270000000597,,,1,20,Vrouw,Links,1,
,xotask,xotask,dotcolour,21,2,69,165,training,positivefb,95,average,63,0.7498287000000801,['c'],1,left,['1'],6,0.1850088000001051,,,1,20,Vrouw,Links,1,
,xotask,xotask,dotcolour,22,2,70,166,training,positivefb,96,easy,6,0.7507706999999755,['n'],1,right,['1'],6,0.2203113000000485,,,1,20,Vrouw,Links,1,
,xotask,xotask,dotcolour,23,2,71,167,training,positivefb,95,hard,51,0.7657217000000855,['c'],1,left,['1'],6,0.21247779999998784,,,1,20,Vrouw,Links,1,
,xotask,xotask,dotcolour,0,3,72,216,training,positivefb,96,easy,9,0.9001987000001463,['n'],1,right,['1'],6,0.3188654000000497,,,1,20,Vrouw,Links,1,
,xotask,xotask,dotcolour,1,3,73,217,training,positivefb,95,easy,74,0.6511488999999528,['c'],1,left,['1'],6,0.4159100000001672,,,1,20,Vrouw,Links,1,
,xotask,xotask,dotcolour,2,3,74,218,training,positivefb,89,hard,54,1.2505751000001055,['c'],1,left,['1'],6,0.19702440000014576,,,1,20,Vrouw,Links,1,
,xotask,xotask,dotcolour,3,3,75,219,training,positivefb,94,easy,6,1.8499517999998716,['n'],1,right,['1'],6,0.46737579999989975,,,1,20,Vrouw,Links,1,
,xotask,xotask,dotcolour,4,3,76,220,training,positivefb,81,average,61,0.7002795999999307,['c'],1,left,['1'],6,0.2691006000000016,,,1,20,Vrouw,Links,1,
,xotask,xotask,dotcolour,5,3,77,221,training,positivefb,79,hard,26,0.832921400000032,['n'],1,right,['1'],6,0.20913150000001224,,,1,20,Vrouw,Links,1,
,xotask,xotask,dotcolour,6,3,78,222,training,positivefb,88,average,17,0.8012086000001091,['n'],1,right,['1'],6,0.35309129999996003,,,1,20,Vrouw,Links,1,
,xotask,xotask,dotcolour,7,3,79,223,training,positivefb,77,easy,72,1.432314599999927,['c'],1,left,['2'],5,0.28994299999999384,,,1,20,Vrouw,Links,1,
,xotask,xotask,dotcolour,8,3,80,224,training,positivefb,87,average,62,1.0490618999999697,['c'],1,left,['1'],6,0.17298909999999523,,,1,20,Vrouw,Links,1,
,xotask,xotask,dotcolour,9,3,81,225,training,positivefb,86,easy,70,0.7998176000000967,['c'],1,left,['1'],6,0.19821059999981117,,,1,20,Vrouw,Links,1,
,xotask,xotask,dotcolour,10,3,82,226,training,positivefb,93,average,17,0.8667413000000579,['n'],1,right,['1'],6,0.13934070000004795,,,1,20,Vrouw,Links,1,
,xotask,xotask,dotcolour,11,3,83,227,training,positivefb,92,hard,51,0.6508275999999569,['n'],0,left,['1'],6,0.16391969999995126,,,1,20,Vrouw,Links,1,
,xotask,xotask,dotcolour,12,3,84,228,training,positivefb,85,hard,53,1.033259500000213,['c'],1,left,['1'],6,0.23674159999995936,,,1,20,Vrouw,Links,1,
,xotask,xotask,dotcolour,13,3,85,229,training,positivefb,92,average,17,0.9019408000001476,['n'],1,right,['1'],6,0.11917840000000979,,,1,20,Vrouw,Links,1,
,xotask,xotask,dotcolour,14,3,86,230,training,positivefb,87,hard,26,0.6843853000000308,['n'],1,right,['1'],6,0.09472560000017438,,,1,20,Vrouw,Links,1,
,xotask,xotask,dotcolour,15,3,87,231,training,positivefb,90,average,16,0.9654211999998097,['c'],0,right,['1'],6,0.1260224999998627,,,1,20,Vrouw,Links,1,
,xotask,xotask,dotcolour,16,3,88,232,training,positivefb,80,hard,50,0.750396099999989,['n'],0,left,['1'],6,0.16253839999990305,,,1,20,Vrouw,Links,1,
,xotask,xotask,dotcolour,17,3,89,233,training,positivefb,97,easy,7,0.6667252999998254,['n'],1,right,['1'],6,0.12971070000003238,,,1,20,Vrouw,Links,1,
,xotask,xotask,dotcolour,18,3,90,234,training,positivefb,97,hard,52,0.766941400000178,['c'],1,left,['1'],6,0.1507194000000709,,,1,20,Vrouw,Links,1,
,xotask,xotask,dotcolour,19,3,91,235,training,positivefb,90,hard,54,1.9341213000000153,['n'],0,left,['1'],6,0.5959174000001894,,,1,20,Vrouw,Links,1,
,xotask,xotask,dotcolour,20,3,92,236,training,positivefb,83,average,62,2.65023280000014,['c'],1,left,['1'],6,0.16188649999980953,,,1,20,Vrouw,Links,1,
,xotask,xotask,dotcolour,21,3,93,237,training,positivefb,79,hard,25,0.6834616000001006,['n'],1,right,['1'],6,0.2323601000000508,,,1,20,Vrouw,Links,1,
,xotask,xotask,dotcolour,22,3,94,238,training,positivefb,66,hard,29,1.3333379999999124,['n'],1,right,['1'],6,0.14619059999995443,,,1,20,Vrouw,Links,1,
,xotask,xotask,dotcolour,23,3,95,239,training,positivefb,82,hard,26,0.6833025999999336,['n'],1,right,['1'],6,0.18548550000014075,,,1,20,Vrouw,Links,1,
,xotask,xotask,dotcolour,0,4,96,288,training,positivefb,88,average,61,2.30124950000004,['c'],1,left,['3'],4,0.4391931999998633,,,1,20,Vrouw,Links,1,
,xotask,xotask,dotcolour,1,4,97,289,training,positivefb,97,easy,73,1.2172103000000334,['c'],1,left,['2'],5,0.2853906000000279,,,1,20,Vrouw,Links,1,
,xotask,xotask,dotcolour,2,4,98,290,training,positivefb,85,average,18,0.7181246000000101,['n'],1,right,['1'],6,0.23652399999991758,,,1,20,Vrouw,Links,1,
,xotask,xotask,dotcolour,3,4,99,291,training,positivefb,92,average,17,0.9001150000001417,['n'],1,right,['1'],6,0.24001700000007986,,,1,20,Vrouw,Links,1,
,xotask,xotask,dotcolour,4,4,100,292,training,positivefb,80,hard,25,1.0164506999999503,['n'],1,right,['1'],6,0.15015149999999267,,,1,20,Vrouw,Links,1,
,xotask,xotask,dotcolour,5,4,101,293,training,positivefb,93,easy,8,0.649914200000012,['n'],1,right,['1'],6,0.1741906999998264,,,1,20,Vrouw,Links,1,
,xotask,xotask,dotcolour,6,4,102,294,training,positivefb,84,hard,53,1.7012643999999,['c'],1,left,['3'],4,0.5395417000001999,,,1,20,Vrouw,Links,1,
,xotask,xotask,dotcolour,7,4,103,295,training,positivefb,92,easy,5,0.8666470000000572,['n'],1,right,['1'],6,0.3311115000001337,,,1,20,Vrouw,Links,1,
,xotask,xotask,dotcolour,8,4,104,296,training,positivefb,80,easy,74,1.0830302000001666,['c'],1,left,['1'],6,0.15518440000005285,,,1,20,Vrouw,Links,1,
,xotask,xotask,dotcolour,9,4,105,297,training,positivefb,94,average,17,0.6677643000000444,['n'],1,right,['1'],6,0.14609100000006947,,,1,20,Vrouw,Links,1,
,xotask,xotask,dotcolour,10,4,106,298,training,positivefb,27,average,19,1.950950599999942,['c'],0,right,['3'],4,1.5900657999998202,,,1,20,Vrouw,Links,1,
,xotask,xotask,dotcolour,11,4,107,299,training,positivefb,76,hard,53,2.3675187000001188,['n'],0,left,['2'],5,0.5758375999998862,,,1,20,Vrouw,Links,1,
,xotask,xotask,dotcolour,12,4,108,300,training,positivefb,91,hard,29,0.7168371000000207,['n'],1,right,['1'],6,0.1557522999999037,,,1,20,Vrouw,Links,1,
,xotask,xotask,dotcolour,13,4,109,301,training,positivefb,93,easy,9,0.7004997999999887,['n'],1,right,['1'],6,0.09778610000012122,,,1,20,Vrouw,Links,1,
,xotask,xotask,dotcolour,14,4,110,302,training,positivefb,72,hard,53,1.4331915000000208,['c'],1,left,['3'],4,0.9805470000001151,,,1,20,Vrouw,Links,1,
,xotask,xotask,dotcolour,15,4,111,303,training,positivefb,30,easy,74,0.6838304000000335,['n'],0,left,['0'],1,1.4184539000000314,,,1,20,Vrouw,Links,1,
,xotask,xotask,dotcolour,16,4,112,304,training,positivefb,70,hard,52,1.9499791000000641,['c'],1,left,['1'],6,0.17204659999993055,,,1,20,Vrouw,Links,1,
,xotask,xotask,dotcolour,17,4,113,305,training,positivefb,74,average,62,1.284690400000045,['c'],1,left,['1'],6,0.3380514000000403,,,1,20,Vrouw,Links,1,
,xotask,xotask,dotcolour,18,4,114,306,training,positivefb,95,average,61,0.750268700000106,['c'],1,left,['1'],6,0.20698809999998957,,,1,20,Vrouw,Links,1,
,xotask,xotask,dotcolour,19,4,115,307,training,positivefb,97,average,61,0.8500588999997944,['c'],1,left,['1'],6,0.2044717999999648,,,1,20,Vrouw,Links,1,
,xotask,xotask,dotcolour,20,4,116,308,training,positivefb,95,hard,25,0.5504583999997976,['n'],1,right,['1'],6,0.11836859999993976,,,1,20,Vrouw,Links,1,
,xotask,xotask,dotcolour,21,4,117,309,training,positivefb,93,hard,29,0.9163863999999649,['n'],1,right,['1'],6,0.0932233000000906,,,1,20,Vrouw,Links,1,
,xotask,xotask,dotcolour,22,4,118,310,training,positivefb,88,average,16,1.0669118000000708,['n'],1,right,['1'],6,0.2555824000000939,,,1,20,Vrouw,Links,1,
,xotask,xotask,dotcolour,23,4,119,311,training,positivefb,69,average,60,0.7501072000000022,['n'],0,left,['0'],1,1.1272766999998112,,,1,20,Vrouw,Links,1,
,dotcolour,xotask,dotcolour,0,5,360,360,main,positivefb,-99,easy,,1.0340868000000683,['n'],1,right,['1'],6,0.24767530000008264,15,,1,20,Vrouw,Links,1,
,dotcolour,xotask,dotcolour,1,5,361,361,main,positivefb,-99,easy,,1.3337369000000763,['n'],1,right,['1'],6,0.19303450000006706,17,,1,20,Vrouw,Links,1,
,dotcolour,xotask,dotcolour,2,5,362,362,main,positivefb,-99,hard,,1.0347004999998717,['n'],1,right,['1'],6,0.1689373000001524,39,,1,20,Vrouw,Links,1,
,dotcolour,xotask,dotcolour,3,5,363,363,main,positivefb,-99,easy,,0.5848644000000149,['c'],1,left,['1'],6,0.29181790000006913,62,,1,20,Vrouw,Links,1,
,dotcolour,xotask,dotcolour,4,5,364,364,main,positivefb,-99,average,,0.9187063999997918,['n'],1,right,['1'],6,0.2605332000000544,28,,1,20,Vrouw,Links,1,
,dotcolour,xotask,dotcolour,5,5,365,365,main,positivefb,-99,average,,0.9845172000000275,['n'],1,right,['1'],6,0.21198649999996633,28,,1,20,Vrouw,Links,1,
,dotcolour,xotask,dotcolour,6,5,366,366,main,positivefb,-99,easy,,0.5343317000001662,['c'],1,left,['1'],6,0.2233114000000569,61,,1,20,Vrouw,Links,1,
,dotcolour,xotask,dotcolour,7,5,367,367,main,positivefb,-99,hard,,0.5846900999999889,['n'],0,left,['1'],6,0.20066869999982373,44,,1,20,Vrouw,Links,1,
,dotcolour,xotask,dotcolour,8,5,368,368,main,positivefb,-99,easy,,0.7830321999999796,['n'],1,right,['1'],6,0.19404899999994996,17,,1,20,Vrouw,Links,1,
,dotcolour,xotask,dotcolour,9,5,369,369,main,positivefb,-99,average,,0.7844250999999076,['n'],1,right,['1'],6,0.2190525000000889,27,,1,20,Vrouw,Links,1,
,dotcolour,xotask,dotcolour,10,5,370,370,main,positivefb,-99,hard,,0.6171728000001622,['c'],1,left,['1'],6,0.23489870000003066,44,,1,20,Vrouw,Links,1,
,dotcolour,xotask,dotcolour,11,5,371,371,main,positivefb,-99,average,,0.9673755000001165,['c'],1,left,['1'],6,0.07572219999997287,54,,1,20,Vrouw,Links,1,
,dotcolour,xotask,dotcolour,12,5,372,372,main,positivefb,-99,average,,0.7172296999999617,['c'],1,left,['1'],6,0.13240859999996246,53,,1,20,Vrouw,Links,1,
,dotcolour,xotask,dotcolour,13,5,373,373,main,positivefb,-99,hard,,1.5349796000000424,['n'],0,left,['3'],4,0.3947605000000749,41,,1,20,Vrouw,Links,1,
,dotcolour,xotask,dotcolour,14,5,374,374,main,positivefb,-99,hard,,1.9509210999999596,['n'],1,right,['3'],4,0.5497808000000077,35,,1,20,Vrouw,Links,1,
,dotcolour,xotask,dotcolour,15,5,375,375,main,positivefb,-99,hard,,1.2178701000000274,['n'],0,left,['2'],5,0.28821080000011534,43,,1,20,Vrouw,Links,1,
,dotcolour,xotask,dotcolour,16,5,376,376,main,positivefb,-99,easy,,0.8007764999999836,['n'],1,right,['2'],5,0.2852540000001227,16,,1,20,Vrouw,Links,1,
,dotcolour,xotask,dotcolour,17,5,377,377,main,positivefb,-99,average,,0.7348317999999381,['n'],1,right,['2'],5,0.31788159999996424,25,,1,20,Vrouw,Links,1,
,dotcolour,xotask,dotcolour,18,5,378,378,main,positivefb,-99,hard,,1.6677195999998276,['c'],0,right,['3'],4,0.4864729000000807,35,,1,20,Vrouw,Links,1,
,dotcolour,xotask,dotcolour,19,5,379,379,main,positivefb,-99,average,,0.8003740000001471,['n'],1,right,['2'],5,0.7882360999999491,26,,1,20,Vrouw,Links,1,
,dotcolour,xotask,dotcolour,20,5,380,380,main,positivefb,-99,hard,,1.0847539999999753,['n'],1,right,['2'],5,0.34627339999997275,35,,1,20,Vrouw,Links,1,
,dotcolour,xotask,dotcolour,21,5,381,381,main,positivefb,-99,easy,,0.6351807000000917,['n'],1,right,['2'],5,0.23665199999982178,19,,1,20,Vrouw,Links,1,
,dotcolour,xotask,dotcolour,22,5,382,382,main,positivefb,-99,easy,,0.8831135000000359,['n'],0,left,['0'],1,0.808839700000135,64,,1,20,Vrouw,Links,1,
,dotcolour,xotask,dotcolour,23,5,383,383,main,positivefb,-99,hard,,2.867065899999943,['n'],1,right,['1'],6,0.2628543000000718,39,,1,20,Vrouw,Links,1,
,dotcolour,xotask,dotcolour,24,5,384,384,main,positivefb,-99,average,,1.0840511999999762,['c'],1,left,['1'],6,0.130124700000124,51,,1,20,Vrouw,Links,1,
,dotcolour,xotask,dotcolour,25,5,385,385,main,positivefb,-99,easy,,0.6334630999999717,['c'],1,left,['1'],6,0.14076000000000022,63,,1,20,Vrouw,Links,1,
,dotcolour,xotask,dotcolour,26,5,386,386,main,positivefb,-99,easy,,0.4841555000000426,['c'],1,left,['1'],6,0.12491139999997358,62,,1,20,Vrouw,Links,1,
,dotcolour,xotask,dotcolour,27,5,387,387,main,positivefb,-99,hard,,1.2835285999999542,['n'],0,left,['2'],5,0.8775686000001315,42,,1,20,Vrouw,Links,1,
,dotcolour,xotask,dotcolour,28,5,388,388,main,positivefb,-99,average,,1.2011101999999028,['c'],1,left,['1'],6,0.16354520000004413,53,,1,20,Vrouw,Links,1,
,dotcolour,xotask,dotcolour,29,5,389,389,main,positivefb,-99,hard,,0.9161788999999771,['c'],1,left,['1'],6,0.08957549999990988,42,,1,20,Vrouw,Links,1,
,dotcolour,xotask,dotcolour,30,5,390,390,main,positivefb,-99,easy,,0.5665773999999146,['c'],1,left,['1'],6,0.15225470000018504,62,,1,20,Vrouw,Links,1,
,dotcolour,xotask,dotcolour,31,5,391,391,main,positivefb,-99,hard,,1.4348717000000306,['c'],0,right,['1'],6,0.12964519999991353,35,,1,20,Vrouw,Links,1,
,dotcolour,xotask,dotcolour,32,5,392,392,main,positivefb,-99,average,,0.7331269999999677,['n'],1,right,['2'],5,0.22421850000000632,26,,1,20,Vrouw,Links,1,
,dotcolour,xotask,dotcolour,33,5,393,393,main,positivefb,-99,average,,0.5669623999999658,['n'],1,right,['2'],5,0.25756959999989704,26,,1,20,Vrouw,Links,1,
,dotcolour,xotask,dotcolour,34,5,394,394,main,positivefb,-99,hard,,1.1344481999999516,['n'],0,left,['2'],5,0.19510760000002847,44,,1,20,Vrouw,Links,1,
,dotcolour,xotask,dotcolour,35,5,395,395,main,positivefb,-99,average,,0.6836508999999751,['c'],1,left,['1'],6,0.08103819999996631,52,,1,20,Vrouw,Links,1,
,dotcolour,xotask,dotcolour,36,5,396,396,main,positivefb,-99,hard,,1.1505621999999676,['c'],1,left,['1'],6,0.07290219999981673,42,,1,20,Vrouw,Links,1,
,dotcolour,xotask,dotcolour,37,5,397,397,main,positivefb,-99,average,,0.6996515999999247,['n'],1,right,['2'],5,0.13105769999992845,28,,1,20,Vrouw,Links,1,
,dotcolour,xotask,dotcolour,38,5,398,398,main,positivefb,-99,average,,0.6006813999999849,['c'],1,left,['1'],6,0.07103179999990061,51,,1,20,Vrouw,Links,1,
,dotcolour,xotask,dotcolour,39,5,399,399,main,positivefb,-99,average,,0.5498112000000219,['n'],1,right,['1'],6,0.5030497000000196,29,,1,20,Vrouw,Links,1,
,dotcolour,xotask,dotcolour,40,5,400,400,main,positivefb,-99,easy,,0.6002192999999352,['c'],1,left,['1'],6,0.11562030000004597,65,,1,20,Vrouw,Links,1,
,dotcolour,xotask,dotcolour,41,5,401,401,main,positivefb,-99,hard,,1.2334591000001183,['n'],1,right,['1'],6,0.14222689999996874,38,,1,20,Vrouw,Links,1,
,dotcolour,xotask,dotcolour,42,5,402,402,main,positivefb,-99,easy,,0.6834963000001153,['c'],1,left,['1'],6,0.11841430000004038,64,,1,20,Vrouw,Links,1,
,dotcolour,xotask,dotcolour,43,5,403,403,main,positivefb,-99,average,,0.7005663999998433,['c'],1,left,['1'],6,0.12646119999999428,54,,1,20,Vrouw,Links,1,
,dotcolour,xotask,dotcolour,44,5,404,404,main,positivefb,-99,hard,,1.3998503999998775,['n'],1,right,['2'],5,0.2023965999999291,39,,1,20,Vrouw,Links,1,
,dotcolour,xotask,dotcolour,45,5,405,405,main,positivefb,-99,average,,0.4675179000000753,['c'],1,left,['1'],6,0.12039049999998497,54,,1,20,Vrouw,Links,1,
,dotcolour,xotask,dotcolour,46,5,406,406,main,positivefb,-99,hard,,0.6172272000001158,['n'],1,right,['3'],4,0.2357859000001099,35,,1,20,Vrouw,Links,1,
,dotcolour,xotask,dotcolour,47,5,407,407,main,positivefb,-99,easy,,0.6667062999999871,['n'],1,right,['2'],5,0.20892909999997755,18,,1,20,Vrouw,Links,1,
,dotcolour,xotask,dotcolour,48,5,408,408,main,positivefb,-99,easy,,0.5000446000001375,['n'],1,right,['1'],6,0.19716650000009395,17,,1,20,Vrouw,Links,1,
,dotcolour,xotask,dotcolour,49,5,409,409,main,positivefb,-99,average,,0.5840322999999898,['c'],1,left,['1'],6,0.06310469999993984,55,,1,20,Vrouw,Links,1,
,dotcolour,xotask,dotcolour,50,5,410,410,main,positivefb,-99,easy,,0.46701899999993657,['n'],1,right,['1'],6,0.07523199999991448,16,,1,20,Vrouw,Links,1,
,dotcolour,xotask,dotcolour,51,5,411,411,main,positivefb,-99,easy,,0.7665668999998161,['c'],1,left,['1'],6,0.07451930000001994,61,,1,20,Vrouw,Links,1,
,dotcolour,xotask,dotcolour,52,5,412,412,main,positivefb,-99,easy,,0.7165333000000373,['c'],1,left,['1'],6,0.03561050000007526,62,,1,20,Vrouw,Links,1,
,dotcolour,xotask,dotcolour,53,5,413,413,main,positivefb,-99,easy,,0.3845557000001918,['n'],1,right,['2'],5,0.12389229999985218,16,,1,20,Vrouw,Links,1,
,dotcolour,xotask,dotcolour,54,5,414,414,main,positivefb,-99,average,,0.6174138999999741,['c'],0,right,['0'],1,0.9591528000000835,26,,1,20,Vrouw,Links,1,
,dotcolour,xotask,dotcolour,55,5,415,415,main,positivefb,-99,hard,,1.9663734000000659,['n'],1,right,['2'],5,0.7233608999999888,38,,1,20,Vrouw,Links,1,
,dotcolour,xotask,dotcolour,56,5,416,416,main,positivefb,-99,easy,,0.6501172999999199,['n'],1,right,['2'],5,0.3012897000000976,15,,1,20,Vrouw,Links,1,
,dotcolour,xotask,dotcolour,57,5,417,417,main,positivefb,-99,hard,,0.8835062000000562,['n'],0,left,['3'],4,0.5346795000000384,41,,1,20,Vrouw,Links,1,
,dotcolour,xotask,dotcolour,58,5,418,418,main,positivefb,-99,average,,0.9004178999998658,['c'],1,left,['1'],6,0.13388149999991583,52,,1,20,Vrouw,Links,1,
,dotcolour,xotask,dotcolour,59,5,419,419,main,positivefb,-99,hard,,0.9507933999998386,['c'],1,left,['2'],5,0.14711820000002263,42,,1,20,Vrouw,Links,1,
,dotcolour,xotask,dotcolour,60,5,420,420,main,positivefb,-99,easy,,0.5176142000000254,['n'],1,right,['1'],6,0.3777855000000727,19,,1,20,Vrouw,Links,1,
,dotcolour,xotask,dotcolour,61,5,421,421,main,positivefb,-99,hard,,0.9164355999998861,['c'],0,right,['1'],6,0.11925829999995585,36,,1,20,Vrouw,Links,1,
,dotcolour,xotask,dotcolour,62,5,422,422,main,positivefb,-99,average,,0.7003733000001375,['n'],1,right,['2'],5,0.18328150000002097,28,,1,20,Vrouw,Links,1,
,dotcolour,xotask,dotcolour,63,5,423,423,main,positivefb,-99,easy,,0.46677279999994425,['n'],1,right,['1'],6,0.39002319999985957,17,,1,20,Vrouw,Links,1,
,dotcolour,xotask,dotcolour,64,5,424,424,main,positivefb,-99,easy,,1.3161302999999407,['c'],1,left,['1'],6,0.15471100000013394,61,,1,20,Vrouw,Links,1,
,dotcolour,xotask,dotcolour,65,5,425,425,main,positivefb,-99,average,,0.5676321000000826,['n'],1,right,['1'],6,0.15076969999995526,25,,1,20,Vrouw,Links,1,
,dotcolour,xotask,dotcolour,66,5,426,426,main,positivefb,-99,average,,0.6841289999999844,['n'],0,left,['1'],6,0.18214030000012826,51,,1,20,Vrouw,Links,1,
,dotcolour,xotask,dotcolour,67,5,427,427,main,positivefb,-99,hard,,1.5843463999999585,['c'],1,left,['2'],5,0.5281605999998646,41,,1,20,Vrouw,Links,1,
,dotcolour,xotask,dotcolour,68,5,428,428,main,positivefb,-99,average,,0.6170538000001216,['c'],1,left,['1'],6,0.17152919999989535,51,,1,20,Vrouw,Links,1,
,dotcolour,xotask,dotcolour,69,5,429,429,main,positivefb,-99,hard,,0.716547300000002,['n'],1,right,['2'],5,0.16074269999990065,37,,1,20,Vrouw,Links,1,
,dotcolour,xotask,dotcolour,70,5,430,430,main,positivefb,-99,easy,,0.5344465000000582,['c'],1,left,['1'],6,0.13414729999999508,63,,1,20,Vrouw,Links,1,
,dotcolour,xotask,dotcolour,71,5,431,431,main,positivefb,-99,hard,,0.8167958999999883,['n'],0,left,['2'],5,0.15269910000006348,43,,1,20,Vrouw,Links,1,
,dotcolour,xotask,dotcolour,0,6,432,432,main,positivefb,-99,hard,,0.8995704999999816,['n'],1,right,['2'],5,0.5742789999999331,35,,1,20,Vrouw,Links,1,
,dotcolour,xotask,dotcolour,1,6,433,433,main,positivefb,-99,hard,,1.5994286000000102,['c'],0,right,['1'],6,0.1042581000001519,38,,1,20,Vrouw,Links,1,
,dotcolour,xotask,dotcolour,2,6,434,434,main,positivefb,-99,hard,,0.5997961999999006,['c'],1,left,['1'],6,0.10069629999998142,41,,1,20,Vrouw,Links,1,
,dotcolour,xotask,dotcolour,3,6,435,435,main,positivefb,-99,average,,0.5502733999999236,['n'],1,right,['2'],5,0.21170549999987998,27,,1,20,Vrouw,Links,1,
,dotcolour,xotask,dotcolour,4,6,436,436,main,positivefb,-99,easy,,0.5673134999999547,['n'],1,right,['1'],6,0.14957760000015696,17,,1,20,Vrouw,Links,1,
,dotcolour,xotask,dotcolour,5,6,437,437,main,positivefb,-99,easy,,0.48293680000006134,['n'],1,right,['1'],6,0.14896840000005795,18,,1,20,Vrouw,Links,1,
,dotcolour,xotask,dotcolour,6,6,438,438,main,positivefb,-99,easy,,0.5337025999999696,['n'],1,right,['1'],6,0.1701869999999417,15,,1,20,Vrouw,Links,1,
,dotcolour,xotask,dotcolour,7,6,439,439,main,positivefb,-99,easy,,0.5340905000000475,['n'],1,right,['1'],6,0.2228691999998773,19,,1,20,Vrouw,Links,1,
,dotcolour,xotask,dotcolour,8,6,440,440,main,positivefb,-99,easy,,0.5677139999997962,['c'],1,left,['1'],6,0.1202146000000539,65,,1,20,Vrouw,Links,1,
,dotcolour,xotask,dotcolour,9,6,441,441,main,positivefb,-99,easy,,0.5332461000000421,['c'],1,left,['1'],6,0.08689920000006168,62,,1,20,Vrouw,Links,1,
,dotcolour,xotask,dotcolour,10,6,442,442,main,positivefb,-99,hard,,0.9675202000000809,['c'],1,left,['2'],5,0.2856008000001111,44,,1,20,Vrouw,Links,1,
,dotcolour,xotask,dotcolour,11,6,443,443,main,positivefb,-99,easy,,0.41595540000002984,['c'],1,left,['1'],6,0.16227160000016738,63,,1,20,Vrouw,Links,1,
,dotcolour,xotask,dotcolour,12,6,444,444,main,positivefb,-99,average,,0.36635329999990063,['n'],1,right,['2'],5,0.1661469999999099,27,,1,20,Vrouw,Links,1,
,dotcolour,xotask,dotcolour,13,6,445,445,main,positivefb,-99,easy,,0.5677908000000116,['c'],1,left,['1'],6,0.10558080000009795,61,,1,20,Vrouw,Links,1,
,dotcolour,xotask,dotcolour,14,6,446,446,main,positivefb,-99,average,,0.5675108000000364,['c'],1,left,['1'],6,0.04746290000002773,55,,1,20,Vrouw,Links,1,
,dotcolour,xotask,dotcolour,15,6,447,447,main,positivefb,-99,easy,,0.5181259999999384,['n'],1,right,['2'],5,0.15424719999987246,18,,1,20,Vrouw,Links,1,
,dotcolour,xotask,dotcolour,16,6,448,448,main,positivefb,-99,hard,,0.9160961000000043,['n'],0,left,['1'],6,0.14421100000004117,45,,1,20,Vrouw,Links,1,
,dotcolour,xotask,dotcolour,17,6,449,449,main,positivefb,-99,average,,0.5996600999999373,['c'],1,left,['1'],6,0.10745140000017273,51,,1,20,Vrouw,Links,1,
,dotcolour,xotask,dotcolour,18,6,450,450,main,positivefb,-99,average,,0.4175384000000122,['n'],1,right,['2'],5,0.1436358000000837,25,,1,20,Vrouw,Links,1,
,dotcolour,xotask,dotcolour,19,6,451,451,main,positivefb,-99,average,,0.683997300000101,['c'],0,right,['1'],6,0.12764279999987593,28,,1,20,Vrouw,Links,1,
,dotcolour,xotask,dotcolour,20,6,452,452,main,positivefb,-99,hard,,0.44987849999984064,['n'],0,left,['2'],5,0.12975729999993746,41,,1,20,Vrouw,Links,1,
,dotcolour,xotask,dotcolour,21,6,453,453,main,positivefb,-99,average,,0.7499333000000661,['n'],1,right,['2'],5,0.11980240000002595,26,,1,20,Vrouw,Links,1,
,dotcolour,xotask,dotcolour,22,6,454,454,main,positivefb,-99,hard,,0.6509496000001036,['n'],1,right,['2'],5,0.1059875999999349,37,,1,20,Vrouw,Links,1,
,dotcolour,xotask,dotcolour,23,6,455,455,main,positivefb,-99,hard,,0.4830607000001237,['n'],1,right,['2'],5,0.17096109999988585,38,,1,20,Vrouw,Links,1,
,dotcolour,xotask,dotcolour,24,6,456,456,main,positivefb,-99,average,,0.45037329999991016,['c'],1,left,['1'],6,0.09878289999983281,54,,1,20,Vrouw,Links,1,
,dotcolour,xotask,dotcolour,25,6,457,457,main,positivefb,-99,average,,0.43437329999983376,['n'],0,left,['9'],2,2.086153100000047,53,,1,20,Vrouw,Links,1,
,dotcolour,xotask,dotcolour,26,6,458,458,main,positivefb,-99,easy,,0.6499635000000126,['c'],1,left,['1'],6,0.08864429999994172,62,,1,20,Vrouw,Links,1,
,dotcolour,xotask,dotcolour,27,6,459,459,main,positivefb,-99,average,,0.567163599999958,['c'],1,left,['1'],6,0.11184230000003481,52,,1,20,Vrouw,Links,1,
,dotcolour,xotask,dotcolour,28,6,460,460,main,positivefb,-99,easy,,0.5511047999998482,['c'],1,left,['1'],6,0.07831080000005386,64,,1,20,Vrouw,Links,1,
,dotcolour,xotask,dotcolour,29,6,461,461,main,positivefb,-99,easy,,0.5511309000000892,['c'],1,left,['1'],6,0.08602399999995214,62,,1,20,Vrouw,Links,1,
,dotcolour,xotask,dotcolour,30,6,462,462,main,positivefb,-99,average,,0.4831865999999536,['c'],1,left,['1'],6,0.1207941000000119,55,,1,20,Vrouw,Links,1,
,dotcolour,xotask,dotcolour,31,6,463,463,main,positivefb,-99,hard,,0.5510604000000967,['c'],1,left,['1'],6,0.1661805999999615,45,,1,20,Vrouw,Links,1,
,dotcolour,xotask,dotcolour,32,6,464,464,main,positivefb,-99,average,,1.0013592999998764,['c'],1,left,['1'],6,0.09642550000012307,52,,1,20,Vrouw,Links,1,
,dotcolour,xotask,dotcolour,33,6,465,465,main,positivefb,-99,hard,,0.9332052999998268,['n'],0,left,['2'],5,0.4400392000000011,41,,1,20,Vrouw,Links,1,
,dotcolour,xotask,dotcolour,34,6,466,466,main,positivefb,-99,easy,,0.6007698000000801,['c'],1,left,['1'],6,0.08016700000007404,63,,1,20,Vrouw,Links,1,
,dotcolour,xotask,dotcolour,35,6,467,467,main,positivefb,-99,hard,,0.6343593999999939,['n'],1,right,['1'],6,0.20415320000006432,37,,1,20,Vrouw,Links,1,
,dotcolour,xotask,dotcolour,36,6,468,468,main,positivefb,-99,average,,0.7008118999999624,['n'],1,right,['1'],6,0.16909559999999146,25,,1,20,Vrouw,Links,1,
,dotcolour,xotask,dotcolour,37,6,469,469,main,positivefb,-99,average,,0.38286790000006476,['n'],1,right,['1'],6,0.1079483999999411,26,,1,20,Vrouw,Links,1,
,dotcolour,xotask,dotcolour,38,6,470,470,main,positivefb,-99,hard,,0.45104479999986324,['n'],1,right,['1'],6,0.09392030000003615,35,,1,20,Vrouw,Links,1,
,dotcolour,xotask,dotcolour,39,6,471,471,main,positivefb,-99,average,,0.5007347000000664,['c'],1,left,['2'],5,0.10396760000003269,55,,1,20,Vrouw,Links,1,
,dotcolour,xotask,dotcolour,40,6,472,472,main,positivefb,-99,average,,0.566589199999953,['n'],1,right,['2'],5,0.15830570000002808,26,,1,20,Vrouw,Links,1,
,dotcolour,xotask,dotcolour,41,6,473,473,main,positivefb,-99,easy,,0.7843454000001202,['n'],1,right,['2'],5,0.13714619999996103,18,,1,20,Vrouw,Links,1,
,dotcolour,xotask,dotcolour,42,6,474,474,main,positivefb,-99,easy,,0.6657476000000315,['c'],1,left,['1'],6,0.04188040000008186,63,,1,20,Vrouw,Links,1,
,dotcolour,xotask,dotcolour,43,6,475,475,main,positivefb,-99,easy,,0.6004702000000179,['n'],1,right,['2'],5,0.17765890000009676,17,,1,20,Vrouw,Links,1,
,dotcolour,xotask,dotcolour,44,6,476,476,main,positivefb,-99,hard,,0.5847009000001435,['c'],1,left,['1'],6,0.06785119999995004,45,,1,20,Vrouw,Links,1,
,dotcolour,xotask,dotcolour,45,6,477,477,main,positivefb,-99,average,,0.6349707000001672,['n'],0,left,['2'],5,0.16855350000014369,55,,1,20,Vrouw,Links,1,
,dotcolour,xotask,dotcolour,46,6,478,478,main,positivefb,-99,hard,,0.7504633999999442,['n'],1,right,['2'],5,0.18017680000002656,35,,1,20,Vrouw,Links,1,
,dotcolour,xotask,dotcolour,47,6,479,479,main,positivefb,-99,easy,,0.5341462999999749,['c'],1,left,['1'],6,0.08936190000008537,64,,1,20,Vrouw,Links,1,
,dotcolour,xotask,dotcolour,48,6,480,480,main,positivefb,-99,hard,,0.5339064000002054,['n'],1,right,['2'],5,0.16120249999994485,37,,1,20,Vrouw,Links,1,
,dotcolour,xotask,dotcolour,49,6,481,481,main,positivefb,-99,easy,,0.585473600000114,['c'],0,right,['0'],1,0.9408943999999337,15,,1,20,Vrouw,Links,1,
,dotcolour,xotask,dotcolour,50,6,482,482,main,positivefb,-99,hard,,1.8515759000001708,['n'],0,left,['2'],5,0.08659540000007837,43,,1,20,Vrouw,Links,1,
,dotcolour,xotask,dotcolour,51,6,483,483,main,positivefb,-99,average,,0.4850079000000278,['n'],1,right,['2'],5,0.1200839000000542,25,,1,20,Vrouw,Links,1,
,dotcolour,xotask,dotcolour,52,6,484,484,main,positivefb,-99,easy,,0.5004217999999128,['n'],1,right,['2'],5,0.08807640000009087,19,,1,20,Vrouw,Links,1,
,dotcolour,xotask,dotcolour,53,6,485,485,main,positivefb,-99,easy,,0.5010428999999021,['n'],1,right,['1'],6,0.13761360000012246,15,,1,20,Vrouw,Links,1,
,dotcolour,xotask,dotcolour,54,6,486,486,main,positivefb,-99,hard,,1.2004653999999846,['n'],0,left,['1'],6,0.204385099999854,45,,1,20,Vrouw,Links,1,
,dotcolour,xotask,dotcolour,55,6,487,487,main,positivefb,-99,hard,,0.7837709999998879,['n'],0,left,['2'],5,0.19729949999987184,43,,1,20,Vrouw,Links,1,
,dotcolour,xotask,dotcolour,56,6,488,488,main,positivefb,-99,average,,0.41752919999998994,['c'],1,left,['1'],6,0.11015189999989161,55,,1,20,Vrouw,Links,1,
,dotcolour,xotask,dotcolour,57,6,489,489,main,positivefb,-99,hard,,0.8341496999998981,['n'],1,right,['2'],5,0.12133399999993344,35,,1,20,Vrouw,Links,1,
,dotcolour,xotask,dotcolour,58,6,490,490,main,positivefb,-99,average,,0.5516955999999027,['n'],1,right,['2'],5,0.10291849999998703,27,,1,20,Vrouw,Links,1,
,dotcolour,xotask,dotcolour,59,6,491,491,main,positivefb,-99,average,,0.4348012000000381,['c'],1,left,['1'],6,0.04233850000014172,52,,1,20,Vrouw,Links,1,
,dotcolour,xotask,dotcolour,60,6,492,492,main,positivefb,-99,hard,,0.6674805000000106,['n'],0,left,['2'],5,0.0871002999999746,44,,1,20,Vrouw,Links,1,
,dotcolour,xotask,dotcolour,61,6,493,493,main,positivefb,-99,hard,,1.2997166000000107,['c'],0,right,['1'],6,0.10433130000001256,37,,1,20,Vrouw,Links,1,
,dotcolour,xotask,dotcolour,62,6,494,494,main,positivefb,-99,hard,,0.9177625000002081,['n'],1,right,['2'],5,0.14452600000004168,35,,1,20,Vrouw,Links,1,
,dotcolour,xotask,dotcolour,63,6,495,495,main,positivefb,-99,hard,,0.5005143000000771,['n'],0,left,['9'],2,1.560178699999824,43,,1,20,Vrouw,Links,1,
,dotcolour,xotask,dotcolour,64,6,496,496,main,positivefb,-99,average,,0.9852845000000343,['n'],1,right,['2'],5,0.23517059999994672,25,,1,20,Vrouw,Links,1,
,dotcolour,xotask,dotcolour,65,6,497,497,main,positivefb,-99,average,,0.6016426999999567,['n'],1,right,['1'],6,0.13030019999996512,26,,1,20,Vrouw,Links,1,
,dotcolour,xotask,dotcolour,66,6,498,498,main,positivefb,-99,easy,,0.5997709999999188,['c'],1,left,['1'],6,0.0627291000000696,65,,1,20,Vrouw,Links,1,
,dotcolour,xotask,dotcolour,67,6,499,499,main,positivefb,-99,easy,,1.033754700000145,['n'],1,right,['2'],5,0.09179710000012165,15,,1,20,Vrouw,Links,1,
,dotcolour,xotask,dotcolour,68,6,500,500,main,positivefb,-99,hard,,0.6513350000000173,['n'],1,right,['1'],6,0.0877723999999489,36,,1,20,Vrouw,Links,1,
,dotcolour,xotask,dotcolour,69,6,501,501,main,positivefb,-99,easy,,0.7175075000000106,['c'],1,left,['1'],6,1.0248430000001463,61,,1,20,Vrouw,Links,1,
,dotcolour,xotask,dotcolour,70,6,502,502,main,positivefb,-99,average,,0.851930799999991,['c'],1,left,['1'],6,0.02213080000001355,54,,1,20,Vrouw,Links,1,
,dotcolour,xotask,dotcolour,71,6,503,503,main,positivefb,-99,easy,,1.0010105999999723,['n'],1,right,['1'],6,0.09368369999992865,16,,1,20,Vrouw,Links,1,
,dotcolour,xotask,dotcolour,0,7,504,504,main,positivefb,-99,easy,,0.6328684000000067,['n'],1,right,['1'],6,1.0728338000001258,17,,1,20,Vrouw,Links,1,
,dotcolour,xotask,dotcolour,1,7,505,505,main,positivefb,-99,easy,,0.48414739999998346,['c'],1,left,['1'],6,0.14676880000001802,63,,1,20,Vrouw,Links,1,
,dotcolour,xotask,dotcolour,2,7,506,506,main,positivefb,-99,easy,,0.534037299999909,['c'],1,left,['1'],6,0.08061530000009043,61,,1,20,Vrouw,Links,1,
,dotcolour,xotask,dotcolour,3,7,507,507,main,positivefb,-99,hard,,0.6331663000000844,['n'],0,left,['1'],6,0.13427309999997306,41,,1,20,Vrouw,Links,1,
,dotcolour,xotask,dotcolour,4,7,508,508,main,positivefb,-99,easy,,0.5669021999999586,['n'],1,right,['1'],6,0.06681240000011712,17,,1,20,Vrouw,Links,1,
,dotcolour,xotask,dotcolour,5,7,509,509,main,positivefb,-99,hard,,1.4840605999997933,['c'],1,left,['2'],5,0.3015935000000809,45,,1,20,Vrouw,Links,1,
,dotcolour,xotask,dotcolour,6,7,510,510,main,positivefb,-99,average,,1.0840498000000025,['n'],1,right,['2'],5,0.14299439999990682,28,,1,20,Vrouw,Links,1,
,dotcolour,xotask,dotcolour,7,7,511,511,main,positivefb,-99,hard,,0.9341570000001411,['n'],1,right,['2'],5,0.18032509999989088,38,,1,20,Vrouw,Links,1,
,dotcolour,xotask,dotcolour,8,7,512,512,main,positivefb,-99,average,,0.550420099999883,['n'],1,right,['2'],5,0.21686909999993986,29,,1,20,Vrouw,Links,1,
,dotcolour,xotask,dotcolour,9,7,513,513,main,positivefb,-99,average,,0.56662950000009,['n'],1,right,['2'],5,0.12230760000011287,28,,1,20,Vrouw,Links,1,
,dotcolour,xotask,dotcolour,10,7,514,514,main,positivefb,-99,average,,0.45047139999996944,['n'],1,right,['1'],6,0.1644255000001067,26,,1,20,Vrouw,Links,1,
,dotcolour,xotask,dotcolour,11,7,515,515,main,positivefb,-99,easy,,0.5005366999998841,['n'],1,right,['1'],6,0.13891130000001795,19,,1,20,Vrouw,Links,1,
,dotcolour,xotask,dotcolour,12,7,516,516,main,positivefb,-99,average,,1.3676136999999926,['c'],1,left,['1'],6,0.14330629999994926,52,,1,20,Vrouw,Links,1,
,dotcolour,xotask,dotcolour,13,7,517,517,main,positivefb,-99,hard,,0.9508029999999508,['c'],1,left,['1'],6,0.11683809999999539,45,,1,20,Vrouw,Links,1,
,dotcolour,xotask,dotcolour,14,7,518,518,main,positivefb,-99,hard,,1.0002250000000004,['c'],1,left,['2'],5,0.13697980000006282,43,,1,20,Vrouw,Links,1,
,dotcolour,xotask,dotcolour,15,7,519,519,main,positivefb,-99,easy,,0.5836020000001554,['n'],1,right,['2'],5,0.14064170000006015,15,,1,20,Vrouw,Links,1,
,dotcolour,xotask,dotcolour,16,7,520,520,main,positivefb,-99,hard,,1.3344383000001017,['c'],1,left,['1'],6,0.11439419999987877,42,,1,20,Vrouw,Links,1,
,dotcolour,xotask,dotcolour,17,7,521,521,main,positivefb,-99,easy,,0.5666584000000512,['c'],1,left,['1'],6,0.07957600000008824,64,,1,20,Vrouw,Links,1,
,dotcolour,xotask,dotcolour,18,7,522,522,main,positivefb,-99,hard,,0.8331109999999171,['n'],1,right,['2'],5,0.15716360000010354,36,,1,20,Vrouw,Links,1,
,dotcolour,xotask,dotcolour,19,7,523,523,main,positivefb,-99,average,,0.5830573000000641,['n'],1,right,['2'],5,0.12025130000006357,29,,1,20,Vrouw,Links,1,
,dotcolour,xotask,dotcolour,20,7,524,524,main,positivefb,-99,hard,,0.667533899999853,['n'],1,right,['1'],6,0.6567337999999836,36,,1,20,Vrouw,Links,1,
,dotcolour,xotask,dotcolour,21,7,525,525,main,positivefb,-99,hard,,0.8664925000000494,['n'],1,right,['1'],6,0.9652203999999074,38,,1,20,Vrouw,Links,1,
,dotcolour,xotask,dotcolour,22,7,526,526,main,positivefb,-99,easy,,1.4171339999998054,['c'],1,left,['1'],6,0.05413399999997637,65,,1,20,Vrouw,Links,1,
,dotcolour,xotask,dotcolour,23,7,527,527,main,positivefb,-99,hard,,0.7172426999998152,['n'],1,right,['1'],6,0.12838430000010703,36,,1,20,Vrouw,Links,1,
,dotcolour,xotask,dotcolour,24,7,528,528,main,positivefb,-99,hard,,0.683530699999892,['n'],1,right,['1'],6,0.16158739999991667,39,,1,20,Vrouw,Links,1,
,dotcolour,xotask,dotcolour,25,7,529,529,main,positivefb,-99,average,,0.8006777999999031,['c'],1,left,['1'],6,0.13192239999989397,54,,1,20,Vrouw,Links,1,
,dotcolour,xotask,dotcolour,26,7,530,530,main,positivefb,-99,easy,,0.5332667000000129,['c'],1,left,['1'],6,0.1060122000001229,62,,1,20,Vrouw,Links,1,
,dotcolour,xotask,dotcolour,27,7,531,531,main,positivefb,-99,easy,,0.45052499999997053,['c'],1,left,['1'],6,0.11601249999989705,63,,1,20,Vrouw,Links,1,
,dotcolour,xotask,dotcolour,28,7,532,532,main,positivefb,-99,average,,0.7178403000000344,['c'],1,left,['1'],6,0.11562679999997272,55,,1,20,Vrouw,Links,1,
,dotcolour,xotask,dotcolour,29,7,533,533,main,positivefb,-99,easy,,0.5852712000000793,['n'],1,right,['2'],5,0.08856999999989057,19,,1,20,Vrouw,Links,1,
,dotcolour,xotask,dotcolour,30,7,534,534,main,positivefb,-99,easy,,0.6005340000001524,['n'],1,right,['2'],5,0.2536651000000347,19,,1,20,Vrouw,Links,1,
,dotcolour,xotask,dotcolour,31,7,535,535,main,positivefb,-99,easy,,0.4840164000002005,['n'],1,right,['2'],5,0.5611892999997963,16,,1,20,Vrouw,Links,1,
,dotcolour,xotask,dotcolour,32,7,536,536,main,positivefb,-99,hard,,0.7841240000000198,['c'],1,left,['1'],6,0.08512850000010985,42,,1,20,Vrouw,Links,1,
,dotcolour,xotask,dotcolour,33,7,537,537,main,positivefb,-99,hard,,0.5667871000000559,['n'],1,right,['1'],6,0.13176789999988614,37,,1,20,Vrouw,Links,1,
,dotcolour,xotask,dotcolour,34,7,538,538,main,positivefb,-99,easy,,0.5175019000000702,['n'],1,right,['1'],6,0.18570920000001934,17,,1,20,Vrouw,Links,1,
,dotcolour,xotask,dotcolour,35,7,539,539,main,positivefb,-99,hard,,0.4176174000001538,['n'],1,right,['1'],6,0.15434460000005856,35,,1,20,Vrouw,Links,1,
,dotcolour,xotask,dotcolour,36,7,540,540,main,positivefb,-99,average,,0.6680472999998983,['n'],1,right,['1'],6,0.10621129999981349,29,,1,20,Vrouw,Links,1,
,dotcolour,xotask,dotcolour,37,7,541,541,main,positivefb,-99,average,,0.9169378999999935,['n'],1,right,['2'],5,0.13811919999989186,29,,1,20,Vrouw,Links,1,
,dotcolour,xotask,dotcolour,38,7,542,542,main,positivefb,-99,average,,0.5671938000000409,['c'],1,left,['1'],6,0.09535389999996369,51,,1,20,Vrouw,Links,1,
,dotcolour,xotask,dotcolour,39,7,543,543,main,positivefb,-99,easy,,0.6174714999999651,['c'],1,left,['1'],6,0.06790880000016841,62,,1,20,Vrouw,Links,1,
,dotcolour,xotask,dotcolour,40,7,544,544,main,positivefb,-99,hard,,0.9500290999999379,['n'],1,right,['2'],5,0.1478103000001738,35,,1,20,Vrouw,Links,1,
,dotcolour,xotask,dotcolour,41,7,545,545,main,positivefb,-99,hard,,0.48410450000005767,['c'],1,left,['1'],6,0.0754888999999821,42,,1,20,Vrouw,Links,1,
,dotcolour,xotask,dotcolour,42,7,546,546,main,positivefb,-99,hard,,1.0508561999999984,['c'],1,left,['2'],5,0.09500279999997474,42,,1,20,Vrouw,Links,1,
,dotcolour,xotask,dotcolour,43,7,547,547,main,positivefb,-99,average,,0.6348928000002161,['n'],1,right,['1'],6,0.3393756000000394,28,,1,20,Vrouw,Links,1,
,dotcolour,xotask,dotcolour,44,7,548,548,main,positivefb,-99,average,,0.5846437000000151,['n'],1,right,['1'],6,0.12756800000011026,26,,1,20,Vrouw,Links,1,
,dotcolour,xotask,dotcolour,45,7,549,549,main,positivefb,-99,hard,,1.1340004999999564,['n'],0,left,['1'],6,0.14157000000000153,45,,1,20,Vrouw,Links,1,
,dotcolour,xotask,dotcolour,46,7,550,550,main,positivefb,-99,average,,0.7350775999998405,['c'],1,left,['1'],6,0.08411630000000514,54,,1,20,Vrouw,Links,1,
,dotcolour,xotask,dotcolour,47,7,551,551,main,positivefb,-99,easy,,0.5009038000000601,['c'],1,left,['1'],6,0.09314229999995405,62,,1,20,Vrouw,Links,1,
,dotcolour,xotask,dotcolour,48,7,552,552,main,positivefb,-99,average,,0.4671558999998524,['c'],1,left,['1'],6,0.07984369999985574,54,,1,20,Vrouw,Links,1,
,dotcolour,xotask,dotcolour,49,7,553,553,main,positivefb,-99,easy,,0.4005217999999786,['c'],1,left,['1'],6,0.1340016999999989,61,,1,20,Vrouw,Links,1,
,dotcolour,xotask,dotcolour,50,7,554,554,main,positivefb,-99,hard,,0.9657669000000624,['n'],1,right,['2'],5,0.13893929999994725,38,,1,20,Vrouw,Links,1,
,dotcolour,xotask,dotcolour,51,7,555,555,main,positivefb,-99,average,,0.617358299999978,['c'],1,left,['1'],6,0.06120480000004136,52,,1,20,Vrouw,Links,1,
,dotcolour,xotask,dotcolour,52,7,556,556,main,positivefb,-99,easy,,0.46724230000017997,['n'],1,right,['2'],5,0.10577010000019982,17,,1,20,Vrouw,Links,1,
,dotcolour,xotask,dotcolour,53,7,557,557,main,positivefb,-99,average,,0.7017521000000215,['c'],1,left,['1'],6,0.1142723999998907,54,,1,20,Vrouw,Links,1,
,dotcolour,xotask,dotcolour,54,7,558,558,main,positivefb,-99,hard,,0.5841858999999658,['n'],0,left,['2'],5,0.4307890000000043,43,,1,20,Vrouw,Links,1,
,dotcolour,xotask,dotcolour,55,7,559,559,main,positivefb,-99,average,,0.41752900000005866,['c'],1,left,['1'],6,0.04642949999993107,54,,1,20,Vrouw,Links,1,
,dotcolour,xotask,dotcolour,56,7,560,560,main,positivefb,-99,average,,0.5680720000000292,['n'],1,right,['2'],5,0.12625910000019758,25,,1,20,Vrouw,Links,1,
,dotcolour,xotask,dotcolour,57,7,561,561,main,positivefb,-99,average,,0.8498251000000892,['c'],1,left,['1'],6,0.10471000000006825,55,,1,20,Vrouw,Links,1,
,dotcolour,xotask,dotcolour,58,7,562,562,main,positivefb,-99,easy,,0.5681057000001601,['c'],1,left,['1'],6,0.07886099999996077,65,,1,20,Vrouw,Links,1,
,dotcolour,xotask,dotcolour,59,7,563,563,main,positivefb,-99,hard,,0.6837554999999611,['n'],0,left,['3'],4,0.2650857000000997,42,,1,20,Vrouw,Links,1,
,dotcolour,xotask,dotcolour,60,7,564,564,main,positivefb,-99,hard,,0.8842778999999155,['n'],1,right,['2'],5,0.3801894999999149,37,,1,20,Vrouw,Links,1,
,dotcolour,xotask,dotcolour,61,7,565,565,main,positivefb,-99,average,,0.46674209999991945,['n'],1,right,['2'],5,0.14009220000002642,27,,1,20,Vrouw,Links,1,
,dotcolour,xotask,dotcolour,62,7,566,566,main,positivefb,-99,easy,,0.5171000000000276,['n'],1,right,['2'],5,0.15461779999986902,16,,1,20,Vrouw,Links,1,
,dotcolour,xotask,dotcolour,63,7,567,567,main,positivefb,-99,average,,0.5675103999999465,['n'],1,right,['2'],5,0.1664643999999953,28,,1,20,Vrouw,Links,1,
,dotcolour,xotask,dotcolour,64,7,568,568,main,positivefb,-99,easy,,0.45029300000010153,['n'],1,right,['2'],5,0.15871219999985442,18,,1,20,Vrouw,Links,1,
,dotcolour,xotask,dotcolour,65,7,569,569,main,positivefb,-99,easy,,0.7840296000001672,['c'],1,left,['1'],6,0.15407310000000507,64,,1,20,Vrouw,Links,1,
,dotcolour,xotask,dotcolour,66,7,570,570,main,positivefb,-99,easy,,0.5677135000000817,['c'],0,right,['0'],1,0.8858243999998194,16,,1,20,Vrouw,Links,1,
,dotcolour,xotask,dotcolour,67,7,571,571,main,positivefb,-99,easy,,0.7180580000001555,['c'],1,left,['1'],6,0.054715600000008635,61,,1,20,Vrouw,Links,1,
,dotcolour,xotask,dotcolour,68,7,572,572,main,positivefb,-99,average,,0.616854400000193,['n'],0,left,['0'],1,0.7246976000001268,53,,1,20,Vrouw,Links,1,
,dotcolour,xotask,dotcolour,69,7,573,573,main,positivefb,-99,hard,,1.5344016000001375,['n'],0,left,['2'],5,0.12250169999992977,42,,1,20,Vrouw,Links,1,
,dotcolour,xotask,dotcolour,70,7,574,574,main,positivefb,-99,average,,0.4841424000001098,['c'],1,left,['1'],6,0.020022700000026816,54,,1,20,Vrouw,Links,1,
,dotcolour,xotask,dotcolour,71,7,575,575,main,positivefb,-99,hard,,0.7335537000001295,['n'],1,right,['1'],6,0.13456799999994473,39,,1,20,Vrouw,Links,1,
,xotask,xotask,dotcolour,0,0,0,336,training,positivefb,90,hard,26,1.31799419999993,['n'],1,right,['1'],6,0.35065400000007685,,,1,20,Vrouw,Links,1,
,xotask,xotask,dotcolour,1,0,1,337,training,positivefb,95,hard,27,0.699538000000075,['n'],1,right,['1'],6,0.16445709999993596,,,1,20,Vrouw,Links,1,
,xotask,xotask,dotcolour,2,0,2,338,training,positivefb,95,easy,73,0.7838749000000007,['c'],1,left,['1'],6,0.08633459999987281,,,1,20,Vrouw,Links,1,
,xotask,xotask,dotcolour,3,0,3,339,training,positivefb,92,average,61,0.9996251999998549,['c'],1,left,['1'],6,0.06682339999997566,,,1,20,Vrouw,Links,1,
,xotask,xotask,dotcolour,4,0,4,340,training,positivefb,95,hard,27,0.5834446000001208,['n'],1,right,['1'],6,0.07373450000000048,,,1,20,Vrouw,Links,1,
,xotask,xotask,dotcolour,5,0,5,341,training,positivefb,94,average,17,0.6827607000000171,['n'],1,right,['1'],6,0.15513420000002043,,,1,20,Vrouw,Links,1,
,xotask,xotask,dotcolour,6,0,6,342,training,positivefb,98,average,61,0.6836673999998766,['c'],1,left,['1'],6,0.12217379999992772,,,1,20,Vrouw,Links,1,
,xotask,xotask,dotcolour,7,0,7,343,training,positivefb,95,easy,6,0.6502659999998741,['n'],1,right,['2'],5,0.21128449999991972,,,1,20,Vrouw,Links,1,
,xotask,xotask,dotcolour,8,0,8,344,training,positivefb,99,hard,25,0.6825233000001845,['n'],1,right,['2'],5,0.36026590000005854,,,1,20,Vrouw,Links,1,
,xotask,xotask,dotcolour,9,0,9,345,training,positivefb,96,average,61,0.6339779999998427,['c'],1,left,['1'],6,0.07294309999997495,,,1,20,Vrouw,Links,1,
,xotask,xotask,dotcolour,10,0,10,346,training,positivefb,90,easy,72,0.9176351999999497,['n'],0,left,['2'],5,0.33727760000010676,,,1,20,Vrouw,Links,1,
,xotask,xotask,dotcolour,11,0,11,347,training,positivefb,91,easy,8,0.7498183000000154,['n'],1,right,['2'],5,0.2459900999999718,,,1,20,Vrouw,Links,1,
,xotask,xotask,dotcolour,12,0,12,348,training,positivefb,85,average,61,0.833703099999866,['c'],1,left,['1'],6,0.1553654000001643,,,1,20,Vrouw,Links,1,
,xotask,xotask,dotcolour,13,0,13,349,training,positivefb,84,average,18,0.7348530000001574,['n'],1,right,['1'],6,0.2321753000001081,,,1,20,Vrouw,Links,1,
,xotask,xotask,dotcolour,14,0,14,350,training,positivefb,99,hard,25,0.8009069999998246,['n'],1,right,['2'],5,0.3503028000000086,,,1,20,Vrouw,Links,1,
,xotask,xotask,dotcolour,15,0,15,351,training,positivefb,94,average,15,0.766001899999992,['n'],1,right,['2'],5,0.314383300000145,,,1,20,Vrouw,Links,1,
,xotask,xotask,dotcolour,16,0,16,352,training,positivefb,93,average,63,0.7166454000000613,['c'],1,left,['2'],5,0.168858900000032,,,1,20,Vrouw,Links,1,
,xotask,xotask,dotcolour,17,0,17,353,training,positivefb,98,easy,5,0.6671501999999236,['n'],1,right,['2'],5,0.18354150000004665,,,1,20,Vrouw,Links,1,
,xotask,xotask,dotcolour,18,0,18,354,training,positivefb,95,average,64,0.8329372000000603,['c'],1,left,['1'],6,0.23128010000004906,,,1,20,Vrouw,Links,1,
,xotask,xotask,dotcolour,19,0,19,355,training,positivefb,95,hard,54,0.7676965999999084,['n'],0,left,['2'],5,0.8712696000000051,,,1,20,Vrouw,Links,1,
,xotask,xotask,dotcolour,20,0,20,356,training,positivefb,66,average,15,1.9667090000000371,['n'],1,right,['1'],6,0.2137543999999707,,,1,20,Vrouw,Links,1,
,xotask,xotask,dotcolour,21,0,21,357,training,positivefb,99,hard,27,0.7670628000000761,['n'],1,right,['2'],5,0.2636101000000508,,,1,20,Vrouw,Links,1,
,xotask,xotask,dotcolour,22,0,22,358,training,positivefb,96,easy,72,0.5990147999998499,['c'],1,left,['2'],5,0.2380891000000247,,,1,20,Vrouw,Links,1,
,xotask,xotask,dotcolour,23,0,23,359,training,positivefb,77,average,61,2.684045800000149,['c'],1,left,['3'],4,0.24053679999997257,,,1,20,Vrouw,Links,1,
,xotask,xotask,dotcolour,0,1,24,408,training,positivefb,97,average,17,1.0513229999999112,['n'],1,right,['2'],5,0.1437793000000056,,,1,20,Vrouw,Links,1,
,xotask,xotask,dotcolour,1,1,25,409,training,positivefb,97,easy,5,0.6013404000000264,['n'],1,right,['2'],5,0.1945199000001594,,,1,20,Vrouw,Links,1,
,xotask,xotask,dotcolour,2,1,26,410,training,positivefb,97,average,16,0.5836749000000054,['n'],1,right,['1'],6,0.12317929999994703,,,1,20,Vrouw,Links,1,
,xotask,xotask,dotcolour,3,1,27,411,training,positivefb,99,average,18,0.49981079999997746,['n'],1,right,['1'],6,0.15438049999988834,,,1,20,Vrouw,Links,1,
,xotask,xotask,dotcolour,4,1,28,412,training,positivefb,93,easy,7,0.46681119999993825,['n'],1,right,['1'],6,0.13036590000001524,,,1,20,Vrouw,Links,1,
,xotask,xotask,dotcolour,5,1,29,413,training,positivefb,96,easy,73,0.8327723999998398,['c'],1,left,['1'],6,0.08439900000007583,,,1,20,Vrouw,Links,1,
,xotask,xotask,dotcolour,6,1,30,414,training,positivefb,98,average,16,0.48225669999987986,['n'],1,right,['1'],6,0.11016670000003614,,,1,20,Vrouw,Links,1,
,xotask,xotask,dotcolour,7,1,31,415,training,positivefb,88,hard,53,1.1335790000000543,['c'],1,left,['1'],6,0.10803200000009383,,,1,20,Vrouw,Links,1,
,xotask,xotask,dotcolour,8,1,32,416,training,positivefb,80,average,60,2.000097000000096,['c'],1,left,['3'],4,0.5520472000000609,,,1,20,Vrouw,Links,1,
,xotask,xotask,dotcolour,9,1,33,417,training,positivefb,85,hard,50,0.8500117000000955,['n'],0,left,['1'],6,0.1603979999999865,,,1,20,Vrouw,Links,1,
,xotask,xotask,dotcolour,10,1,34,418,training,positivefb,92,average,61,0.7668906000001243,['c'],1,left,['1'],6,0.13953620000006595,,,1,20,Vrouw,Links,1,
,xotask,xotask,dotcolour,11,1,35,419,training,positivefb,98,average,62,0.8161976999999752,['c'],1,left,['1'],6,0.10951840000006996,,,1,20,Vrouw,Links,1,
,xotask,xotask,dotcolour,12,1,36,420,training,positivefb,99,hard,25,0.46646529999998165,['n'],1,right,['2'],5,0.5112056999998913,,,1,20,Vrouw,Links,1,
,xotask,xotask,dotcolour,13,1,37,421,training,positivefb,97,hard,28,1.0335880999998608,['c'],0,right,['2'],5,0.12252880000005462,,,1,20,Vrouw,Links,1,
,xotask,xotask,dotcolour,14,1,38,422,training,positivefb,82,average,60,1.1666974999998274,['n'],0,left,['2'],5,0.1421656999998504,,,1,20,Vrouw,Links,1,
,xotask,xotask,dotcolour,15,1,39,423,training,positivefb,85,easy,74,1.6330235999998877,['c'],1,left,['2'],5,0.11152700000002369,,,1,20,Vrouw,Links,1,
,xotask,xotask,dotcolour,16,1,40,424,training,positivefb,98,easy,5,0.6657504999998309,['n'],1,right,['2'],5,0.15321080000012444,,,1,20,Vrouw,Links,1,
,xotask,xotask,dotcolour,17,1,41,425,training,positivefb,96,average,61,1.0006498999998712,['c'],1,left,['2'],5,0.13145559999998113,,,1,20,Vrouw,Links,1,
,xotask,xotask,dotcolour,18,1,42,426,training,positivefb,93,easy,70,0.7341943999999785,['n'],0,left,['2'],5,0.12906139999995503,,,1,20,Vrouw,Links,1,
,xotask,xotask,dotcolour,19,1,43,427,training,positivefb,90,hard,29,0.8994175999998788,['n'],1,right,['1'],6,0.28781489999983023,,,1,20,Vrouw,Links,1,
,xotask,xotask,dotcolour,20,1,44,428,training,positivefb,64,easy,74,0.6337762999999086,['n'],0,left,['0'],1,0.7552095999999437,,,1,20,Vrouw,Links,1,
,xotask,xotask,dotcolour,21,1,45,429,training,positivefb,83,average,16,1.3997685999997884,['n'],1,right,['1'],6,0.1658036000001175,,,1,20,Vrouw,Links,1,
,xotask,xotask,dotcolour,22,1,46,430,training,positivefb,96,easy,70,0.6161600000000362,['c'],1,left,['1'],6,0.12622770000007222,,,1,20,Vrouw,Links,1,
,xotask,xotask,dotcolour,23,1,47,431,training,positivefb,98,hard,25,0.6668752999999015,['n'],1,right,['1'],6,0.43877329999986614,,,1,20,Vrouw,Links,1,
,xotask,xotask,dotcolour,0,2,48,480,training,positivefb,81,hard,54,1.4670485999999983,['c'],1,left,['1'],6,0.09586850000005143,,,1,20,Vrouw,Links,1,
,xotask,xotask,dotcolour,1,2,49,481,training,positivefb,98,easy,7,0.5343047000001206,['n'],1,right,['1'],6,0.3031468000001496,,,1,20,Vrouw,Links,1,
,xotask,xotask,dotcolour,2,2,50,482,training,positivefb,90,hard,51,0.6505188000000999,['c'],1,left,['1'],6,0.15295290000017303,,,1,20,Vrouw,Links,1,
,xotask,xotask,dotcolour,3,2,51,483,training,positivefb,86,hard,50,1.466515599999866,['c'],1,left,['2'],5,0.24012450000009267,,,1,20,Vrouw,Links,1,
,xotask,xotask,dotcolour,4,2,52,484,training,positivefb,82,easy,6,0.6346794000000955,['n'],1,right,['1'],6,0.174096899999995,,,1,20,Vrouw,Links,1,
,xotask,xotask,dotcolour,5,2,53,485,training,positivefb,95,average,63,1.1175627000000077,['c'],1,left,['1'],6,0.1387073999999302,,,1,20,Vrouw,Links,1,
,xotask,xotask,dotcolour,6,2,54,486,training,positivefb,91,average,60,0.750101099999938,['c'],1,left,['1'],6,0.11084649999997964,,,1,20,Vrouw,Links,1,
,xotask,xotask,dotcolour,7,2,55,487,training,positivefb,93,easy,7,1.551294599999892,['n'],1,right,['2'],5,0.677567100000033,,,1,20,Vrouw,Links,1,
,xotask,xotask,dotcolour,8,2,56,488,training,positivefb,89,hard,54,0.6508948000000601,['c'],1,left,['1'],6,0.29626310000003286,,,1,20,Vrouw,Links,1,
,xotask,xotask,dotcolour,9,2,57,489,training,positivefb,83,hard,25,1.4175460999999814,['n'],1,right,['3'],4,0.6684582999998838,,,1,20,Vrouw,Links,1,
,xotask,xotask,dotcolour,10,2,58,490,training,positivefb,90,easy,74,0.916676999999936,['c'],1,left,['1'],6,0.10110499999996136,,,1,20,Vrouw,Links,1,
,xotask,xotask,dotcolour,11,2,59,491,training,positivefb,98,easy,71,0.6672060000000783,['c'],1,left,['1'],6,0.13433750000012878,,,1,20,Vrouw,Links,1,
,xotask,xotask,dotcolour,12,2,60,492,training,positivefb,97,easy,72,0.600427800000034,['c'],1,left,['1'],6,0.09744599999999082,,,1,20,Vrouw,Links,1,
,xotask,xotask,dotcolour,13,2,61,493,training,positivefb,93,hard,50,0.7838226999999733,['n'],0,left,['2'],5,0.1896672000000308,,,1,20,Vrouw,Links,1,
,xotask,xotask,dotcolour,14,2,62,494,training,positivefb,78,hard,29,1.3336323000000903,['n'],1,right,['3'],4,0.8022604000000229,,,1,20,Vrouw,Links,1,
,xotask,xotask,dotcolour,15,2,63,495,training,positivefb,96,easy,7,0.6996042000000671,['n'],1,right,['2'],5,0.14217530000018996,,,1,20,Vrouw,Links,1,
,xotask,xotask,dotcolour,16,2,64,496,training,positivefb,96,easy,71,0.5833979999999883,['c'],1,left,['1'],6,0.1535423999998784,,,1,20,Vrouw,Links,1,
,xotask,xotask,dotcolour,17,2,65,497,training,positivefb,93,easy,6,0.6005703999999241,['n'],1,right,['1'],6,0.16358340000010685,,,1,20,Vrouw,Links,1,
,xotask,xotask,dotcolour,18,2,66,498,training,positivefb,90,average,18,0.782623600000079,['n'],1,right,['1'],6,0.15012079999996786,,,1,20,Vrouw,Links,1,
,xotask,xotask,dotcolour,19,2,67,499,training,positivefb,98,hard,29,0.4494195000002037,['n'],1,right,['1'],6,0.17446500000005472,,,1,20,Vrouw,Links,1,
,xotask,xotask,dotcolour,20,2,68,500,training,positivefb,98,easy,71,0.7326895999999579,['c'],1,left,['1'],6,0.09849309999981415,,,1,20,Vrouw,Links,1,
,xotask,xotask,dotcolour,21,2,69,501,training,positivefb,96,hard,28,0.6998032000001331,['n'],1,right,['1'],6,0.18619089999992866,,,1,20,Vrouw,Links,1,
,xotask,xotask,dotcolour,22,2,70,502,training,positivefb,93,hard,52,0.9165858000001208,['c'],1,left,['1'],6,0.15029629999980898,,,1,20,Vrouw,Links,1,
,xotask,xotask,dotcolour,23,2,71,503,training,positivefb,96,average,16,0.5673566999998911,['n'],1,right,['1'],6,0.11347139999998035,,,1,20,Vrouw,Links,1,
,xotask,xotask,dotcolour,0,3,72,552,training,positivefb,68,average,18,3.684392399999979,['n'],1,right,['1'],6,0.1132964999997057,,,1,20,Vrouw,Links,1,
,xotask,xotask,dotcolour,1,3,73,553,training,positivefb,93,hard,54,0.8662081000002217,['c'],1,left,['1'],6,0.15440480000006573,,,1,20,Vrouw,Links,1,
,xotask,xotask,dotcolour,2,3,74,554,training,positivefb,88,easy,71,1.6002816999998686,['c'],1,left,['1'],6,0.12461709999979576,,,1,20,Vrouw,Links,1,
,xotask,xotask,dotcolour,3,3,75,555,training,positivefb,83,easy,71,1.2005306000000928,['c'],1,left,['1'],6,0.13586250000025757,,,1,20,Vrouw,Links,1,
,xotask,xotask,dotcolour,4,3,76,556,training,positivefb,39,average,64,4.25085560000025,['n'],0,left,['9'],2,1.1205353999998806,,,1,20,Vrouw,Links,1,
,xotask,xotask,dotcolour,5,3,77,557,training,positivefb,93,hard,29,1.0835740999996233,['n'],1,right,['2'],5,0.2801712000000407,,,1,20,Vrouw,Links,1,
,xotask,xotask,dotcolour,6,3,78,558,training,positivefb,84,easy,9,2.250372100000277,['n'],1,right,['2'],5,0.13965950000010707,,,1,20,Vrouw,Links,1,
,xotask,xotask,dotcolour,7,3,79,559,training,positivefb,97,easy,72,0.46774580000010246,['c'],1,left,['1'],6,0.1230464000000211,,,1,20,Vrouw,Links,1,
,xotask,xotask,dotcolour,8,3,80,560,training,positivefb,95,hard,50,1.1998258000003261,['n'],0,left,['2'],5,0.3502982999998494,,,1,20,Vrouw,Links,1,
,xotask,xotask,dotcolour,9,3,81,561,training,positivefb,82,average,15,0.8668864000001122,['n'],1,right,['2'],5,0.15798560000030193,,,1,20,Vrouw,Links,1,
,xotask,xotask,dotcolour,10,3,82,562,training,positivefb,93,hard,54,1.283118800000011,['n'],0,left,['2'],5,0.8609317999998893,,,1,20,Vrouw,Links,1,
,xotask,xotask,dotcolour,11,3,83,563,training,positivefb,88,average,61,1.1173655000002327,['n'],0,left,['2'],5,0.18231839999998556,,,1,20,Vrouw,Links,1,
,xotask,xotask,dotcolour,12,3,84,564,training,positivefb,98,average,16,0.8169239000003472,['n'],1,right,['2'],5,0.1747731999998905,,,1,20,Vrouw,Links,1,
,xotask,xotask,dotcolour,13,3,85,565,training,positivefb,70,hard,54,1.433914900000218,['n'],0,left,['3'],4,0.22215000000005602,,,1,20,Vrouw,Links,1,
,xotask,xotask,dotcolour,14,3,86,566,training,positivefb,46,hard,28,0.7832000000003063,['n'],1,right,['1'],6,0.29400170000008075,,,1,20,Vrouw,Links,1,
,xotask,xotask,dotcolour,15,3,87,567,training,positivefb,92,easy,70,1.2501345999999103,['c'],1,left,['2'],5,0.15324249999957829,,,1,20,Vrouw,Links,1,
,xotask,xotask,dotcolour,16,3,88,568,training,positivefb,94,hard,54,0.6005653000001985,['c'],1,left,['1'],6,0.15433010000015202,,,1,20,Vrouw,Links,1,
,xotask,xotask,dotcolour,17,3,89,569,training,positivefb,99,easy,72,0.3499291000002813,['c'],1,left,['2'],5,0.16626039999982822,,,1,20,Vrouw,Links,1,
,xotask,xotask,dotcolour,18,3,90,570,training,positivefb,98,average,64,0.5170508999999583,['c'],1,left,['1'],6,0.09178579999979775,,,1,20,Vrouw,Links,1,
,xotask,xotask,dotcolour,19,3,91,571,training,positivefb,95,hard,26,0.6334571000002143,['c'],0,right,['2'],5,0.11144349999995029,,,1,20,Vrouw,Links,1,
,xotask,xotask,dotcolour,20,3,92,572,training,positivefb,98,easy,7,0.46760600000015984,['n'],1,right,['2'],5,0.13638940000009825,,,1,20,Vrouw,Links,1,
,xotask,xotask,dotcolour,21,3,93,573,training,positivefb,99,easy,7,0.5166435999999521,['n'],1,right,['1'],6,0.19039109999994253,,,1,20,Vrouw,Links,1,
,xotask,xotask,dotcolour,22,3,94,574,training,positivefb,97,easy,5,0.5663416999996116,['n'],1,right,['2'],5,0.3284082000000126,,,1,20,Vrouw,Links,1,
,xotask,xotask,dotcolour,23,3,95,575,training,positivefb,82,hard,52,0.5675713999999061,['n'],0,left,['1'],6,0.19630159999996977,,,1,20,Vrouw,Links,1,
,xotask,xotask,dotcolour,0,4,96,624,training,positivefb,95,hard,51,0.8854074000000764,['c'],1,left,['1'],6,0.09821180000017193,,,1,20,Vrouw,Links,1,
,xotask,xotask,dotcolour,1,4,97,625,training,positivefb,99,easy,7,0.4333419999998114,['n'],1,right,['2'],5,0.18830920000027618,,,1,20,Vrouw,Links,1,
,xotask,xotask,dotcolour,2,4,98,626,training,positivefb,97,average,15,0.7672307999996519,['n'],1,right,['1'],6,0.23894770000015342,,,1,20,Vrouw,Links,1,
,xotask,xotask,dotcolour,3,4,99,627,training,positivefb,92,hard,51,0.7838480999998865,['n'],0,left,['2'],5,0.1505419999998594,,,1,20,Vrouw,Links,1,
,xotask,xotask,dotcolour,4,4,100,628,training,positivefb,94,hard,26,0.9670519999999669,['n'],1,right,['2'],5,0.18577170000025944,,,1,20,Vrouw,Links,1,
,xotask,xotask,dotcolour,5,4,101,629,training,positivefb,80,average,61,1.182330600000114,['n'],0,left,['2'],5,0.26669829999991634,,,1,20,Vrouw,Links,1,
,xotask,xotask,dotcolour,6,4,102,630,training,positivefb,85,easy,72,1.4005570999997872,['c'],1,left,['1'],6,0.10471319999987827,,,1,20,Vrouw,Links,1,
,xotask,xotask,dotcolour,7,4,103,631,training,positivefb,82,average,63,1.3010225999996692,['c'],1,left,['1'],6,0.06465560000015103,,,1,20,Vrouw,Links,1,
,xotask,xotask,dotcolour,8,4,104,632,training,positivefb,72,average,61,0.9664730999998028,['n'],0,left,['2'],5,0.2549308999996356,,,1,20,Vrouw,Links,1,
,xotask,xotask,dotcolour,9,4,105,633,training,positivefb,98,hard,27,0.9669152000001304,['n'],1,right,['1'],6,1.6789233999998032,,,1,20,Vrouw,Links,1,
,xotask,xotask,dotcolour,10,4,106,634,training,positivefb,93,easy,9,0.683724699999857,['n'],1,right,['1'],6,0.39170830000011847,,,1,20,Vrouw,Links,1,
,xotask,xotask,dotcolour,11,4,107,635,training,positivefb,92,easy,72,0.9165263999998388,['c'],1,left,['1'],6,0.09931109999979526,,,1,20,Vrouw,Links,1,
,xotask,xotask,dotcolour,12,4,108,636,training,positivefb,99,easy,7,0.8167130000001634,['n'],1,right,['1'],6,0.35131959999989704,,,1,20,Vrouw,Links,1,
,xotask,xotask,dotcolour,13,4,109,637,training,positivefb,95,average,62,0.7004219000000376,['c'],1,left,['1'],6,0.09332970000014029,,,1,20,Vrouw,Links,1,
,xotask,xotask,dotcolour,14,4,110,638,training,positivefb,64,easy,70,0.88264160000017,['n'],0,left,['1'],6,0.534812299999885,,,1,20,Vrouw,Links,1,
,xotask,xotask,dotcolour,15,4,111,639,training,positivefb,96,easy,71,0.7339870999999221,['c'],1,left,['1'],6,0.08435890000009749,,,1,20,Vrouw,Links,1,
,xotask,xotask,dotcolour,16,4,112,640,training,positivefb,74,easy,9,0.583069599999817,['n'],1,right,['1'],6,0.15290319999985513,,,1,20,Vrouw,Links,1,
,xotask,xotask,dotcolour,17,4,113,641,training,positivefb,97,average,15,0.8343386999999893,['n'],1,right,['1'],6,0.11376749999999447,,,1,20,Vrouw,Links,1,
,xotask,xotask,dotcolour,18,4,114,642,training,positivefb,96,hard,53,0.4836198999996668,['n'],0,left,['1'],6,0.2990297000001192,,,1,20,Vrouw,Links,1,
,xotask,xotask,dotcolour,19,4,115,643,training,positivefb,98,easy,6,0.6161380999997164,['n'],1,right,['1'],6,0.13385429999971166,,,1,20,Vrouw,Links,1,
,xotask,xotask,dotcolour,20,4,116,644,training,positivefb,98,easy,7,0.5163868000004186,['n'],1,right,['1'],6,0.12396639999997205,,,1,20,Vrouw,Links,1,
,xotask,xotask,dotcolour,21,4,117,645,training,positivefb,98,average,19,0.6666485000000648,['n'],1,right,['1'],6,0.13257800000019415,,,1,20,Vrouw,Links,1,
,xotask,xotask,dotcolour,22,4,118,646,training,positivefb,87,hard,27,1.6170231999999487,['c'],0,right,['2'],5,0.07088100000009945,,,1,20,Vrouw,Links,1,
,xotask,xotask,dotcolour,23,4,119,647,training,positivefb,87,average,15,1.2335066999999071,['n'],1,right,['2'],5,0.21025049999980183,,,1,20,Vrouw,Links,1,
,xotask,xotask,dotcolour,0,5,360,696,main,positivefb,-99,easy,6,2.234099800000422,['n'],1,right,['1'],6,0.1738772999997309,,,1,20,Vrouw,Links,1,
,xotask,xotask,dotcolour,1,5,361,697,main,positivefb,-99,easy,72,0.7998222999999598,['c'],1,left,['1'],6,0.08019269999977041,,,1,20,Vrouw,Links,1,
,xotask,xotask,dotcolour,2,5,362,698,main,positivefb,-99,average,61,0.7176497000000381,['c'],1,left,['1'],6,0.07302030000028026,,,1,20,Vrouw,Links,1,
,xotask,xotask,dotcolour,3,5,363,699,main,positivefb,-99,average,18,0.5507738000001154,['n'],1,right,['1'],6,0.16958799999974872,,,1,20,Vrouw,Links,1,
,xotask,xotask,dotcolour,4,5,364,700,main,positivefb,-99,average,19,0.5337829999998576,['n'],1,right,['1'],6,0.1263343000000532,,,1,20,Vrouw,Links,1,
,xotask,xotask,dotcolour,5,5,365,701,main,positivefb,-99,average,60,0.6682934999998906,['c'],1,left,['1'],6,0.07169519999979457,,,1,20,Vrouw,Links,1,
,xotask,xotask,dotcolour,6,5,366,702,main,positivefb,-99,hard,50,0.5836914000001343,['n'],0,left,['1'],6,0.13427459999957136,,,1,20,Vrouw,Links,1,
,xotask,xotask,dotcolour,7,5,367,703,main,positivefb,-99,easy,7,0.6680074000000786,['n'],1,right,['1'],6,0.174929499999962,,,1,20,Vrouw,Links,1,
,xotask,xotask,dotcolour,8,5,368,704,main,positivefb,-99,average,15,0.5678726000001006,['c'],0,right,['0'],1,0.5942973000001075,,,1,20,Vrouw,Links,1,
,xotask,xotask,dotcolour,9,5,369,705,main,positivefb,-99,easy,7,0.9014572999999473,['n'],1,right,['1'],6,0.09495079999987865,,,1,20,Vrouw,Links,1,
,xotask,xotask,dotcolour,10,5,370,706,main,positivefb,-99,average,16,0.4345945000000029,['n'],1,right,['1'],6,0.10758050000004005,,,1,20,Vrouw,Links,1,
,xotask,xotask,dotcolour,11,5,371,707,main,positivefb,-99,hard,53,1.9171236000001954,['c'],1,left,['1'],6,0.10794269999996686,,,1,20,Vrouw,Links,1,
,xotask,xotask,dotcolour,12,5,372,708,main,positivefb,-99,average,60,2.601316200000383,['n'],0,left,['1'],6,0.11245930000040971,,,1,20,Vrouw,Links,1,
,xotask,xotask,dotcolour,13,5,373,709,main,positivefb,-99,average,16,0.6338441999996576,['n'],1,right,['1'],6,0.17134320000013759,,,1,20,Vrouw,Links,1,
,xotask,xotask,dotcolour,14,5,374,710,main,positivefb,-99,average,62,0.4680916000002071,['n'],0,left,['1'],6,0.13858239999990474,,,1,20,Vrouw,Links,1,
,xotask,xotask,dotcolour,15,5,375,711,main,positivefb,-99,average,63,2.200036799999907,['c'],1,left,['2'],5,0.0790063000004011,,,1,20,Vrouw,Links,1,
,xotask,xotask,dotcolour,16,5,376,712,main,positivefb,-99,average,62,0.9175050999997438,['c'],1,left,['1'],6,0.1757876000001488,,,1,20,Vrouw,Links,1,
,xotask,xotask,dotcolour,17,5,377,713,main,positivefb,-99,easy,70,0.6008795000002465,['c'],1,left,['2'],5,0.0977376999999251,,,1,20,Vrouw,Links,1,
,xotask,xotask,dotcolour,18,5,378,714,main,positivefb,-99,hard,26,0.4006706000000122,['c'],0,right,['1'],6,0.062486400000125286,,,1,20,Vrouw,Links,1,
,xotask,xotask,dotcolour,19,5,379,715,main,positivefb,-99,hard,50,0.4849144999998316,['n'],0,left,['2'],5,0.3455724000000373,,,1,20,Vrouw,Links,1,
,xotask,xotask,dotcolour,20,5,380,716,main,positivefb,-99,easy,9,0.5516625000000204,['n'],1,right,['2'],5,0.158556000000317,,,1,20,Vrouw,Links,1,
,xotask,xotask,dotcolour,21,5,381,717,main,positivefb,-99,hard,51,1.1674473999996735,['c'],1,left,['1'],6,0.09076359999971828,,,1,20,Vrouw,Links,1,
,xotask,xotask,dotcolour,22,5,382,718,main,positivefb,-99,hard,54,0.8679480999999214,['c'],1,left,['1'],6,0.0857903000000988,,,1,20,Vrouw,Links,1,
,xotask,xotask,dotcolour,23,5,383,719,main,positivefb,-99,hard,29,0.5832345999997415,['c'],0,right,['1'],6,0.0604683000001387,,,1,20,Vrouw,Links,1,
,xotask,xotask,dotcolour,24,5,384,720,main,positivefb,-99,easy,74,0.700616699999955,['c'],1,left,['1'],6,0.030375899999853573,,,1,20,Vrouw,Links,1,
,xotask,xotask,dotcolour,25,5,385,721,main,positivefb,-99,easy,6,0.6006510000001981,['n'],1,right,['2'],5,0.12681920000022728,,,1,20,Vrouw,Links,1,
,xotask,xotask,dotcolour,26,5,386,722,main,positivefb,-99,easy,5,0.4673511999999391,['n'],1,right,['1'],6,0.10383630000023913,,,1,20,Vrouw,Links,1,
,xotask,xotask,dotcolour,27,5,387,723,main,positivefb,-99,hard,27,0.4180618999998842,['n'],1,right,['1'],6,0.11586519999991651,,,1,20,Vrouw,Links,1,
,xotask,xotask,dotcolour,28,5,388,724,main,positivefb,-99,average,18,0.5682951999997385,['n'],1,right,['1'],6,0.16135159999976167,,,1,20,Vrouw,Links,1,
,xotask,xotask,dotcolour,29,5,389,725,main,positivefb,-99,easy,8,0.6021717000003264,['n'],1,right,['1'],6,0.04406479999988733,,,1,20,Vrouw,Links,1,
,xotask,xotask,dotcolour,30,5,390,726,main,positivefb,-99,hard,25,1.702095499999814,['n'],1,right,['2'],5,0.1595476000002236,,,1,20,Vrouw,Links,1,
,xotask,xotask,dotcolour,31,5,391,727,main,positivefb,-99,easy,6,0.8334645999998429,['n'],1,right,['1'],6,0.16801559999976234,,,1,20,Vrouw,Links,1,
,xotask,xotask,dotcolour,32,5,392,728,main,positivefb,-99,hard,54,0.8338350000003629,['c'],1,left,['1'],6,0.10487280000006649,,,1,20,Vrouw,Links,1,
,xotask,xotask,dotcolour,33,5,393,729,main,positivefb,-99,hard,25,0.601155899999867,['n'],1,right,['2'],5,0.23747629999979836,,,1,20,Vrouw,Links,1,
,xotask,xotask,dotcolour,34,5,394,730,main,positivefb,-99,easy,8,0.50153599999976,['n'],1,right,['1'],6,0.25733130000025994,,,1,20,Vrouw,Links,1,
,xotask,xotask,dotcolour,35,5,395,731,main,positivefb,-99,easy,8,0.701440299999831,['n'],1,right,['1'],6,1.6036023000001478,,,1,20,Vrouw,Links,1,
,xotask,xotask,dotcolour,36,5,396,732,main,positivefb,-99,hard,52,1.3505694000000403,['c'],1,left,['1'],6,0.11063969999986512,,,1,20,Vrouw,Links,1,
,xotask,xotask,dotcolour,37,5,397,733,main,positivefb,-99,average,63,0.5671366999999918,['n'],0,left,['0'],1,0.6447598999998263,,,1,20,Vrouw,Links,1,
,xotask,xotask,dotcolour,38,5,398,734,main,positivefb,-99,easy,73,0.6343185000000631,['c'],1,left,['1'],6,0.11507819999997082,,,1,20,Vrouw,Links,1,
,xotask,xotask,dotcolour,39,5,399,735,main,positivefb,-99,average,18,0.6842625999997836,['n'],1,right,['1'],6,0.21920129999989513,,,1,20,Vrouw,Links,1,
,xotask,xotask,dotcolour,40,5,400,736,main,positivefb,-99,easy,73,0.6675904999997329,['c'],1,left,['1'],6,0.08898719999979221,,,1,20,Vrouw,Links,1,
,xotask,xotask,dotcolour,41,5,401,737,main,positivefb,-99,easy,8,0.8504849000000831,['n'],1,right,['2'],5,0.33992650000027425,,,1,20,Vrouw,Links,1,
,xotask,xotask,dotcolour,42,5,402,738,main,positivefb,-99,hard,29,0.8174662999999782,['c'],0,right,['1'],6,0.09426329999996597,,,1,20,Vrouw,Links,1,
,xotask,xotask,dotcolour,43,5,403,739,main,positivefb,-99,easy,71,0.6504268999997294,['c'],1,left,['1'],6,0.07386370000040188,,,1,20,Vrouw,Links,1,
,xotask,xotask,dotcolour,44,5,404,740,main,positivefb,-99,easy,73,0.6010630000000674,['c'],1,left,['1'],6,0.10474269999986063,,,1,20,Vrouw,Links,1,
,xotask,xotask,dotcolour,45,5,405,741,main,positivefb,-99,average,60,0.6671920000003411,['c'],1,left,['1'],6,0.15435690000003888,,,1,20,Vrouw,Links,1,
,xotask,xotask,dotcolour,46,5,406,742,main,positivefb,-99,hard,25,0.5676607999998851,['n'],1,right,['2'],5,0.19778409999980795,,,1,20,Vrouw,Links,1,
,xotask,xotask,dotcolour,47,5,407,743,main,positivefb,-99,easy,74,1.518322200000057,['c'],1,left,['2'],5,0.1700751000003038,,,1,20,Vrouw,Links,1,
,xotask,xotask,dotcolour,48,5,408,744,main,positivefb,-99,easy,74,0.44980789999999615,['n'],0,left,['0'],1,0.8340539999999237,,,1,20,Vrouw,Links,1,
,xotask,xotask,dotcolour,49,5,409,745,main,positivefb,-99,hard,26,0.9507063999999446,['c'],0,right,['1'],6,0.09938969999984693,,,1,20,Vrouw,Links,1,
,xotask,xotask,dotcolour,50,5,410,746,main,positivefb,-99,easy,74,0.6832348999996611,['c'],1,left,['2'],5,0.10848869999972521,,,1,20,Vrouw,Links,1,
,xotask,xotask,dotcolour,51,5,411,747,main,positivefb,-99,hard,25,0.6675783999999112,['n'],1,right,['1'],6,0.13427809999984675,,,1,20,Vrouw,Links,1,
,xotask,xotask,dotcolour,52,5,412,748,main,positivefb,-99,easy,73,0.6335248999998839,['n'],0,left,['1'],6,0.16133440000021437,,,1,20,Vrouw,Links,1,
,xotask,xotask,dotcolour,53,5,413,749,main,positivefb,-99,hard,26,0.6679343999999219,['c'],0,right,['0'],1,2.0968645000002653,,,1,20,Vrouw,Links,1,
,xotask,xotask,dotcolour,54,5,414,750,main,positivefb,-99,average,61,0.7504340000000411,['c'],1,left,['1'],6,0.10373930000014298,,,1,20,Vrouw,Links,1,
,xotask,xotask,dotcolour,55,5,415,751,main,positivefb,-99,hard,51,0.8009067000002688,['c'],1,left,['1'],6,0.10909730000003037,,,1,20,Vrouw,Links,1,
,xotask,xotask,dotcolour,56,5,416,752,main,positivefb,-99,hard,51,0.8167871000000559,['c'],1,left,['1'],6,0.12827850000030594,,,1,20,Vrouw,Links,1,
,xotask,xotask,dotcolour,57,5,417,753,main,positivefb,-99,hard,26,0.6344817999997758,['c'],0,right,['1'],6,0.08379599999989296,,,1,20,Vrouw,Links,1,
,xotask,xotask,dotcolour,58,5,418,754,main,positivefb,-99,average,17,0.7001964000000953,['n'],1,right,['2'],5,0.2851561999996193,,,1,20,Vrouw,Links,1,
,xotask,xotask,dotcolour,59,5,419,755,main,positivefb,-99,average,16,0.5005199000001994,['n'],1,right,['2'],5,0.19822919999978694,,,1,20,Vrouw,Links,1,
,xotask,xotask,dotcolour,60,5,420,756,main,positivefb,-99,average,17,0.3682243999996899,['n'],1,right,['1'],6,0.12797349999982544,,,1,20,Vrouw,Links,1,
,xotask,xotask,dotcolour,61,5,421,757,main,positivefb,-99,average,17,0.5178418999998939,['n'],1,right,['1'],6,0.11927669999977297,,,1,20,Vrouw,Links,1,
,xotask,xotask,dotcolour,62,5,422,758,main,positivefb,-99,hard,54,0.6829907999999705,['c'],1,left,['1'],6,0.07166460000007646,,,1,20,Vrouw,Links,1,
,xotask,xotask,dotcolour,63,5,423,759,main,positivefb,-99,average,60,1.5001735999999255,['c'],1,left,['2'],5,0.1860578999999234,,,1,20,Vrouw,Links,1,
,xotask,xotask,dotcolour,64,5,424,760,main,positivefb,-99,average,63,0.9684958000002553,['c'],1,left,['2'],5,0.09263710000004721,,,1,20,Vrouw,Links,1,
,xotask,xotask,dotcolour,65,5,425,761,main,positivefb,-99,easy,8,0.5339926999999989,['n'],1,right,['1'],6,0.10899579999977504,,,1,20,Vrouw,Links,1,
,xotask,xotask,dotcolour,66,5,426,762,main,positivefb,-99,average,60,1.017759500000011,['c'],1,left,['1'],6,0.14472079999995913,,,1,20,Vrouw,Links,1,
,xotask,xotask,dotcolour,67,5,427,763,main,positivefb,-99,hard,54,1.017705400000068,['c'],1,left,['1'],6,0.019074699999691802,,,1,20,Vrouw,Links,1,
,xotask,xotask,dotcolour,68,5,428,764,main,positivefb,-99,average,16,0.5334649000001264,['n'],1,right,['1'],6,0.11816110000017943,,,1,20,Vrouw,Links,1,
,xotask,xotask,dotcolour,69,5,429,765,main,positivefb,-99,hard,25,0.717400600000019,['n'],1,right,['1'],6,0.1413673000001836,,,1,20,Vrouw,Links,1,
,xotask,xotask,dotcolour,70,5,430,766,main,positivefb,-99,hard,50,1.8171849000000293,['c'],1,left,['1'],6,0.09589610000011817,,,1,20,Vrouw,Links,1,
,xotask,xotask,dotcolour,71,5,431,767,main,positivefb,-99,easy,72,0.7506809999999859,['c'],1,left,['1'],6,0.1995969999998124,,,1,20,Vrouw,Links,1,
,xotask,xotask,dotcolour,0,6,432,768,main,positivefb,-99,hard,53,0.8182145999999193,['n'],0,left,['1'],6,0.22729260000005524,,,1,20,Vrouw,Links,1,
,xotask,xotask,dotcolour,1,6,433,769,main,positivefb,-99,easy,72,0.8173805999999786,['c'],1,left,['1'],6,0.11445199999980105,,,1,20,Vrouw,Links,1,
,xotask,xotask,dotcolour,2,6,434,770,main,positivefb,-99,average,18,0.7510272999998051,['n'],1,right,['1'],6,0.1924349999999322,,,1,20,Vrouw,Links,1,
,xotask,xotask,dotcolour,3,6,435,771,main,positivefb,-99,easy,72,0.667647400000078,['c'],1,left,['1'],6,0.05580580000014379,,,1,20,Vrouw,Links,1,
,xotask,xotask,dotcolour,4,6,436,772,main,positivefb,-99,easy,6,0.5509655999999268,['n'],1,right,['1'],6,0.09706890000006752,,,1,20,Vrouw,Links,1,
,xotask,xotask,dotcolour,5,6,437,773,main,positivefb,-99,average,63,0.5336129000002074,['n'],0,left,['1'],6,0.13709629999993922,,,1,20,Vrouw,Links,1,
,xotask,xotask,dotcolour,6,6,438,774,main,positivefb,-99,hard,29,0.6157683000001271,['n'],1,right,['1'],6,0.13179949999994278,,,1,20,Vrouw,Links,1,
,xotask,xotask,dotcolour,7,6,439,775,main,positivefb,-99,easy,71,0.5507416999998895,['c'],1,left,['1'],6,0.05594179999980042,,,1,20,Vrouw,Links,1,
,xotask,xotask,dotcolour,8,6,440,776,main,positivefb,-99,average,63,0.6344951999999466,['c'],1,left,['1'],6,0.09389699999974255,,,1,20,Vrouw,Links,1,
,xotask,xotask,dotcolour,9,6,441,777,main,positivefb,-99,average,61,0.4672731999999087,['c'],1,left,['1'],6,0.09683949999998731,,,1,20,Vrouw,Links,1,
,xotask,xotask,dotcolour,10,6,442,778,main,positivefb,-99,average,63,0.46843940000007933,['c'],1,left,['1'],6,0.08275129999992714,,,1,20,Vrouw,Links,1,
,xotask,xotask,dotcolour,11,6,443,779,main,positivefb,-99,hard,50,0.884140699999989,['c'],1,left,['1'],6,0.08467229999996562,,,1,20,Vrouw,Links,1,
,xotask,xotask,dotcolour,12,6,444,780,main,positivefb,-99,easy,74,1.1169839999997748,['n'],0,left,['2'],5,0.3896551000002546,,,1,20,Vrouw,Links,1,
,xotask,xotask,dotcolour,13,6,445,781,main,positivefb,-99,average,61,0.8169527000000016,['c'],1,left,['1'],6,0.08677420000003622,,,1,20,Vrouw,Links,1,
,xotask,xotask,dotcolour,14,6,446,782,main,positivefb,-99,average,15,0.7015910000000076,['n'],1,right,['2'],5,0.24761129999978948,,,1,20,Vrouw,Links,1,
,xotask,xotask,dotcolour,15,6,447,783,main,positivefb,-99,easy,7,0.5512642000003325,['n'],1,right,['2'],5,0.2003751000002012,,,1,20,Vrouw,Links,1,
,xotask,xotask,dotcolour,16,6,448,784,main,positivefb,-99,hard,50,0.8674942000002375,['c'],1,left,['1'],6,0.0705097999998543,,,1,20,Vrouw,Links,1,
,xotask,xotask,dotcolour,17,6,449,785,main,positivefb,-99,hard,25,1.0176860999999917,['n'],1,right,['2'],5,0.19580199999973047,,,1,20,Vrouw,Links,1,
,xotask,xotask,dotcolour,18,6,450,786,main,positivefb,-99,average,19,0.6678305000000364,['n'],1,right,['2'],5,0.22729549999985466,,,1,20,Vrouw,Links,1,
,xotask,xotask,dotcolour,19,6,451,787,main,positivefb,-99,hard,25,0.5839404999996987,['n'],1,right,['2'],5,0.1545320999998694,,,1,20,Vrouw,Links,1,
,xotask,xotask,dotcolour,20,6,452,788,main,positivefb,-99,hard,53,0.3837588000001233,['n'],0,left,['9'],2,1.3270336000000498,,,1,20,Vrouw,Links,1,
,xotask,xotask,dotcolour,21,6,453,789,main,positivefb,-99,easy,70,0.6688721000000442,['c'],1,left,['2'],5,0.11969520000002376,,,1,20,Vrouw,Links,1,
,xotask,xotask,dotcolour,22,6,454,790,main,positivefb,-99,easy,71,0.5502185000000281,['c'],1,left,['1'],6,0.1178752999999233,,,1,20,Vrouw,Links,1,
,xotask,xotask,dotcolour,23,6,455,791,main,positivefb,-99,easy,72,0.5176939000002676,['c'],1,left,['1'],6,0.08464819999971951,,,1,20,Vrouw,Links,1,
,xotask,xotask,dotcolour,24,6,456,792,main,positivefb,-99,hard,25,0.4670092000001205,['n'],1,right,['1'],6,0.12824759999966773,,,1,20,Vrouw,Links,1,
,xotask,xotask,dotcolour,25,6,457,793,main,positivefb,-99,easy,74,0.5009940999998435,['n'],0,left,['9'],2,2.304158400000233,,,1,20,Vrouw,Links,1,
,xotask,xotask,dotcolour,26,6,458,794,main,positivefb,-99,average,64,0.5347357999999076,['c'],1,left,['1'],6,0.031399899999996705,,,1,20,Vrouw,Links,1,
,xotask,xotask,dotcolour,27,6,459,795,main,positivefb,-99,easy,7,0.8338420999998561,['n'],1,right,['1'],6,0.0851620999997067,,,1,20,Vrouw,Links,1,
,xotask,xotask,dotcolour,28,6,460,796,main,positivefb,-99,hard,51,0.45079960000020947,['c'],1,left,['1'],6,0.12080070000001797,,,1,20,Vrouw,Links,1,
,xotask,xotask,dotcolour,29,6,461,797,main,positivefb,-99,hard,54,0.40142299999979514,['n'],0,left,['9'],2,0.9966228999996929,,,1,20,Vrouw,Links,1,
,xotask,xotask,dotcolour,30,6,462,798,main,positivefb,-99,average,16,0.6675203999998303,['n'],1,right,['1'],6,0.17897540000012668,,,1,20,Vrouw,Links,1,
,xotask,xotask,dotcolour,31,6,463,799,main,positivefb,-99,average,61,0.9335172000000966,['c'],1,left,['1'],6,0.07980210000005172,,,1,20,Vrouw,Links,1,
,xotask,xotask,dotcolour,32,6,464,800,main,positivefb,-99,average,19,0.5342110000001412,['n'],1,right,['1'],6,0.09643539999979112,,,1,20,Vrouw,Links,1,
,xotask,xotask,dotcolour,33,6,465,801,main,positivefb,-99,easy,70,0.45101729999987583,['c'],1,left,['1'],6,0.0920469000002413,,,1,20,Vrouw,Links,1,
,xotask,xotask,dotcolour,34,6,466,802,main,positivefb,-99,easy,5,0.5675249999999323,['n'],1,right,['1'],6,0.16306279999980688,,,1,20,Vrouw,Links,1,
,xotask,xotask,dotcolour,35,6,467,803,main,positivefb,-99,hard,51,0.567739900000106,['c'],1,left,['1'],6,0.07118560000026264,,,1,20,Vrouw,Links,1,
,xotask,xotask,dotcolour,36,6,468,804,main,positivefb,-99,hard,29,0.41807840000001306,['n'],1,right,['1'],6,0.07611339999994016,,,1,20,Vrouw,Links,1,
,xotask,xotask,dotcolour,37,6,469,805,main,positivefb,-99,hard,52,0.5678216999999677,['n'],0,left,['1'],6,0.07547459999977946,,,1,20,Vrouw,Links,1,
,xotask,xotask,dotcolour,38,6,470,806,main,positivefb,-99,average,60,0.6676873999999771,['c'],1,left,['1'],6,0.0550970000003872,,,1,20,Vrouw,Links,1,
,xotask,xotask,dotcolour,39,6,471,807,main,positivefb,-99,hard,28,0.483486499999799,['n'],1,right,['1'],6,0.09072990000004211,,,1,20,Vrouw,Links,1,
,xotask,xotask,dotcolour,40,6,472,808,main,positivefb,-99,average,64,0.40083210000011604,['c'],1,left,['1'],6,0.09544860000005428,,,1,20,Vrouw,Links,1,
,xotask,xotask,dotcolour,41,6,473,809,main,positivefb,-99,easy,71,0.36673479999990377,['n'],0,left,['2'],5,0.17492819999961284,,,1,20,Vrouw,Links,1,
,xotask,xotask,dotcolour,42,6,474,810,main,positivefb,-99,hard,29,1.4508104000001367,['n'],1,right,['2'],5,0.12676620000002004,,,1,20,Vrouw,Links,1,
,xotask,xotask,dotcolour,43,6,475,811,main,positivefb,-99,easy,5,0.666832500000055,['n'],1,right,['2'],5,0.17556130000002668,,,1,20,Vrouw,Links,1,
,xotask,xotask,dotcolour,44,6,476,812,main,positivefb,-99,hard,26,0.43461729999989984,['n'],1,right,['1'],6,0.15212190000011105,,,1,20,Vrouw,Links,1,
,xotask,xotask,dotcolour,45,6,477,813,main,positivefb,-99,hard,27,0.6009123999997428,['n'],1,right,['1'],6,0.11521309999989171,,,1,20,Vrouw,Links,1,
,xotask,xotask,dotcolour,46,6,478,814,main,positivefb,-99,average,61,0.550587700000051,['n'],0,left,['1'],6,0.1524450000001707,,,1,20,Vrouw,Links,1,
,xotask,xotask,dotcolour,47,6,479,815,main,positivefb,-99,average,19,0.6184597999999824,['n'],1,right,['1'],6,0.1388281999998071,,,1,20,Vrouw,Links,1,
,xotask,xotask,dotcolour,48,6,480,816,main,positivefb,-99,hard,52,0.700698999999986,['c'],1,left,['1'],6,0.08225790000005873,,,1,20,Vrouw,Links,1,
,xotask,xotask,dotcolour,49,6,481,817,main,positivefb,-99,average,16,0.7673764999999548,['n'],1,right,['2'],5,0.44913750000023356,,,1,20,Vrouw,Links,1,
,xotask,xotask,dotcolour,50,6,482,818,main,positivefb,-99,easy,72,1.2010491000000911,['c'],1,left,['1'],6,0.08725279999998747,,,1,20,Vrouw,Links,1,
,xotask,xotask,dotcolour,51,6,483,819,main,positivefb,-99,average,15,0.6349860000000263,['n'],1,right,['1'],6,0.17119800000000396,,,1,20,Vrouw,Links,1,
,xotask,xotask,dotcolour,52,6,484,820,main,positivefb,-99,hard,29,0.5013347999997677,['n'],1,right,['1'],6,0.08170129999962228,,,1,20,Vrouw,Links,1,
,xotask,xotask,dotcolour,53,6,485,821,main,positivefb,-99,easy,9,0.9008961999998064,['n'],1,right,['1'],6,0.17058609999958207,,,1,20,Vrouw,Links,1,
,xotask,xotask,dotcolour,54,6,486,822,main,positivefb,-99,easy,9,0.6176225999997769,['n'],1,right,['1'],6,0.17206510000005437,,,1,20,Vrouw,Links,1,
,xotask,xotask,dotcolour,55,6,487,823,main,positivefb,-99,easy,5,0.6170067999996718,['n'],1,right,['1'],6,0.08560010000019247,,,1,20,Vrouw,Links,1,
,xotask,xotask,dotcolour,56,6,488,824,main,positivefb,-99,average,60,0.5845186999999896,['c'],1,left,['1'],6,0.08299979999992502,,,1,20,Vrouw,Links,1,
,xotask,xotask,dotcolour,57,6,489,825,main,positivefb,-99,average,15,0.4844026999999187,['n'],1,right,['1'],6,0.14928129999998418,,,1,20,Vrouw,Links,1,
,xotask,xotask,dotcolour,58,6,490,826,main,positivefb,-99,easy,7,2.51718129999972,['n'],1,right,['1'],6,0.09963369999968563,,,1,20,Vrouw,Links,1,
,xotask,xotask,dotcolour,59,6,491,827,main,positivefb,-99,easy,7,1.0511958000001869,['n'],1,right,['1'],6,0.18209600000000137,,,1,20,Vrouw,Links,1,
,xotask,xotask,dotcolour,60,6,492,828,main,positivefb,-99,average,17,0.7165805999998156,['n'],1,right,['1'],6,0.12301250000018626,,,1,20,Vrouw,Links,1,
,xotask,xotask,dotcolour,61,6,493,829,main,positivefb,-99,hard,53,0.5507090000000971,['n'],0,left,['9'],2,0.977065500000208,,,1,20,Vrouw,Links,1,
,xotask,xotask,dotcolour,62,6,494,830,main,positivefb,-99,hard,53,0.9016215999999986,['c'],1,left,['1'],6,1.278784799999812,,,1,20,Vrouw,Links,1,
,xotask,xotask,dotcolour,63,6,495,831,main,positivefb,-99,easy,5,1.6497420999999122,['n'],1,right,['1'],6,0.16285359999983484,,,1,20,Vrouw,Links,1,
,xotask,xotask,dotcolour,64,6,496,832,main,positivefb,-99,hard,28,1.9840949999997974,['n'],1,right,['1'],6,0.1425731999997879,,,1,20,Vrouw,Links,1,
,xotask,xotask,dotcolour,65,6,497,833,main,positivefb,-99,hard,50,1.0675285000002077,['c'],1,left,['1'],6,0.07062120000000505,,,1,20,Vrouw,Links,1,
,xotask,xotask,dotcolour,66,6,498,834,main,positivefb,-99,average,64,0.5838846999999987,['c'],1,left,['1'],6,0.11757829999987734,,,1,20,Vrouw,Links,1,
,xotask,xotask,dotcolour,67,6,499,835,main,positivefb,-99,hard,26,0.7690833000001476,['c'],0,right,['1'],6,0.11522240000022066,,,1,20,Vrouw,Links,1,
,xotask,xotask,dotcolour,68,6,500,836,main,positivefb,-99,easy,8,0.733962799999972,['n'],1,right,['1'],6,0.16990770000029443,,,1,20,Vrouw,Links,1,
,xotask,xotask,dotcolour,69,6,501,837,main,positivefb,-99,average,15,0.5176567999997133,['n'],1,right,['1'],6,0.11135539999986577,,,1,20,Vrouw,Links,1,
,xotask,xotask,dotcolour,70,6,502,838,main,positivefb,-99,easy,71,0.6021095000000969,['c'],1,left,['1'],6,0.09946570000010979,,,1,20,Vrouw,Links,1,
,xotask,xotask,dotcolour,71,6,503,839,main,positivefb,-99,average,16,0.45090120000031675,['n'],1,right,['1'],6,0.15010720000009314,,,1,20,Vrouw,Links,1,
,xotask,xotask,dotcolour,0,7,504,840,main,positivefb,-99,easy,74,1.8678728999998384,['c'],1,left,['1'],6,1.1598234999996748,,,1,20,Vrouw,Links,1,
,xotask,xotask,dotcolour,1,7,505,841,main,positivefb,-99,easy,74,0.6507816999996976,['c'],1,left,['1'],6,0.05645559999993566,,,1,20,Vrouw,Links,1,
,xotask,xotask,dotcolour,2,7,506,842,main,positivefb,-99,average,61,0.8179104000000734,['c'],1,left,['1'],6,0.09446990000014921,,,1,20,Vrouw,Links,1,
,xotask,xotask,dotcolour,3,7,507,843,main,positivefb,-99,average,60,0.6005239000000984,['c'],1,left,['1'],6,0.1560312999999951,,,1,20,Vrouw,Links,1,
,xotask,xotask,dotcolour,4,7,508,844,main,positivefb,-99,hard,52,0.5182259999996859,['c'],1,left,['1'],6,0.09760009999990871,,,1,20,Vrouw,Links,1,
,xotask,xotask,dotcolour,5,7,509,845,main,positivefb,-99,hard,27,0.6684486999997716,['n'],1,right,['1'],6,0.25943580000011934,,,1,20,Vrouw,Links,1,
,xotask,xotask,dotcolour,6,7,510,846,main,positivefb,-99,hard,29,0.4672323999998298,['n'],1,right,['2'],5,0.7118929999996908,,,1,20,Vrouw,Links,1,
,xotask,xotask,dotcolour,7,7,511,847,main,positivefb,-99,hard,28,0.5506184000000758,['n'],1,right,['1'],6,0.32666440000002694,,,1,20,Vrouw,Links,1,
,xotask,xotask,dotcolour,8,7,512,848,main,positivefb,-99,hard,53,0.7180045000000064,['c'],1,left,['1'],6,0.09434000000010201,,,1,20,Vrouw,Links,1,
,xotask,xotask,dotcolour,9,7,513,849,main,positivefb,-99,hard,27,0.6012503000001743,['n'],1,right,['2'],5,0.12317940000002636,,,1,20,Vrouw,Links,1,
,xotask,xotask,dotcolour,10,7,514,850,main,positivefb,-99,average,19,0.6497073000000455,['n'],1,right,['2'],5,0.157520900000236,,,1,20,Vrouw,Links,1,
,xotask,xotask,dotcolour,11,7,515,851,main,positivefb,-99,hard,27,0.4177358000001732,['n'],1,right,['1'],6,0.1189065000003211,,,1,20,Vrouw,Links,1,
,xotask,xotask,dotcolour,12,7,516,852,main,positivefb,-99,easy,5,0.5850507999998626,['n'],1,right,['2'],5,0.11570630000005622,,,1,20,Vrouw,Links,1,
,xotask,xotask,dotcolour,13,7,517,853,main,positivefb,-99,easy,74,0.8677923000000192,['c'],1,left,['1'],6,0.013672699999915494,,,1,20,Vrouw,Links,1,
,xotask,xotask,dotcolour,14,7,518,854,main,positivefb,-99,hard,53,0.7005017000001317,['c'],1,left,['1'],6,0.8823560000000725,,,1,20,Vrouw,Links,1,
,xotask,xotask,dotcolour,15,7,519,855,main,positivefb,-99,average,17,1.2168625999997857,['n'],1,right,['1'],6,0.04639939999970011,,,1,20,Vrouw,Links,1,
,xotask,xotask,dotcolour,16,7,520,856,main,positivefb,-99,average,64,0.9179494999998496,['c'],1,left,['1'],6,0.0729076000002351,,,1,20,Vrouw,Links,1,
,xotask,xotask,dotcolour,17,7,521,857,main,positivefb,-99,easy,71,0.7836183999997957,['c'],1,left,['1'],6,0.10438720000001922,,,1,20,Vrouw,Links,1,
,xotask,xotask,dotcolour,18,7,522,858,main,positivefb,-99,average,61,0.6512184999996862,['c'],1,left,['1'],6,0.07490079999979571,,,1,20,Vrouw,Links,1,
,xotask,xotask,dotcolour,19,7,523,859,main,positivefb,-99,hard,27,0.5340378999999302,['n'],1,right,['1'],6,0.0910396999997829,,,1,20,Vrouw,Links,1,
,xotask,xotask,dotcolour,20,7,524,860,main,positivefb,-99,average,16,0.5844309999997677,['n'],1,right,['1'],6,0.1291627000000517,,,1,20,Vrouw,Links,1,
,xotask,xotask,dotcolour,21,7,525,861,main,positivefb,-99,hard,29,0.40098559999978534,['n'],1,right,['1'],6,0.12483750000001237,,,1,20,Vrouw,Links,1,
,xotask,xotask,dotcolour,22,7,526,862,main,positivefb,-99,average,19,0.5160918999999922,['n'],1,right,['1'],6,0.10125700000025972,,,1,20,Vrouw,Links,1,
,xotask,xotask,dotcolour,23,7,527,863,main,positivefb,-99,hard,54,0.6665776999998343,['c'],1,left,['1'],6,0.08650600000009945,,,1,20,Vrouw,Links,1,
,xotask,xotask,dotcolour,24,7,528,864,main,positivefb,-99,average,62,0.7519158000000061,['c'],1,left,['1'],6,0.03032599999960439,,,1,20,Vrouw,Links,1,
,xotask,xotask,dotcolour,25,7,529,865,main,positivefb,-99,easy,71,0.5684687000002668,['c'],1,left,['1'],6,0.11899369999991904,,,1,20,Vrouw,Links,1,
,xotask,xotask,dotcolour,26,7,530,866,main,positivefb,-99,hard,51,1.6842931000001045,['n'],0,left,['2'],5,0.2396115000001373,,,1,20,Vrouw,Links,1,
,xotask,xotask,dotcolour,27,7,531,867,main,positivefb,-99,average,18,0.7015566999998555,['c'],0,right,['1'],6,0.09078890000000683,,,1,20,Vrouw,Links,1,
,xotask,xotask,dotcolour,28,7,532,868,main,positivefb,-99,easy,9,0.7677104999997937,['c'],0,right,['1'],6,0.2180241000000933,,,1,20,Vrouw,Links,1,
,xotask,xotask,dotcolour,29,7,533,869,main,positivefb,-99,hard,52,0.983575700000074,['c'],1,left,['1'],6,0.08257350000030783,,,1,20,Vrouw,Links,1,
,xotask,xotask,dotcolour,30,7,534,870,main,positivefb,-99,hard,52,0.9677624000000833,['n'],0,left,['2'],5,0.09706110000024637,,,1,20,Vrouw,Links,1,
,xotask,xotask,dotcolour,31,7,535,871,main,positivefb,-99,easy,72,0.5514299000001301,['c'],1,left,['1'],6,0.08104499999990367,,,1,20,Vrouw,Links,1,
,xotask,xotask,dotcolour,32,7,536,872,main,positivefb,-99,hard,54,1.0020078000002286,['c'],1,left,['1'],6,0.07004609999967215,,,1,20,Vrouw,Links,1,
,xotask,xotask,dotcolour,33,7,537,873,main,positivefb,-99,easy,72,0.6174561000002541,['c'],1,left,['1'],6,0.036457700000028126,,,1,20,Vrouw,Links,1,
,xotask,xotask,dotcolour,34,7,538,874,main,positivefb,-99,average,15,0.5334077999996225,['n'],1,right,['2'],5,0.14195139999992534,,,1,20,Vrouw,Links,1,
,xotask,xotask,dotcolour,35,7,539,875,main,positivefb,-99,hard,27,0.4847228999997242,['n'],1,right,['1'],6,0.07810410000001866,,,1,20,Vrouw,Links,1,
,xotask,xotask,dotcolour,36,7,540,876,main,positivefb,-99,hard,52,0.7330805999999939,['c'],1,left,['1'],6,0.07909440000003087,,,1,20,Vrouw,Links,1,
,xotask,xotask,dotcolour,37,7,541,877,main,positivefb,-99,easy,74,0.7842901999997594,['n'],0,left,['1'],6,0.10959260000026916,,,1,20,Vrouw,Links,1,
,xotask,xotask,dotcolour,38,7,542,878,main,positivefb,-99,average,61,0.7011618999999882,['c'],1,left,['1'],6,0.07797879999998258,,,1,20,Vrouw,Links,1,
,xotask,xotask,dotcolour,39,7,543,879,main,positivefb,-99,average,16,0.533545199999935,['n'],1,right,['2'],5,0.14291950000006182,,,1,20,Vrouw,Links,1,
,xotask,xotask,dotcolour,40,7,544,880,main,positivefb,-99,average,64,0.7834207000000788,['c'],1,left,['1'],6,0.058453199999803473,,,1,20,Vrouw,Links,1,
,xotask,xotask,dotcolour,41,7,545,881,main,positivefb,-99,hard,29,0.5501364000001558,['n'],1,right,['2'],5,0.12306450000005498,,,1,20,Vrouw,Links,1,
,xotask,xotask,dotcolour,42,7,546,882,main,positivefb,-99,average,16,2.2517502000000604,['n'],1,right,['9'],2,0.1651264000001902,,,1,20,Vrouw,Links,1,
,xotask,xotask,dotcolour,43,7,547,883,main,positivefb,-99,average,60,0.6351507999997921,['c'],1,left,['1'],6,0.07024019999971642,,,1,20,Vrouw,Links,1,
,xotask,xotask,dotcolour,44,7,548,884,main,positivefb,-99,easy,5,0.45100219999994806,['n'],1,right,['1'],6,0.11432039999999688,,,1,20,Vrouw,Links,1,
,xotask,xotask,dotcolour,45,7,549,885,main,positivefb,-99,hard,29,0.8853245000000243,['n'],1,right,['1'],6,0.07512520000000222,,,1,20,Vrouw,Links,1,
,xotask,xotask,dotcolour,46,7,550,886,main,positivefb,-99,easy,6,0.7174864999997226,['n'],1,right,['1'],6,0.19718569999986357,,,1,20,Vrouw,Links,1,
,xotask,xotask,dotcolour,47,7,551,887,main,positivefb,-99,hard,27,0.6009647000000768,['n'],1,right,['2'],5,0.318715500000053,,,1,20,Vrouw,Links,1,
,xotask,xotask,dotcolour,48,7,552,888,main,positivefb,-99,average,17,0.6675299999997151,['n'],1,right,['2'],5,0.21549319999985528,,,1,20,Vrouw,Links,1,
,xotask,xotask,dotcolour,49,7,553,889,main,positivefb,-99,easy,7,0.6016097000001537,['n'],1,right,['2'],5,0.1193994999998722,,,1,20,Vrouw,Links,1,
,xotask,xotask,dotcolour,50,7,554,890,main,positivefb,-99,hard,25,0.567811200000051,['n'],1,right,['2'],5,0.13240330000007816,,,1,20,Vrouw,Links,1,
,xotask,xotask,dotcolour,51,7,555,891,main,positivefb,-99,easy,7,0.46774639999966894,['n'],1,right,['1'],6,0.1413207999999031,,,1,20,Vrouw,Links,1,
,xotask,xotask,dotcolour,52,7,556,892,main,positivefb,-99,easy,71,0.7340200000003279,['c'],1,left,['1'],6,0.12363319999985833,,,1,20,Vrouw,Links,1,
,xotask,xotask,dotcolour,53,7,557,893,main,positivefb,-99,average,18,0.5008245999997598,['c'],0,right,['0'],1,1.4994849999998223,,,1,20,Vrouw,Links,1,
,xotask,xotask,dotcolour,54,7,558,894,main,positivefb,-99,easy,74,0.9507465000001503,['c'],1,left,['1'],6,0.05032770000025266,,,1,20,Vrouw,Links,1,
,xotask,xotask,dotcolour,55,7,559,895,main,positivefb,-99,easy,7,0.5503858000001856,['n'],1,right,['1'],6,0.12296859999969456,,,1,20,Vrouw,Links,1,
,xotask,xotask,dotcolour,56,7,560,896,main,positivefb,-99,average,18,0.650872199999867,['n'],1,right,['1'],6,0.11716530000012426,,,1,20,Vrouw,Links,1,
,xotask,xotask,dotcolour,57,7,561,897,main,positivefb,-99,average,62,0.43433520000007775,['c'],1,left,['1'],6,0.07928769999989527,,,1,20,Vrouw,Links,1,
,xotask,xotask,dotcolour,58,7,562,898,main,positivefb,-99,easy,70,0.5517616000001908,['c'],1,left,['1'],6,0.1196073000000979,,,1,20,Vrouw,Links,1,
,xotask,xotask,dotcolour,59,7,563,899,main,positivefb,-99,average,63,0.6002798999998049,['c'],1,left,['1'],6,0.12396039999975983,,,1,20,Vrouw,Links,1,
,xotask,xotask,dotcolour,60,7,564,900,main,positivefb,-99,easy,7,0.7510214999997515,['n'],1,right,['2'],5,0.1295631000002686,,,1,20,Vrouw,Links,1,
,xotask,xotask,dotcolour,61,7,565,901,main,positivefb,-99,easy,6,0.6513766000002761,['n'],1,right,['1'],6,0.13150599999971746,,,1,20,Vrouw,Links,1,
,xotask,xotask,dotcolour,62,7,566,902,main,positivefb,-99,hard,50,0.8491679999997359,['c'],1,left,['1'],6,0.10077049999972587,,,1,20,Vrouw,Links,1,
