starttime,task,fbtask,firsttask,withinblocktrial,block,withintasktrial,trial,running,feedback,fbscore,difflevel,n_xes,rt,resp,cor,cresp,conf_press,cj,RTconf,reddots,post1,post2,post3,post4,post5,stoptime,sub,age,gender,handedness,session,
1715669956,xotask,xotask,xotask,0,0,0,0,training,positivefb,90,hard,51,6.63503639999999,['c'],1,left,['2'],2,3.6770971999999347,,,,,,,,26,19,Vrouw,Rechts,2,
,xotask,xotask,xotask,1,0,1,1,training,positivefb,99,easy,71,0.7843673999998373,['c'],1,left,['2'],2,0.5538817999999992,,,,,,,,26,19,Vrouw,Rechts,2,
,xotask,xotask,xotask,2,0,2,2,training,positivefb,94,hard,29,1.0674593000001096,['n'],1,right,['0'],6,0.24101799999994,,,,,,,,26,19,Vrouw,Rechts,2,
,xotask,xotask,xotask,3,0,3,3,training,positivefb,95,average,62,0.5338652999998885,['c'],1,left,['0'],6,0.09848109999984445,,,,,,,,26,19,Vrouw,Rechts,2,
,xotask,xotask,xotask,4,0,4,4,training,positivefb,80,average,61,0.8329210000001694,['c'],1,left,['0'],6,0.07706149999989975,,,,,,,,26,19,Vrouw,Rechts,2,
,xotask,xotask,xotask,5,0,5,5,training,positivefb,89,hard,52,2.116094799999928,['n'],0,left,['0'],6,0.08551020000004428,,,,,,,,26,19,Vrouw,Rechts,2,
,xotask,xotask,xotask,6,0,6,6,training,positivefb,89,average,16,0.616815600000109,['n'],1,right,['0'],6,0.11369469999999637,,,,,,,,26,19,Vrouw,Rechts,2,
,xotask,xotask,xotask,7,0,7,7,training,positivefb,91,hard,52,0.7341842999999244,['c'],1,left,['0'],6,0.10470759999998336,,,,,,,,26,19,Vrouw,Rechts,2,
,xotask,xotask,xotask,8,0,8,8,training,positivefb,98,easy,7,0.4675138000000061,['n'],1,right,['0'],6,0.08999679999988075,,,,,,,,26,19,Vrouw,Rechts,2,
,xotask,xotask,xotask,9,0,9,9,training,positivefb,99,hard,51,0.5012836000000789,['c'],1,left,['0'],6,0.09041479999996227,,,,,,,,26,19,Vrouw,Rechts,2,
,xotask,xotask,xotask,10,0,10,10,training,positivefb,99,average,62,0.5173307000000023,['c'],1,left,['0'],6,0.08277290000000903,,,,,,,,26,19,Vrouw,Rechts,2,
,xotask,xotask,xotask,11,0,11,11,training,positivefb,97,easy,7,0.4995993999998518,['n'],1,right,['0'],6,0.09109799999987445,,,,,,,,26,19,Vrouw,Rechts,2,
,xotask,xotask,xotask,12,0,12,12,training,positivefb,92,hard,25,0.5833624000001691,['n'],1,right,['0'],6,0.056135000000040236,,,,,,,,26,19,Vrouw,Rechts,2,
,xotask,xotask,xotask,13,0,13,13,training,positivefb,96,average,64,0.5331195000001117,['c'],1,left,['0'],6,0.056664299999965806,,,,,,,,26,19,Vrouw,Rechts,2,
,xotask,xotask,xotask,14,0,14,14,training,positivefb,94,hard,53,0.6168061000000762,['c'],1,left,['0'],6,0.08635909999998148,,,,,,,,26,19,Vrouw,Rechts,2,
,xotask,xotask,xotask,15,0,15,15,training,positivefb,91,average,19,0.75042940000003,['n'],1,right,['0'],6,0.0852647999997771,,,,,,,,26,19,Vrouw,Rechts,2,
,xotask,xotask,xotask,16,0,16,16,training,positivefb,71,hard,29,0.4500006000000667,['c'],0,right,['2'],2,0.527699800000164,,,,,,,,26,19,Vrouw,Rechts,2,
,xotask,xotask,xotask,17,0,17,17,training,positivefb,99,easy,72,0.5334626000001208,['c'],1,left,['0'],6,0.06997379999984332,,,,,,,,26,19,Vrouw,Rechts,2,
,xotask,xotask,xotask,18,0,18,18,training,positivefb,98,easy,71,0.3996829999998681,['c'],1,left,['0'],6,0.09153650000007474,,,,,,,,26,19,Vrouw,Rechts,2,
,xotask,xotask,xotask,19,0,19,19,training,positivefb,95,hard,27,0.6170466000000943,['n'],1,right,['0'],6,0.039177399999971385,,,,,,,,26,19,Vrouw,Rechts,2,
,xotask,xotask,xotask,20,0,20,20,training,positivefb,99,hard,51,0.4670529999998507,['c'],1,left,['0'],6,0.051158299999997325,,,,,,,,26,19,Vrouw,Rechts,2,
,xotask,xotask,xotask,21,0,21,21,training,positivefb,92,hard,25,0.8323003000000426,['n'],1,right,['0'],6,0.0637854999999945,,,,,,,,26,19,Vrouw,Rechts,2,
,xotask,xotask,xotask,22,0,22,22,training,positivefb,95,hard,28,0.6659770000001117,['n'],1,right,['0'],6,0.12369119999993927,,,,,,,,26,19,Vrouw,Rechts,2,
,xotask,xotask,xotask,23,0,23,23,training,positivefb,98,average,15,0.6002536000000873,['c'],0,right,['0'],6,0.07030880000002071,,,,,,,,26,19,Vrouw,Rechts,2,
,xotask,xotask,xotask,24,0,24,24,training,positivefb,96,easy,73,0.5507562999998754,['c'],1,left,['0'],6,0.062108999999964,,,,,,,,26,19,Vrouw,Rechts,2,
,xotask,xotask,xotask,25,0,25,25,training,positivefb,99,easy,72,0.5012636000001294,['c'],1,left,['0'],6,0.0878434000001107,,,,,,,,26,19,Vrouw,Rechts,2,
,xotask,xotask,xotask,26,0,26,26,training,positivefb,97,average,18,0.43321770000011384,['n'],1,right,['0'],6,0.08276389999991807,,,,,,,,26,19,Vrouw,Rechts,2,
,xotask,xotask,xotask,27,0,27,27,training,positivefb,99,average,61,0.5001772999999048,['c'],1,left,['0'],6,0.059948399999939284,,,,,,,,26,19,Vrouw,Rechts,2,
,xotask,xotask,xotask,28,0,28,28,training,positivefb,98,average,15,0.4502150000000711,['n'],1,right,['0'],6,0.04781660000003285,,,,,,,,26,19,Vrouw,Rechts,2,
,xotask,xotask,xotask,29,0,29,29,training,positivefb,97,average,18,0.5494419999999991,['n'],1,right,['0'],6,0.07194810000009966,,,,,,,,26,19,Vrouw,Rechts,2,
,xotask,xotask,xotask,30,0,30,30,training,positivefb,91,average,17,0.48349370000005365,['n'],1,right,['0'],6,0.08127119999994648,,,,,,,,26,19,Vrouw,Rechts,2,
,xotask,xotask,xotask,31,0,31,31,training,positivefb,91,average,17,0.46636979999993855,['n'],1,right,['0'],6,0.08371139999985644,,,,,,,,26,19,Vrouw,Rechts,2,
,xotask,xotask,xotask,32,0,32,32,training,positivefb,93,average,63,0.5338136999998824,['c'],1,left,['0'],6,0.051292899999907604,,,,,,,,26,19,Vrouw,Rechts,2,
,xotask,xotask,xotask,33,0,33,33,training,positivefb,97,easy,6,0.43301550000001043,['n'],1,right,['0'],6,0.04789099999993596,,,,,,,,26,19,Vrouw,Rechts,2,
,xotask,xotask,xotask,34,0,34,34,training,positivefb,99,easy,6,0.38293529999987186,['n'],1,right,['0'],6,0.07843960000013794,,,,,,,,26,19,Vrouw,Rechts,2,
,xotask,xotask,xotask,35,0,35,35,training,positivefb,97,easy,6,0.45049779999999373,['c'],0,right,['0'],6,0.16991400000006252,,,,,,,,26,19,Vrouw,Rechts,2,
,xotask,xotask,xotask,36,0,36,36,training,positivefb,92,hard,53,0.5669577999999547,['c'],1,left,['0'],6,0.09993710000003375,,,,,,,,26,19,Vrouw,Rechts,2,
,xotask,xotask,xotask,37,0,37,37,training,positivefb,99,hard,26,0.46677009999984875,['n'],1,right,['0'],6,0.04571999999984655,,,,,,,,26,19,Vrouw,Rechts,2,
,xotask,xotask,xotask,38,0,38,38,training,positivefb,94,hard,25,0.7340882000000875,['c'],0,right,['0'],6,0.5831448999999793,,,,,,,,26,19,Vrouw,Rechts,2,
,xotask,xotask,xotask,39,0,39,39,training,positivefb,86,hard,54,0.9666961999998875,['n'],0,left,['0'],6,0.06568749999996726,,,,,,,,26,19,Vrouw,Rechts,2,
,xotask,xotask,xotask,40,0,40,40,training,positivefb,92,easy,73,0.6679897999999866,['c'],1,left,['0'],6,0.09965420000003178,,,,,,,,26,19,Vrouw,Rechts,2,
,xotask,xotask,xotask,41,0,41,41,training,positivefb,95,easy,8,0.5516938000000664,['n'],1,right,['0'],6,0.025864299999966534,,,,,,,,26,19,Vrouw,Rechts,2,
,xotask,xotask,xotask,42,0,42,42,training,positivefb,98,hard,27,0.5331014999999297,['n'],1,right,['0'],6,0.4919327999998586,,,,,,,,26,19,Vrouw,Rechts,2,
,xotask,xotask,xotask,43,0,43,43,training,positivefb,93,easy,7,0.6169259000000693,['n'],1,right,['0'],6,0.0077936999998655665,,,,,,,,26,19,Vrouw,Rechts,2,
,xotask,xotask,xotask,44,0,44,44,training,positivefb,92,average,62,0.5349387999999635,['c'],1,left,['0'],6,0.04976119999992079,,,,,,,,26,19,Vrouw,Rechts,2,
,xotask,xotask,xotask,45,0,45,45,training,positivefb,94,average,18,0.6657187999999223,['n'],1,right,['0'],6,0.02979919999984304,,,,,,,,26,19,Vrouw,Rechts,2,
,xotask,xotask,xotask,46,0,46,46,training,positivefb,95,easy,70,0.5152573000000302,['c'],1,left,['0'],6,0.0725371000000905,,,,,,,,26,19,Vrouw,Rechts,2,
,xotask,xotask,xotask,47,0,47,47,training,positivefb,97,average,64,0.4680948999998691,['c'],1,left,['0'],6,0.08260810000001584,,,,,,,,26,19,Vrouw,Rechts,2,
,xotask,xotask,xotask,48,0,48,48,training,positivefb,99,average,62,0.5177880999999616,['c'],1,left,['0'],6,0.0910231999998814,,,,,,,,26,19,Vrouw,Rechts,2,
,xotask,xotask,xotask,49,0,49,49,training,positivefb,92,hard,52,0.7659923999999592,['c'],1,left,['0'],6,0.08966569999984131,,,,,,,,26,19,Vrouw,Rechts,2,
,xotask,xotask,xotask,50,0,50,50,training,positivefb,95,easy,71,0.5990506000000551,['c'],1,left,['0'],6,0.0624112000000423,,,,,,,,26,19,Vrouw,Rechts,2,
,xotask,xotask,xotask,51,0,51,51,training,positivefb,97,easy,9,0.5166862999999466,['n'],1,right,['0'],6,0.03886599999987084,,,,,,,,26,19,Vrouw,Rechts,2,
,xotask,xotask,xotask,52,0,52,52,training,positivefb,94,hard,51,0.5509906999998293,['c'],1,left,['0'],6,0.08005000000002838,,,,,,,,26,19,Vrouw,Rechts,2,
,xotask,xotask,xotask,53,0,53,53,training,positivefb,95,average,60,0.5166745999999875,['c'],1,left,['0'],6,0.08082890000014231,,,,,,,,26,19,Vrouw,Rechts,2,
,xotask,xotask,xotask,54,0,54,54,training,positivefb,96,easy,73,0.483711699999958,['c'],1,left,['0'],6,0.07397309999987556,,,,,,,,26,19,Vrouw,Rechts,2,
,xotask,xotask,xotask,55,0,55,55,training,positivefb,84,easy,7,0.9337129000000459,['c'],0,right,['0'],6,0.050313700000060635,,,,,,,,26,19,Vrouw,Rechts,2,
,xotask,xotask,xotask,56,0,56,56,training,positivefb,96,average,18,0.6337622999999439,['n'],1,right,['0'],6,0.08702199999993354,,,,,,,,26,19,Vrouw,Rechts,2,
,xotask,xotask,xotask,57,0,57,57,training,positivefb,97,easy,7,0.5329690999999457,['n'],1,right,['0'],6,0.06293929999992542,,,,,,,,26,19,Vrouw,Rechts,2,
,xotask,xotask,xotask,58,0,58,58,training,positivefb,80,hard,28,0.7338936999999532,['n'],1,right,['0'],6,0.07930410000017218,,,,,,,,26,19,Vrouw,Rechts,2,
,xotask,xotask,xotask,59,0,59,59,training,positivefb,97,easy,71,0.5678821000001335,['c'],1,left,['0'],6,0.06194790000017747,,,,,,,,26,19,Vrouw,Rechts,2,
,xotask,xotask,xotask,0,1,60,60,training,positivefb,96,average,18,0.5672415999999885,['n'],1,right,['0'],6,0.03245570000012776,,,,,,,,26,19,Vrouw,Rechts,2,
,xotask,xotask,xotask,1,1,61,61,training,positivefb,97,easy,6,0.43401109999990695,['n'],1,right,['0'],6,0.037788999999975204,,,,,,,,26,19,Vrouw,Rechts,2,
,xotask,xotask,xotask,2,1,62,62,training,positivefb,96,average,15,0.4329356999999163,['n'],1,right,['0'],6,0.042782799999940835,,,,,,,,26,19,Vrouw,Rechts,2,
,xotask,xotask,xotask,3,1,63,63,training,positivefb,93,average,17,0.45031440000002476,['n'],1,right,['0'],6,0.0557914000000892,,,,,,,,26,19,Vrouw,Rechts,2,
,xotask,xotask,xotask,4,1,64,64,training,positivefb,91,average,18,0.4012803000000531,['n'],1,right,['0'],6,0.054036499999938314,,,,,,,,26,19,Vrouw,Rechts,2,
,xotask,xotask,xotask,5,1,65,65,training,positivefb,96,hard,54,0.5163170999999238,['c'],1,left,['0'],6,0.03889330000015434,,,,,,,,26,19,Vrouw,Rechts,2,
,xotask,xotask,xotask,6,1,66,66,training,positivefb,98,average,63,0.39926569999988715,['c'],1,left,['0'],6,0.08561359999998785,,,,,,,,26,19,Vrouw,Rechts,2,
,xotask,xotask,xotask,7,1,67,67,training,positivefb,97,average,63,0.4838336000000254,['c'],1,left,['0'],6,0.07174009999994269,,,,,,,,26,19,Vrouw,Rechts,2,
,xotask,xotask,xotask,8,1,68,68,training,positivefb,96,hard,51,0.5333195999999134,['c'],1,left,['0'],6,0.03908509999996568,,,,,,,,26,19,Vrouw,Rechts,2,
,xotask,xotask,xotask,9,1,69,69,training,positivefb,92,easy,73,0.4836739999998372,['c'],1,left,['0'],6,0.03499610000017128,,,,,,,,26,19,Vrouw,Rechts,2,
,xotask,xotask,xotask,10,1,70,70,training,positivefb,97,average,15,0.500487099999873,['n'],1,right,['0'],6,0.5730450000000928,,,,,,,,26,19,Vrouw,Rechts,2,
,xotask,xotask,xotask,11,1,71,71,training,positivefb,98,easy,73,0.5161721000001762,['c'],1,left,['0'],6,0.026370799999995143,,,,,,,,26,19,Vrouw,Rechts,2,
,xotask,xotask,xotask,12,1,72,72,training,positivefb,97,hard,53,0.4999111999998149,['c'],1,left,['0'],6,0.021036999999978434,,,,,,,,26,19,Vrouw,Rechts,2,
,xotask,xotask,xotask,13,1,73,73,training,positivefb,96,easy,5,0.550688399999899,['n'],1,right,['0'],6,0.022500299999819617,,,,,,,,26,19,Vrouw,Rechts,2,
,xotask,xotask,xotask,14,1,74,74,training,positivefb,96,easy,72,0.7842178999999305,['c'],1,left,['0'],6,0.4710769999999229,,,,,,,,26,19,Vrouw,Rechts,2,
,xotask,xotask,xotask,15,1,75,75,training,positivefb,98,easy,72,0.4158735000000888,['c'],1,left,['0'],6,0.0433207000000948,,,,,,,,26,19,Vrouw,Rechts,2,
,xotask,xotask,xotask,16,1,76,76,training,positivefb,94,average,62,0.39944470000000365,['c'],1,left,['0'],6,0.05005110000001878,,,,,,,,26,19,Vrouw,Rechts,2,
,xotask,xotask,xotask,17,1,77,77,training,positivefb,91,average,15,0.46735709999984465,['n'],1,right,['0'],6,0.053432200000088415,,,,,,,,26,19,Vrouw,Rechts,2,
,xotask,xotask,xotask,18,1,78,78,training,positivefb,97,easy,73,0.450106999999889,['c'],1,left,['0'],6,0.06525649999980487,,,,,,,,26,19,Vrouw,Rechts,2,
,xotask,xotask,xotask,19,1,79,79,training,positivefb,96,average,63,0.6340701999999965,['c'],1,left,['0'],6,0.07726270000011937,,,,,,,,26,19,Vrouw,Rechts,2,
,xotask,xotask,xotask,20,1,80,80,training,positivefb,94,easy,6,0.5841027000001304,['n'],1,right,['0'],6,0.06719849999990402,,,,,,,,26,19,Vrouw,Rechts,2,
,xotask,xotask,xotask,21,1,81,81,training,positivefb,95,hard,51,0.5003429999999298,['n'],0,left,['0'],6,0.0924265999999534,,,,,,,,26,19,Vrouw,Rechts,2,
,xotask,xotask,xotask,22,1,82,82,training,positivefb,97,easy,6,0.49999079999997775,['n'],1,right,['0'],6,0.08548989999985679,,,,,,,,26,19,Vrouw,Rechts,2,
,xotask,xotask,xotask,23,1,83,83,training,positivefb,89,hard,28,0.4332291000000623,['n'],1,right,['0'],6,0.0482148999999481,,,,,,,,26,19,Vrouw,Rechts,2,
,xotask,xotask,xotask,24,1,84,84,training,positivefb,97,average,18,0.41612450000002354,['n'],1,right,['0'],6,0.08654770000021017,,,,,,,,26,19,Vrouw,Rechts,2,
,xotask,xotask,xotask,25,1,85,85,training,positivefb,94,average,63,0.49995960000001105,['c'],1,left,['0'],6,0.055139300000064395,,,,,,,,26,19,Vrouw,Rechts,2,
,xotask,xotask,xotask,26,1,86,86,training,positivefb,89,easy,9,0.6663413000001128,['n'],1,right,['0'],6,0.058502999999973326,,,,,,,,26,19,Vrouw,Rechts,2,
,xotask,xotask,xotask,27,1,87,87,training,positivefb,98,easy,6,0.4837035000000469,['n'],1,right,['0'],6,0.0771137000001545,,,,,,,,26,19,Vrouw,Rechts,2,
,xotask,xotask,xotask,28,1,88,88,training,positivefb,97,easy,5,0.45036789999994653,['n'],1,right,['0'],6,0.08048020000001088,,,,,,,,26,19,Vrouw,Rechts,2,
,xotask,xotask,xotask,29,1,89,89,training,positivefb,90,hard,54,0.6174989000001005,['c'],1,left,['0'],6,0.061021900000014284,,,,,,,,26,19,Vrouw,Rechts,2,
,xotask,xotask,xotask,30,1,90,90,training,positivefb,99,average,63,0.5837811000001238,['c'],1,left,['0'],6,0.12391890000003514,,,,,,,,26,19,Vrouw,Rechts,2,
,xotask,xotask,xotask,31,1,91,91,training,positivefb,83,hard,28,2.4012057999998433,['n'],1,right,['0'],6,0.12721800000008443,,,,,,,,26,19,Vrouw,Rechts,2,
,xotask,xotask,xotask,32,1,92,92,training,positivefb,95,average,15,0.583628299999873,['n'],1,right,['0'],6,0.03521669999986443,,,,,,,,26,19,Vrouw,Rechts,2,
,xotask,xotask,xotask,33,1,93,93,training,positivefb,94,hard,53,0.46730870000010327,['c'],1,left,['0'],6,0.03914570000006279,,,,,,,,26,19,Vrouw,Rechts,2,
,xotask,xotask,xotask,34,1,94,94,training,positivefb,99,average,63,0.4174278000000413,['c'],1,left,['0'],6,0.05312010000011469,,,,,,,,26,19,Vrouw,Rechts,2,
,xotask,xotask,xotask,35,1,95,95,training,positivefb,91,hard,51,0.9496521999999459,['n'],0,left,['0'],6,0.04525439999997616,,,,,,,,26,19,Vrouw,Rechts,2,
,xotask,xotask,xotask,36,1,96,96,training,positivefb,97,easy,74,0.766930400000092,['c'],1,left,['0'],6,0.06838260000017726,,,,,,,,26,19,Vrouw,Rechts,2,
,xotask,xotask,xotask,37,1,97,97,training,positivefb,86,hard,29,0.6331069000000298,['n'],1,right,['2'],2,0.44083709999995335,,,,,,,,26,19,Vrouw,Rechts,2,
,xotask,xotask,xotask,38,1,98,98,training,positivefb,92,hard,51,0.9339947999999367,['c'],1,left,['0'],6,0.12944770000012795,,,,,,,,26,19,Vrouw,Rechts,2,
,xotask,xotask,xotask,39,1,99,99,training,positivefb,97,hard,54,0.6342853000001014,['n'],0,left,['0'],6,0.08336030000009487,,,,,,,,26,19,Vrouw,Rechts,2,
,xotask,xotask,xotask,40,1,100,100,training,positivefb,98,hard,28,0.44997639999996863,['n'],1,right,['0'],6,0.030620900000030815,,,,,,,,26,19,Vrouw,Rechts,2,
,xotask,xotask,xotask,41,1,101,101,training,positivefb,98,easy,7,0.4332710000001043,['n'],1,right,['0'],6,0.09322930000007545,,,,,,,,26,19,Vrouw,Rechts,2,
,xotask,xotask,xotask,42,1,102,102,training,positivefb,92,easy,5,0.4837012999998933,['n'],1,right,['0'],6,0.09379779999994753,,,,,,,,26,19,Vrouw,Rechts,2,
,xotask,xotask,xotask,43,1,103,103,training,positivefb,98,hard,53,0.5339301999999861,['c'],1,left,['0'],6,0.1170830000000933,,,,,,,,26,19,Vrouw,Rechts,2,
,xotask,xotask,xotask,44,1,104,104,training,positivefb,96,hard,25,0.4511214999999993,['n'],1,right,['0'],6,0.054541599999993196,,,,,,,,26,19,Vrouw,Rechts,2,
,xotask,xotask,xotask,45,1,105,105,training,positivefb,95,average,60,0.5670622999998614,['n'],0,left,['0'],6,0.0778494999999566,,,,,,,,26,19,Vrouw,Rechts,2,
,xotask,xotask,xotask,46,1,106,106,training,positivefb,97,hard,29,0.41651739999997517,['n'],1,right,['0'],6,0.09133420000011938,,,,,,,,26,19,Vrouw,Rechts,2,
,xotask,xotask,xotask,47,1,107,107,training,positivefb,95,average,16,0.45043250000003354,['n'],1,right,['0'],6,0.07684190000009039,,,,,,,,26,19,Vrouw,Rechts,2,
,xotask,xotask,xotask,48,1,108,108,training,positivefb,96,average,64,0.4681116000001566,['c'],1,left,['0'],6,0.08002750000014203,,,,,,,,26,19,Vrouw,Rechts,2,
,xotask,xotask,xotask,49,1,109,109,training,positivefb,100,easy,73,0.4180358000000979,['c'],1,left,['0'],6,0.07624409999993986,,,,,,,,26,19,Vrouw,Rechts,2,
,xotask,xotask,xotask,50,1,110,110,training,positivefb,94,easy,74,0.6492915999999695,['c'],1,left,['0'],6,0.09605570000007901,,,,,,,,26,19,Vrouw,Rechts,2,
,xotask,xotask,xotask,51,1,111,111,training,positivefb,94,easy,6,0.5001016000001073,['n'],1,right,['0'],6,0.08041839999987133,,,,,,,,26,19,Vrouw,Rechts,2,
,xotask,xotask,xotask,52,1,112,112,training,positivefb,99,average,18,0.4659857000001466,['n'],1,right,['0'],6,0.0750130999999783,,,,,,,,26,19,Vrouw,Rechts,2,
,xotask,xotask,xotask,53,1,113,113,training,positivefb,99,easy,72,0.4666529000000992,['c'],1,left,['0'],6,0.11771269999985634,,,,,,,,26,19,Vrouw,Rechts,2,
,xotask,xotask,xotask,54,1,114,114,training,positivefb,94,hard,25,0.4339016999999785,['c'],0,right,['0'],6,0.119877200000019,,,,,,,,26,19,Vrouw,Rechts,2,
,xotask,xotask,xotask,55,1,115,115,training,positivefb,97,average,61,0.4166748000000098,['c'],1,left,['0'],6,0.04314599999997881,,,,,,,,26,19,Vrouw,Rechts,2,
,xotask,xotask,xotask,56,1,116,116,training,positivefb,96,hard,26,0.36767039999995177,['n'],1,right,['0'],6,0.05129450000003999,,,,,,,,26,19,Vrouw,Rechts,2,
,xotask,xotask,xotask,57,1,117,117,training,positivefb,97,hard,26,0.48316320000003543,['n'],1,right,['0'],6,0.06988590000014483,,,,,,,,26,19,Vrouw,Rechts,2,
,xotask,xotask,xotask,58,1,118,118,training,positivefb,97,hard,29,0.4845126000000164,['n'],1,right,['0'],6,0.0076626000000032946,,,,,,,,26,19,Vrouw,Rechts,2,
,xotask,xotask,xotask,59,1,119,119,training,positivefb,92,easy,70,0.5836704000000736,['c'],1,left,['0'],6,0.23273010000002614,,,,,,,,26,19,Vrouw,Rechts,2,
,xotask,xotask,xotask,0,2,120,120,main,positivefb,-99,easy,72,0.047951300000022457,['n'],0,left,['2'],2,0.9810410000000047,,,,,,,,26,19,Vrouw,Rechts,2,
,xotask,xotask,xotask,1,2,121,121,main,positivefb,-99,average,15,0.6825157999999192,['n'],1,right,['0'],6,0.0359102999998413,,,,,,,,26,19,Vrouw,Rechts,2,
,xotask,xotask,xotask,2,2,122,122,main,positivefb,-99,easy,73,0.5337690999999722,['c'],1,left,['0'],6,0.045841699999982666,,,,,,,,26,19,Vrouw,Rechts,2,
,xotask,xotask,xotask,3,2,123,123,main,positivefb,-99,hard,26,0.5159655000002203,['n'],1,right,['0'],6,0.05662629999983437,,,,,,,,26,19,Vrouw,Rechts,2,
,xotask,xotask,xotask,4,2,124,124,main,positivefb,-99,hard,50,0.4828729000000749,['n'],0,left,['0'],6,0.07582199999978911,,,,,,,,26,19,Vrouw,Rechts,2,
,xotask,xotask,xotask,5,2,125,125,main,positivefb,-99,average,18,0.567600000000084,['n'],1,right,['0'],6,0.08321520000004057,,,,,,,,26,19,Vrouw,Rechts,2,
,xotask,xotask,xotask,6,2,126,126,main,positivefb,-99,easy,6,0.45008770000004006,['n'],1,right,['0'],6,0.09459909999986849,,,,,,,,26,19,Vrouw,Rechts,2,
,xotask,xotask,xotask,7,2,127,127,main,positivefb,-99,hard,26,0.551118100000167,['n'],1,right,['0'],6,0.06985610000015186,,,,,,,,26,19,Vrouw,Rechts,2,
,xotask,xotask,xotask,8,2,128,128,main,positivefb,-99,average,62,0.6177546000001257,['c'],1,left,['0'],6,0.07525759999998627,,,,,,,,26,19,Vrouw,Rechts,2,
,xotask,xotask,xotask,9,2,129,129,main,positivefb,-99,easy,5,0.5163643999999294,['n'],1,right,['0'],6,0.06060909999996511,,,,,,,,26,19,Vrouw,Rechts,2,
,xotask,xotask,xotask,10,2,130,130,main,positivefb,-99,hard,53,0.5665426999998999,['n'],0,left,['0'],6,0.05262819999984458,,,,,,,,26,19,Vrouw,Rechts,2,
,xotask,xotask,xotask,11,2,131,131,main,positivefb,-99,average,63,0.5176784000000225,['c'],1,left,['0'],6,0.07060100000012426,,,,,,,,26,19,Vrouw,Rechts,2,
,xotask,xotask,xotask,12,2,132,132,main,positivefb,-99,average,63,0.6830065000001468,['c'],1,left,['2'],2,0.48924239999996644,,,,,,,,26,19,Vrouw,Rechts,2,
,xotask,xotask,xotask,13,2,133,133,main,positivefb,-99,average,61,0.6163417000000209,['n'],0,left,['2'],2,0.4297632000000249,,,,,,,,26,19,Vrouw,Rechts,2,
,xotask,xotask,xotask,14,2,134,134,main,positivefb,-99,average,63,0.650554800000009,['c'],1,left,['2'],2,0.1799533999999312,,,,,,,,26,19,Vrouw,Rechts,2,
,xotask,xotask,xotask,15,2,135,135,main,positivefb,-99,hard,54,0.4846155000000181,['n'],0,left,['0'],6,0.10576549999996132,,,,,,,,26,19,Vrouw,Rechts,2,
,xotask,xotask,xotask,16,2,136,136,main,positivefb,-99,hard,28,0.46605799999997544,['n'],1,right,['0'],6,0.05218590000004042,,,,,,,,26,19,Vrouw,Rechts,2,
,xotask,xotask,xotask,17,2,137,137,main,positivefb,-99,hard,53,0.516886599999907,['c'],1,left,['0'],6,0.11799120000000585,,,,,,,,26,19,Vrouw,Rechts,2,
,xotask,xotask,xotask,18,2,138,138,main,positivefb,-99,easy,5,0.4508946000000833,['n'],1,right,['0'],6,0.0483918000002177,,,,,,,,26,19,Vrouw,Rechts,2,
,xotask,xotask,xotask,19,2,139,139,main,positivefb,-99,hard,27,0.4502537000000757,['n'],1,right,['0'],6,0.06931699999995544,,,,,,,,26,19,Vrouw,Rechts,2,
,xotask,xotask,xotask,20,2,140,140,main,positivefb,-99,easy,6,0.40165890000002946,['n'],1,right,['0'],6,0.05933169999980237,,,,,,,,26,19,Vrouw,Rechts,2,
,xotask,xotask,xotask,21,2,141,141,main,positivefb,-99,average,64,0.46808580000015354,['c'],1,left,['0'],6,0.09470280000005005,,,,,,,,26,19,Vrouw,Rechts,2,
,xotask,xotask,xotask,22,2,142,142,main,positivefb,-99,average,16,0.4011101000000963,['n'],1,right,['0'],6,0.06849869999996372,,,,,,,,26,19,Vrouw,Rechts,2,
,xotask,xotask,xotask,23,2,143,143,main,positivefb,-99,easy,72,0.7012978999998722,['c'],1,left,['0'],6,0.014378300000089439,,,,,,,,26,19,Vrouw,Rechts,2,
,xotask,xotask,xotask,24,2,144,144,main,positivefb,-99,easy,8,0.4331561999999849,['n'],1,right,['0'],6,0.03800350000005892,,,,,,,,26,19,Vrouw,Rechts,2,
,xotask,xotask,xotask,25,2,145,145,main,positivefb,-99,average,60,0.4185664999999972,['c'],1,left,['0'],6,0.05193949999988945,,,,,,,,26,19,Vrouw,Rechts,2,
,xotask,xotask,xotask,26,2,146,146,main,positivefb,-99,average,16,0.40151099999980033,['n'],1,right,['0'],6,0.06684769999992568,,,,,,,,26,19,Vrouw,Rechts,2,
,xotask,xotask,xotask,27,2,147,147,main,positivefb,-99,average,62,0.46705759999986185,['c'],1,left,['0'],6,0.0302627000000939,,,,,,,,26,19,Vrouw,Rechts,2,
,xotask,xotask,xotask,28,2,148,148,main,positivefb,-99,hard,54,0.650596700000051,['c'],1,left,['0'],6,0.01949249999984204,,,,,,,,26,19,Vrouw,Rechts,2,
,xotask,xotask,xotask,29,2,149,149,main,positivefb,-99,average,18,0.4658594999998513,['n'],1,right,['0'],6,0.07406040000000758,,,,,,,,26,19,Vrouw,Rechts,2,
,xotask,xotask,xotask,30,2,150,150,main,positivefb,-99,easy,72,0.5011735999999019,['c'],1,left,['0'],6,0.1794176000000789,,,,,,,,26,19,Vrouw,Rechts,2,
,xotask,xotask,xotask,31,2,151,151,main,positivefb,-99,hard,29,1.4678401000001031,['n'],1,right,['2'],2,0.09838399999989633,,,,,,,,26,19,Vrouw,Rechts,2,
,xotask,xotask,xotask,32,2,152,152,main,positivefb,-99,easy,9,0.5011598999999478,['n'],1,right,['0'],6,0.2599468999999317,,,,,,,,26,19,Vrouw,Rechts,2,
,xotask,xotask,xotask,33,2,153,153,main,positivefb,-99,average,15,0.5164942999999766,['n'],1,right,['0'],6,0.20565140000007887,,,,,,,,26,19,Vrouw,Rechts,2,
,xotask,xotask,xotask,34,2,154,154,main,positivefb,-99,average,15,0.5011662999997952,['n'],1,right,['0'],6,0.13861020000013013,,,,,,,,26,19,Vrouw,Rechts,2,
,xotask,xotask,xotask,35,2,155,155,main,positivefb,-99,average,19,0.38449119999995673,['n'],1,right,['0'],6,0.13404990000003636,,,,,,,,26,19,Vrouw,Rechts,2,
,xotask,xotask,xotask,36,2,156,156,main,positivefb,-99,easy,9,0.3342855999999301,['n'],1,right,['0'],6,0.09204320000003463,,,,,,,,26,19,Vrouw,Rechts,2,
,xotask,xotask,xotask,37,2,157,157,main,positivefb,-99,average,17,0.3336994000001141,['n'],1,right,['0'],6,0.06790249999994558,,,,,,,,26,19,Vrouw,Rechts,2,
,xotask,xotask,xotask,38,2,158,158,main,positivefb,-99,hard,54,0.4010811000000558,['c'],1,left,['0'],6,0.09026119999998627,,,,,,,,26,19,Vrouw,Rechts,2,
,xotask,xotask,xotask,39,2,159,159,main,positivefb,-99,average,62,0.5163868000001912,['c'],1,left,['0'],6,0.04228540000008252,,,,,,,,26,19,Vrouw,Rechts,2,
,xotask,xotask,xotask,40,2,160,160,main,positivefb,-99,hard,53,0.4171731000001273,['c'],1,left,['0'],6,0.08139889999984007,,,,,,,,26,19,Vrouw,Rechts,2,
,xotask,xotask,xotask,41,2,161,161,main,positivefb,-99,hard,25,0.6507259999998496,['c'],0,right,['0'],6,0.15672239999980775,,,,,,,,26,19,Vrouw,Rechts,2,
,xotask,xotask,xotask,42,2,162,162,main,positivefb,-99,average,61,0.6188965999999709,['c'],1,left,['0'],6,0.08657109999990098,,,,,,,,26,19,Vrouw,Rechts,2,
,xotask,xotask,xotask,43,2,163,163,main,positivefb,-99,easy,70,0.43334260000006,['c'],1,left,['0'],6,0.07420260000003509,,,,,,,,26,19,Vrouw,Rechts,2,
,xotask,xotask,xotask,44,2,164,164,main,positivefb,-99,hard,28,0.4180966999999782,['c'],0,right,['0'],6,0.1039706000001388,,,,,,,,26,19,Vrouw,Rechts,2,
,xotask,xotask,xotask,45,2,165,165,main,positivefb,-99,easy,74,0.45028130000014244,['c'],1,left,['0'],6,0.12262840000016695,,,,,,,,26,19,Vrouw,Rechts,2,
,xotask,xotask,xotask,46,2,166,166,main,positivefb,-99,hard,26,0.4338381999998546,['c'],0,right,['2'],2,0.46977029999993647,,,,,,,,26,19,Vrouw,Rechts,2,
,xotask,xotask,xotask,47,2,167,167,main,positivefb,-99,easy,6,0.4340021999998953,['n'],1,right,['0'],6,0.11445240000011836,,,,,,,,26,19,Vrouw,Rechts,2,
,xotask,xotask,xotask,48,2,168,168,main,positivefb,-99,easy,71,0.4845886000000519,['c'],1,left,['0'],6,0.043284300000095755,,,,,,,,26,19,Vrouw,Rechts,2,
,xotask,xotask,xotask,49,2,169,169,main,positivefb,-99,hard,52,0.6173876000000291,['c'],1,left,['0'],6,0.042618499999889536,,,,,,,,26,19,Vrouw,Rechts,2,
,xotask,xotask,xotask,50,2,170,170,main,positivefb,-99,hard,54,0.5174082000000908,['c'],1,left,['0'],6,0.06041810000010628,,,,,,,,26,19,Vrouw,Rechts,2,
,xotask,xotask,xotask,51,2,171,171,main,positivefb,-99,easy,8,0.5500557000000299,['n'],1,right,['0'],6,0.09299110000006294,,,,,,,,26,19,Vrouw,Rechts,2,
,xotask,xotask,xotask,52,2,172,172,main,positivefb,-99,easy,6,0.5171132000000398,['n'],1,right,['0'],6,0.07064250000007632,,,,,,,,26,19,Vrouw,Rechts,2,
,xotask,xotask,xotask,53,2,173,173,main,positivefb,-99,hard,29,0.4332722999999987,['n'],1,right,['0'],6,0.06720319999999447,,,,,,,,26,19,Vrouw,Rechts,2,
,xotask,xotask,xotask,54,2,174,174,main,positivefb,-99,easy,71,0.4686991000000944,['c'],1,left,['0'],6,0.06177360000015142,,,,,,,,26,19,Vrouw,Rechts,2,
,xotask,xotask,xotask,55,2,175,175,main,positivefb,-99,average,19,0.45112490000019534,['n'],1,right,['0'],6,0.035110000000031505,,,,,,,,26,19,Vrouw,Rechts,2,
,xotask,xotask,xotask,56,2,176,176,main,positivefb,-99,easy,71,0.5007878999999775,['c'],1,left,['0'],6,0.08588250000002517,,,,,,,,26,19,Vrouw,Rechts,2,
,xotask,xotask,xotask,57,2,177,177,main,positivefb,-99,easy,72,0.4680994999998802,['c'],1,left,['0'],6,0.11253799999985858,,,,,,,,26,19,Vrouw,Rechts,2,
,xotask,xotask,xotask,58,2,178,178,main,positivefb,-99,hard,25,0.5011524000001373,['n'],1,right,['0'],6,0.04155880000007528,,,,,,,,26,19,Vrouw,Rechts,2,
,xotask,xotask,xotask,59,2,179,179,main,positivefb,-99,hard,54,0.5006642999999258,['c'],1,left,['0'],6,0.09285509999995156,,,,,,,,26,19,Vrouw,Rechts,2,
,xotask,xotask,xotask,0,3,180,180,main,positivefb,-99,hard,53,0.818512999999939,['c'],1,left,['0'],6,0.08943900000008398,,,,,,,,26,19,Vrouw,Rechts,2,
,xotask,xotask,xotask,1,3,181,181,main,positivefb,-99,easy,70,0.6507251000000451,['c'],1,left,['0'],6,0.052678000000014435,,,,,,,,26,19,Vrouw,Rechts,2,
,xotask,xotask,xotask,2,3,182,182,main,positivefb,-99,hard,50,0.40102890000002844,['n'],0,left,['0'],6,0.05084660000011354,,,,,,,,26,19,Vrouw,Rechts,2,
,xotask,xotask,xotask,3,3,183,183,main,positivefb,-99,easy,6,0.6505884999999125,['n'],1,right,['0'],6,0.03129650000005313,,,,,,,,26,19,Vrouw,Rechts,2,
,xotask,xotask,xotask,4,3,184,184,main,positivefb,-99,hard,26,0.40045680000002903,['n'],1,right,['0'],6,0.03875230000016927,,,,,,,,26,19,Vrouw,Rechts,2,
,xotask,xotask,xotask,5,3,185,185,main,positivefb,-99,average,60,0.43305099999997765,['c'],1,left,['0'],6,0.04487260000018978,,,,,,,,26,19,Vrouw,Rechts,2,
,xotask,xotask,xotask,6,3,186,186,main,positivefb,-99,hard,53,0.4175344000000223,['c'],1,left,['0'],6,0.04359359999989465,,,,,,,,26,19,Vrouw,Rechts,2,
,xotask,xotask,xotask,7,3,187,187,main,positivefb,-99,hard,53,1.050978299999997,['n'],0,left,['2'],2,0.08877419999998892,,,,,,,,26,19,Vrouw,Rechts,2,
,xotask,xotask,xotask,8,3,188,188,main,positivefb,-99,easy,72,0.5847939000000224,['c'],1,left,['0'],6,0.10277940000014496,,,,,,,,26,19,Vrouw,Rechts,2,
,xotask,xotask,xotask,9,3,189,189,main,positivefb,-99,easy,72,0.5340225999998438,['c'],1,left,['0'],6,0.1261463000000731,,,,,,,,26,19,Vrouw,Rechts,2,
,xotask,xotask,xotask,10,3,190,190,main,positivefb,-99,average,19,0.5506414000001314,['n'],1,right,['0'],6,0.020352600000023813,,,,,,,,26,19,Vrouw,Rechts,2,
,xotask,xotask,xotask,11,3,191,191,main,positivefb,-99,easy,70,0.5826793999999609,['c'],1,left,['0'],6,0.0688295999998445,,,,,,,,26,19,Vrouw,Rechts,2,
,xotask,xotask,xotask,12,3,192,192,main,positivefb,-99,average,63,1.2176891999999953,['n'],0,left,['2'],2,0.2422209000001203,,,,,,,,26,19,Vrouw,Rechts,2,
,xotask,xotask,xotask,13,3,193,193,main,positivefb,-99,average,18,0.701409300000023,['n'],1,right,['2'],2,0.3013476000000992,,,,,,,,26,19,Vrouw,Rechts,2,
,xotask,xotask,xotask,14,3,194,194,main,positivefb,-99,average,61,0.5008591000000706,['c'],1,left,['0'],6,0.4938755000000583,,,,,,,,26,19,Vrouw,Rechts,2,
,xotask,xotask,xotask,15,3,195,195,main,positivefb,-99,hard,52,0.5181331999999657,['n'],0,left,['2'],2,0.4390386000000035,,,,,,,,26,19,Vrouw,Rechts,2,
,xotask,xotask,xotask,16,3,196,196,main,positivefb,-99,hard,25,0.5508500000000822,['n'],1,right,['0'],6,0.4401112999998986,,,,,,,,26,19,Vrouw,Rechts,2,
,xotask,xotask,xotask,17,3,197,197,main,positivefb,-99,easy,8,0.41835279999986597,['n'],1,right,['0'],6,0.20695939999995971,,,,,,,,26,19,Vrouw,Rechts,2,
,xotask,xotask,xotask,18,3,198,198,main,positivefb,-99,hard,28,0.5839800999999625,['n'],1,right,['0'],6,0.12810050000007323,,,,,,,,26,19,Vrouw,Rechts,2,
,xotask,xotask,xotask,19,3,199,199,main,positivefb,-99,easy,8,0.4006804999999076,['n'],1,right,['0'],6,0.18020759999990332,,,,,,,,26,19,Vrouw,Rechts,2,
,xotask,xotask,xotask,20,3,200,200,main,positivefb,-99,easy,73,0.5505975999999464,['c'],1,left,['0'],6,0.06403230000000804,,,,,,,,26,19,Vrouw,Rechts,2,
,xotask,xotask,xotask,21,3,201,201,main,positivefb,-99,easy,7,0.43425000000002,['n'],1,right,['0'],6,0.07760740000003352,,,,,,,,26,19,Vrouw,Rechts,2,
,xotask,xotask,xotask,22,3,202,202,main,positivefb,-99,average,18,0.4347473999998783,['n'],1,right,['0'],6,0.09072699999978795,,,,,,,,26,19,Vrouw,Rechts,2,
,xotask,xotask,xotask,23,3,203,203,main,positivefb,-99,hard,25,0.45050130000004174,['n'],1,right,['0'],6,0.10932320000006257,,,,,,,,26,19,Vrouw,Rechts,2,
,xotask,xotask,xotask,24,3,204,204,main,positivefb,-99,hard,25,0.4679667000000336,['n'],1,right,['0'],6,0.07140660000004573,,,,,,,,26,19,Vrouw,Rechts,2,
,xotask,xotask,xotask,25,3,205,205,main,positivefb,-99,average,15,0.4512110999999095,['n'],1,right,['0'],6,0.07538869999984854,,,,,,,,26,19,Vrouw,Rechts,2,
,xotask,xotask,xotask,26,3,206,206,main,positivefb,-99,hard,52,0.517107200000055,['n'],0,left,['0'],6,0.08484859999998662,,,,,,,,26,19,Vrouw,Rechts,2,
,xotask,xotask,xotask,27,3,207,207,main,positivefb,-99,easy,7,0.6510147999999845,['n'],1,right,['0'],6,0.08811629999991055,,,,,,,,26,19,Vrouw,Rechts,2,
,xotask,xotask,xotask,28,3,208,208,main,positivefb,-99,easy,70,1.0171187999999347,['n'],0,left,['2'],2,0.5323254999998426,,,,,,,,26,19,Vrouw,Rechts,2,
,xotask,xotask,xotask,29,3,209,209,main,positivefb,-99,average,18,0.5678378000000066,['n'],1,right,['0'],6,0.14546519999998964,,,,,,,,26,19,Vrouw,Rechts,2,
,xotask,xotask,xotask,30,3,210,210,main,positivefb,-99,hard,26,0.41733290000001944,['n'],1,right,['0'],6,0.0928971000000729,,,,,,,,26,19,Vrouw,Rechts,2,
,xotask,xotask,xotask,31,3,211,211,main,positivefb,-99,hard,28,0.48386459999983344,['n'],1,right,['0'],6,0.07018249999987347,,,,,,,,26,19,Vrouw,Rechts,2,
,xotask,xotask,xotask,32,3,212,212,main,positivefb,-99,average,62,0.4504905000001145,['c'],1,left,['0'],6,0.0660809999999401,,,,,,,,26,19,Vrouw,Rechts,2,
,xotask,xotask,xotask,33,3,213,213,main,positivefb,-99,hard,25,0.48397270000009485,['n'],1,right,['0'],6,0.0525127999999313,,,,,,,,26,19,Vrouw,Rechts,2,
,xotask,xotask,xotask,34,3,214,214,main,positivefb,-99,average,64,0.8176880000000892,['c'],1,left,['0'],6,0.07458189999988463,,,,,,,,26,19,Vrouw,Rechts,2,
,xotask,xotask,xotask,35,3,215,215,main,positivefb,-99,average,64,0.5666470999999547,['c'],1,left,['0'],6,0.0344486000001325,,,,,,,,26,19,Vrouw,Rechts,2,
,xotask,xotask,xotask,36,3,216,216,main,positivefb,-99,average,61,0.5991860999999972,['c'],1,left,['0'],6,0.04146190000005845,,,,,,,,26,19,Vrouw,Rechts,2,
,xotask,xotask,xotask,37,3,217,217,main,positivefb,-99,easy,72,0.5675019000000248,['c'],1,left,['0'],6,0.09055050000006304,,,,,,,,26,19,Vrouw,Rechts,2,
,xotask,xotask,xotask,38,3,218,218,main,positivefb,-99,average,18,0.4672539999999117,['n'],1,right,['0'],6,0.03761749999989661,,,,,,,,26,19,Vrouw,Rechts,2,
,xotask,xotask,xotask,39,3,219,219,main,positivefb,-99,hard,27,0.6504989000000023,['n'],1,right,['0'],6,0.05807479999998577,,,,,,,,26,19,Vrouw,Rechts,2,
,xotask,xotask,xotask,40,3,220,220,main,positivefb,-99,easy,8,0.684696699999904,['n'],1,right,['0'],6,0.06970969999997578,,,,,,,,26,19,Vrouw,Rechts,2,
,xotask,xotask,xotask,41,3,221,221,main,positivefb,-99,easy,8,0.5182823000000099,['n'],1,right,['0'],6,0.07055790000003981,,,,,,,,26,19,Vrouw,Rechts,2,
,xotask,xotask,xotask,42,3,222,222,main,positivefb,-99,hard,52,0.5676548999999795,['c'],1,left,['0'],6,0.07032709999998588,,,,,,,,26,19,Vrouw,Rechts,2,
,xotask,xotask,xotask,43,3,223,223,main,positivefb,-99,easy,7,0.6501233000001321,['n'],1,right,['0'],6,0.05879929999991873,,,,,,,,26,19,Vrouw,Rechts,2,
,xotask,xotask,xotask,44,3,224,224,main,positivefb,-99,hard,27,1.0009655999999723,['n'],1,right,['3'],3,0.47362760000009985,,,,,,,,26,19,Vrouw,Rechts,2,
,xotask,xotask,xotask,45,3,225,225,main,positivefb,-99,average,16,0.583111800000097,['n'],1,right,['3'],3,0.22408640000003288,,,,,,,,26,19,Vrouw,Rechts,2,
,xotask,xotask,xotask,46,3,226,226,main,positivefb,-99,hard,52,0.5004761999998664,['c'],1,left,['3'],3,0.2600018000000546,,,,,,,,26,19,Vrouw,Rechts,2,
,xotask,xotask,xotask,47,3,227,227,main,positivefb,-99,average,63,1.134441200000083,['c'],1,left,['3'],3,0.08434340000007978,,,,,,,,26,19,Vrouw,Rechts,2,
,xotask,xotask,xotask,48,3,228,228,main,positivefb,-99,average,60,0.6510066999999253,['c'],1,left,['3'],3,0.10346300000014708,,,,,,,,26,19,Vrouw,Rechts,2,
,xotask,xotask,xotask,49,3,229,229,main,positivefb,-99,average,62,0.5177708999999595,['c'],1,left,['0'],6,0.4484208999999737,,,,,,,,26,19,Vrouw,Rechts,2,
,xotask,xotask,xotask,50,3,230,230,main,positivefb,-99,average,18,0.6174990000001799,['n'],1,right,['0'],6,0.13465100000007624,,,,,,,,26,19,Vrouw,Rechts,2,
,xotask,xotask,xotask,51,3,231,231,main,positivefb,-99,easy,71,0.5180176000001211,['c'],1,left,['0'],6,0.060852799999793206,,,,,,,,26,19,Vrouw,Rechts,2,
,xotask,xotask,xotask,52,3,232,232,main,positivefb,-99,easy,73,0.46667709999996987,['c'],1,left,['0'],6,0.06487040000001798,,,,,,,,26,19,Vrouw,Rechts,2,
,xotask,xotask,xotask,53,3,233,233,main,positivefb,-99,easy,7,0.5181597000000693,['n'],1,right,['0'],6,0.066301600000088,,,,,,,,26,19,Vrouw,Rechts,2,
,xotask,xotask,xotask,54,3,234,234,main,positivefb,-99,hard,53,0.6505835000000388,['c'],1,left,['0'],6,0.046158299999888186,,,,,,,,26,19,Vrouw,Rechts,2,
,xotask,xotask,xotask,55,3,235,235,main,positivefb,-99,easy,72,0.6347533999999087,['c'],1,left,['0'],6,0.13244940000004135,,,,,,,,26,19,Vrouw,Rechts,2,
,xotask,xotask,xotask,56,3,236,236,main,positivefb,-99,average,16,0.433834700000034,['n'],1,right,['0'],6,0.03038020000008146,,,,,,,,26,19,Vrouw,Rechts,2,
,xotask,xotask,xotask,57,3,237,237,main,positivefb,-99,easy,7,0.5008203999998386,['n'],1,right,['0'],6,0.06664090000003853,,,,,,,,26,19,Vrouw,Rechts,2,
,xotask,xotask,xotask,58,3,238,238,main,positivefb,-99,average,18,0.4174054000000069,['n'],1,right,['0'],6,0.07967839999992066,,,,,,,,26,19,Vrouw,Rechts,2,
,xotask,xotask,xotask,59,3,239,239,main,positivefb,-99,hard,51,0.6175509999998212,['c'],1,left,['0'],6,0.22915549999993345,,,,,,,,26,19,Vrouw,Rechts,2,
,xotask,xotask,xotask,0,4,240,240,main,positivefb,-99,hard,26,0.783786199999895,['n'],1,right,['0'],6,0.03947139999991123,,,,,,,,26,19,Vrouw,Rechts,2,
,xotask,xotask,xotask,1,4,241,241,main,positivefb,-99,hard,25,0.5342086000000563,['n'],1,right,['0'],6,0.0889650999999958,,,,,,,,26,19,Vrouw,Rechts,2,
,xotask,xotask,xotask,2,4,242,242,main,positivefb,-99,average,60,0.5347481999999673,['n'],0,left,['0'],6,0.09723200000007637,,,,,,,,26,19,Vrouw,Rechts,2,
,xotask,xotask,xotask,3,4,243,243,main,positivefb,-99,easy,7,0.5340722000000824,['n'],1,right,['0'],6,0.0722929999999451,,,,,,,,26,19,Vrouw,Rechts,2,
,xotask,xotask,xotask,4,4,244,244,main,positivefb,-99,hard,26,0.48465329999999085,['n'],1,right,['0'],6,0.09950929999990876,,,,,,,,26,19,Vrouw,Rechts,2,
,xotask,xotask,xotask,5,4,245,245,main,positivefb,-99,average,61,0.5174114999999802,['c'],1,left,['0'],6,0.06810670000004393,,,,,,,,26,19,Vrouw,Rechts,2,
,xotask,xotask,xotask,6,4,246,246,main,positivefb,-99,easy,74,0.40007360000004155,['c'],1,left,['0'],6,0.04183120000016061,,,,,,,,26,19,Vrouw,Rechts,2,
,xotask,xotask,xotask,7,4,247,247,main,positivefb,-99,average,63,0.5005591999999979,['n'],0,left,['0'],6,0.06893250000007356,,,,,,,,26,19,Vrouw,Rechts,2,
,xotask,xotask,xotask,8,4,248,248,main,positivefb,-99,average,18,0.5504908000000341,['n'],1,right,['0'],6,0.06858310000006895,,,,,,,,26,19,Vrouw,Rechts,2,
,xotask,xotask,xotask,9,4,249,249,main,positivefb,-99,hard,50,0.9506716999999298,['n'],0,left,['3'],3,0.10131249999994907,,,,,,,,26,19,Vrouw,Rechts,2,
,xotask,xotask,xotask,10,4,250,250,main,positivefb,-99,easy,71,0.4998754000000645,['c'],1,left,['0'],6,0.11810490000016216,,,,,,,,26,19,Vrouw,Rechts,2,
,xotask,xotask,xotask,11,4,251,251,main,positivefb,-99,average,17,0.8678681000001234,['n'],1,right,['3'],3,0.31101190000003953,,,,,,,,26,19,Vrouw,Rechts,2,
,xotask,xotask,xotask,12,4,252,252,main,positivefb,-99,average,17,0.5009554999999182,['n'],1,right,['0'],6,0.4317352000000483,,,,,,,,26,19,Vrouw,Rechts,2,
,xotask,xotask,xotask,13,4,253,253,main,positivefb,-99,average,16,0.4668976999998904,['n'],1,right,['0'],6,0.052684699999872464,,,,,,,,26,19,Vrouw,Rechts,2,
,xotask,xotask,xotask,14,4,254,254,main,positivefb,-99,average,63,0.9508670999998685,['c'],1,left,['0'],6,0.1174493999999413,,,,,,,,26,19,Vrouw,Rechts,2,
,xotask,xotask,xotask,15,4,255,255,main,positivefb,-99,easy,72,0.5841792999999598,['c'],1,left,['0'],6,0.04129260000013346,,,,,,,,26,19,Vrouw,Rechts,2,
,xotask,xotask,xotask,16,4,256,256,main,positivefb,-99,easy,9,0.5171490000000176,['n'],1,right,['0'],6,0.05285250000019914,,,,,,,,26,19,Vrouw,Rechts,2,
,xotask,xotask,xotask,17,4,257,257,main,positivefb,-99,hard,26,0.41669279999996434,['n'],1,right,['0'],6,0.08273020000001452,,,,,,,,26,19,Vrouw,Rechts,2,
,xotask,xotask,xotask,18,4,258,258,main,positivefb,-99,average,64,0.3851621999999679,['c'],1,left,['0'],6,0.1126836999999341,,,,,,,,26,19,Vrouw,Rechts,2,
,xotask,xotask,xotask,19,4,259,259,main,positivefb,-99,easy,71,0.4511222999999518,['c'],1,left,['0'],6,0.07484640000006948,,,,,,,,26,19,Vrouw,Rechts,2,
,xotask,xotask,xotask,20,4,260,260,main,positivefb,-99,hard,52,0.43294459999992796,['n'],0,left,['0'],6,0.07126620000008188,,,,,,,,26,19,Vrouw,Rechts,2,
,xotask,xotask,xotask,21,4,261,261,main,positivefb,-99,average,18,0.5507810999999947,['n'],1,right,['0'],6,0.04758040000001529,,,,,,,,26,19,Vrouw,Rechts,2,
,xotask,xotask,xotask,22,4,262,262,main,positivefb,-99,hard,52,0.7682598999999755,['n'],0,left,['9'],5,1.1127742999999555,,,,,,,,26,19,Vrouw,Rechts,2,
,xotask,xotask,xotask,23,4,263,263,main,positivefb,-99,hard,29,0.8842407000001913,['n'],1,right,['9'],5,0.11419750000004569,,,,,,,,26,19,Vrouw,Rechts,2,
,xotask,xotask,xotask,24,4,264,264,main,positivefb,-99,easy,6,0.6010031000000708,['c'],0,right,['2'],2,0.8388442999998915,,,,,,,,26,19,Vrouw,Rechts,2,
,xotask,xotask,xotask,25,4,265,265,main,positivefb,-99,hard,52,0.8665093999998135,['c'],1,left,['0'],6,0.0831722999998874,,,,,,,,26,19,Vrouw,Rechts,2,
,xotask,xotask,xotask,26,4,266,266,main,positivefb,-99,average,64,0.584200699999883,['c'],1,left,['0'],6,0.09757760000002236,,,,,,,,26,19,Vrouw,Rechts,2,
,xotask,xotask,xotask,27,4,267,267,main,positivefb,-99,hard,54,0.566928100000041,['c'],1,left,['0'],6,0.10418240000012702,,,,,,,,26,19,Vrouw,Rechts,2,
,xotask,xotask,xotask,28,4,268,268,main,positivefb,-99,hard,51,0.5671446999999716,['c'],1,left,['0'],6,0.09406889999991108,,,,,,,,26,19,Vrouw,Rechts,2,
,xotask,xotask,xotask,29,4,269,269,main,positivefb,-99,easy,7,0.5348940999999741,['n'],1,right,['0'],6,0.06123939999997674,,,,,,,,26,19,Vrouw,Rechts,2,
,xotask,xotask,xotask,30,4,270,270,main,positivefb,-99,average,16,0.4167677000000367,['n'],1,right,['0'],6,0.09227359999999862,,,,,,,,26,19,Vrouw,Rechts,2,
,xotask,xotask,xotask,31,4,271,271,main,positivefb,-99,average,17,0.36718530000007377,['n'],1,right,['0'],6,0.11483449999991535,,,,,,,,26,19,Vrouw,Rechts,2,
,xotask,xotask,xotask,32,4,272,272,main,positivefb,-99,easy,70,0.6337424999999257,['c'],1,left,['0'],6,0.11012649999997848,,,,,,,,26,19,Vrouw,Rechts,2,
,xotask,xotask,xotask,33,4,273,273,main,positivefb,-99,easy,9,0.5002644000001055,['n'],1,right,['0'],6,0.046793400000069596,,,,,,,,26,19,Vrouw,Rechts,2,
,xotask,xotask,xotask,34,4,274,274,main,positivefb,-99,average,64,1.2499411999999666,['c'],1,left,['0'],6,0.17948410000008153,,,,,,,,26,19,Vrouw,Rechts,2,
,xotask,xotask,xotask,35,4,275,275,main,positivefb,-99,hard,26,0.5508804999999484,['n'],1,right,['0'],6,0.07976779999989958,,,,,,,,26,19,Vrouw,Rechts,2,
,xotask,xotask,xotask,36,4,276,276,main,positivefb,-99,easy,74,0.5675525000001471,['c'],1,left,['0'],6,0.09500360000015462,,,,,,,,26,19,Vrouw,Rechts,2,
,xotask,xotask,xotask,37,4,277,277,main,positivefb,-99,average,64,0.48505180000006476,['c'],1,left,['0'],6,0.08893809999995028,,,,,,,,26,19,Vrouw,Rechts,2,
,xotask,xotask,xotask,38,4,278,278,main,positivefb,-99,easy,8,0.5353985000001558,['n'],1,right,['0'],6,0.04934050000019852,,,,,,,,26,19,Vrouw,Rechts,2,
,xotask,xotask,xotask,39,4,279,279,main,positivefb,-99,average,63,2.5507905000001756,['n'],0,left,['0'],6,0.07373940000002221,,,,,,,,26,19,Vrouw,Rechts,2,
,xotask,xotask,xotask,40,4,280,280,main,positivefb,-99,average,15,0.4843004000001656,['n'],1,right,['0'],6,0.07632749999993393,,,,,,,,26,19,Vrouw,Rechts,2,
,xotask,xotask,xotask,41,4,281,281,main,positivefb,-99,easy,9,0.4165539999999055,['n'],1,right,['0'],6,0.08175249999999323,,,,,,,,26,19,Vrouw,Rechts,2,
,xotask,xotask,xotask,42,4,282,282,main,positivefb,-99,average,18,0.43437119999998686,['n'],1,right,['0'],6,0.10185939999996663,,,,,,,,26,19,Vrouw,Rechts,2,
,xotask,xotask,xotask,43,4,283,283,main,positivefb,-99,hard,54,0.43480060000001686,['c'],1,left,['0'],6,0.07221599999979844,,,,,,,,26,19,Vrouw,Rechts,2,
,xotask,xotask,xotask,44,4,284,284,main,positivefb,-99,hard,28,0.5169597999999951,['n'],1,right,['0'],6,0.07395280000014282,,,,,,,,26,19,Vrouw,Rechts,2,
,xotask,xotask,xotask,45,4,285,285,main,positivefb,-99,easy,8,0.46657810000010613,['n'],1,right,['0'],6,0.12605710000002546,,,,,,,,26,19,Vrouw,Rechts,2,
,xotask,xotask,xotask,46,4,286,286,main,positivefb,-99,hard,27,0.483326100000113,['n'],1,right,['0'],6,0.1016941999998835,,,,,,,,26,19,Vrouw,Rechts,2,
,xotask,xotask,xotask,47,4,287,287,main,positivefb,-99,easy,9,0.3182088000000931,['n'],1,right,['0'],6,0.0863736000001154,,,,,,,,26,19,Vrouw,Rechts,2,
,xotask,xotask,xotask,48,4,288,288,main,positivefb,-99,hard,53,0.3351606000001084,['n'],0,left,['0'],6,0.15005889999997635,,,,,,,,26,19,Vrouw,Rechts,2,
,xotask,xotask,xotask,49,4,289,289,main,positivefb,-99,hard,26,0.6187883999998576,['c'],0,right,['0'],6,0.12807500000008076,,,,,,,,26,19,Vrouw,Rechts,2,
,xotask,xotask,xotask,50,4,290,290,main,positivefb,-99,hard,51,0.38392690000000584,['c'],1,left,['0'],6,0.10127360000001318,,,,,,,,26,19,Vrouw,Rechts,2,
,xotask,xotask,xotask,51,4,291,291,main,positivefb,-99,easy,74,0.3673085999998875,['c'],1,left,['0'],6,0.07488379999995232,,,,,,,,26,19,Vrouw,Rechts,2,
,xotask,xotask,xotask,52,4,292,292,main,positivefb,-99,hard,51,0.8674942000000101,['n'],0,left,['3'],3,0.12591969999994035,,,,,,,,26,19,Vrouw,Rechts,2,
,xotask,xotask,xotask,53,4,293,293,main,positivefb,-99,easy,73,0.5332272000000557,['c'],1,left,['0'],6,0.4531170000000202,,,,,,,,26,19,Vrouw,Rechts,2,
,xotask,xotask,xotask,54,4,294,294,main,positivefb,-99,hard,26,0.7840825999999197,['c'],0,right,['0'],6,0.2279883000001064,,,,,,,,26,19,Vrouw,Rechts,2,
,xotask,xotask,xotask,55,4,295,295,main,positivefb,-99,average,61,0.5177722999999332,['c'],1,left,['0'],6,0.04770830000006754,,,,,,,,26,19,Vrouw,Rechts,2,
,xotask,xotask,xotask,56,4,296,296,main,positivefb,-99,easy,74,0.45011350000004313,['c'],1,left,['0'],6,0.10816079999995054,,,,,,,,26,19,Vrouw,Rechts,2,
,xotask,xotask,xotask,57,4,297,297,main,positivefb,-99,average,16,0.7684501999999611,['c'],0,right,['0'],6,0.0903041999999914,,,,,,,,26,19,Vrouw,Rechts,2,
,xotask,xotask,xotask,58,4,298,298,main,positivefb,-99,easy,6,0.5508193000000574,['n'],1,right,['0'],6,0.07365980000031414,,,,,,,,26,19,Vrouw,Rechts,2,
,xotask,xotask,xotask,59,4,299,299,main,positivefb,-99,easy,72,0.5671288999997159,['c'],1,left,['0'],6,0.08071629999994911,,,,,,,,26,19,Vrouw,Rechts,2,
,xotask,xotask,xotask,0,0,0,300,training,positivefb,62,easy,74,5.966908300000341,['n'],0,left,['2'],2,0.849225099999785,,,,,,,,26,19,Vrouw,Rechts,2,
,xotask,xotask,xotask,1,0,1,301,training,positivefb,82,hard,29,0.8672068000000763,['n'],1,right,['9'],5,0.25939110000035726,,,,,,,,26,19,Vrouw,Rechts,2,
,xotask,xotask,xotask,2,0,2,302,training,positivefb,86,hard,27,4.416809599999851,['c'],0,right,['9'],5,0.32127570000011474,,,,,,,,26,19,Vrouw,Rechts,2,
,xotask,xotask,xotask,3,0,3,303,training,positivefb,93,easy,74,0.6496510000001763,['c'],1,left,['9'],5,0.057866399999966234,,,,,,,,26,19,Vrouw,Rechts,2,
,xotask,xotask,xotask,4,0,4,304,training,positivefb,94,easy,7,0.6660385000000133,['n'],1,right,['9'],5,0.0855968999999277,,,,,,,,26,19,Vrouw,Rechts,2,
,xotask,xotask,xotask,5,0,5,305,training,positivefb,93,average,17,0.5511941999998271,['n'],1,right,['9'],5,0.08428520000006756,,,,,,,,26,19,Vrouw,Rechts,2,
,xotask,xotask,xotask,6,0,6,306,training,positivefb,89,average,61,0.5827487000001383,['c'],1,left,['9'],5,0.04930450000028941,,,,,,,,26,19,Vrouw,Rechts,2,
,xotask,xotask,xotask,7,0,7,307,training,positivefb,97,easy,74,0.48355990000027305,['c'],1,left,['9'],5,0.1004096000001482,,,,,,,,26,19,Vrouw,Rechts,2,
,xotask,xotask,xotask,8,0,8,308,training,positivefb,93,hard,53,0.4172974000002796,['c'],1,left,['2'],2,0.4632869000001847,,,,,,,,26,19,Vrouw,Rechts,2,
,xotask,xotask,xotask,9,0,9,309,training,positivefb,94,average,62,0.4834092999999484,['c'],1,left,['9'],5,0.11429720000023735,,,,,,,,26,19,Vrouw,Rechts,2,
,xotask,xotask,xotask,10,0,10,310,training,positivefb,92,hard,29,0.6010731000001215,['c'],0,right,['9'],5,0.12623230000008334,,,,,,,,26,19,Vrouw,Rechts,2,
,xotask,xotask,xotask,11,0,11,311,training,positivefb,97,average,15,0.7670778000001519,['n'],1,right,['9'],5,0.17913389999966967,,,,,,,,26,19,Vrouw,Rechts,2,
,xotask,xotask,xotask,12,0,12,312,training,positivefb,91,hard,26,0.5176562999999987,['n'],1,right,['9'],5,0.09563780000007682,,,,,,,,26,19,Vrouw,Rechts,2,
,xotask,xotask,xotask,13,0,13,313,training,positivefb,98,hard,25,0.5337453000001915,['n'],1,right,['9'],5,0.08722200000011071,,,,,,,,26,19,Vrouw,Rechts,2,
,xotask,xotask,xotask,14,0,14,314,training,positivefb,94,hard,52,0.4506293999997979,['n'],0,left,['9'],5,0.10532390000025771,,,,,,,,26,19,Vrouw,Rechts,2,
,xotask,xotask,xotask,15,0,15,315,training,positivefb,98,average,60,0.35037910000028205,['c'],1,left,['9'],5,0.14358390000006693,,,,,,,,26,19,Vrouw,Rechts,2,
,xotask,xotask,xotask,16,0,16,316,training,positivefb,97,easy,7,0.5499425999996674,['n'],1,right,['9'],5,0.07656559999986712,,,,,,,,26,19,Vrouw,Rechts,2,
,xotask,xotask,xotask,17,0,17,317,training,positivefb,98,easy,6,0.5003621000000749,['n'],1,right,['9'],5,0.08555559999967954,,,,,,,,26,19,Vrouw,Rechts,2,
,xotask,xotask,xotask,18,0,18,318,training,positivefb,97,hard,54,0.583937700000206,['c'],1,left,['9'],5,0.13121259999979884,,,,,,,,26,19,Vrouw,Rechts,2,
,xotask,xotask,xotask,19,0,19,319,training,positivefb,93,easy,8,0.7012881999999081,['n'],1,right,['9'],5,0.10567279999986567,,,,,,,,26,19,Vrouw,Rechts,2,
,xotask,xotask,xotask,20,0,20,320,training,positivefb,91,hard,28,0.7994191999996474,['n'],1,right,['9'],5,0.0855492000000595,,,,,,,,26,19,Vrouw,Rechts,2,
,xotask,xotask,xotask,21,0,21,321,training,positivefb,94,easy,6,0.6661549999998897,['n'],1,right,['9'],5,0.11138979999986987,,,,,,,,26,19,Vrouw,Rechts,2,
,xotask,xotask,xotask,22,0,22,322,training,positivefb,97,average,16,0.45025980000036725,['n'],1,right,['9'],5,0.08127719999993133,,,,,,,,26,19,Vrouw,Rechts,2,
,xotask,xotask,xotask,23,0,23,323,training,positivefb,94,average,64,0.6678798999996616,['c'],1,left,['9'],5,0.07628590000012991,,,,,,,,26,19,Vrouw,Rechts,2,
,xotask,xotask,xotask,24,0,24,324,training,positivefb,99,hard,29,0.4661439000001337,['n'],1,right,['9'],5,0.09498789999997825,,,,,,,,26,19,Vrouw,Rechts,2,
,xotask,xotask,xotask,25,0,25,325,training,positivefb,89,hard,26,0.6662642999999662,['n'],1,right,['9'],5,0.10482880000017758,,,,,,,,26,19,Vrouw,Rechts,2,
,xotask,xotask,xotask,26,0,26,326,training,positivefb,96,easy,6,0.3994550000002164,['n'],1,right,['9'],5,0.09213120000003983,,,,,,,,26,19,Vrouw,Rechts,2,
,xotask,xotask,xotask,27,0,27,327,training,positivefb,96,hard,29,0.36706739999999627,['c'],0,right,['2'],2,0.4579913999996279,,,,,,,,26,19,Vrouw,Rechts,2,
,xotask,xotask,xotask,28,0,28,328,training,positivefb,97,easy,71,0.5002722000003814,['c'],1,left,['9'],5,0.13261830000010377,,,,,,,,26,19,Vrouw,Rechts,2,
,xotask,xotask,xotask,29,0,29,329,training,positivefb,82,hard,50,0.46600519999992684,['n'],0,left,['2'],2,0.4124595000002955,,,,,,,,26,19,Vrouw,Rechts,2,
,xotask,xotask,xotask,30,0,30,330,training,positivefb,91,average,19,0.81563129999995,['n'],1,right,['9'],5,0.11520299999983763,,,,,,,,26,19,Vrouw,Rechts,2,
,xotask,xotask,xotask,31,0,31,331,training,positivefb,98,average,61,0.5668331000001672,['c'],1,left,['9'],5,0.0886396999999306,,,,,,,,26,19,Vrouw,Rechts,2,
,xotask,xotask,xotask,32,0,32,332,training,positivefb,90,average,17,0.48382690000016737,['n'],1,right,['9'],5,0.08184870000013689,,,,,,,,26,19,Vrouw,Rechts,2,
,xotask,xotask,xotask,33,0,33,333,training,positivefb,95,average,63,0.682727899999918,['c'],1,left,['9'],5,0.10707259999981034,,,,,,,,26,19,Vrouw,Rechts,2,
,xotask,xotask,xotask,34,0,34,334,training,positivefb,91,easy,70,0.45021019999967393,['c'],1,left,['9'],5,0.07636330000013913,,,,,,,,26,19,Vrouw,Rechts,2,
,xotask,xotask,xotask,35,0,35,335,training,positivefb,94,easy,74,0.466067600000315,['c'],1,left,['9'],5,0.05531350000001112,,,,,,,,26,19,Vrouw,Rechts,2,
,xotask,xotask,xotask,36,0,36,336,training,positivefb,97,hard,25,0.5005538000000342,['c'],0,right,['2'],2,0.48141919999989113,,,,,,,,26,19,Vrouw,Rechts,2,
,xotask,xotask,xotask,37,0,37,337,training,positivefb,85,hard,53,0.6995726000000104,['n'],0,left,['9'],5,0.08218769999984943,,,,,,,,26,19,Vrouw,Rechts,2,
,xotask,xotask,xotask,38,0,38,338,training,positivefb,88,average,16,0.5173361000001933,['n'],1,right,['9'],5,0.07485080000014932,,,,,,,,26,19,Vrouw,Rechts,2,
,xotask,xotask,xotask,39,0,39,339,training,positivefb,97,easy,6,0.5171283999998195,['n'],1,right,['9'],5,0.11527169999999387,,,,,,,,26,19,Vrouw,Rechts,2,
,xotask,xotask,xotask,40,0,40,340,training,positivefb,98,hard,51,0.5988468000000466,['c'],1,left,['9'],5,0.38269309999986945,,,,,,,,26,19,Vrouw,Rechts,2,
,xotask,xotask,xotask,41,0,41,341,training,positivefb,98,easy,71,0.5510838000000149,['c'],1,left,['9'],5,0.04119489999993675,,,,,,,,26,19,Vrouw,Rechts,2,
,xotask,xotask,xotask,42,0,42,342,training,positivefb,96,easy,6,0.6000287000001663,['n'],1,right,['9'],5,0.047828499999923224,,,,,,,,26,19,Vrouw,Rechts,2,
,xotask,xotask,xotask,43,0,43,343,training,positivefb,93,easy,70,0.7995111999998699,['c'],1,left,['9'],5,0.029339700000036828,,,,,,,,26,19,Vrouw,Rechts,2,
,xotask,xotask,xotask,44,0,44,344,training,positivefb,96,average,60,0.7161045000002559,['c'],1,left,['9'],5,0.04885569999987638,,,,,,,,26,19,Vrouw,Rechts,2,
,xotask,xotask,xotask,45,0,45,345,training,positivefb,96,average,16,0.5503444999999374,['n'],1,right,['9'],5,0.07257580000032249,,,,,,,,26,19,Vrouw,Rechts,2,
,xotask,xotask,xotask,46,0,46,346,training,positivefb,92,easy,6,0.5172121000000516,['n'],1,right,['9'],5,0.08865519999972094,,,,,,,,26,19,Vrouw,Rechts,2,
,xotask,xotask,xotask,47,0,47,347,training,positivefb,88,hard,51,0.6666079999999965,['n'],0,left,['9'],5,0.09908790000008594,,,,,,,,26,19,Vrouw,Rechts,2,
,xotask,xotask,xotask,48,0,48,348,training,positivefb,95,easy,74,0.5340750999998818,['c'],1,left,['9'],5,0.049765300000217394,,,,,,,,26,19,Vrouw,Rechts,2,
,xotask,xotask,xotask,49,0,49,349,training,positivefb,87,average,63,0.6164930999998433,['c'],1,left,['9'],5,0.04689860000007684,,,,,,,,26,19,Vrouw,Rechts,2,
,xotask,xotask,xotask,50,0,50,350,training,positivefb,97,easy,5,0.6335616999999729,['n'],1,right,['9'],5,0.04506709999986924,,,,,,,,26,19,Vrouw,Rechts,2,
,xotask,xotask,xotask,51,0,51,351,training,positivefb,97,average,19,0.5497169999998732,['n'],1,right,['9'],5,0.10911540000006426,,,,,,,,26,19,Vrouw,Rechts,2,
,xotask,xotask,xotask,52,0,52,352,training,positivefb,95,average,63,0.5006809999999859,['c'],1,left,['9'],5,0.11709539999992558,,,,,,,,26,19,Vrouw,Rechts,2,
,xotask,xotask,xotask,53,0,53,353,training,positivefb,97,hard,52,0.5165877999997974,['c'],1,left,['9'],5,0.027369999999791617,,,,,,,,26,19,Vrouw,Rechts,2,
,xotask,xotask,xotask,54,0,54,354,training,positivefb,97,average,17,0.5328822999999829,['n'],1,right,['9'],5,0.08538850000013554,,,,,,,,26,19,Vrouw,Rechts,2,
,xotask,xotask,xotask,55,0,55,355,training,positivefb,96,average,64,0.5172548000000461,['c'],1,left,['9'],5,0.14119660000005751,,,,,,,,26,19,Vrouw,Rechts,2,
,xotask,xotask,xotask,56,0,56,356,training,positivefb,98,easy,72,0.45005959999980405,['c'],1,left,['9'],5,0.10250560000031328,,,,,,,,26,19,Vrouw,Rechts,2,
,xotask,xotask,xotask,57,0,57,357,training,positivefb,98,average,18,0.5830234000000019,['n'],1,right,['9'],5,0.12334489999966536,,,,,,,,26,19,Vrouw,Rechts,2,
,xotask,xotask,xotask,58,0,58,358,training,positivefb,98,hard,52,0.6504020999996101,['c'],1,left,['9'],5,0.10059700000010707,,,,,,,,26,19,Vrouw,Rechts,2,
,xotask,xotask,xotask,59,0,59,359,training,positivefb,96,hard,51,0.6675807999999961,['c'],1,left,['9'],5,0.07042559999990772,,,,,,,,26,19,Vrouw,Rechts,2,
,xotask,xotask,xotask,0,1,60,360,training,positivefb,95,easy,74,0.8009206000001541,['c'],1,left,['9'],5,0.0628338999999869,,,,,,,,26,19,Vrouw,Rechts,2,
,xotask,xotask,xotask,1,1,61,361,training,positivefb,97,average,19,0.4671960000000581,['n'],1,right,['9'],5,0.07327030000033119,,,,,,,,26,19,Vrouw,Rechts,2,
,xotask,xotask,xotask,2,1,62,362,training,positivefb,98,easy,73,0.5167928000000757,['c'],1,left,['9'],5,0.07480680000026041,,,,,,,,26,19,Vrouw,Rechts,2,
,xotask,xotask,xotask,3,1,63,363,training,positivefb,98,easy,9,0.5338240999999471,['n'],1,right,['9'],5,0.07441990000006626,,,,,,,,26,19,Vrouw,Rechts,2,
,xotask,xotask,xotask,4,1,64,364,training,positivefb,94,average,64,0.5837901999998394,['c'],1,left,['9'],5,0.08843030000025465,,,,,,,,26,19,Vrouw,Rechts,2,
,xotask,xotask,xotask,5,1,65,365,training,positivefb,97,hard,25,0.5331753999998909,['n'],1,right,['9'],5,0.05594750000000204,,,,,,,,26,19,Vrouw,Rechts,2,
,xotask,xotask,xotask,6,1,66,366,training,positivefb,92,average,62,0.499045500000193,['c'],1,left,['9'],5,0.08179759999984526,,,,,,,,26,19,Vrouw,Rechts,2,
,xotask,xotask,xotask,7,1,67,367,training,positivefb,92,average,18,0.399847900000168,['c'],0,right,['9'],5,0.24672740000005433,,,,,,,,26,19,Vrouw,Rechts,2,
,xotask,xotask,xotask,8,1,68,368,training,positivefb,97,easy,8,0.5158513000001221,['n'],1,right,['9'],5,0.07208149999996749,,,,,,,,26,19,Vrouw,Rechts,2,
,xotask,xotask,xotask,9,1,69,369,training,positivefb,95,average,63,0.5842251999997643,['c'],1,left,['9'],5,0.05509630000005927,,,,,,,,26,19,Vrouw,Rechts,2,
,xotask,xotask,xotask,10,1,70,370,training,positivefb,82,easy,7,0.5505399000003308,['n'],1,right,['9'],5,0.11090990000002421,,,,,,,,26,19,Vrouw,Rechts,2,
,xotask,xotask,xotask,11,1,71,371,training,positivefb,94,easy,9,0.5842833000001519,['n'],1,right,['9'],5,0.09133870000005118,,,,,,,,26,19,Vrouw,Rechts,2,
,xotask,xotask,xotask,12,1,72,372,training,positivefb,97,average,17,0.5336704999999711,['n'],1,right,['9'],5,0.10647740000013073,,,,,,,,26,19,Vrouw,Rechts,2,
,xotask,xotask,xotask,13,1,73,373,training,positivefb,95,easy,6,0.4667844000000514,['n'],1,right,['9'],5,0.11549920000015845,,,,,,,,26,19,Vrouw,Rechts,2,
,xotask,xotask,xotask,14,1,74,374,training,positivefb,98,average,63,0.4667493999995713,['c'],1,left,['9'],5,0.10051430000021355,,,,,,,,26,19,Vrouw,Rechts,2,
,xotask,xotask,xotask,15,1,75,375,training,positivefb,96,average,60,0.6165790000000015,['c'],1,left,['9'],5,0.0958490999996684,,,,,,,,26,19,Vrouw,Rechts,2,
,xotask,xotask,xotask,16,1,76,376,training,positivefb,95,hard,54,0.5987687000001642,['n'],0,left,['9'],5,0.08518390000017462,,,,,,,,26,19,Vrouw,Rechts,2,
,xotask,xotask,xotask,17,1,77,377,training,positivefb,99,hard,27,0.43359830000008515,['n'],1,right,['9'],5,0.12815980000004856,,,,,,,,26,19,Vrouw,Rechts,2,
,xotask,xotask,xotask,18,1,78,378,training,positivefb,97,average,63,0.5510021000000052,['c'],1,left,['9'],5,0.06146179999996093,,,,,,,,26,19,Vrouw,Rechts,2,
,xotask,xotask,xotask,19,1,79,379,training,positivefb,89,easy,74,0.5667715999998109,['c'],1,left,['9'],5,0.06924780000008468,,,,,,,,26,19,Vrouw,Rechts,2,
,xotask,xotask,xotask,20,1,80,380,training,positivefb,98,easy,74,0.5830255999999281,['c'],1,left,['9'],5,0.10696649999999863,,,,,,,,26,19,Vrouw,Rechts,2,
,xotask,xotask,xotask,21,1,81,381,training,positivefb,95,average,64,0.7167939000000842,['c'],1,left,['9'],5,0.033705599999848346,,,,,,,,26,19,Vrouw,Rechts,2,
,xotask,xotask,xotask,22,1,82,382,training,positivefb,77,hard,27,0.5340570000003027,['c'],0,right,['9'],5,0.6351614000000154,,,,,,,,26,19,Vrouw,Rechts,2,
,xotask,xotask,xotask,23,1,83,383,training,positivefb,45,hard,50,0.265621199999714,['n'],0,left,['2'],2,0.6553444999999556,,,,,,,,26,19,Vrouw,Rechts,2,
,xotask,xotask,xotask,24,1,84,384,training,positivefb,94,easy,8,0.5160458999998809,['n'],1,right,['9'],5,0.08897750000005544,,,,,,,,26,19,Vrouw,Rechts,2,
,xotask,xotask,xotask,25,1,85,385,training,positivefb,96,easy,74,0.5165172000001803,['c'],1,left,['9'],5,0.040269699999953446,,,,,,,,26,19,Vrouw,Rechts,2,
,xotask,xotask,xotask,26,1,86,386,training,positivefb,98,hard,28,0.600080600000183,['n'],1,right,['9'],5,0.06303639999987354,,,,,,,,26,19,Vrouw,Rechts,2,
,xotask,xotask,xotask,27,1,87,387,training,positivefb,92,hard,27,0.41562290000001667,['n'],1,right,['9'],5,0.07682629999999335,,,,,,,,26,19,Vrouw,Rechts,2,
,xotask,xotask,xotask,28,1,88,388,training,positivefb,98,hard,26,0.4499513000000661,['c'],0,right,['2'],2,0.4080699999999524,,,,,,,,26,19,Vrouw,Rechts,2,
,xotask,xotask,xotask,29,1,89,389,training,positivefb,96,average,18,0.8175760999997692,['n'],1,right,['9'],5,0.10377769999968223,,,,,,,,26,19,Vrouw,Rechts,2,
,xotask,xotask,xotask,30,1,90,390,training,positivefb,97,easy,74,0.46651380000002973,['c'],1,left,['9'],5,0.04885429999967528,,,,,,,,26,19,Vrouw,Rechts,2,
,xotask,xotask,xotask,31,1,91,391,training,positivefb,96,easy,72,0.5339285999998538,['c'],1,left,['9'],5,0.03271820000009029,,,,,,,,26,19,Vrouw,Rechts,2,
,xotask,xotask,xotask,32,1,92,392,training,positivefb,85,easy,5,0.6165940000000774,['n'],1,right,['9'],5,0.07907690000001821,,,,,,,,26,19,Vrouw,Rechts,2,
,xotask,xotask,xotask,33,1,93,393,training,positivefb,90,hard,52,0.6177803999999014,['n'],0,left,['2'],2,0.6038640000001578,,,,,,,,26,19,Vrouw,Rechts,2,
,xotask,xotask,xotask,34,1,94,394,training,positivefb,98,average,18,0.499876100000165,['n'],1,right,['9'],5,0.07251459999997678,,,,,,,,26,19,Vrouw,Rechts,2,
,xotask,xotask,xotask,35,1,95,395,training,positivefb,97,hard,28,0.3830811000002541,['n'],1,right,['2'],2,0.36612309999964054,,,,,,,,26,19,Vrouw,Rechts,2,
,xotask,xotask,xotask,36,1,96,396,training,positivefb,90,easy,72,0.5162281000002622,['c'],1,left,['9'],5,0.034210600000278646,,,,,,,,26,19,Vrouw,Rechts,2,
,xotask,xotask,xotask,37,1,97,397,training,positivefb,89,easy,73,0.483563199999935,['c'],1,left,['9'],5,0.10216270000000804,,,,,,,,26,19,Vrouw,Rechts,2,
,xotask,xotask,xotask,38,1,98,398,training,positivefb,98,hard,50,0.5496740000003228,['c'],1,left,['9'],5,0.05202529999996841,,,,,,,,26,19,Vrouw,Rechts,2,
,xotask,xotask,xotask,39,1,99,399,training,positivefb,94,hard,52,0.5993349000000308,['c'],1,left,['9'],5,0.21801559999994424,,,,,,,,26,19,Vrouw,Rechts,2,
,xotask,xotask,xotask,40,1,100,400,training,positivefb,96,hard,51,0.4996126999999433,['c'],1,left,['9'],5,0.06866840000020602,,,,,,,,26,19,Vrouw,Rechts,2,
,xotask,xotask,xotask,41,1,101,401,training,positivefb,97,hard,25,0.5666711000003488,['n'],1,right,['9'],5,0.044061600000077306,,,,,,,,26,19,Vrouw,Rechts,2,
,xotask,xotask,xotask,42,1,102,402,training,positivefb,98,easy,71,0.5328081999996357,['c'],1,left,['9'],5,0.1809224000003269,,,,,,,,26,19,Vrouw,Rechts,2,
,xotask,xotask,xotask,43,1,103,403,training,positivefb,96,average,15,0.5173936999999569,['n'],1,right,['9'],5,0.06498970000029658,,,,,,,,26,19,Vrouw,Rechts,2,
,xotask,xotask,xotask,44,1,104,404,training,positivefb,93,hard,54,0.9510104000000865,['n'],0,left,['9'],5,0.024128600000040024,,,,,,,,26,19,Vrouw,Rechts,2,
,xotask,xotask,xotask,45,1,105,405,training,positivefb,90,hard,54,0.5667827000002035,['n'],0,left,['9'],5,0.04933970000001864,,,,,,,,26,19,Vrouw,Rechts,2,
,xotask,xotask,xotask,46,1,106,406,training,positivefb,96,average,60,0.8168931000000157,['n'],0,left,['9'],5,0.0708319999998821,,,,,,,,26,19,Vrouw,Rechts,2,
,xotask,xotask,xotask,47,1,107,407,training,positivefb,94,hard,52,0.5830854000000727,['c'],1,left,['9'],5,0.06830940000008923,,,,,,,,26,19,Vrouw,Rechts,2,
,xotask,xotask,xotask,48,1,108,408,training,positivefb,95,hard,26,0.5498384000002261,['n'],1,right,['9'],5,0.11625119999962408,,,,,,,,26,19,Vrouw,Rechts,2,
,xotask,xotask,xotask,49,1,109,409,training,positivefb,96,average,16,0.9658999999996922,['n'],1,right,['9'],5,0.08025710000038089,,,,,,,,26,19,Vrouw,Rechts,2,
,xotask,xotask,xotask,50,1,110,410,training,positivefb,99,average,15,0.5004984000001969,['n'],1,right,['9'],5,0.05022719999988112,,,,,,,,26,19,Vrouw,Rechts,2,
,xotask,xotask,xotask,51,1,111,411,training,positivefb,98,hard,52,0.5495982000002186,['c'],1,left,['9'],5,0.025654999999915162,,,,,,,,26,19,Vrouw,Rechts,2,
,xotask,xotask,xotask,52,1,112,412,training,positivefb,94,hard,29,0.5827440999996725,['n'],1,right,['9'],5,0.04186939999999595,,,,,,,,26,19,Vrouw,Rechts,2,
,xotask,xotask,xotask,53,1,113,413,training,positivefb,92,average,19,0.601276400000188,['n'],1,right,['9'],5,0.10435970000025918,,,,,,,,26,19,Vrouw,Rechts,2,
,xotask,xotask,xotask,54,1,114,414,training,positivefb,84,average,63,0.5666976000002251,['c'],1,left,['9'],5,0.2141567000003306,,,,,,,,26,19,Vrouw,Rechts,2,
,xotask,xotask,xotask,55,1,115,415,training,positivefb,95,easy,5,0.5501275000001442,['n'],1,right,['9'],5,0.015740399999685906,,,,,,,,26,19,Vrouw,Rechts,2,
,xotask,xotask,xotask,56,1,116,416,training,positivefb,91,average,64,0.5656887999998617,['c'],1,left,['9'],5,0.07227469999997993,,,,,,,,26,19,Vrouw,Rechts,2,
,xotask,xotask,xotask,57,1,117,417,training,positivefb,96,easy,9,0.5329933000002711,['n'],1,right,['9'],5,0.06419139999979961,,,,,,,,26,19,Vrouw,Rechts,2,
,xotask,xotask,xotask,58,1,118,418,training,positivefb,98,average,15,0.43372750000025917,['n'],1,right,['9'],5,0.12403420000009646,,,,,,,,26,19,Vrouw,Rechts,2,
,xotask,xotask,xotask,59,1,119,419,training,positivefb,91,easy,6,0.799858100000165,['n'],1,right,['9'],5,0.08033389999991414,,,,,,,,26,19,Vrouw,Rechts,2,
,dotcolour,xotask,xotask,0,2,120,420,main,positivefb,-99,hard,,1.6520077999998648,['n'],1,right,['9'],5,0.5146184000000176,35,,,,,,,26,19,Vrouw,Rechts,2,
,dotcolour,xotask,xotask,1,2,121,421,main,positivefb,-99,hard,,0.7845314000001054,['c'],1,left,['9'],5,0.9439457000003131,43,,,,,,,26,19,Vrouw,Rechts,2,
,dotcolour,xotask,xotask,2,2,122,422,main,positivefb,-99,average,,0.6675012999999126,['c'],1,left,['9'],5,0.056280400000105146,51,,,,,,,26,19,Vrouw,Rechts,2,
,dotcolour,xotask,xotask,3,2,123,423,main,positivefb,-99,easy,,0.4995699000000968,['c'],1,left,['9'],5,0.03465490000007776,62,,,,,,,26,19,Vrouw,Rechts,2,
,dotcolour,xotask,xotask,4,2,124,424,main,positivefb,-99,average,,0.48347889999968174,['n'],1,right,['9'],5,0.04619529999990846,25,,,,,,,26,19,Vrouw,Rechts,2,
,dotcolour,xotask,xotask,5,2,125,425,main,positivefb,-99,easy,,0.43339190000006056,['n'],1,right,['9'],5,0.06137110000008761,19,,,,,,,26,19,Vrouw,Rechts,2,
,dotcolour,xotask,xotask,6,2,126,426,main,positivefb,-99,easy,,0.48457820000021457,['n'],1,right,['9'],5,0.09600189999991926,17,,,,,,,26,19,Vrouw,Rechts,2,
,dotcolour,xotask,xotask,7,2,127,427,main,positivefb,-99,average,,0.48318420000032347,['c'],1,left,['9'],5,0.07397850000006656,55,,,,,,,26,19,Vrouw,Rechts,2,
,dotcolour,xotask,xotask,8,2,128,428,main,positivefb,-99,average,,0.6850687999999536,['c'],1,left,['9'],5,0.1962258999997175,51,,,,,,,26,19,Vrouw,Rechts,2,
,dotcolour,xotask,xotask,9,2,129,429,main,positivefb,-99,average,,0.517157600000246,['c'],1,left,['9'],5,0.02537259999962771,55,,,,,,,26,19,Vrouw,Rechts,2,
,dotcolour,xotask,xotask,10,2,130,430,main,positivefb,-99,average,,0.5837142999998832,['n'],1,right,['9'],5,0.10588469999993322,25,,,,,,,26,19,Vrouw,Rechts,2,
,dotcolour,xotask,xotask,11,2,131,431,main,positivefb,-99,average,,0.5009217000001627,['c'],1,left,['9'],5,0.12275309999995443,55,,,,,,,26,19,Vrouw,Rechts,2,
,dotcolour,xotask,xotask,12,2,132,432,main,positivefb,-99,easy,,0.534613900000295,['c'],1,left,['9'],5,0.24927219999972294,62,,,,,,,26,19,Vrouw,Rechts,2,
,dotcolour,xotask,xotask,13,2,133,433,main,positivefb,-99,easy,,0.567169300000387,['n'],1,right,['9'],5,0.1773246999996445,19,,,,,,,26,19,Vrouw,Rechts,2,
,dotcolour,xotask,xotask,14,2,134,434,main,positivefb,-99,hard,,0.7673818999996911,['c'],1,left,['2'],2,1.101100299999871,43,,,,,,,26,19,Vrouw,Rechts,2,
,dotcolour,xotask,xotask,15,2,135,435,main,positivefb,-99,average,,0.5347127,['n'],1,right,['9'],5,0.09266380000008212,25,,,,,,,26,19,Vrouw,Rechts,2,
,dotcolour,xotask,xotask,16,2,136,436,main,positivefb,-99,average,,0.5672945000001164,['c'],1,left,['9'],5,0.04257389999975203,51,,,,,,,26,19,Vrouw,Rechts,2,
,dotcolour,xotask,xotask,17,2,137,437,main,positivefb,-99,average,,0.4674697999998898,['c'],1,left,['9'],5,0.0715528999999151,51,,,,,,,26,19,Vrouw,Rechts,2,
,dotcolour,xotask,xotask,18,2,138,438,main,positivefb,-99,average,,0.7346423000003597,['n'],1,right,['9'],5,0.07176279999976032,29,,,,,,,26,19,Vrouw,Rechts,2,
,dotcolour,xotask,xotask,19,2,139,439,main,positivefb,-99,easy,,0.550543899999866,['n'],1,right,['9'],5,0.11190239999996265,15,,,,,,,26,19,Vrouw,Rechts,2,
,dotcolour,xotask,xotask,20,2,140,440,main,positivefb,-99,easy,,0.48343489999979283,['c'],1,left,['9'],5,0.08178659999975935,63,,,,,,,26,19,Vrouw,Rechts,2,
,dotcolour,xotask,xotask,21,2,141,441,main,positivefb,-99,hard,,1.101165100000344,['c'],0,right,['2'],2,0.3946782000002713,36,,,,,,,26,19,Vrouw,Rechts,2,
,dotcolour,xotask,xotask,22,2,142,442,main,positivefb,-99,easy,,0.4848610999997618,['n'],1,right,['9'],5,0.07199480000008407,18,,,,,,,26,19,Vrouw,Rechts,2,
,dotcolour,xotask,xotask,23,2,143,443,main,positivefb,-99,easy,,0.5841506000001573,['c'],1,left,['9'],5,0.07923470000014277,65,,,,,,,26,19,Vrouw,Rechts,2,
,dotcolour,xotask,xotask,24,2,144,444,main,positivefb,-99,hard,,1.2011695999999574,['n'],1,right,['2'],2,0.09327140000004874,37,,,,,,,26,19,Vrouw,Rechts,2,
,dotcolour,xotask,xotask,25,2,145,445,main,positivefb,-99,hard,,0.5672697999998491,['n'],1,right,['9'],5,0.2836395999997876,35,,,,,,,26,19,Vrouw,Rechts,2,
,dotcolour,xotask,xotask,26,2,146,446,main,positivefb,-99,hard,,0.6179357999999411,['c'],1,left,['9'],5,0.08061189999989438,43,,,,,,,26,19,Vrouw,Rechts,2,
,dotcolour,xotask,xotask,27,2,147,447,main,positivefb,-99,hard,,0.4015186999999969,['c'],1,left,['9'],5,0.0947929000003569,42,,,,,,,26,19,Vrouw,Rechts,2,
,dotcolour,xotask,xotask,28,2,148,448,main,positivefb,-99,hard,,0.3512588999997206,['n'],1,right,['9'],5,0.11023620000014489,39,,,,,,,26,19,Vrouw,Rechts,2,
,dotcolour,xotask,xotask,29,2,149,449,main,positivefb,-99,average,,0.9837972000000264,['c'],0,right,['3'],3,2.3394164000001183,29,,,,,,,26,19,Vrouw,Rechts,2,
,dotcolour,xotask,xotask,30,2,150,450,main,positivefb,-99,hard,,1.7015102999998817,['c'],1,left,['8'],4,2.506364400000166,44,,,,,,,26,19,Vrouw,Rechts,2,
,dotcolour,xotask,xotask,31,2,151,451,main,positivefb,-99,hard,,2.217488400000093,['n'],1,right,['8'],4,0.11861950000002253,37,,,,,,,26,19,Vrouw,Rechts,2,
,dotcolour,xotask,xotask,32,2,152,452,main,positivefb,-99,hard,,0.7173510000002352,['c'],1,left,['9'],5,0.17354690000001938,43,,,,,,,26,19,Vrouw,Rechts,2,
,dotcolour,xotask,xotask,33,2,153,453,main,positivefb,-99,hard,,0.7500107999999273,['c'],1,left,['9'],5,0.06624299999975847,41,,,,,,,26,19,Vrouw,Rechts,2,
,dotcolour,xotask,xotask,34,2,154,454,main,positivefb,-99,hard,,1.0506791000002522,['c'],0,right,['9'],5,0.0375635999998849,37,,,,,,,26,19,Vrouw,Rechts,2,
,dotcolour,xotask,xotask,35,2,155,455,main,positivefb,-99,hard,,0.40054109999982757,['c'],1,left,['9'],5,0.045750799999950686,41,,,,,,,26,19,Vrouw,Rechts,2,
,dotcolour,xotask,xotask,36,2,156,456,main,positivefb,-99,easy,,0.4673691999996663,['c'],1,left,['9'],5,0.074192800000219,65,,,,,,,26,19,Vrouw,Rechts,2,
,dotcolour,xotask,xotask,37,2,157,457,main,positivefb,-99,hard,,0.9679808000000776,['c'],0,right,['9'],5,0.07309620000023642,36,,,,,,,26,19,Vrouw,Rechts,2,
,dotcolour,xotask,xotask,38,2,158,458,main,positivefb,-99,hard,,0.4851090000001932,['c'],1,left,['9'],5,0.06767290000016146,44,,,,,,,26,19,Vrouw,Rechts,2,
,dotcolour,xotask,xotask,39,2,159,459,main,positivefb,-99,easy,,0.43458220000002257,['c'],0,right,['9'],5,0.0723904000001312,16,,,,,,,26,19,Vrouw,Rechts,2,
,dotcolour,xotask,xotask,40,2,160,460,main,positivefb,-99,hard,,0.7839404000001196,['n'],1,right,['2'],2,0.5829542000001311,37,,,,,,,26,19,Vrouw,Rechts,2,
,dotcolour,xotask,xotask,41,2,161,461,main,positivefb,-99,easy,,0.6841725999997834,['c'],1,left,['9'],5,0.061889999999948486,61,,,,,,,26,19,Vrouw,Rechts,2,
,dotcolour,xotask,xotask,42,2,162,462,main,positivefb,-99,average,,0.5180474999997386,['c'],0,right,['9'],5,0.05520890000025247,26,,,,,,,26,19,Vrouw,Rechts,2,
,dotcolour,xotask,xotask,43,2,163,463,main,positivefb,-99,easy,,0.45095609999998487,['c'],1,left,['9'],5,0.07560249999960433,65,,,,,,,26,19,Vrouw,Rechts,2,
,dotcolour,xotask,xotask,44,2,164,464,main,positivefb,-99,average,,0.3839560999999776,['c'],1,left,['9'],5,0.058746700000028795,51,,,,,,,26,19,Vrouw,Rechts,2,
,dotcolour,xotask,xotask,45,2,165,465,main,positivefb,-99,easy,,0.8848678999997901,['n'],1,right,['9'],5,0.11044360000005327,19,,,,,,,26,19,Vrouw,Rechts,2,
,dotcolour,xotask,xotask,46,2,166,466,main,positivefb,-99,average,,0.6012243999998645,['n'],1,right,['9'],5,0.1139564000000064,27,,,,,,,26,19,Vrouw,Rechts,2,
,dotcolour,xotask,xotask,47,2,167,467,main,positivefb,-99,easy,,0.4999974000002112,['n'],1,right,['9'],5,0.1072556999997687,18,,,,,,,26,19,Vrouw,Rechts,2,
,dotcolour,xotask,xotask,48,2,168,468,main,positivefb,-99,average,,0.43475100000023303,['n'],1,right,['9'],5,0.08637790000011591,25,,,,,,,26,19,Vrouw,Rechts,2,
,dotcolour,xotask,xotask,49,2,169,469,main,positivefb,-99,average,,0.4675317000001087,['n'],1,right,['9'],5,0.08107049999989613,25,,,,,,,26,19,Vrouw,Rechts,2,
,dotcolour,xotask,xotask,50,2,170,470,main,positivefb,-99,hard,,0.5180413999996745,['c'],1,left,['9'],5,0.025992300000325486,43,,,,,,,26,19,Vrouw,Rechts,2,
,dotcolour,xotask,xotask,51,2,171,471,main,positivefb,-99,easy,,0.5505643999999847,['n'],1,right,['9'],5,0.08409730000039417,16,,,,,,,26,19,Vrouw,Rechts,2,
,dotcolour,xotask,xotask,52,2,172,472,main,positivefb,-99,easy,,0.4675345999999081,['c'],1,left,['9'],5,0.07857369999965158,63,,,,,,,26,19,Vrouw,Rechts,2,
,dotcolour,xotask,xotask,53,2,173,473,main,positivefb,-99,hard,,0.8003869999997733,['c'],0,right,['9'],5,0.1653732999998283,37,,,,,,,26,19,Vrouw,Rechts,2,
,dotcolour,xotask,xotask,54,2,174,474,main,positivefb,-99,average,,0.4012596000002304,['c'],1,left,['9'],5,0.07117500000003929,52,,,,,,,26,19,Vrouw,Rechts,2,
,dotcolour,xotask,xotask,55,2,175,475,main,positivefb,-99,average,,0.6514231999999538,['n'],1,right,['9'],5,0.08272459999989223,26,,,,,,,26,19,Vrouw,Rechts,2,
,dotcolour,xotask,xotask,56,2,176,476,main,positivefb,-99,average,,0.5171497000001182,['c'],1,left,['9'],5,0.03517059999967387,52,,,,,,,26,19,Vrouw,Rechts,2,
,dotcolour,xotask,xotask,57,2,177,477,main,positivefb,-99,easy,,0.466707900000074,['c'],1,left,['9'],5,0.05604649999986577,65,,,,,,,26,19,Vrouw,Rechts,2,
,dotcolour,xotask,xotask,58,2,178,478,main,positivefb,-99,easy,,0.36612190000005285,['c'],1,left,['9'],5,0.03974399999970046,63,,,,,,,26,19,Vrouw,Rechts,2,
,dotcolour,xotask,xotask,59,2,179,479,main,positivefb,-99,easy,,0.7184983000001921,['n'],1,right,['9'],5,0.042806500000097,18,,,,,,,26,19,Vrouw,Rechts,2,
,dotcolour,xotask,xotask,0,3,180,480,main,positivefb,-99,average,,0.6668853999999556,['n'],1,right,['9'],5,0.03797579999991285,25,,,,,,,26,19,Vrouw,Rechts,2,
,dotcolour,xotask,xotask,1,3,181,481,main,positivefb,-99,easy,,0.3658712999999807,['n'],1,right,['9'],5,0.07838769999989381,16,,,,,,,26,19,Vrouw,Rechts,2,
,dotcolour,xotask,xotask,2,3,182,482,main,positivefb,-99,hard,,0.6012024999999994,['c'],1,left,['9'],5,0.0528414000000339,44,,,,,,,26,19,Vrouw,Rechts,2,
,dotcolour,xotask,xotask,3,3,183,483,main,positivefb,-99,average,,0.7329855999996653,['n'],1,right,['9'],5,0.061705999999958294,27,,,,,,,26,19,Vrouw,Rechts,2,
,dotcolour,xotask,xotask,4,3,184,484,main,positivefb,-99,hard,,0.5164701999997305,['c'],1,left,['9'],5,0.07998550000002069,43,,,,,,,26,19,Vrouw,Rechts,2,
,dotcolour,xotask,xotask,5,3,185,485,main,positivefb,-99,easy,,0.7676394000000073,['n'],1,right,['9'],5,0.20724350000000413,16,,,,,,,26,19,Vrouw,Rechts,2,
,dotcolour,xotask,xotask,6,3,186,486,main,positivefb,-99,easy,,0.5680072999998629,['n'],1,right,['9'],5,0.08181510000031267,18,,,,,,,26,19,Vrouw,Rechts,2,
,dotcolour,xotask,xotask,7,3,187,487,main,positivefb,-99,average,,0.5332296999999926,['c'],1,left,['9'],5,0.08194460000004256,51,,,,,,,26,19,Vrouw,Rechts,2,
,dotcolour,xotask,xotask,8,3,188,488,main,positivefb,-99,easy,,0.5516604000004008,['c'],1,left,['9'],5,0.06465589999970689,65,,,,,,,26,19,Vrouw,Rechts,2,
,dotcolour,xotask,xotask,9,3,189,489,main,positivefb,-99,average,,0.5341849999999795,['c'],1,left,['9'],5,0.056929000000309316,51,,,,,,,26,19,Vrouw,Rechts,2,
,dotcolour,xotask,xotask,10,3,190,490,main,positivefb,-99,easy,,0.36793059999990874,['c'],1,left,['9'],5,0.153491899999608,62,,,,,,,26,19,Vrouw,Rechts,2,
,dotcolour,xotask,xotask,11,3,191,491,main,positivefb,-99,hard,,0.6834739999999329,['n'],1,right,['9'],5,0.08098689999997077,35,,,,,,,26,19,Vrouw,Rechts,2,
,dotcolour,xotask,xotask,12,3,192,492,main,positivefb,-99,hard,,0.4680943000003026,['c'],1,left,['9'],5,0.1476001000000906,43,,,,,,,26,19,Vrouw,Rechts,2,
,dotcolour,xotask,xotask,13,3,193,493,main,positivefb,-99,average,,0.517021399999976,['c'],1,left,['9'],5,0.09046399999988353,51,,,,,,,26,19,Vrouw,Rechts,2,
,dotcolour,xotask,xotask,14,3,194,494,main,positivefb,-99,hard,,1.0020254000000932,['c'],0,right,['9'],5,0.10338239999964571,39,,,,,,,26,19,Vrouw,Rechts,2,
,dotcolour,xotask,xotask,15,3,195,495,main,positivefb,-99,easy,,0.7014138999998067,['n'],1,right,['9'],5,0.0966880000000856,15,,,,,,,26,19,Vrouw,Rechts,2,
,dotcolour,xotask,xotask,16,3,196,496,main,positivefb,-99,average,,0.6183138000001236,['c'],1,left,['9'],5,0.07676059999994322,51,,,,,,,26,19,Vrouw,Rechts,2,
,dotcolour,xotask,xotask,17,3,197,497,main,positivefb,-99,easy,,0.4510913999997683,['c'],1,left,['9'],5,0.057311399999889545,64,,,,,,,26,19,Vrouw,Rechts,2,
,dotcolour,xotask,xotask,18,3,198,498,main,positivefb,-99,easy,,0.33431930000006105,['c'],1,left,['9'],5,0.06618870000011157,64,,,,,,,26,19,Vrouw,Rechts,2,
,dotcolour,xotask,xotask,19,3,199,499,main,positivefb,-99,average,,0.38454430000001594,['c'],1,left,['9'],5,0.009140499999830354,53,,,,,,,26,19,Vrouw,Rechts,2,
,dotcolour,xotask,xotask,20,3,200,500,main,positivefb,-99,easy,,0.38461969999980283,['c'],1,left,['9'],5,0.03389580000020942,62,,,,,,,26,19,Vrouw,Rechts,2,
,dotcolour,xotask,xotask,21,3,201,501,main,positivefb,-99,average,,0.6334202000002733,['n'],1,right,['9'],5,0.07179820000010295,25,,,,,,,26,19,Vrouw,Rechts,2,
,dotcolour,xotask,xotask,22,3,202,502,main,positivefb,-99,easy,,0.5844210000000203,['c'],1,left,['9'],5,0.05469790000006469,62,,,,,,,26,19,Vrouw,Rechts,2,
,dotcolour,xotask,xotask,23,3,203,503,main,positivefb,-99,hard,,0.4340985999997429,['c'],1,left,['9'],5,0.10022669999989375,43,,,,,,,26,19,Vrouw,Rechts,2,
,dotcolour,xotask,xotask,24,3,204,504,main,positivefb,-99,hard,,0.4670578000000205,['c'],1,left,['9'],5,0.12597180000011576,43,,,,,,,26,19,Vrouw,Rechts,2,
,dotcolour,xotask,xotask,25,3,205,505,main,positivefb,-99,average,,0.4511024999997062,['c'],1,left,['9'],5,0.07196829999975307,51,,,,,,,26,19,Vrouw,Rechts,2,
,dotcolour,xotask,xotask,26,3,206,506,main,positivefb,-99,hard,,0.36751440000034563,['c'],1,left,['9'],5,0.08737969999992856,45,,,,,,,26,19,Vrouw,Rechts,2,
,dotcolour,xotask,xotask,27,3,207,507,main,positivefb,-99,easy,,0.5500630999999885,['n'],1,right,['9'],5,0.1107944000000316,16,,,,,,,26,19,Vrouw,Rechts,2,
,dotcolour,xotask,xotask,28,3,208,508,main,positivefb,-99,easy,,0.40135330000020986,['n'],1,right,['9'],5,0.10755420000032245,19,,,,,,,26,19,Vrouw,Rechts,2,
,dotcolour,xotask,xotask,29,3,209,509,main,positivefb,-99,hard,,0.5510447000001477,['c'],0,right,['9'],5,0.07350800000040181,39,,,,,,,26,19,Vrouw,Rechts,2,
,dotcolour,xotask,xotask,30,3,210,510,main,positivefb,-99,average,,0.45064589999992677,['c'],1,left,['9'],5,0.06978699999990567,54,,,,,,,26,19,Vrouw,Rechts,2,
,dotcolour,xotask,xotask,31,3,211,511,main,positivefb,-99,hard,,0.4011844999999994,['c'],1,left,['9'],5,0.09205549999978757,44,,,,,,,26,19,Vrouw,Rechts,2,
,dotcolour,xotask,xotask,32,3,212,512,main,positivefb,-99,hard,,0.3514677000002848,['c'],0,right,['9'],5,0.08348989999967671,35,,,,,,,26,19,Vrouw,Rechts,2,
,dotcolour,xotask,xotask,33,3,213,513,main,positivefb,-99,hard,,0.5834740000000238,['c'],0,right,['9'],5,0.08103129999972225,37,,,,,,,26,19,Vrouw,Rechts,2,
,dotcolour,xotask,xotask,34,3,214,514,main,positivefb,-99,hard,,0.33347150000008696,['c'],0,right,['9'],5,0.09769319999986692,36,,,,,,,26,19,Vrouw,Rechts,2,
,dotcolour,xotask,xotask,35,3,215,515,main,positivefb,-99,hard,,0.41772249999985434,['c'],1,left,['9'],5,0.14176210000005085,42,,,,,,,26,19,Vrouw,Rechts,2,
,dotcolour,xotask,xotask,36,3,216,516,main,positivefb,-99,easy,,0.40072950000012497,['c'],1,left,['9'],5,0.10598609999988184,63,,,,,,,26,19,Vrouw,Rechts,2,
,dotcolour,xotask,xotask,37,3,217,517,main,positivefb,-99,easy,,0.38436929999988934,['c'],1,left,['9'],5,0.11883810000017547,63,,,,,,,26,19,Vrouw,Rechts,2,
,dotcolour,xotask,xotask,38,3,218,518,main,positivefb,-99,hard,,0.3673988000000463,['c'],0,right,['9'],5,0.10025630000018282,37,,,,,,,26,19,Vrouw,Rechts,2,
,dotcolour,xotask,xotask,39,3,219,519,main,positivefb,-99,easy,,0.400489899999684,['c'],0,right,['2'],2,0.4328502000003027,15,,,,,,,26,19,Vrouw,Rechts,2,
,dotcolour,xotask,xotask,40,3,220,520,main,positivefb,-99,average,,0.5668658999998115,['c'],1,left,['9'],5,0.08912909999980911,55,,,,,,,26,19,Vrouw,Rechts,2,
,dotcolour,xotask,xotask,41,3,221,521,main,positivefb,-99,easy,,0.5003898999998455,['n'],1,right,['9'],5,0.09905750000007174,19,,,,,,,26,19,Vrouw,Rechts,2,
,dotcolour,xotask,xotask,42,3,222,522,main,positivefb,-99,average,,0.46834480000006806,['n'],1,right,['9'],5,0.12493429999994987,29,,,,,,,26,19,Vrouw,Rechts,2,
,dotcolour,xotask,xotask,43,3,223,523,main,positivefb,-99,easy,,0.4352924999998322,['c'],1,left,['9'],5,0.09546439999985523,62,,,,,,,26,19,Vrouw,Rechts,2,
,dotcolour,xotask,xotask,44,3,224,524,main,positivefb,-99,average,,0.43513030000030994,['c'],1,left,['9'],5,0.20389980000027208,53,,,,,,,26,19,Vrouw,Rechts,2,
,dotcolour,xotask,xotask,45,3,225,525,main,positivefb,-99,average,,0.6346889000001283,['n'],1,right,['9'],5,0.06725950000009107,27,,,,,,,26,19,Vrouw,Rechts,2,
,dotcolour,xotask,xotask,46,3,226,526,main,positivefb,-99,average,,0.5677190999999766,['n'],1,right,['2'],2,0.5300134000003709,25,,,,,,,26,19,Vrouw,Rechts,2,
,dotcolour,xotask,xotask,47,3,227,527,main,positivefb,-99,easy,,0.6019477999998344,['c'],1,left,['9'],5,0.06152800000018033,61,,,,,,,26,19,Vrouw,Rechts,2,
,dotcolour,xotask,xotask,48,3,228,528,main,positivefb,-99,average,,0.43379830000003494,['c'],0,right,['9'],5,0.1316876000000775,29,,,,,,,26,19,Vrouw,Rechts,2,
,dotcolour,xotask,xotask,49,3,229,529,main,positivefb,-99,easy,,0.6182985999998891,['n'],1,right,['9'],5,0.12621579999995447,16,,,,,,,26,19,Vrouw,Rechts,2,
,dotcolour,xotask,xotask,50,3,230,530,main,positivefb,-99,hard,,0.3844493000001421,['n'],1,right,['9'],5,0.1308220999999321,37,,,,,,,26,19,Vrouw,Rechts,2,
,dotcolour,xotask,xotask,51,3,231,531,main,positivefb,-99,easy,,0.5004782000000887,['n'],1,right,['9'],5,0.12288310000030833,16,,,,,,,26,19,Vrouw,Rechts,2,
,dotcolour,xotask,xotask,52,3,232,532,main,positivefb,-99,hard,,0.5517494999999144,['c'],0,right,['9'],5,0.07286829999975453,38,,,,,,,26,19,Vrouw,Rechts,2,
,dotcolour,xotask,xotask,53,3,233,533,main,positivefb,-99,average,,0.5178697999999713,['n'],1,right,['9'],5,0.1142040999998244,25,,,,,,,26,19,Vrouw,Rechts,2,
,dotcolour,xotask,xotask,54,3,234,534,main,positivefb,-99,hard,,0.9686655999998948,['c'],1,left,['9'],5,0.4389395000002878,42,,,,,,,26,19,Vrouw,Rechts,2,
,dotcolour,xotask,xotask,55,3,235,535,main,positivefb,-99,average,,0.584030100000291,['c'],1,left,['9'],5,0.06353809999973237,54,,,,,,,26,19,Vrouw,Rechts,2,
,dotcolour,xotask,xotask,56,3,236,536,main,positivefb,-99,average,,0.500661499999751,['n'],1,right,['2'],2,0.4097120999999788,29,,,,,,,26,19,Vrouw,Rechts,2,
,dotcolour,xotask,xotask,57,3,237,537,main,positivefb,-99,hard,,0.46756920000007085,['n'],0,left,['2'],2,0.0890266999999767,44,,,,,,,26,19,Vrouw,Rechts,2,
,dotcolour,xotask,xotask,58,3,238,538,main,positivefb,-99,average,,0.6340315000002192,['c'],0,right,['2'],2,0.14018620000024384,28,,,,,,,26,19,Vrouw,Rechts,2,
,dotcolour,xotask,xotask,59,3,239,539,main,positivefb,-99,hard,,0.5516020999998545,['n'],1,right,['9'],5,0.41760440000007293,37,,,,,,,26,19,Vrouw,Rechts,2,
,dotcolour,xotask,xotask,0,4,240,540,main,positivefb,-99,average,,0.7515746999997646,['c'],1,left,['9'],5,0.038889800000106334,55,,,,,,,26,19,Vrouw,Rechts,2,
,dotcolour,xotask,xotask,1,4,241,541,main,positivefb,-99,easy,,0.46785989999989397,['c'],1,left,['9'],5,0.07551659999990079,63,,,,,,,26,19,Vrouw,Rechts,2,
,dotcolour,xotask,xotask,2,4,242,542,main,positivefb,-99,hard,,0.4845346000001882,['c'],0,right,['9'],5,0.0382035999996333,35,,,,,,,26,19,Vrouw,Rechts,2,
,dotcolour,xotask,xotask,3,4,243,543,main,positivefb,-99,hard,,0.38412149999976464,['c'],1,left,['9'],5,0.07027060000018537,44,,,,,,,26,19,Vrouw,Rechts,2,
,dotcolour,xotask,xotask,4,4,244,544,main,positivefb,-99,hard,,0.4175519999998869,['c'],1,left,['9'],5,0.043290000000069995,45,,,,,,,26,19,Vrouw,Rechts,2,
,dotcolour,xotask,xotask,5,4,245,545,main,positivefb,-99,easy,,0.3338604000000487,['c'],1,left,['9'],5,0.09392239999988305,65,,,,,,,26,19,Vrouw,Rechts,2,
,dotcolour,xotask,xotask,6,4,246,546,main,positivefb,-99,easy,,0.33441480000010415,['c'],0,right,['2'],2,0.34082260000013775,17,,,,,,,26,19,Vrouw,Rechts,2,
,dotcolour,xotask,xotask,7,4,247,547,main,positivefb,-99,average,,0.5180119999999988,['c'],1,left,['9'],5,0.10847469999998793,51,,,,,,,26,19,Vrouw,Rechts,2,
,dotcolour,xotask,xotask,8,4,248,548,main,positivefb,-99,average,,0.6849814999995942,['n'],1,right,['9'],5,0.08492890000025,29,,,,,,,26,19,Vrouw,Rechts,2,
,dotcolour,xotask,xotask,9,4,249,549,main,positivefb,-99,hard,,0.4681505999997171,['c'],1,left,['9'],5,0.08806079999976646,44,,,,,,,26,19,Vrouw,Rechts,2,
,dotcolour,xotask,xotask,10,4,250,550,main,positivefb,-99,average,,0.5841583000001265,['n'],1,right,['2'],2,0.36610380000001896,28,,,,,,,26,19,Vrouw,Rechts,2,
,dotcolour,xotask,xotask,11,4,251,551,main,positivefb,-99,easy,,0.5514804999997978,['c'],1,left,['9'],5,0.11408340000025419,61,,,,,,,26,19,Vrouw,Rechts,2,
,dotcolour,xotask,xotask,12,4,252,552,main,positivefb,-99,hard,,0.4180720999997902,['c'],0,right,['9'],5,0.22999609999988024,39,,,,,,,26,19,Vrouw,Rechts,2,
,dotcolour,xotask,xotask,13,4,253,553,main,positivefb,-99,average,,0.366749400000117,['c'],0,right,['9'],5,0.10318000000006577,29,,,,,,,26,19,Vrouw,Rechts,2,
,dotcolour,xotask,xotask,14,4,254,554,main,positivefb,-99,easy,,0.3503960000002735,['c'],1,left,['9'],5,0.06199360000027809,64,,,,,,,26,19,Vrouw,Rechts,2,
,dotcolour,xotask,xotask,15,4,255,555,main,positivefb,-99,hard,,0.36753230000022086,['c'],1,left,['9'],5,0.08623529999977109,43,,,,,,,26,19,Vrouw,Rechts,2,
,dotcolour,xotask,xotask,16,4,256,556,main,positivefb,-99,easy,,0.6176804000001539,['n'],1,right,['9'],5,0.08274709999977858,16,,,,,,,26,19,Vrouw,Rechts,2,
,dotcolour,xotask,xotask,17,4,257,557,main,positivefb,-99,hard,,0.6328103999999257,['c'],0,right,['9'],5,0.0867313000003378,38,,,,,,,26,19,Vrouw,Rechts,2,
,dotcolour,xotask,xotask,18,4,258,558,main,positivefb,-99,average,,0.7010042000001704,['c'],0,right,['9'],5,0.13547560000006342,26,,,,,,,26,19,Vrouw,Rechts,2,
,dotcolour,xotask,xotask,19,4,259,559,main,positivefb,-99,average,,0.6341284000000087,['c'],0,right,['9'],5,0.1544621000002735,29,,,,,,,26,19,Vrouw,Rechts,2,
,dotcolour,xotask,xotask,20,4,260,560,main,positivefb,-99,easy,,0.533494399999654,['c'],1,left,['9'],5,0.07199880000007397,61,,,,,,,26,19,Vrouw,Rechts,2,
,dotcolour,xotask,xotask,21,4,261,561,main,positivefb,-99,hard,,0.449612999999772,['c'],0,right,['9'],5,0.10799640000004729,35,,,,,,,26,19,Vrouw,Rechts,2,
,dotcolour,xotask,xotask,22,4,262,562,main,positivefb,-99,hard,,0.3671182000002773,['c'],1,left,['9'],5,0.03406449999965844,41,,,,,,,26,19,Vrouw,Rechts,2,
,dotcolour,xotask,xotask,23,4,263,563,main,positivefb,-99,hard,,0.4169741000000613,['c'],0,right,['9'],5,0.0647438000000875,37,,,,,,,26,19,Vrouw,Rechts,2,
,dotcolour,xotask,xotask,24,4,264,564,main,positivefb,-99,average,,0.3836612999998579,['c'],0,right,['9'],5,0.0791466999999102,27,,,,,,,26,19,Vrouw,Rechts,2,
,dotcolour,xotask,xotask,25,4,265,565,main,positivefb,-99,easy,,0.40071790000001783,['c'],0,right,['9'],5,0.0851183999998284,19,,,,,,,26,19,Vrouw,Rechts,2,
,dotcolour,xotask,xotask,26,4,266,566,main,positivefb,-99,average,,0.4335983999999371,['n'],0,left,['2'],2,0.4332647999999608,54,,,,,,,26,19,Vrouw,Rechts,2,
,dotcolour,xotask,xotask,27,4,267,567,main,positivefb,-99,average,,0.6683255000002646,['n'],1,right,['9'],5,0.11024719999977606,25,,,,,,,26,19,Vrouw,Rechts,2,
,dotcolour,xotask,xotask,28,4,268,568,main,positivefb,-99,hard,,0.8182535000000826,['n'],1,right,['9'],5,0.08254259999966962,36,,,,,,,26,19,Vrouw,Rechts,2,
,dotcolour,xotask,xotask,29,4,269,569,main,positivefb,-99,hard,,0.45097850000001927,['c'],1,left,['9'],5,0.04493170000023383,44,,,,,,,26,19,Vrouw,Rechts,2,
,dotcolour,xotask,xotask,30,4,270,570,main,positivefb,-99,average,,0.41753220000009605,['c'],0,right,['9'],5,0.0687060999998721,26,,,,,,,26,19,Vrouw,Rechts,2,
,dotcolour,xotask,xotask,31,4,271,571,main,positivefb,-99,average,,0.5335284000002503,['c'],1,left,['9'],5,0.09250880000035977,52,,,,,,,26,19,Vrouw,Rechts,2,
,dotcolour,xotask,xotask,32,4,272,572,main,positivefb,-99,easy,,0.45118749999983265,['n'],1,right,['9'],5,0.08071620000009716,19,,,,,,,26,19,Vrouw,Rechts,2,
,dotcolour,xotask,xotask,33,4,273,573,main,positivefb,-99,average,,0.4678490999999667,['c'],1,left,['9'],5,0.06750490000013087,55,,,,,,,26,19,Vrouw,Rechts,2,
,dotcolour,xotask,xotask,34,4,274,574,main,positivefb,-99,easy,,0.4507150000004003,['n'],1,right,['9'],5,0.047257100000024366,17,,,,,,,26,19,Vrouw,Rechts,2,
,dotcolour,xotask,xotask,35,4,275,575,main,positivefb,-99,easy,,0.4839110999996592,['c'],1,left,['9'],5,0.07515610000018569,64,,,,,,,26,19,Vrouw,Rechts,2,
,dotcolour,xotask,xotask,36,4,276,576,main,positivefb,-99,average,,0.467171899999812,['c'],1,left,['9'],5,0.06258230000003095,53,,,,,,,26,19,Vrouw,Rechts,2,
,dotcolour,xotask,xotask,37,4,277,577,main,positivefb,-99,easy,,0.6007441000001563,['n'],1,right,['9'],5,0.04554360000020097,15,,,,,,,26,19,Vrouw,Rechts,2,
,dotcolour,xotask,xotask,38,4,278,578,main,positivefb,-99,hard,,0.45091199999978926,['c'],1,left,['9'],5,0.0663883000001988,44,,,,,,,26,19,Vrouw,Rechts,2,
,dotcolour,xotask,xotask,39,4,279,579,main,positivefb,-99,average,,0.4343978000001698,['c'],1,left,['9'],5,0.11892989999978454,53,,,,,,,26,19,Vrouw,Rechts,2,
,dotcolour,xotask,xotask,40,4,280,580,main,positivefb,-99,hard,,0.4343605999997635,['n'],1,right,['9'],5,0.1383066999997027,37,,,,,,,26,19,Vrouw,Rechts,2,
,dotcolour,xotask,xotask,41,4,281,581,main,positivefb,-99,average,,0.5179286000002321,['c'],1,left,['9'],5,0.1367248000001382,52,,,,,,,26,19,Vrouw,Rechts,2,
,dotcolour,xotask,xotask,42,4,282,582,main,positivefb,-99,easy,,0.3848395999998502,['c'],1,left,['9'],5,0.06914249999999811,61,,,,,,,26,19,Vrouw,Rechts,2,
,dotcolour,xotask,xotask,43,4,283,583,main,positivefb,-99,hard,,0.31787679999979446,['c'],0,right,['9'],5,0.11811149999994086,35,,,,,,,26,19,Vrouw,Rechts,2,
,dotcolour,xotask,xotask,44,4,284,584,main,positivefb,-99,easy,,0.46651639999981853,['n'],1,right,['9'],5,0.023690499999702297,19,,,,,,,26,19,Vrouw,Rechts,2,
,dotcolour,xotask,xotask,45,4,285,585,main,positivefb,-99,hard,,0.3997211000000789,['n'],0,left,['9'],5,0.09595409999974436,42,,,,,,,26,19,Vrouw,Rechts,2,
,dotcolour,xotask,xotask,46,4,286,586,main,positivefb,-99,average,,0.5518296000000191,['c'],0,right,['9'],5,0.031219299999975192,26,,,,,,,26,19,Vrouw,Rechts,2,
,dotcolour,xotask,xotask,47,4,287,587,main,positivefb,-99,easy,,0.6507344999999987,['n'],1,right,['9'],5,0.012318600000071456,18,,,,,,,26,19,Vrouw,Rechts,2,
,dotcolour,xotask,xotask,48,4,288,588,main,positivefb,-99,easy,,0.4666139999999359,['c'],1,left,['9'],5,0.05874489999996513,65,,,,,,,26,19,Vrouw,Rechts,2,
,dotcolour,xotask,xotask,49,4,289,589,main,positivefb,-99,easy,,0.5669732999999724,['n'],1,right,['9'],5,0.03376819999994041,19,,,,,,,26,19,Vrouw,Rechts,2,
,dotcolour,xotask,xotask,50,4,290,590,main,positivefb,-99,easy,,0.3662327000001824,['n'],1,right,['9'],5,0.08283570000003238,17,,,,,,,26,19,Vrouw,Rechts,2,
,dotcolour,xotask,xotask,51,4,291,591,main,positivefb,-99,hard,,0.7678372000000309,['c'],1,left,['9'],5,0.04992889999994077,44,,,,,,,26,19,Vrouw,Rechts,2,
,dotcolour,xotask,xotask,52,4,292,592,main,positivefb,-99,easy,,0.5008020000000215,['c'],1,left,['9'],5,0.04384769999978744,62,,,,,,,26,19,Vrouw,Rechts,2,
,dotcolour,xotask,xotask,53,4,293,593,main,positivefb,-99,easy,,0.41798480000034033,['c'],1,left,['9'],5,0.19485850000000937,64,,,,,,,26,19,Vrouw,Rechts,2,
,dotcolour,xotask,xotask,54,4,294,594,main,positivefb,-99,hard,,1.0008469999997942,['c'],0,right,['9'],5,0.12511330000006637,35,,,,,,,26,19,Vrouw,Rechts,2,
,dotcolour,xotask,xotask,55,4,295,595,main,positivefb,-99,average,,0.7830568999997922,['n'],1,right,['2'],2,0.2334499000003234,29,,,,,,,26,19,Vrouw,Rechts,2,
,dotcolour,xotask,xotask,56,4,296,596,main,positivefb,-99,average,,0.7169904999996106,['c'],1,left,['3'],3,0.9481022999998459,51,,,,,,,26,19,Vrouw,Rechts,2,
,dotcolour,xotask,xotask,57,4,297,597,main,positivefb,-99,hard,,0.5830589000001964,['c'],1,left,['3'],3,0.2881201999998666,43,,,,,,,26,19,Vrouw,Rechts,2,
,dotcolour,xotask,xotask,58,4,298,598,main,positivefb,-99,hard,,0.349766499999987,['c'],0,right,['3'],3,0.11144450000028883,37,,,,,,,26,19,Vrouw,Rechts,2,
,dotcolour,xotask,xotask,59,4,299,599,main,positivefb,-99,average,,0.8011643999998341,['c'],1,left,['9'],5,0.24412720000009358,52,,,,,,,26,19,Vrouw,Rechts,2,
,xotask,xotask,xotask,0,0,0,600,training,positivefb,90,easy,74,1.366058300000077,['c'],1,left,['3'],3,0.11887179999985165,,,,,,,,26,19,Vrouw,Rechts,2,
,xotask,xotask,xotask,1,0,1,601,training,positivefb,94,easy,71,0.6668125999999575,['c'],1,left,['9'],5,0.08756670000002487,,,,,,,,26,19,Vrouw,Rechts,2,
,xotask,xotask,xotask,2,0,2,602,training,positivefb,96,average,19,0.4837357000001248,['c'],0,right,['9'],5,0.272899900000084,,,,,,,,26,19,Vrouw,Rechts,2,
,xotask,xotask,xotask,3,0,3,603,training,positivefb,98,easy,73,0.365772200000265,['c'],1,left,['9'],5,0.047339499999907275,,,,,,,,26,19,Vrouw,Rechts,2,
,xotask,xotask,xotask,4,0,4,604,training,positivefb,99,easy,5,0.4493406000001414,['n'],1,right,['9'],5,0.06025789999966946,,,,,,,,26,19,Vrouw,Rechts,2,
,xotask,xotask,xotask,5,0,5,605,training,positivefb,97,hard,51,0.44944959999975254,['c'],1,left,['9'],5,0.06415849999984857,,,,,,,,26,19,Vrouw,Rechts,2,
,xotask,xotask,xotask,6,0,6,606,training,positivefb,95,hard,26,0.4828306999997949,['c'],0,right,['9'],5,0.12291510000022754,,,,,,,,26,19,Vrouw,Rechts,2,
,xotask,xotask,xotask,7,0,7,607,training,positivefb,99,hard,54,0.5663201000002118,['c'],1,left,['9'],5,0.07946689999971568,,,,,,,,26,19,Vrouw,Rechts,2,
,xotask,xotask,xotask,8,0,8,608,training,positivefb,96,average,63,0.3517432000003282,['c'],1,left,['9'],5,0.10265490000028876,,,,,,,,26,19,Vrouw,Rechts,2,
,xotask,xotask,xotask,9,0,9,609,training,positivefb,59,easy,6,0.2999832000000424,['c'],0,right,['2'],2,0.36661150000009,,,,,,,,26,19,Vrouw,Rechts,2,
,xotask,xotask,xotask,10,0,10,610,training,positivefb,94,average,19,0.5344009000000369,['n'],1,right,['9'],5,0.05828350000001592,,,,,,,,26,19,Vrouw,Rechts,2,
,xotask,xotask,xotask,11,0,11,611,training,positivefb,95,average,62,0.44999719999987065,['n'],0,left,['9'],5,0.11061250000011569,,,,,,,,26,19,Vrouw,Rechts,2,
,xotask,xotask,xotask,12,0,12,612,training,positivefb,91,average,18,0.6169464999998127,['c'],0,right,['9'],5,0.10500640000009298,,,,,,,,26,19,Vrouw,Rechts,2,
,xotask,xotask,xotask,13,0,13,613,training,positivefb,94,hard,54,0.4007363999999143,['c'],1,left,['9'],5,0.06910460000017338,,,,,,,,26,19,Vrouw,Rechts,2,
,xotask,xotask,xotask,14,0,14,614,training,positivefb,98,easy,6,0.48466270000017175,['n'],1,right,['9'],5,0.06319910000001983,,,,,,,,26,19,Vrouw,Rechts,2,
,xotask,xotask,xotask,15,0,15,615,training,positivefb,92,hard,25,0.43240879999984827,['n'],1,right,['2'],2,0.37236040000016146,,,,,,,,26,19,Vrouw,Rechts,2,
,xotask,xotask,xotask,16,0,16,616,training,positivefb,96,easy,8,0.48282700000027035,['n'],1,right,['9'],5,0.026390900000023976,,,,,,,,26,19,Vrouw,Rechts,2,
,xotask,xotask,xotask,17,0,17,617,training,positivefb,96,average,63,0.4332100999999966,['c'],1,left,['9'],5,0.09685050000007323,,,,,,,,26,19,Vrouw,Rechts,2,
,xotask,xotask,xotask,18,0,18,618,training,positivefb,97,average,19,0.4339749999999185,['n'],1,right,['9'],5,0.0754852000000028,,,,,,,,26,19,Vrouw,Rechts,2,
,xotask,xotask,xotask,19,0,19,619,training,positivefb,61,easy,73,0.4503829999998743,['n'],0,left,['2'],2,0.3755784999998468,,,,,,,,26,19,Vrouw,Rechts,2,
,xotask,xotask,xotask,20,0,20,620,training,positivefb,95,easy,71,0.5157893999999033,['c'],1,left,['9'],5,0.0673452000000907,,,,,,,,26,19,Vrouw,Rechts,2,
,xotask,xotask,xotask,21,0,21,621,training,positivefb,95,hard,52,0.500445000000127,['c'],1,left,['9'],5,0.07724229999985255,,,,,,,,26,19,Vrouw,Rechts,2,
,xotask,xotask,xotask,22,0,22,622,training,positivefb,98,hard,28,0.40069960000028004,['n'],1,right,['9'],5,0.05788459999985207,,,,,,,,26,19,Vrouw,Rechts,2,
,xotask,xotask,xotask,23,0,23,623,training,positivefb,98,easy,5,0.3998655000000326,['n'],1,right,['9'],5,0.024403299999903538,,,,,,,,26,19,Vrouw,Rechts,2,
,xotask,xotask,xotask,24,0,24,624,training,positivefb,100,easy,73,0.3499533999997766,['c'],1,left,['9'],5,0.07398310000007768,,,,,,,,26,19,Vrouw,Rechts,2,
,xotask,xotask,xotask,25,0,25,625,training,positivefb,99,hard,54,0.41604419999976017,['c'],1,left,['9'],5,0.07800330000009126,,,,,,,,26,19,Vrouw,Rechts,2,
,xotask,xotask,xotask,26,0,26,626,training,positivefb,94,hard,29,0.5160172999999304,['c'],0,right,['9'],5,0.06290679999983695,,,,,,,,26,19,Vrouw,Rechts,2,
,xotask,xotask,xotask,27,0,27,627,training,positivefb,98,easy,6,0.31793699999980163,['c'],0,right,['2'],2,0.3689441000001352,,,,,,,,26,19,Vrouw,Rechts,2,
,xotask,xotask,xotask,28,0,28,628,training,positivefb,94,average,60,0.5661502000002656,['c'],1,left,['9'],5,0.06753709999975399,,,,,,,,26,19,Vrouw,Rechts,2,
,xotask,xotask,xotask,29,0,29,629,training,positivefb,98,hard,51,0.6005248999999822,['c'],1,left,['9'],5,0.0883840000001328,,,,,,,,26,19,Vrouw,Rechts,2,
,xotask,xotask,xotask,30,0,30,630,training,positivefb,82,average,16,0.36609830000043075,['c'],0,right,['2'],2,0.35056269999995493,,,,,,,,26,19,Vrouw,Rechts,2,
,xotask,xotask,xotask,31,0,31,631,training,positivefb,99,hard,52,0.13818970000011177,['n'],0,left,['9'],5,0.03305530000034196,,,,,,,,26,19,Vrouw,Rechts,2,
,xotask,xotask,xotask,32,0,32,632,training,positivefb,95,easy,9,0.800189699999919,['n'],1,right,['9'],5,0.0713290000003326,,,,,,,,26,19,Vrouw,Rechts,2,
,xotask,xotask,xotask,33,0,33,633,training,positivefb,93,hard,29,0.43284459999995306,['n'],1,right,['9'],5,0.05857130000003963,,,,,,,,26,19,Vrouw,Rechts,2,
,xotask,xotask,xotask,34,0,34,634,training,positivefb,89,average,19,0.5330297999998947,['n'],1,right,['9'],5,0.059280500000113534,,,,,,,,26,19,Vrouw,Rechts,2,
,xotask,xotask,xotask,35,0,35,635,training,positivefb,97,average,64,0.48415750000003754,['c'],1,left,['9'],5,0.05432969999992565,,,,,,,,26,19,Vrouw,Rechts,2,
,xotask,xotask,xotask,36,0,36,636,training,positivefb,98,average,19,0.416757299999972,['n'],1,right,['9'],5,0.05963790000032532,,,,,,,,26,19,Vrouw,Rechts,2,
,xotask,xotask,xotask,37,0,37,637,training,positivefb,93,average,16,0.41619009999976697,['n'],1,right,['9'],5,0.09708999999975276,,,,,,,,26,19,Vrouw,Rechts,2,
,xotask,xotask,xotask,38,0,38,638,training,positivefb,92,hard,52,0.5500041000000238,['c'],1,left,['9'],5,0.05623040000000401,,,,,,,,26,19,Vrouw,Rechts,2,
,xotask,xotask,xotask,39,0,39,639,training,positivefb,94,average,17,0.5335373000002619,['n'],1,right,['9'],5,0.09658660000013697,,,,,,,,26,19,Vrouw,Rechts,2,
,xotask,xotask,xotask,40,0,40,640,training,positivefb,97,average,61,0.5331744000000072,['c'],1,left,['9'],5,0.06409459999986211,,,,,,,,26,19,Vrouw,Rechts,2,
,xotask,xotask,xotask,41,0,41,641,training,positivefb,82,easy,73,0.3992901999999958,['c'],1,left,['9'],5,0.07762270000011995,,,,,,,,26,19,Vrouw,Rechts,2,
,xotask,xotask,xotask,42,0,42,642,training,positivefb,98,hard,26,0.5836562999998023,['n'],1,right,['9'],5,0.5079154999998536,,,,,,,,26,19,Vrouw,Rechts,2,
,xotask,xotask,xotask,43,0,43,643,training,positivefb,99,hard,25,0.34983409999995274,['n'],1,right,['9'],5,0.07409120000011171,,,,,,,,26,19,Vrouw,Rechts,2,
