starttime,task,fbtask,firsttask,withinblocktrial,block,withintasktrial,trial,running,feedback,fbscore,difflevel,n_xes,rt,resp,cor,cresp,conf_press,cj,RTconf,reddots,stoptime,sub,age,gender,handedness,session,
1714633342,xotask,xotask,xotask,0,0,0,0,training,negativefb,100,easy,6,1.7828180999999859,['n'],1,right,['3'],4,5.686574000000064,,,2,18,Vrouw,Rechts,1,
,xotask,xotask,xotask,1,0,1,1,training,negativefb,78,hard,52,3.166162999999983,['c'],1,left,['3'],4,1.8906906999999364,,,2,18,Vrouw,Rechts,1,
,xotask,xotask,xotask,2,0,2,2,training,negativefb,36,hard,54,2.383761100000015,['n'],0,left,['8'],3,0.5513744999999517,,,2,18,Vrouw,Rechts,1,
,xotask,xotask,xotask,3,0,3,3,training,negativefb,85,hard,51,2.133886700000062,['c'],1,left,['3'],4,2.9961978000000045,,,2,18,Vrouw,Rechts,1,
,xotask,xotask,xotask,4,0,4,4,training,negativefb,27,average,19,3.517506600000047,['c'],0,right,['3'],4,1.6074652000000924,,,2,18,Vrouw,Rechts,1,
,xotask,xotask,xotask,5,0,5,5,training,negativefb,96,average,64,1.0495862000000216,['c'],1,left,['3'],4,1.100894100000005,,,2,18,Vrouw,Rechts,1,
,xotask,xotask,xotask,6,0,6,6,training,negativefb,77,average,19,2.000159999999937,['n'],1,right,['3'],4,1.3609716999999364,,,2,18,Vrouw,Rechts,1,
,xotask,xotask,xotask,7,0,7,7,training,negativefb,69,hard,51,1.683090600000014,['c'],1,left,['2'],5,1.695797700000071,,,2,18,Vrouw,Rechts,1,
,xotask,xotask,xotask,8,0,8,8,training,negativefb,34,easy,8,4.700797800000032,['c'],0,right,['3'],4,0.8482053000000178,,,2,18,Vrouw,Rechts,1,
,xotask,xotask,xotask,9,0,9,9,training,negativefb,74,easy,74,1.7498698999999078,['c'],1,left,['3'],4,1.2794949000000315,,,2,18,Vrouw,Rechts,1,
,xotask,xotask,xotask,10,0,10,10,training,negativefb,96,easy,7,1.2334595999999465,['n'],1,right,['2'],5,0.9314449999999397,,,2,18,Vrouw,Rechts,1,
,xotask,xotask,xotask,11,0,11,11,training,negativefb,23,average,17,2.433023800000001,['c'],0,right,['8'],3,0.9651982000000316,,,2,18,Vrouw,Rechts,1,
,xotask,xotask,xotask,12,0,12,12,training,negativefb,72,average,62,2.183288999999945,['c'],1,left,['3'],4,0.8632452000000512,,,2,18,Vrouw,Rechts,1,
,xotask,xotask,xotask,13,0,13,13,training,negativefb,42,hard,25,4.282980199999997,['c'],0,right,['3'],4,0.857952599999976,,,2,18,Vrouw,Rechts,1,
,xotask,xotask,xotask,14,0,14,14,training,negativefb,87,hard,27,2.9508213999999953,['n'],1,right,['3'],4,2.0740127000000257,,,2,18,Vrouw,Rechts,1,
,xotask,xotask,xotask,15,0,15,15,training,negativefb,61,easy,8,1.4008032000000412,['n'],1,right,['3'],4,1.4062242999999626,,,2,18,Vrouw,Rechts,1,
,xotask,xotask,xotask,16,0,16,16,training,negativefb,84,hard,26,0.8832705999999462,['n'],1,right,['2'],5,0.5226906000000326,,,2,18,Vrouw,Rechts,1,
,xotask,xotask,xotask,17,0,17,17,training,negativefb,48,hard,29,1.668335500000012,['n'],1,right,['3'],4,1.275566900000058,,,2,18,Vrouw,Rechts,1,
,xotask,xotask,xotask,18,0,18,18,training,negativefb,94,easy,72,1.2160506000000169,['c'],1,left,['2'],5,0.6001586999999518,,,2,18,Vrouw,Rechts,1,
,xotask,xotask,xotask,19,0,19,19,training,negativefb,75,easy,72,2.8505311999999776,['c'],1,left,['3'],4,0.7821274000000358,,,2,18,Vrouw,Rechts,1,
,xotask,xotask,xotask,20,0,20,20,training,negativefb,57,easy,9,3.3503054000000247,['n'],1,right,['3'],4,0.8561772000000474,,,2,18,Vrouw,Rechts,1,
,xotask,xotask,xotask,21,0,21,21,training,negativefb,38,hard,26,1.1823988999999528,['c'],0,right,['8'],3,1.6794597000000522,,,2,18,Vrouw,Rechts,1,
,xotask,xotask,xotask,22,0,22,22,training,negativefb,37,hard,25,4.016666699999973,['n'],1,right,['3'],4,0.5634014999999408,,,2,18,Vrouw,Rechts,1,
,xotask,xotask,xotask,23,0,23,23,training,negativefb,86,hard,28,0.8326995000001034,['n'],1,right,['2'],5,0.6681870999999546,,,2,18,Vrouw,Rechts,1,
,xotask,xotask,xotask,0,1,24,72,training,negativefb,76,average,62,2.383932300000083,['c'],1,left,['2'],5,0.8138853000000381,,,2,18,Vrouw,Rechts,1,
,xotask,xotask,xotask,1,1,25,73,training,negativefb,83,easy,7,1.8169007999999849,['n'],1,right,['2'],5,1.829729000000043,,,2,18,Vrouw,Rechts,1,
,xotask,xotask,xotask,2,1,26,74,training,negativefb,65,easy,9,0.9179863999999043,['n'],1,right,['1'],6,0.5516692000001058,,,2,18,Vrouw,Rechts,1,
,xotask,xotask,xotask,3,1,27,75,training,negativefb,99,easy,5,1.1841282999999976,['n'],1,right,['2'],5,1.5780439999999771,,,2,18,Vrouw,Rechts,1,
,xotask,xotask,xotask,4,1,28,76,training,negativefb,59,easy,7,0.9999873000000434,['n'],1,right,['2'],5,0.4911518999999771,,,2,18,Vrouw,Rechts,1,
,xotask,xotask,xotask,5,1,29,77,training,negativefb,47,average,18,1.6000185000000329,['n'],1,right,['2'],5,0.8243453999999701,,,2,18,Vrouw,Rechts,1,
,xotask,xotask,xotask,6,1,30,78,training,negativefb,57,average,16,2.5010189999999284,['c'],0,right,['2'],5,0.49923360000002504,,,2,18,Vrouw,Rechts,1,
,xotask,xotask,xotask,7,1,31,79,training,negativefb,82,easy,7,0.7999377000001004,['n'],1,right,['2'],5,0.4152743999999302,,,2,18,Vrouw,Rechts,1,
,xotask,xotask,xotask,8,1,32,80,training,negativefb,56,hard,26,1.067327299999988,['n'],1,right,['2'],5,0.37992959999996856,,,2,18,Vrouw,Rechts,1,
,xotask,xotask,xotask,9,1,33,81,training,negativefb,77,easy,7,0.7845231999999669,['n'],1,right,['2'],5,0.42967929999997523,,,2,18,Vrouw,Rechts,1,
,xotask,xotask,xotask,10,1,34,82,training,negativefb,31,hard,51,0.6675198000000364,['n'],0,left,['2'],5,0.3466650999999956,,,2,18,Vrouw,Rechts,1,
,xotask,xotask,xotask,11,1,35,83,training,negativefb,76,average,61,0.8842242000000624,['c'],1,left,['2'],5,0.5538448999999446,,,2,18,Vrouw,Rechts,1,
,xotask,xotask,xotask,12,1,36,84,training,negativefb,29,hard,29,0.6844442999999956,['n'],1,right,['2'],5,0.31254100000001017,,,2,18,Vrouw,Rechts,1,
,xotask,xotask,xotask,13,1,37,85,training,negativefb,73,easy,9,0.7504661000000397,['n'],1,right,['2'],5,0.32660999999995965,,,2,18,Vrouw,Rechts,1,
,xotask,xotask,xotask,14,1,38,86,training,negativefb,69,hard,29,0.8996065999999701,['n'],1,right,['2'],5,0.4778440000000046,,,2,18,Vrouw,Rechts,1,
,xotask,xotask,xotask,15,1,39,87,training,negativefb,91,hard,26,0.7494372999999541,['n'],1,right,['2'],5,1.4213876999999684,,,2,18,Vrouw,Rechts,1,
,xotask,xotask,xotask,16,1,40,88,training,negativefb,80,hard,50,1.1998140000000603,['c'],1,left,['3'],4,0.9647512000000233,,,2,18,Vrouw,Rechts,1,
,xotask,xotask,xotask,17,1,41,89,training,negativefb,58,easy,5,0.7833560000000261,['n'],1,right,['2'],5,0.4317300999999816,,,2,18,Vrouw,Rechts,1,
,xotask,xotask,xotask,18,1,42,90,training,negativefb,77,easy,72,0.8498577999999952,['c'],1,left,['2'],5,0.46014500000001135,,,2,18,Vrouw,Rechts,1,
,xotask,xotask,xotask,19,1,43,91,training,negativefb,50,average,60,1.6503893999999946,['c'],1,left,['2'],5,0.584114999999997,,,2,18,Vrouw,Rechts,1,
,xotask,xotask,xotask,20,1,44,92,training,negativefb,47,average,63,1.7512801999999965,['n'],0,left,['2'],5,0.35467049999999745,,,2,18,Vrouw,Rechts,1,
,xotask,xotask,xotask,21,1,45,93,training,negativefb,84,hard,29,1.3503508999999667,['c'],0,right,['2'],5,0.2785924000000932,,,2,18,Vrouw,Rechts,1,
,xotask,xotask,xotask,22,1,46,94,training,negativefb,55,hard,25,1.0331851000000825,['c'],0,right,['2'],5,0.306246099999953,,,2,18,Vrouw,Rechts,1,
,xotask,xotask,xotask,23,1,47,95,training,negativefb,62,average,63,1.9319712000000209,['c'],1,left,['2'],5,0.4576184000000012,,,2,18,Vrouw,Rechts,1,
,xotask,xotask,xotask,0,2,48,144,training,negativefb,33,average,17,0.9511857999998483,['c'],0,right,['3'],4,0.6984119999999621,,,2,18,Vrouw,Rechts,1,
,xotask,xotask,xotask,1,2,49,145,training,negativefb,93,average,15,1.0166128999999273,['n'],1,right,['3'],4,0.9816800000000967,,,2,18,Vrouw,Rechts,1,
,xotask,xotask,xotask,2,2,50,146,training,negativefb,52,average,17,1.217084399999976,['n'],1,right,['3'],4,0.7024612999998681,,,2,18,Vrouw,Rechts,1,
,xotask,xotask,xotask,3,2,51,147,training,negativefb,14,hard,28,0.9332842000001165,['c'],0,right,['2'],5,0.6053243000001203,,,2,18,Vrouw,Rechts,1,
,xotask,xotask,xotask,4,2,52,148,training,negativefb,44,hard,29,1.1339860999999019,['n'],1,right,['3'],4,0.7435259000001224,,,2,18,Vrouw,Rechts,1,
,xotask,xotask,xotask,5,2,53,149,training,negativefb,88,average,17,1.2671550000000025,['n'],1,right,['3'],4,0.8958748000000014,,,2,18,Vrouw,Rechts,1,
,xotask,xotask,xotask,6,2,54,150,training,negativefb,92,easy,70,1.2008898999999928,['c'],1,left,['1'],6,1.340514199999916,,,2,18,Vrouw,Rechts,1,
,xotask,xotask,xotask,7,2,55,151,training,negativefb,85,easy,71,1.1176001999999698,['c'],1,left,['1'],6,0.8421149000000696,,,2,18,Vrouw,Rechts,1,
,xotask,xotask,xotask,8,2,56,152,training,negativefb,61,average,61,1.4668679000001248,['c'],1,left,['2'],5,1.8378748000000087,,,2,18,Vrouw,Rechts,1,
,xotask,xotask,xotask,9,2,57,153,training,negativefb,78,easy,70,1.149502499999926,['c'],1,left,['1'],6,1.9740277000000788,,,2,18,Vrouw,Rechts,1,
,xotask,xotask,xotask,10,2,58,154,training,negativefb,47,average,60,0.884650400000055,['c'],1,left,['2'],5,0.40336249999995744,,,2,18,Vrouw,Rechts,1,
,xotask,xotask,xotask,11,2,59,155,training,negativefb,87,hard,25,0.9839646000000357,['n'],1,right,['2'],5,1.1959580000000187,,,2,18,Vrouw,Rechts,1,
,xotask,xotask,xotask,12,2,60,156,training,negativefb,90,easy,73,0.967473899999959,['c'],1,left,['2'],5,0.45412899999996625,,,2,18,Vrouw,Rechts,1,
,xotask,xotask,xotask,13,2,61,157,training,negativefb,87,easy,71,1.900190099999918,['c'],1,left,['3'],4,0.38470510000001923,,,2,18,Vrouw,Rechts,1,
,xotask,xotask,xotask,14,2,62,158,training,negativefb,56,average,62,0.9012248000001364,['c'],1,left,['2'],5,0.9413756999999805,,,2,18,Vrouw,Rechts,1,
,xotask,xotask,xotask,15,2,63,159,training,negativefb,86,average,64,1.6842208000000483,['c'],1,left,['2'],5,0.5087513000000854,,,2,18,Vrouw,Rechts,1,
,xotask,xotask,xotask,16,2,64,160,training,negativefb,50,average,64,0.9513609000000542,['c'],1,left,['2'],5,0.38676669999995283,,,2,18,Vrouw,Rechts,1,
,xotask,xotask,xotask,17,2,65,161,training,negativefb,93,easy,74,0.9998854999998912,['c'],1,left,['2'],5,0.6834845999999288,,,2,18,Vrouw,Rechts,1,
,xotask,xotask,xotask,18,2,66,162,training,negativefb,71,average,63,1.1160479000000123,['c'],1,left,['3'],4,0.38735620000011295,,,2,18,Vrouw,Rechts,1,
,xotask,xotask,xotask,19,2,67,163,training,negativefb,62,average,19,1.0996130000000903,['c'],0,right,['2'],5,0.47987749999992957,,,2,18,Vrouw,Rechts,1,
,xotask,xotask,xotask,20,2,68,164,training,negativefb,62,hard,26,1.1158883000000515,['n'],1,right,['2'],5,0.3767339000000902,,,2,18,Vrouw,Rechts,1,
,xotask,xotask,xotask,21,2,69,165,training,negativefb,21,average,17,1.1672782000000552,['c'],0,right,['2'],5,0.5395610000000488,,,2,18,Vrouw,Rechts,1,
,xotask,xotask,xotask,22,2,70,166,training,negativefb,43,hard,26,1.2337234000001445,['c'],0,right,['2'],5,1.2608935000000656,,,2,18,Vrouw,Rechts,1,
,xotask,xotask,xotask,23,2,71,167,training,negativefb,49,average,61,1.2509827000001223,['c'],1,left,['3'],4,0.3928198999999495,,,2,18,Vrouw,Rechts,1,
,xotask,xotask,xotask,0,3,72,216,training,negativefb,28,average,60,3.250795799999878,['n'],0,left,['3'],4,1.8266975999999886,,,2,18,Vrouw,Rechts,1,
,xotask,xotask,xotask,1,3,73,217,training,negativefb,42,hard,50,2.11644780000006,['c'],1,left,['3'],4,0.37274860000002263,,,2,18,Vrouw,Rechts,1,
,xotask,xotask,xotask,2,3,74,218,training,negativefb,65,hard,25,1.016984999999977,['n'],1,right,['3'],4,0.3578517999999349,,,2,18,Vrouw,Rechts,1,
,xotask,xotask,xotask,3,3,75,219,training,negativefb,88,average,60,2.00009840000007,['c'],1,left,['3'],4,0.33601679999992484,,,2,18,Vrouw,Rechts,1,
,xotask,xotask,xotask,4,3,76,220,training,negativefb,87,easy,9,0.8339329000000362,['n'],1,right,['2'],5,0.6329994999998689,,,2,18,Vrouw,Rechts,1,
,xotask,xotask,xotask,5,3,77,221,training,negativefb,75,easy,74,1.0507682999998451,['c'],1,left,['2'],5,0.717845699999998,,,2,18,Vrouw,Rechts,1,
,xotask,xotask,xotask,6,3,78,222,training,negativefb,67,easy,72,0.9502110999999331,['c'],1,left,['1'],6,0.4753542999999354,,,2,18,Vrouw,Rechts,1,
,xotask,xotask,xotask,7,3,79,223,training,negativefb,69,hard,28,1.0006187999999838,['n'],1,right,['1'],6,0.3846182999998291,,,2,18,Vrouw,Rechts,1,
,xotask,xotask,xotask,8,3,80,224,training,negativefb,98,easy,9,0.9174099000001661,['n'],1,right,['1'],6,0.46884440000008,,,2,18,Vrouw,Rechts,1,
,xotask,xotask,xotask,9,3,81,225,training,negativefb,51,easy,5,1.3667204999999285,['n'],1,right,['2'],5,0.33187920000000304,,,2,18,Vrouw,Rechts,1,
,xotask,xotask,xotask,10,3,82,226,training,negativefb,57,hard,52,4.733513500000072,['n'],0,left,['3'],4,1.0728732000000036,,,2,18,Vrouw,Rechts,1,
,xotask,xotask,xotask,11,3,83,227,training,negativefb,60,hard,27,1.6496561000001293,['n'],1,right,['3'],4,0.42871710000008534,,,2,18,Vrouw,Rechts,1,
,xotask,xotask,xotask,12,3,84,228,training,negativefb,90,easy,6,0.7497533000000658,['n'],1,right,['2'],5,0.34960030000002007,,,2,18,Vrouw,Rechts,1,
,xotask,xotask,xotask,13,3,85,229,training,negativefb,64,easy,74,1.1341229000001931,['c'],1,left,['1'],6,0.305759099999932,,,2,18,Vrouw,Rechts,1,
,xotask,xotask,xotask,14,3,86,230,training,negativefb,69,average,63,5.266835399999991,['c'],1,left,['3'],4,0.4279171000000588,,,2,18,Vrouw,Rechts,1,
,xotask,xotask,xotask,15,3,87,231,training,negativefb,49,hard,53,2.4166701000001467,['c'],1,left,['3'],4,0.5138819000001149,,,2,18,Vrouw,Rechts,1,
,xotask,xotask,xotask,16,3,88,232,training,negativefb,87,easy,72,1.1329309000000194,['c'],1,left,['3'],4,0.4014603000000534,,,2,18,Vrouw,Rechts,1,
,xotask,xotask,xotask,17,3,89,233,training,negativefb,74,easy,74,1.9996147000001656,['c'],1,left,['3'],4,0.6894959999999628,,,2,18,Vrouw,Rechts,1,
,xotask,xotask,xotask,18,3,90,234,training,negativefb,77,easy,72,3.2006401999999525,['c'],1,left,['2'],5,0.8058941000001596,,,2,18,Vrouw,Rechts,1,
,xotask,xotask,xotask,19,3,91,235,training,negativefb,37,hard,52,1.4347503999999844,['c'],1,left,['3'],4,0.6770186999999623,,,2,18,Vrouw,Rechts,1,
,xotask,xotask,xotask,20,3,92,236,training,negativefb,87,easy,7,0.8008013999999548,['n'],1,right,['2'],5,0.38529120000021067,,,2,18,Vrouw,Rechts,1,
,xotask,xotask,xotask,21,3,93,237,training,negativefb,85,average,61,1.1161479999998392,['c'],1,left,['2'],5,0.38237770000000637,,,2,18,Vrouw,Rechts,1,
,xotask,xotask,xotask,22,3,94,238,training,negativefb,80,hard,50,0.9994103999999879,['c'],1,left,['3'],4,0.3744228000000476,,,2,18,Vrouw,Rechts,1,
,xotask,xotask,xotask,23,3,95,239,training,negativefb,72,easy,73,0.8664682000000994,['c'],1,left,['2'],5,0.2769986999999219,,,2,18,Vrouw,Rechts,1,
,xotask,xotask,xotask,0,4,96,288,training,negativefb,64,hard,26,1.1674218999999084,['n'],1,right,['3'],4,0.2935668000000078,,,2,18,Vrouw,Rechts,1,
,xotask,xotask,xotask,1,4,97,289,training,negativefb,90,average,63,0.9666138000000046,['c'],1,left,['3'],4,0.6837769999999637,,,2,18,Vrouw,Rechts,1,
,xotask,xotask,xotask,2,4,98,290,training,negativefb,83,average,19,1.0492329999999583,['n'],1,right,['2'],5,0.3510940999999548,,,2,18,Vrouw,Rechts,1,
,xotask,xotask,xotask,3,4,99,291,training,negativefb,59,average,62,1.4335682999999335,['c'],1,left,['3'],4,0.520067200000085,,,2,18,Vrouw,Rechts,1,
,xotask,xotask,xotask,4,4,100,292,training,negativefb,82,easy,71,1.1323265000000902,['c'],1,left,['2'],5,0.3738022000000001,,,2,18,Vrouw,Rechts,1,
,xotask,xotask,xotask,5,4,101,293,training,negativefb,50,easy,7,0.767504800000097,['n'],1,right,['2'],5,0.2955709999998817,,,2,18,Vrouw,Rechts,1,
,xotask,xotask,xotask,6,4,102,294,training,negativefb,39,hard,54,1.4671511999999893,['c'],1,left,['3'],4,0.4103084000000763,,,2,18,Vrouw,Rechts,1,
,xotask,xotask,xotask,7,4,103,295,training,negativefb,59,hard,53,1.0996417999999721,['n'],0,left,['2'],5,0.35020369999983814,,,2,18,Vrouw,Rechts,1,
,xotask,xotask,xotask,8,4,104,296,training,negativefb,30,hard,26,1.4335791000000881,['n'],1,right,['2'],5,0.24680220000004738,,,2,18,Vrouw,Rechts,1,
,xotask,xotask,xotask,9,4,105,297,training,negativefb,78,average,63,2.651004499999999,['c'],1,left,['3'],4,0.41147959999989325,,,2,18,Vrouw,Rechts,1,
,xotask,xotask,xotask,10,4,106,298,training,negativefb,73,average,62,1.1665817000000516,['c'],1,left,['3'],4,0.3015295000000151,,,2,18,Vrouw,Rechts,1,
,xotask,xotask,xotask,11,4,107,299,training,negativefb,69,hard,54,2.0500460000000658,['c'],1,left,['3'],4,0.6392396000001099,,,2,18,Vrouw,Rechts,1,
,xotask,xotask,xotask,12,4,108,300,training,negativefb,63,easy,6,0.8008846000000176,['n'],1,right,['2'],5,0.2933996000001571,,,2,18,Vrouw,Rechts,1,
,xotask,xotask,xotask,13,4,109,301,training,negativefb,58,hard,26,1.9161400000000413,['c'],0,right,['3'],4,1.4537646999999652,,,2,18,Vrouw,Rechts,1,
,xotask,xotask,xotask,14,4,110,302,training,negativefb,28,hard,50,1.383859799999982,['n'],0,left,['3'],4,0.6765322999999626,,,2,18,Vrouw,Rechts,1,
,xotask,xotask,xotask,15,4,111,303,training,negativefb,98,hard,28,0.967849600000136,['n'],1,right,['3'],4,0.5549498000000312,,,2,18,Vrouw,Rechts,1,
,xotask,xotask,xotask,16,4,112,304,training,negativefb,32,hard,51,1.7503765999999814,['c'],1,left,['3'],4,0.5190013999999792,,,2,18,Vrouw,Rechts,1,
,xotask,xotask,xotask,17,4,113,305,training,negativefb,87,average,15,0.9330081000000519,['n'],1,right,['2'],5,0.4209903999999369,,,2,18,Vrouw,Rechts,1,
,xotask,xotask,xotask,18,4,114,306,training,negativefb,38,easy,70,1.0992401000000882,['c'],1,left,['3'],4,0.3839061999999558,,,2,18,Vrouw,Rechts,1,
,xotask,xotask,xotask,19,4,115,307,training,negativefb,74,easy,70,1.0174665000001824,['c'],1,left,['3'],4,0.7846848000001501,,,2,18,Vrouw,Rechts,1,
,xotask,xotask,xotask,20,4,116,308,training,negativefb,27,hard,51,1.8334829000000354,['c'],1,left,['3'],4,0.5192463000000771,,,2,18,Vrouw,Rechts,1,
,xotask,xotask,xotask,21,4,117,309,training,negativefb,39,hard,54,1.1001142000000073,['n'],0,left,['3'],4,0.3589342999998735,,,2,18,Vrouw,Rechts,1,
,xotask,xotask,xotask,22,4,118,310,training,negativefb,50,easy,9,0.8161505999999008,['n'],1,right,['3'],4,0.2644682999998622,,,2,18,Vrouw,Rechts,1,
,xotask,xotask,xotask,23,4,119,311,training,negativefb,65,hard,54,1.1338117999998758,['c'],1,left,['3'],4,0.5043256999999812,,,2,18,Vrouw,Rechts,1,
,xotask,xotask,xotask,0,5,360,360,main,negativefb,-99,easy,71,0.8845490000001064,['c'],1,left,['3'],4,2.5694533999999294,,,2,18,Vrouw,Rechts,1,
,xotask,xotask,xotask,1,5,361,361,main,negativefb,-99,hard,25,3.783895199999961,['c'],0,right,['8'],3,2.1882969000000685,,,2,18,Vrouw,Rechts,1,
,xotask,xotask,xotask,2,5,362,362,main,negativefb,-99,hard,26,0.8171646999999211,['n'],1,right,['2'],5,1.197029600000178,,,2,18,Vrouw,Rechts,1,
,xotask,xotask,xotask,3,5,363,363,main,negativefb,-99,easy,73,1.0837444000001142,['c'],1,left,['2'],5,0.37885290000008354,,,2,18,Vrouw,Rechts,1,
,xotask,xotask,xotask,4,5,364,364,main,negativefb,-99,average,16,0.7343378000000484,['n'],1,right,['2'],5,0.6239120999998704,,,2,18,Vrouw,Rechts,1,
,xotask,xotask,xotask,5,5,365,365,main,negativefb,-99,easy,73,0.85096580000004,['c'],1,left,['1'],6,1.0291996000000836,,,2,18,Vrouw,Rechts,1,
,xotask,xotask,xotask,6,5,366,366,main,negativefb,-99,average,17,0.866564599999947,['n'],1,right,['1'],6,0.5068928999999116,,,2,18,Vrouw,Rechts,1,
,xotask,xotask,xotask,7,5,367,367,main,negativefb,-99,easy,9,1.8182902999999442,['n'],1,right,['3'],4,1.1271825999999692,,,2,18,Vrouw,Rechts,1,
,xotask,xotask,xotask,8,5,368,368,main,negativefb,-99,average,19,2.034673800000064,['n'],1,right,['3'],4,0.6012489000002006,,,2,18,Vrouw,Rechts,1,
,xotask,xotask,xotask,9,5,369,369,main,negativefb,-99,hard,29,1.7505310000001373,['n'],1,right,['3'],4,0.461055899999792,,,2,18,Vrouw,Rechts,1,
,xotask,xotask,xotask,10,5,370,370,main,negativefb,-99,easy,6,0.7844996999999694,['n'],1,right,['2'],5,0.7155807999999979,,,2,18,Vrouw,Rechts,1,
,xotask,xotask,xotask,11,5,371,371,main,negativefb,-99,hard,29,1.168311299999914,['n'],1,right,['2'],5,0.761291300000039,,,2,18,Vrouw,Rechts,1,
,xotask,xotask,xotask,12,5,372,372,main,negativefb,-99,hard,54,0.9015124000000014,['c'],1,left,['2'],5,0.41592560000003687,,,2,18,Vrouw,Rechts,1,
,xotask,xotask,xotask,13,5,373,373,main,negativefb,-99,hard,52,1.1169624000001477,['c'],1,left,['2'],5,0.5551491999999598,,,2,18,Vrouw,Rechts,1,
,xotask,xotask,xotask,14,5,374,374,main,negativefb,-99,average,15,0.800821199999973,['n'],1,right,['2'],5,0.6297274999999445,,,2,18,Vrouw,Rechts,1,
,xotask,xotask,xotask,15,5,375,375,main,negativefb,-99,average,61,0.9673987999999554,['c'],1,left,['2'],5,0.5756061000001864,,,2,18,Vrouw,Rechts,1,
,xotask,xotask,xotask,16,5,376,376,main,negativefb,-99,easy,5,1.1008147000000008,['n'],1,right,['2'],5,0.7096593000001121,,,2,18,Vrouw,Rechts,1,
,xotask,xotask,xotask,17,5,377,377,main,negativefb,-99,easy,70,2.501136600000109,['c'],1,left,['3'],4,1.109319800000094,,,2,18,Vrouw,Rechts,1,
,xotask,xotask,xotask,18,5,378,378,main,negativefb,-99,average,17,0.9342510999999831,['n'],1,right,['3'],4,0.5176410999999916,,,2,18,Vrouw,Rechts,1,
,xotask,xotask,xotask,19,5,379,379,main,negativefb,-99,hard,27,1.1002538000000186,['n'],1,right,['3'],4,0.3649098999999296,,,2,18,Vrouw,Rechts,1,
,xotask,xotask,xotask,20,5,380,380,main,negativefb,-99,average,62,1.0015665999999328,['c'],1,left,['3'],4,0.3352111000001514,,,2,18,Vrouw,Rechts,1,
,xotask,xotask,xotask,21,5,381,381,main,negativefb,-99,hard,52,1.8836942000000363,['n'],0,left,['3'],4,0.3029234999999062,,,2,18,Vrouw,Rechts,1,
,xotask,xotask,xotask,22,5,382,382,main,negativefb,-99,average,19,1.9013082000001305,['n'],1,right,['3'],4,0.3522092000000612,,,2,18,Vrouw,Rechts,1,
,xotask,xotask,xotask,23,5,383,383,main,negativefb,-99,easy,5,1.8852045999999518,['n'],1,right,['3'],4,0.2955079000000751,,,2,18,Vrouw,Rechts,1,
,xotask,xotask,xotask,24,5,384,384,main,negativefb,-99,average,60,2.117795800000067,['c'],1,left,['3'],4,0.37533269999994445,,,2,18,Vrouw,Rechts,1,
,xotask,xotask,xotask,25,5,385,385,main,negativefb,-99,average,63,2.1674412999998367,['c'],1,left,['2'],5,0.6036073999998735,,,2,18,Vrouw,Rechts,1,
,xotask,xotask,xotask,26,5,386,386,main,negativefb,-99,easy,72,0.9679996999998366,['c'],1,left,['2'],5,0.7489437000001544,,,2,18,Vrouw,Rechts,1,
,xotask,xotask,xotask,27,5,387,387,main,negativefb,-99,easy,5,0.8506370000000061,['n'],1,right,['1'],6,0.3258444000000509,,,2,18,Vrouw,Rechts,1,
,xotask,xotask,xotask,28,5,388,388,main,negativefb,-99,hard,51,1.8178148000001784,['c'],1,left,['3'],4,1.2813014999999268,,,2,18,Vrouw,Rechts,1,
,xotask,xotask,xotask,29,5,389,389,main,negativefb,-99,average,61,0.9844708999999057,['c'],1,left,['2'],5,0.5274127000000135,,,2,18,Vrouw,Rechts,1,
,xotask,xotask,xotask,30,5,390,390,main,negativefb,-99,hard,25,1.8006811000000198,['n'],1,right,['2'],5,0.5079025000000001,,,2,18,Vrouw,Rechts,1,
,xotask,xotask,xotask,31,5,391,391,main,negativefb,-99,hard,25,1.066678599999932,['n'],1,right,['2'],5,0.4297609000000193,,,2,18,Vrouw,Rechts,1,
,xotask,xotask,xotask,32,5,392,392,main,negativefb,-99,easy,9,1.2511223999999856,['n'],1,right,['2'],5,0.27576700000008714,,,2,18,Vrouw,Rechts,1,
,xotask,xotask,xotask,33,5,393,393,main,negativefb,-99,average,62,0.8329750000000331,['c'],1,left,['2'],5,0.31252889999996114,,,2,18,Vrouw,Rechts,1,
,xotask,xotask,xotask,34,5,394,394,main,negativefb,-99,average,60,0.916148099999873,['c'],1,left,['2'],5,0.47258030000011786,,,2,18,Vrouw,Rechts,1,
,xotask,xotask,xotask,35,5,395,395,main,negativefb,-99,easy,74,0.7502715000000535,['c'],1,left,['2'],5,0.3046013000000585,,,2,18,Vrouw,Rechts,1,
,xotask,xotask,xotask,36,5,396,396,main,negativefb,-99,easy,6,0.7494934999999714,['n'],1,right,['1'],6,1.0313257000000249,,,2,18,Vrouw,Rechts,1,
,xotask,xotask,xotask,37,5,397,397,main,negativefb,-99,hard,50,2.9007148999999117,['c'],1,left,['3'],4,0.6272576999999728,,,2,18,Vrouw,Rechts,1,
,xotask,xotask,xotask,38,5,398,398,main,negativefb,-99,easy,7,0.9997823000001063,['n'],1,right,['2'],5,0.31521790000010697,,,2,18,Vrouw,Rechts,1,
,xotask,xotask,xotask,39,5,399,399,main,negativefb,-99,average,17,1.1174710999998752,['c'],0,right,['3'],4,0.8106669999999667,,,2,18,Vrouw,Rechts,1,
,xotask,xotask,xotask,40,5,400,400,main,negativefb,-99,easy,73,0.9833264000001236,['c'],1,left,['1'],6,0.41201669999986734,,,2,18,Vrouw,Rechts,1,
,xotask,xotask,xotask,41,5,401,401,main,negativefb,-99,easy,8,2.8173492999999326,['n'],1,right,['1'],6,0.5239650999999412,,,2,18,Vrouw,Rechts,1,
,xotask,xotask,xotask,42,5,402,402,main,negativefb,-99,average,60,2.0324082999998154,['c'],1,left,['3'],4,0.8786532000001444,,,2,18,Vrouw,Rechts,1,
,xotask,xotask,xotask,43,5,403,403,main,negativefb,-99,average,16,2.949835500000063,['n'],1,right,['3'],4,1.1507656000001134,,,2,18,Vrouw,Rechts,1,
,xotask,xotask,xotask,44,5,404,404,main,negativefb,-99,easy,72,0.9002670999998372,['c'],1,left,['2'],5,0.4294666999999208,,,2,18,Vrouw,Rechts,1,
,xotask,xotask,xotask,45,5,405,405,main,negativefb,-99,hard,54,1.1169843000000128,['c'],1,left,['2'],5,0.49677360000009685,,,2,18,Vrouw,Rechts,1,
,xotask,xotask,xotask,46,5,406,406,main,negativefb,-99,easy,7,0.6340018000000782,['n'],1,right,['1'],6,0.29275490000009086,,,2,18,Vrouw,Rechts,1,
,xotask,xotask,xotask,47,5,407,407,main,negativefb,-99,hard,28,3.4664787000001525,['n'],1,right,['3'],4,0.4794171999999435,,,2,18,Vrouw,Rechts,1,
,xotask,xotask,xotask,48,5,408,408,main,negativefb,-99,hard,52,0.9172941000001629,['c'],1,left,['2'],5,0.9848154999999679,,,2,18,Vrouw,Rechts,1,
,xotask,xotask,xotask,49,5,409,409,main,negativefb,-99,hard,28,0.7835696000001917,['n'],1,right,['3'],4,1.5787607000002026,,,2,18,Vrouw,Rechts,1,
,xotask,xotask,xotask,50,5,410,410,main,negativefb,-99,average,64,1.399133299999903,['c'],1,left,['2'],5,0.36473320000004605,,,2,18,Vrouw,Rechts,1,
,xotask,xotask,xotask,51,5,411,411,main,negativefb,-99,hard,54,2.700981800000136,['n'],0,left,['3'],4,0.25958190000005743,,,2,18,Vrouw,Rechts,1,
,xotask,xotask,xotask,52,5,412,412,main,negativefb,-99,hard,29,2.5335545000000366,['c'],0,right,['3'],4,0.276940599999989,,,2,18,Vrouw,Rechts,1,
,xotask,xotask,xotask,53,5,413,413,main,negativefb,-99,average,61,0.9826923000000534,['c'],1,left,['2'],5,0.291537500000004,,,2,18,Vrouw,Rechts,1,
,xotask,xotask,xotask,54,5,414,414,main,negativefb,-99,average,17,1.2830853000000388,['n'],1,right,['2'],5,0.3176687000000129,,,2,18,Vrouw,Rechts,1,
,xotask,xotask,xotask,55,5,415,415,main,negativefb,-99,easy,71,1.200730300000032,['c'],1,left,['1'],6,0.3295401000000311,,,2,18,Vrouw,Rechts,1,
,xotask,xotask,xotask,56,5,416,416,main,negativefb,-99,easy,71,2.884089299999914,['c'],1,left,['2'],5,0.44263420000015685,,,2,18,Vrouw,Rechts,1,
,xotask,xotask,xotask,57,5,417,417,main,negativefb,-99,easy,9,0.7664271999999528,['n'],1,right,['1'],6,0.31497699999999895,,,2,18,Vrouw,Rechts,1,
,xotask,xotask,xotask,58,5,418,418,main,negativefb,-99,hard,54,1.084004699999923,['c'],1,left,['2'],5,0.34026010000002316,,,2,18,Vrouw,Rechts,1,
,xotask,xotask,xotask,59,5,419,419,main,negativefb,-99,hard,29,1.900602200000094,['n'],1,right,['2'],5,0.6670329000000947,,,2,18,Vrouw,Rechts,1,
,xotask,xotask,xotask,60,5,420,420,main,negativefb,-99,hard,51,0.8674696000000495,['c'],1,left,['2'],5,0.7507637000001068,,,2,18,Vrouw,Rechts,1,
,xotask,xotask,xotask,61,5,421,421,main,negativefb,-99,average,16,0.7840906000001269,['n'],1,right,['2'],5,0.9376848000001701,,,2,18,Vrouw,Rechts,1,
,xotask,xotask,xotask,62,5,422,422,main,negativefb,-99,hard,25,2.1347249999998894,['n'],1,right,['3'],4,0.27215369999998984,,,2,18,Vrouw,Rechts,1,
,xotask,xotask,xotask,63,5,423,423,main,negativefb,-99,average,18,0.9841907999998512,['c'],0,right,['3'],4,0.4064991000000191,,,2,18,Vrouw,Rechts,1,
,xotask,xotask,xotask,64,5,424,424,main,negativefb,-99,average,17,1.6673162999998112,['c'],0,right,['3'],4,0.2688176999999996,,,2,18,Vrouw,Rechts,1,
,xotask,xotask,xotask,65,5,425,425,main,negativefb,-99,hard,53,1.0347279000000071,['c'],1,left,['3'],4,0.7209173999999621,,,2,18,Vrouw,Rechts,1,
,xotask,xotask,xotask,66,5,426,426,main,negativefb,-99,hard,53,1.067434300000059,['c'],1,left,['3'],4,0.3151571999999305,,,2,18,Vrouw,Rechts,1,
,xotask,xotask,xotask,67,5,427,427,main,negativefb,-99,easy,73,0.7660585999999512,['c'],1,left,['1'],6,0.6239047999999912,,,2,18,Vrouw,Rechts,1,
,xotask,xotask,xotask,68,5,428,428,main,negativefb,-99,easy,71,0.9335313999999926,['c'],1,left,['2'],5,0.9944830999997976,,,2,18,Vrouw,Rechts,1,
,xotask,xotask,xotask,69,5,429,429,main,negativefb,-99,average,64,1.0842039999999997,['c'],1,left,['2'],5,0.31259110000019064,,,2,18,Vrouw,Rechts,1,
,xotask,xotask,xotask,70,5,430,430,main,negativefb,-99,easy,6,0.7330773999999565,['n'],1,right,['1'],6,0.23190100000010716,,,2,18,Vrouw,Rechts,1,
,xotask,xotask,xotask,71,5,431,431,main,negativefb,-99,average,63,3.2509471999999278,['c'],1,left,['3'],4,1.0612475999998878,,,2,18,Vrouw,Rechts,1,
,xotask,xotask,xotask,0,6,432,432,main,negativefb,-99,easy,8,1.416780499999959,['n'],1,right,['2'],5,0.8702257999998437,,,2,18,Vrouw,Rechts,1,
,xotask,xotask,xotask,1,6,433,433,main,negativefb,-99,average,19,0.9673393000000488,['n'],1,right,['2'],5,0.34951380000006793,,,2,18,Vrouw,Rechts,1,
,xotask,xotask,xotask,2,6,434,434,main,negativefb,-99,average,61,1.3513245000001461,['c'],1,left,['3'],4,1.0421813999998903,,,2,18,Vrouw,Rechts,1,
,xotask,xotask,xotask,3,6,435,435,main,negativefb,-99,hard,25,1.584869000000026,['n'],1,right,['3'],4,0.8183022999999139,,,2,18,Vrouw,Rechts,1,
,xotask,xotask,xotask,4,6,436,436,main,negativefb,-99,hard,25,0.8509436000001642,['n'],1,right,['3'],4,0.4006187999998474,,,2,18,Vrouw,Rechts,1,
,xotask,xotask,xotask,5,6,437,437,main,negativefb,-99,easy,9,1.4676736999999775,['c'],0,right,['3'],4,0.302441300000055,,,2,18,Vrouw,Rechts,1,
,xotask,xotask,xotask,6,6,438,438,main,negativefb,-99,average,63,0.7340520999998716,['c'],1,left,['3'],4,0.4455390000000534,,,2,18,Vrouw,Rechts,1,
,xotask,xotask,xotask,7,6,439,439,main,negativefb,-99,hard,50,1.4513131999999587,['n'],0,left,['3'],4,0.35510920000001533,,,2,18,Vrouw,Rechts,1,
,xotask,xotask,xotask,8,6,440,440,main,negativefb,-99,average,15,1.1507177000000866,['n'],1,right,['3'],4,0.47146729999985837,,,2,18,Vrouw,Rechts,1,
,xotask,xotask,xotask,9,6,441,441,main,negativefb,-99,average,16,0.850621799999999,['n'],1,right,['3'],4,0.26813849999984996,,,2,18,Vrouw,Rechts,1,
,xotask,xotask,xotask,10,6,442,442,main,negativefb,-99,hard,50,0.9343167000001813,['c'],1,left,['3'],4,0.2918752000000495,,,2,18,Vrouw,Rechts,1,
,xotask,xotask,xotask,11,6,443,443,main,negativefb,-99,average,62,1.9009935999999925,['c'],1,left,['3'],4,0.2380531000001156,,,2,18,Vrouw,Rechts,1,
,xotask,xotask,xotask,12,6,444,444,main,negativefb,-99,hard,50,1.1343769000000066,['c'],1,left,['3'],4,0.2955293999998503,,,2,18,Vrouw,Rechts,1,
,xotask,xotask,xotask,13,6,445,445,main,negativefb,-99,hard,29,0.8514096999999765,['n'],1,right,['3'],4,0.21111319999999978,,,2,18,Vrouw,Rechts,1,
,xotask,xotask,xotask,14,6,446,446,main,negativefb,-99,average,18,1.6679767999999058,['c'],0,right,['3'],4,0.25656979999985197,,,2,18,Vrouw,Rechts,1,
,xotask,xotask,xotask,15,6,447,447,main,negativefb,-99,easy,71,1.8015803000000687,['c'],1,left,['3'],4,0.17540139999982785,,,2,18,Vrouw,Rechts,1,
,xotask,xotask,xotask,16,6,448,448,main,negativefb,-99,average,61,0.9335148999998637,['c'],1,left,['2'],5,0.452332399999932,,,2,18,Vrouw,Rechts,1,
,xotask,xotask,xotask,17,6,449,449,main,negativefb,-99,average,16,1.117753300000004,['n'],1,right,['3'],4,0.5423828000000412,,,2,18,Vrouw,Rechts,1,
,xotask,xotask,xotask,18,6,450,450,main,negativefb,-99,average,61,1.0673629999998866,['n'],0,left,['3'],4,0.3912394999999833,,,2,18,Vrouw,Rechts,1,
,xotask,xotask,xotask,19,6,451,451,main,negativefb,-99,easy,8,0.8508540000000266,['n'],1,right,['3'],4,0.21422210000014275,,,2,18,Vrouw,Rechts,1,
,xotask,xotask,xotask,20,6,452,452,main,negativefb,-99,hard,28,0.918525499999987,['n'],1,right,['2'],5,0.39382819999991625,,,2,18,Vrouw,Rechts,1,
,xotask,xotask,xotask,21,6,453,453,main,negativefb,-99,average,18,0.9168710000001283,['n'],1,right,['2'],5,0.1503272999998444,,,2,18,Vrouw,Rechts,1,
,xotask,xotask,xotask,22,6,454,454,main,negativefb,-99,hard,50,0.9506415999999263,['c'],1,left,['3'],4,0.21185640000021522,,,2,18,Vrouw,Rechts,1,
,xotask,xotask,xotask,23,6,455,455,main,negativefb,-99,average,18,0.9503679000001739,['n'],1,right,['2'],5,1.03797029999987,,,2,18,Vrouw,Rechts,1,
,xotask,xotask,xotask,24,6,456,456,main,negativefb,-99,hard,54,1.149968200000103,['c'],1,left,['2'],5,0.3110590000001139,,,2,18,Vrouw,Rechts,1,
,xotask,xotask,xotask,25,6,457,457,main,negativefb,-99,average,16,2.134343799999897,['n'],1,right,['3'],4,0.23053759999993417,,,2,18,Vrouw,Rechts,1,
,xotask,xotask,xotask,26,6,458,458,main,negativefb,-99,average,16,0.9177081999998791,['n'],1,right,['2'],5,0.2818651999998565,,,2,18,Vrouw,Rechts,1,
,xotask,xotask,xotask,27,6,459,459,main,negativefb,-99,easy,7,0.76739120000002,['n'],1,right,['1'],6,0.6965391000001091,,,2,18,Vrouw,Rechts,1,
,xotask,xotask,xotask,28,6,460,460,main,negativefb,-99,hard,50,0.9500413999999182,['n'],0,left,['3'],4,0.8158811000000696,,,2,18,Vrouw,Rechts,1,
,xotask,xotask,xotask,29,6,461,461,main,negativefb,-99,easy,70,0.9511426000001393,['c'],1,left,['2'],5,0.4417782000000443,,,2,18,Vrouw,Rechts,1,
,xotask,xotask,xotask,30,6,462,462,main,negativefb,-99,easy,72,0.9168222000000696,['c'],1,left,['2'],5,0.3325847999999496,,,2,18,Vrouw,Rechts,1,
,xotask,xotask,xotask,31,6,463,463,main,negativefb,-99,hard,27,0.8337358000001132,['n'],1,right,['2'],5,0.24574830000005932,,,2,18,Vrouw,Rechts,1,
,xotask,xotask,xotask,32,6,464,464,main,negativefb,-99,average,19,0.7002118999998856,['n'],1,right,['2'],5,0.185433600000124,,,2,18,Vrouw,Rechts,1,
,xotask,xotask,xotask,33,6,465,465,main,negativefb,-99,hard,25,0.967454699999962,['n'],1,right,['2'],5,0.2522008000000824,,,2,18,Vrouw,Rechts,1,
,xotask,xotask,xotask,34,6,466,466,main,negativefb,-99,hard,52,0.8180231000001186,['n'],0,left,['2'],5,0.28170939999995426,,,2,18,Vrouw,Rechts,1,
,xotask,xotask,xotask,35,6,467,467,main,negativefb,-99,easy,71,0.9169242000000395,['c'],1,left,['2'],5,0.307289899999887,,,2,18,Vrouw,Rechts,1,
,xotask,xotask,xotask,36,6,468,468,main,negativefb,-99,easy,9,0.8493908000000374,['n'],1,right,['2'],5,0.28595720000021174,,,2,18,Vrouw,Rechts,1,
,xotask,xotask,xotask,37,6,469,469,main,negativefb,-99,easy,74,0.8844982000000527,['c'],1,left,['1'],6,0.5600581000001057,,,2,18,Vrouw,Rechts,1,
,xotask,xotask,xotask,38,6,470,470,main,negativefb,-99,easy,70,0.7498580999999831,['c'],1,left,['1'],6,0.30873579999979484,,,2,18,Vrouw,Rechts,1,
,xotask,xotask,xotask,39,6,471,471,main,negativefb,-99,average,63,1.434193999999934,['c'],1,left,['1'],6,0.34397390000003725,,,2,18,Vrouw,Rechts,1,
,xotask,xotask,xotask,40,6,472,472,main,negativefb,-99,easy,9,0.7329314000000977,['n'],1,right,['1'],6,0.27036470000007284,,,2,18,Vrouw,Rechts,1,
,xotask,xotask,xotask,41,6,473,473,main,negativefb,-99,easy,7,0.7169513999999708,['n'],1,right,['1'],6,0.2953844000001027,,,2,18,Vrouw,Rechts,1,
,xotask,xotask,xotask,42,6,474,474,main,negativefb,-99,hard,27,1.6996457000000191,['n'],1,right,['3'],4,0.36840330000018184,,,2,18,Vrouw,Rechts,1,
,xotask,xotask,xotask,43,6,475,475,main,negativefb,-99,average,62,1.1339642000000367,['c'],1,left,['2'],5,0.508573399999932,,,2,18,Vrouw,Rechts,1,
,xotask,xotask,xotask,44,6,476,476,main,negativefb,-99,average,16,1.6512809000000743,['n'],1,right,['2'],5,1.3112512000000152,,,2,18,Vrouw,Rechts,1,
,xotask,xotask,xotask,45,6,477,477,main,negativefb,-99,easy,71,0.9340208000000985,['c'],1,left,['2'],5,0.47153339999999844,,,2,18,Vrouw,Rechts,1,
,xotask,xotask,xotask,46,6,478,478,main,negativefb,-99,hard,50,0.9839730000001055,['n'],0,left,['2'],5,0.3101274000000558,,,2,18,Vrouw,Rechts,1,
,xotask,xotask,xotask,47,6,479,479,main,negativefb,-99,average,62,2.2678631000001133,['c'],1,left,['2'],5,0.5922520000001441,,,2,18,Vrouw,Rechts,1,
,xotask,xotask,xotask,48,6,480,480,main,negativefb,-99,easy,9,0.7166578999999729,['n'],1,right,['1'],6,0.3005239999999958,,,2,18,Vrouw,Rechts,1,
,xotask,xotask,xotask,49,6,481,481,main,negativefb,-99,hard,28,1.88393340000016,['n'],1,right,['1'],6,0.7422359999998207,,,2,18,Vrouw,Rechts,1,
,xotask,xotask,xotask,50,6,482,482,main,negativefb,-99,hard,50,1.1002410999999483,['c'],1,left,['3'],4,0.5414690000000064,,,2,18,Vrouw,Rechts,1,
,xotask,xotask,xotask,51,6,483,483,main,negativefb,-99,hard,52,2.151128100000051,['c'],1,left,['3'],4,0.3708612999998877,,,2,18,Vrouw,Rechts,1,
,xotask,xotask,xotask,52,6,484,484,main,negativefb,-99,easy,72,0.8343074999997953,['c'],1,left,['2'],5,0.8349066000000676,,,2,18,Vrouw,Rechts,1,
,xotask,xotask,xotask,53,6,485,485,main,negativefb,-99,hard,54,1.9003407000000152,['c'],1,left,['2'],5,0.35846969999988687,,,2,18,Vrouw,Rechts,1,
,xotask,xotask,xotask,54,6,486,486,main,negativefb,-99,easy,72,1.418277099999841,['c'],1,left,['2'],5,0.3365894999999455,,,2,18,Vrouw,Rechts,1,
,xotask,xotask,xotask,55,6,487,487,main,negativefb,-99,hard,25,1.2014045999999325,['c'],0,right,['3'],4,0.24392859999989014,,,2,18,Vrouw,Rechts,1,
,xotask,xotask,xotask,56,6,488,488,main,negativefb,-99,easy,9,0.7176491000000169,['n'],1,right,['2'],5,0.4623371000000134,,,2,18,Vrouw,Rechts,1,
,xotask,xotask,xotask,57,6,489,489,main,negativefb,-99,average,63,1.017614500000036,['c'],1,left,['2'],5,0.47624390000009953,,,2,18,Vrouw,Rechts,1,
,xotask,xotask,xotask,58,6,490,490,main,negativefb,-99,easy,9,0.8825936000000638,['n'],1,right,['1'],6,0.29520609999985936,,,2,18,Vrouw,Rechts,1,
,xotask,xotask,xotask,59,6,491,491,main,negativefb,-99,average,62,1.1509040999999343,['c'],1,left,['1'],6,0.2466197999999622,,,2,18,Vrouw,Rechts,1,
,xotask,xotask,xotask,60,6,492,492,main,negativefb,-99,average,62,1.435462599999937,['c'],1,left,['2'],5,0.34887720000006084,,,2,18,Vrouw,Rechts,1,
,xotask,xotask,xotask,61,6,493,493,main,negativefb,-99,hard,26,0.8673762999999326,['n'],1,right,['2'],5,0.3485537999999906,,,2,18,Vrouw,Rechts,1,
,xotask,xotask,xotask,62,6,494,494,main,negativefb,-99,hard,52,1.2999735999999302,['c'],1,left,['2'],5,0.29933470000014495,,,2,18,Vrouw,Rechts,1,
,xotask,xotask,xotask,63,6,495,495,main,negativefb,-99,easy,6,0.7680998999999247,['n'],1,right,['2'],5,0.20122079999987363,,,2,18,Vrouw,Rechts,1,
,xotask,xotask,xotask,64,6,496,496,main,negativefb,-99,easy,6,0.6998776000000362,['n'],1,right,['1'],6,0.39012289999982386,,,2,18,Vrouw,Rechts,1,
,xotask,xotask,xotask,65,6,497,497,main,negativefb,-99,easy,74,1.0160303000000113,['c'],1,left,['2'],5,0.2628147000000354,,,2,18,Vrouw,Rechts,1,
,xotask,xotask,xotask,66,6,498,498,main,negativefb,-99,average,19,0.9839635000000726,['n'],1,right,['1'],6,0.5414753000000019,,,2,18,Vrouw,Rechts,1,
,xotask,xotask,xotask,67,6,499,499,main,negativefb,-99,easy,71,1.2169542000001456,['c'],1,left,['2'],5,0.2171730000000025,,,2,18,Vrouw,Rechts,1,
,xotask,xotask,xotask,68,6,500,500,main,negativefb,-99,hard,25,1.3346016000000418,['n'],1,right,['3'],4,0.2913911000000553,,,2,18,Vrouw,Rechts,1,
,xotask,xotask,xotask,69,6,501,501,main,negativefb,-99,easy,70,1.1845123000000513,['c'],1,left,['1'],6,0.2972456999998485,,,2,18,Vrouw,Rechts,1,
,xotask,xotask,xotask,70,6,502,502,main,negativefb,-99,hard,26,1.0669582000000446,['n'],1,right,['2'],5,0.49152109999999993,,,2,18,Vrouw,Rechts,1,
,xotask,xotask,xotask,71,6,503,503,main,negativefb,-99,average,62,0.9173046000000795,['c'],1,left,['1'],6,1.1885394999999335,,,2,18,Vrouw,Rechts,1,
,xotask,xotask,xotask,0,7,504,504,main,negativefb,-99,easy,71,0.9349305000000641,['c'],1,left,['2'],5,1.1181325000000015,,,2,18,Vrouw,Rechts,1,
,xotask,xotask,xotask,1,7,505,505,main,negativefb,-99,hard,28,0.8011642999999822,['n'],1,right,['2'],5,0.8343641999999818,,,2,18,Vrouw,Rechts,1,
,xotask,xotask,xotask,2,7,506,506,main,negativefb,-99,average,18,0.8011896000000434,['n'],1,right,['3'],4,0.2815054999998665,,,2,18,Vrouw,Rechts,1,
,xotask,xotask,xotask,3,7,507,507,main,negativefb,-99,average,62,0.651506100000006,['c'],1,left,['2'],5,0.4933948000000328,,,2,18,Vrouw,Rechts,1,
,xotask,xotask,xotask,4,7,508,508,main,negativefb,-99,hard,51,1.251216500000055,['c'],1,left,['3'],4,0.2321795000000293,,,2,18,Vrouw,Rechts,1,
,xotask,xotask,xotask,5,7,509,509,main,negativefb,-99,hard,28,1.3842830000000959,['n'],1,right,['3'],4,0.18395650000002206,,,2,18,Vrouw,Rechts,1,
,xotask,xotask,xotask,6,7,510,510,main,negativefb,-99,average,18,0.734746899999891,['n'],1,right,['2'],5,0.28401899999994384,,,2,18,Vrouw,Rechts,1,
,xotask,xotask,xotask,7,7,511,511,main,negativefb,-99,easy,74,1.3175260000000435,['c'],1,left,['2'],5,0.35695959999998195,,,2,18,Vrouw,Rechts,1,
,xotask,xotask,xotask,8,7,512,512,main,negativefb,-99,average,63,0.8167911000000458,['n'],0,left,['8'],3,3.1352567000001272,,,2,18,Vrouw,Rechts,1,
,xotask,xotask,xotask,9,7,513,513,main,negativefb,-99,easy,8,2.034292399999913,['c'],0,right,['2'],5,0.3448479999999563,,,2,18,Vrouw,Rechts,1,
,xotask,xotask,xotask,10,7,514,514,main,negativefb,-99,easy,72,0.9509855999999672,['c'],1,left,['2'],5,0.6227629999998499,,,2,18,Vrouw,Rechts,1,
,xotask,xotask,xotask,11,7,515,515,main,negativefb,-99,easy,70,0.8012904999998227,['c'],1,left,['2'],5,0.3262913999999455,,,2,18,Vrouw,Rechts,1,
,xotask,xotask,xotask,12,7,516,516,main,negativefb,-99,easy,9,0.7839936000000307,['n'],1,right,['1'],6,0.5069361000000754,,,2,18,Vrouw,Rechts,1,
,xotask,xotask,xotask,13,7,517,517,main,negativefb,-99,hard,51,0.8337546999998722,['c'],1,left,['3'],4,0.32667270000001736,,,2,18,Vrouw,Rechts,1,
,xotask,xotask,xotask,14,7,518,518,main,negativefb,-99,hard,54,1.0514679000000342,['n'],0,left,['3'],4,0.15216220000002068,,,2,18,Vrouw,Rechts,1,
,xotask,xotask,xotask,15,7,519,519,main,negativefb,-99,average,16,1.1349119999999857,['n'],1,right,['3'],4,0.30213660000003983,,,2,18,Vrouw,Rechts,1,
,xotask,xotask,xotask,16,7,520,520,main,negativefb,-99,easy,7,0.5840181999999459,['n'],1,right,['3'],4,0.2268874000001233,,,2,18,Vrouw,Rechts,1,
,xotask,xotask,xotask,17,7,521,521,main,negativefb,-99,easy,70,0.9010507999998936,['c'],1,left,['2'],5,0.2549453000001449,,,2,18,Vrouw,Rechts,1,
,xotask,xotask,xotask,18,7,522,522,main,negativefb,-99,hard,52,2.1673733000000084,['c'],1,left,['3'],4,0.2312813000000915,,,2,18,Vrouw,Rechts,1,
,xotask,xotask,xotask,19,7,523,523,main,negativefb,-99,hard,52,1.1010874000000967,['n'],0,left,['3'],4,0.2023492000000715,,,2,18,Vrouw,Rechts,1,
,xotask,xotask,xotask,20,7,524,524,main,negativefb,-99,average,61,1.1007089999998243,['c'],1,left,['3'],4,0.39116839999996955,,,2,18,Vrouw,Rechts,1,
,xotask,xotask,xotask,21,7,525,525,main,negativefb,-99,easy,71,0.9009185000002162,['c'],1,left,['2'],5,0.3005123000000367,,,2,18,Vrouw,Rechts,1,
,xotask,xotask,xotask,22,7,526,526,main,negativefb,-99,average,61,0.8513821999999891,['c'],1,left,['2'],5,0.2789640999999392,,,2,18,Vrouw,Rechts,1,
,xotask,xotask,xotask,23,7,527,527,main,negativefb,-99,average,63,0.7003326999999899,['c'],1,left,['2'],5,0.21674189999998816,,,2,18,Vrouw,Rechts,1,
,xotask,xotask,xotask,24,7,528,528,main,negativefb,-99,easy,6,0.8504552000001695,['n'],1,right,['2'],5,0.279117000000042,,,2,18,Vrouw,Rechts,1,
,xotask,xotask,xotask,25,7,529,529,main,negativefb,-99,hard,52,1.1185330000000704,['n'],0,left,['3'],4,0.14429380000001402,,,2,18,Vrouw,Rechts,1,
,xotask,xotask,xotask,26,7,530,530,main,negativefb,-99,easy,72,0.7012024999999085,['c'],1,left,['2'],5,0.231749900000068,,,2,18,Vrouw,Rechts,1,
,xotask,xotask,xotask,27,7,531,531,main,negativefb,-99,average,15,1.066904200000181,['n'],1,right,['2'],5,0.20467290000010507,,,2,18,Vrouw,Rechts,1,
,xotask,xotask,xotask,28,7,532,532,main,negativefb,-99,hard,26,0.7348460999999133,['n'],1,right,['2'],5,0.256056499999886,,,2,18,Vrouw,Rechts,1,
,xotask,xotask,xotask,29,7,533,533,main,negativefb,-99,hard,28,0.73353370000018,['n'],1,right,['2'],5,0.2657070999998723,,,2,18,Vrouw,Rechts,1,
,xotask,xotask,xotask,30,7,534,534,main,negativefb,-99,easy,72,0.9179841000000124,['c'],1,left,['2'],5,0.19437630000015815,,,2,18,Vrouw,Rechts,1,
,xotask,xotask,xotask,31,7,535,535,main,negativefb,-99,easy,71,0.9168887999999242,['c'],1,left,['1'],6,0.22332980000010139,,,2,18,Vrouw,Rechts,1,
,xotask,xotask,xotask,32,7,536,536,main,negativefb,-99,easy,71,0.7519640000000436,['c'],1,left,['1'],6,0.24964219999992565,,,2,18,Vrouw,Rechts,1,
,xotask,xotask,xotask,33,7,537,537,main,negativefb,-99,average,60,1.5332316000001356,['c'],1,left,['3'],4,0.2504820000001473,,,2,18,Vrouw,Rechts,1,
,xotask,xotask,xotask,34,7,538,538,main,negativefb,-99,average,18,0.7011838000000807,['n'],1,right,['3'],4,0.708980899999915,,,2,18,Vrouw,Rechts,1,
,xotask,xotask,xotask,35,7,539,539,main,negativefb,-99,easy,73,0.9509173999999803,['c'],1,left,['2'],5,0.36379680000004555,,,2,18,Vrouw,Rechts,1,
,xotask,xotask,xotask,36,7,540,540,main,negativefb,-99,hard,25,0.7674355999999989,['n'],1,right,['2'],5,0.32789309999998295,,,2,18,Vrouw,Rechts,1,
,xotask,xotask,xotask,37,7,541,541,main,negativefb,-99,average,63,0.8513545999999224,['c'],1,left,['2'],5,0.2413182999998753,,,2,18,Vrouw,Rechts,1,
,xotask,xotask,xotask,38,7,542,542,main,negativefb,-99,easy,73,1.5844692000000578,['c'],1,left,['2'],5,0.22590699999977915,,,2,18,Vrouw,Rechts,1,
,xotask,xotask,xotask,39,7,543,543,main,negativefb,-99,hard,50,0.7182791000000179,['n'],0,left,['2'],5,0.22929849999991347,,,2,18,Vrouw,Rechts,1,
,xotask,xotask,xotask,40,7,544,544,main,negativefb,-99,hard,51,1.2343843999999535,['n'],0,left,['2'],5,0.2525029999999333,,,2,18,Vrouw,Rechts,1,
,xotask,xotask,xotask,41,7,545,545,main,negativefb,-99,easy,8,0.7513326999999208,['n'],1,right,['2'],5,0.1722562000002199,,,2,18,Vrouw,Rechts,1,
,xotask,xotask,xotask,42,7,546,546,main,negativefb,-99,average,62,0.8006368999999722,['c'],1,left,['3'],4,0.2710517999998956,,,2,18,Vrouw,Rechts,1,
,xotask,xotask,xotask,43,7,547,547,main,negativefb,-99,average,18,0.6836803000001055,['c'],0,right,['8'],3,2.288985000000139,,,2,18,Vrouw,Rechts,1,
,xotask,xotask,xotask,44,7,548,548,main,negativefb,-99,hard,29,3.0348260999999184,['n'],1,right,['3'],4,0.20556390000001556,,,2,18,Vrouw,Rechts,1,
,xotask,xotask,xotask,45,7,549,549,main,negativefb,-99,hard,52,1.101614500000096,['c'],1,left,['3'],4,0.4661955999999918,,,2,18,Vrouw,Rechts,1,
,xotask,xotask,xotask,46,7,550,550,main,negativefb,-99,easy,5,1.1008348999998816,['n'],1,right,['2'],5,0.1957614000000376,,,2,18,Vrouw,Rechts,1,
,xotask,xotask,xotask,47,7,551,551,main,negativefb,-99,easy,8,0.984202100000175,['n'],1,right,['2'],5,0.2700004999999237,,,2,18,Vrouw,Rechts,1,
,xotask,xotask,xotask,48,7,552,552,main,negativefb,-99,easy,6,1.6346134000000347,['n'],1,right,['1'],6,0.22637829999985115,,,2,18,Vrouw,Rechts,1,
,xotask,xotask,xotask,49,7,553,553,main,negativefb,-99,hard,25,1.367922199999839,['n'],1,right,['3'],4,1.4681874000000334,,,2,18,Vrouw,Rechts,1,
,xotask,xotask,xotask,50,7,554,554,main,negativefb,-99,easy,8,0.9675915999998779,['n'],1,right,['3'],4,0.44382180000002336,,,2,18,Vrouw,Rechts,1,
,xotask,xotask,xotask,51,7,555,555,main,negativefb,-99,average,61,0.7015069000001404,['n'],0,left,['3'],4,0.4624009000001479,,,2,18,Vrouw,Rechts,1,
,xotask,xotask,xotask,52,7,556,556,main,negativefb,-99,average,18,0.917537799999991,['n'],1,right,['2'],5,0.3448965000000044,,,2,18,Vrouw,Rechts,1,
,xotask,xotask,xotask,53,7,557,557,main,negativefb,-99,easy,5,0.5164025999999922,['n'],1,right,['2'],5,0.43104459999995015,,,2,18,Vrouw,Rechts,1,
,xotask,xotask,xotask,54,7,558,558,main,negativefb,-99,easy,5,0.9167841999999382,['n'],1,right,['2'],5,0.25018660000000637,,,2,18,Vrouw,Rechts,1,
,xotask,xotask,xotask,55,7,559,559,main,negativefb,-99,average,16,0.6344977999999628,['n'],1,right,['2'],5,0.15908329999979287,,,2,18,Vrouw,Rechts,1,
,xotask,xotask,xotask,56,7,560,560,main,negativefb,-99,hard,25,0.6839206999998169,['n'],1,right,['2'],5,0.24679340000011507,,,2,18,Vrouw,Rechts,1,
,xotask,xotask,xotask,57,7,561,561,main,negativefb,-99,easy,6,0.6177847999999813,['n'],1,right,['1'],6,0.32504770000014105,,,2,18,Vrouw,Rechts,1,
,xotask,xotask,xotask,58,7,562,562,main,negativefb,-99,hard,29,0.9851920999999493,['n'],1,right,['2'],5,0.16217359999996006,,,2,18,Vrouw,Rechts,1,
,xotask,xotask,xotask,59,7,563,563,main,negativefb,-99,average,60,1.6185527000000093,['n'],0,left,['3'],4,0.23625929999980144,,,2,18,Vrouw,Rechts,1,
,xotask,xotask,xotask,60,7,564,564,main,negativefb,-99,hard,26,1.267867699999897,['n'],1,right,['3'],4,0.22435010000003786,,,2,18,Vrouw,Rechts,1,
,xotask,xotask,xotask,61,7,565,565,main,negativefb,-99,hard,50,0.8181729999998879,['c'],1,left,['3'],4,0.25607270000000426,,,2,18,Vrouw,Rechts,1,
,xotask,xotask,xotask,62,7,566,566,main,negativefb,-99,average,16,1.7002010999999584,['n'],1,right,['3'],4,0.18672080000010283,,,2,18,Vrouw,Rechts,1,
,xotask,xotask,xotask,63,7,567,567,main,negativefb,-99,hard,54,0.9843568000001142,['c'],1,left,['3'],4,0.1971405000001596,,,2,18,Vrouw,Rechts,1,
,xotask,xotask,xotask,64,7,568,568,main,negativefb,-99,average,16,1.2685913999998775,['n'],1,right,['3'],4,0.17151160000003074,,,2,18,Vrouw,Rechts,1,
,xotask,xotask,xotask,65,7,569,569,main,negativefb,-99,average,63,0.6512296999999307,['c'],1,left,['3'],4,0.21153469999990193,,,2,18,Vrouw,Rechts,1,
,xotask,xotask,xotask,66,7,570,570,main,negativefb,-99,average,63,0.8507949999998345,['c'],1,left,['2'],5,0.2744956999999886,,,2,18,Vrouw,Rechts,1,
,xotask,xotask,xotask,67,7,571,571,main,negativefb,-99,average,16,1.285138599999982,['n'],1,right,['3'],4,0.15736609999999018,,,2,18,Vrouw,Rechts,1,
,xotask,xotask,xotask,68,7,572,572,main,negativefb,-99,hard,29,2.4341961999998603,['n'],1,right,['3'],4,0.12679479999997056,,,2,18,Vrouw,Rechts,1,
,xotask,xotask,xotask,69,7,573,573,main,negativefb,-99,hard,53,0.7181158000000778,['c'],1,left,['3'],4,0.4540842999999768,,,2,18,Vrouw,Rechts,1,
,xotask,xotask,xotask,70,7,574,574,main,negativefb,-99,average,19,0.9325651000001471,['n'],1,right,['3'],4,0.23865030000001752,,,2,18,Vrouw,Rechts,1,
,xotask,xotask,xotask,71,7,575,575,main,negativefb,-99,hard,28,0.9338425000000825,['c'],0,right,['2'],5,0.2730559000001449,,,2,18,Vrouw,Rechts,1,
,xotask,xotask,xotask,0,0,0,336,training,negativefb,55,average,60,1.3672483999998803,['c'],1,left,['3'],4,0.5137558999999783,,,2,18,Vrouw,Rechts,1,
,xotask,xotask,xotask,1,0,1,337,training,negativefb,70,easy,72,1.1008953000000474,['c'],1,left,['2'],5,0.26605659999995623,,,2,18,Vrouw,Rechts,1,
,xotask,xotask,xotask,2,0,2,338,training,negativefb,39,average,16,0.9496214000000691,['n'],1,right,['3'],4,0.2175796999999875,,,2,18,Vrouw,Rechts,1,
,xotask,xotask,xotask,3,0,3,339,training,negativefb,52,easy,6,0.8846545999999762,['n'],1,right,['2'],5,0.29331679999995686,,,2,18,Vrouw,Rechts,1,
,xotask,xotask,xotask,4,0,4,340,training,negativefb,65,easy,7,1.9508851000000504,['n'],1,right,['3'],4,0.37252860000012333,,,2,18,Vrouw,Rechts,1,
,xotask,xotask,xotask,5,0,5,341,training,negativefb,36,average,19,2.3172879999999623,['n'],1,right,['3'],4,0.2812613999999485,,,2,18,Vrouw,Rechts,1,
,xotask,xotask,xotask,6,0,6,342,training,negativefb,95,hard,52,1.0337131999999656,['c'],1,left,['3'],4,2.2122137999999723,,,2,18,Vrouw,Rechts,1,
,xotask,xotask,xotask,7,0,7,343,training,negativefb,80,average,60,1.484003199999961,['c'],1,left,['3'],4,0.224337099999957,,,2,18,Vrouw,Rechts,1,
,xotask,xotask,xotask,8,0,8,344,training,negativefb,60,average,16,0.6664877000000615,['n'],1,right,['3'],4,0.3330005999998775,,,2,18,Vrouw,Rechts,1,
,xotask,xotask,xotask,9,0,9,345,training,negativefb,21,hard,52,0.8504393000000618,['n'],0,left,['3'],4,0.30153150000001006,,,2,18,Vrouw,Rechts,1,
,xotask,xotask,xotask,10,0,10,346,training,negativefb,89,easy,71,0.8332034000000021,['c'],1,left,['3'],4,0.3118796999999631,,,2,18,Vrouw,Rechts,1,
,xotask,xotask,xotask,11,0,11,347,training,negativefb,81,average,64,1.4343695000000025,['c'],1,left,['3'],4,0.46739900000011403,,,2,18,Vrouw,Rechts,1,
,xotask,xotask,xotask,12,0,12,348,training,negativefb,86,average,18,0.9344791000000896,['n'],1,right,['3'],4,1.1230450000000474,,,2,18,Vrouw,Rechts,1,
,xotask,xotask,xotask,13,0,13,349,training,negativefb,44,average,64,1.099382599999899,['c'],1,left,['2'],5,0.642477099999951,,,2,18,Vrouw,Rechts,1,
,xotask,xotask,xotask,14,0,14,350,training,negativefb,52,hard,51,0.8831665000000157,['c'],1,left,['2'],5,0.41420319999997446,,,2,18,Vrouw,Rechts,1,
,xotask,xotask,xotask,15,0,15,351,training,negativefb,47,average,18,0.8157254000000194,['n'],1,right,['2'],5,0.2371382999999696,,,2,18,Vrouw,Rechts,1,
,xotask,xotask,xotask,16,0,16,352,training,negativefb,63,easy,71,3.3001934999999776,['c'],1,left,['2'],5,0.5273844000000736,,,2,18,Vrouw,Rechts,1,
,xotask,xotask,xotask,17,0,17,353,training,negativefb,41,easy,74,1.2502471000000241,['c'],1,left,['2'],5,0.33771090000004733,,,2,18,Vrouw,Rechts,1,
,xotask,xotask,xotask,18,0,18,354,training,negativefb,34,hard,50,2.53389930000003,['c'],1,left,['3'],4,0.3900742999999238,,,2,18,Vrouw,Rechts,1,
,xotask,xotask,xotask,19,0,19,355,training,negativefb,66,hard,54,1.1157502000000932,['n'],0,left,['3'],4,0.20311689999994087,,,2,18,Vrouw,Rechts,1,
,xotask,xotask,xotask,20,0,20,356,training,negativefb,52,average,15,1.0675068999998985,['n'],1,right,['3'],4,0.22407169999996768,,,2,18,Vrouw,Rechts,1,
,xotask,xotask,xotask,21,0,21,357,training,negativefb,69,easy,70,0.9655890000001364,['c'],1,left,['3'],4,0.4881310000000667,,,2,18,Vrouw,Rechts,1,
,xotask,xotask,xotask,22,0,22,358,training,negativefb,54,hard,54,0.8830943999998908,['c'],1,left,['2'],5,0.3625699000001532,,,2,18,Vrouw,Rechts,1,
,xotask,xotask,xotask,23,0,23,359,training,negativefb,62,easy,6,0.7332216000002063,['n'],1,right,['2'],5,0.2786277999998674,,,2,18,Vrouw,Rechts,1,
,xotask,xotask,xotask,0,1,24,408,training,negativefb,95,hard,25,0.8677035000000615,['n'],1,right,['3'],4,1.1558884000000944,,,2,18,Vrouw,Rechts,1,
,xotask,xotask,xotask,1,1,25,409,training,negativefb,86,average,18,1.0994206000000304,['n'],1,right,['3'],4,0.8500728999999865,,,2,18,Vrouw,Rechts,1,
,xotask,xotask,xotask,2,1,26,410,training,negativefb,57,easy,70,0.8835615000000416,['c'],1,left,['3'],4,0.3718536999999742,,,2,18,Vrouw,Rechts,1,
,xotask,xotask,xotask,3,1,27,411,training,negativefb,59,easy,8,1.3825773999999456,['n'],1,right,['3'],4,0.29377070000009553,,,2,18,Vrouw,Rechts,1,
,xotask,xotask,xotask,4,1,28,412,training,negativefb,97,easy,8,0.7173502000000553,['n'],1,right,['2'],5,0.4145212000000811,,,2,18,Vrouw,Rechts,1,
,xotask,xotask,xotask,5,1,29,413,training,negativefb,53,hard,54,1.5329755000000205,['c'],1,left,['3'],4,0.21609739999985322,,,2,18,Vrouw,Rechts,1,
,xotask,xotask,xotask,6,1,30,414,training,negativefb,84,average,16,0.7007690999998886,['n'],1,right,['3'],4,0.34782319999999345,,,2,18,Vrouw,Rechts,1,
,xotask,xotask,xotask,7,1,31,415,training,negativefb,48,hard,51,0.8855140000000574,['n'],0,left,['3'],4,0.20260149999990062,,,2,18,Vrouw,Rechts,1,
,xotask,xotask,xotask,8,1,32,416,training,negativefb,43,average,63,0.6664398000000347,['c'],1,left,['3'],4,0.207649100000026,,,2,18,Vrouw,Rechts,1,
,xotask,xotask,xotask,9,1,33,417,training,negativefb,45,average,19,1.0491773000001103,['n'],1,right,['3'],4,0.23045590000015181,,,2,18,Vrouw,Rechts,1,
,xotask,xotask,xotask,10,1,34,418,training,negativefb,27,hard,50,2.300288799999862,['n'],0,left,['3'],4,0.9058440000001156,,,2,18,Vrouw,Rechts,1,
,xotask,xotask,xotask,11,1,35,419,training,negativefb,64,average,16,1.4011490000000322,['n'],1,right,['3'],4,0.22970370000007279,,,2,18,Vrouw,Rechts,1,
,xotask,xotask,xotask,12,1,36,420,training,negativefb,48,easy,71,1.233882900000026,['c'],1,left,['3'],4,0.33981790000007095,,,2,18,Vrouw,Rechts,1,
,xotask,xotask,xotask,13,1,37,421,training,negativefb,47,hard,51,1.1173976000000039,['c'],1,left,['3'],4,0.4016957999999704,,,2,18,Vrouw,Rechts,1,
,xotask,xotask,xotask,14,1,38,422,training,negativefb,59,easy,6,1.6834426000000349,['n'],1,right,['3'],4,0.358528600000227,,,2,18,Vrouw,Rechts,1,
,xotask,xotask,xotask,15,1,39,423,training,negativefb,54,easy,9,0.6996383000000606,['n'],1,right,['3'],4,0.22064300000010917,,,2,18,Vrouw,Rechts,1,
,xotask,xotask,xotask,16,1,40,424,training,negativefb,75,hard,25,0.6501225000001796,['n'],1,right,['3'],4,0.28195590000018456,,,2,18,Vrouw,Rechts,1,
,xotask,xotask,xotask,17,1,41,425,training,negativefb,79,hard,51,0.932799900000191,['c'],1,left,['3'],4,0.36073179999993954,,,2,18,Vrouw,Rechts,1,
,xotask,xotask,xotask,18,1,42,426,training,negativefb,55,hard,51,0.8336876999999276,['c'],1,left,['3'],4,0.4899972999999136,,,2,18,Vrouw,Rechts,1,
,xotask,xotask,xotask,19,1,43,427,training,negativefb,37,hard,28,0.7336912999999186,['n'],1,right,['3'],4,0.2725626999999804,,,2,18,Vrouw,Rechts,1,
,xotask,xotask,xotask,20,1,44,428,training,negativefb,82,easy,74,0.7831883000001199,['c'],1,left,['3'],4,0.2553388999999697,,,2,18,Vrouw,Rechts,1,
,xotask,xotask,xotask,21,1,45,429,training,negativefb,2,easy,5,1.1172010999998747,['c'],0,right,['9'],2,3.2726112999998804,,,2,18,Vrouw,Rechts,1,
,xotask,xotask,xotask,22,1,46,430,training,negativefb,64,average,61,2.38291769999978,['c'],1,left,['3'],4,0.8857553000002554,,,2,18,Vrouw,Rechts,1,
,xotask,xotask,xotask,23,1,47,431,training,negativefb,80,average,63,0.8163346999999703,['c'],1,left,['3'],4,0.6338597999997546,,,2,18,Vrouw,Rechts,1,
,xotask,xotask,xotask,0,2,48,480,training,negativefb,55,hard,52,1.4339286999997967,['n'],0,left,['3'],4,0.28580879999981335,,,2,18,Vrouw,Rechts,1,
,xotask,xotask,xotask,1,2,49,481,training,negativefb,74,easy,70,0.7510887000003095,['c'],1,left,['3'],4,0.3883162000001903,,,2,18,Vrouw,Rechts,1,
,xotask,xotask,xotask,2,2,50,482,training,negativefb,54,hard,53,0.8831340000001546,['c'],1,left,['3'],4,0.3368906999999126,,,2,18,Vrouw,Rechts,1,
,xotask,xotask,xotask,3,2,51,483,training,negativefb,78,hard,51,0.8315999999999804,['c'],1,left,['3'],4,0.3064550999997664,,,2,18,Vrouw,Rechts,1,
,xotask,xotask,xotask,4,2,52,484,training,negativefb,81,easy,7,0.7339502999998331,['n'],1,right,['3'],4,0.3453709999998864,,,2,18,Vrouw,Rechts,1,
,xotask,xotask,xotask,5,2,53,485,training,negativefb,40,hard,53,1.7179439999999886,['c'],1,left,['3'],4,0.2875088999999207,,,2,18,Vrouw,Rechts,1,
,xotask,xotask,xotask,6,2,54,486,training,negativefb,89,hard,54,0.8832428999999138,['c'],1,left,['3'],4,0.3207557999999153,,,2,18,Vrouw,Rechts,1,
,xotask,xotask,xotask,7,2,55,487,training,negativefb,63,average,15,0.9672774999999092,['n'],1,right,['3'],4,0.26904519999970944,,,2,18,Vrouw,Rechts,1,
,xotask,xotask,xotask,8,2,56,488,training,negativefb,87,easy,9,0.6681453999999576,['n'],1,right,['3'],4,0.24820469999986017,,,2,18,Vrouw,Rechts,1,
,xotask,xotask,xotask,9,2,57,489,training,negativefb,29,easy,71,0.7504384999997455,['c'],1,left,['3'],4,0.3445366000000831,,,2,18,Vrouw,Rechts,1,
,xotask,xotask,xotask,10,2,58,490,training,negativefb,90,average,16,0.7508472999998048,['n'],1,right,['2'],5,0.42108639999969455,,,2,18,Vrouw,Rechts,1,
,xotask,xotask,xotask,11,2,59,491,training,negativefb,60,average,62,1.651292900000044,['c'],1,left,['3'],4,0.3782811999999467,,,2,18,Vrouw,Rechts,1,
,xotask,xotask,xotask,12,2,60,492,training,negativefb,74,average,60,0.9346555000001899,['c'],1,left,['3'],4,0.30212900000014997,,,2,18,Vrouw,Rechts,1,
,xotask,xotask,xotask,13,2,61,493,training,negativefb,59,easy,72,0.86597219999976,['c'],1,left,['3'],4,0.2472182999999859,,,2,18,Vrouw,Rechts,1,
,xotask,xotask,xotask,14,2,62,494,training,negativefb,74,average,63,0.7335051000000021,['c'],1,left,['3'],4,0.4010249000002659,,,2,18,Vrouw,Rechts,1,
,xotask,xotask,xotask,15,2,63,495,training,negativefb,82,easy,9,0.7166553000001841,['n'],1,right,['3'],4,0.30913680000003296,,,2,18,Vrouw,Rechts,1,
,xotask,xotask,xotask,16,2,64,496,training,negativefb,89,average,61,0.983474500000284,['c'],1,left,['3'],4,0.21678119999978662,,,2,18,Vrouw,Rechts,1,
,xotask,xotask,xotask,17,2,65,497,training,negativefb,79,easy,9,0.7171618000002127,['n'],1,right,['3'],4,0.1797685999999885,,,2,18,Vrouw,Rechts,1,
,xotask,xotask,xotask,18,2,66,498,training,negativefb,56,average,19,1.0331670000000486,['n'],1,right,['3'],4,0.18023029999994833,,,2,18,Vrouw,Rechts,1,
,xotask,xotask,xotask,19,2,67,499,training,negativefb,60,hard,50,0.8677348000001075,['c'],1,left,['3'],4,0.2899200000001656,,,2,18,Vrouw,Rechts,1,
,xotask,xotask,xotask,20,2,68,500,training,negativefb,58,hard,54,0.8493263000000297,['c'],1,left,['3'],4,0.2456889999998566,,,2,18,Vrouw,Rechts,1,
,xotask,xotask,xotask,21,2,69,501,training,negativefb,65,easy,70,1.051118200000019,['c'],1,left,['3'],4,0.2735587000001942,,,2,18,Vrouw,Rechts,1,
,xotask,xotask,xotask,22,2,70,502,training,negativefb,87,easy,7,0.6659872999998697,['n'],1,right,['3'],4,0.13998639999999796,,,2,18,Vrouw,Rechts,1,
,xotask,xotask,xotask,23,2,71,503,training,negativefb,74,hard,26,1.300890100000288,['n'],1,right,['3'],4,0.1551696000001357,,,2,18,Vrouw,Rechts,1,
,xotask,xotask,xotask,0,3,72,552,training,negativefb,59,average,17,1.349642600000152,['n'],1,right,['3'],4,0.29409480000003896,,,2,18,Vrouw,Rechts,1,
,xotask,xotask,xotask,1,3,73,553,training,negativefb,73,easy,5,0.6334897000001547,['n'],1,right,['3'],4,0.16235249999999724,,,2,18,Vrouw,Rechts,1,
,xotask,xotask,xotask,2,3,74,554,training,negativefb,50,average,19,0.5495756000000256,['n'],1,right,['3'],4,0.10224659999994401,,,2,18,Vrouw,Rechts,1,
,xotask,xotask,xotask,3,3,75,555,training,negativefb,22,average,60,1.8678933999999572,['c'],1,left,['3'],4,0.2629469000003155,,,2,18,Vrouw,Rechts,1,
,xotask,xotask,xotask,4,3,76,556,training,negativefb,67,hard,54,0.9659650000003239,['c'],1,left,['3'],4,0.7667967000002136,,,2,18,Vrouw,Rechts,1,
,xotask,xotask,xotask,5,3,77,557,training,negativefb,60,easy,8,0.7006397999998626,['n'],1,right,['3'],4,0.2036873000001833,,,2,18,Vrouw,Rechts,1,
,xotask,xotask,xotask,6,3,78,558,training,negativefb,27,average,63,1.1823014000001422,['n'],0,left,['3'],4,0.24461840000003576,,,2,18,Vrouw,Rechts,1,
,xotask,xotask,xotask,7,3,79,559,training,negativefb,67,hard,29,1.2500076000001172,['n'],1,right,['3'],4,0.2088751000001139,,,2,18,Vrouw,Rechts,1,
,xotask,xotask,xotask,8,3,80,560,training,negativefb,77,average,19,0.9002661999998054,['n'],1,right,['3'],4,0.18971800000008443,,,2,18,Vrouw,Rechts,1,
,xotask,xotask,xotask,9,3,81,561,training,negativefb,54,average,62,0.8661600999998882,['c'],1,left,['3'],4,0.1791241999999329,,,2,18,Vrouw,Rechts,1,
,xotask,xotask,xotask,10,3,82,562,training,negativefb,62,average,18,0.6673152999997001,['n'],1,right,['3'],4,0.16191370000024108,,,2,18,Vrouw,Rechts,1,
,xotask,xotask,xotask,11,3,83,563,training,negativefb,88,easy,70,0.8513865999998416,['c'],1,left,['2'],5,0.297948500000075,,,2,18,Vrouw,Rechts,1,
,xotask,xotask,xotask,12,3,84,564,training,negativefb,70,hard,53,0.9663052000000789,['c'],1,left,['2'],5,0.21528519999992568,,,2,18,Vrouw,Rechts,1,
,xotask,xotask,xotask,13,3,85,565,training,negativefb,90,easy,74,0.8332510999998703,['c'],1,left,['2'],5,0.2615931999998793,,,2,18,Vrouw,Rechts,1,
,xotask,xotask,xotask,14,3,86,566,training,negativefb,75,easy,73,0.7165330000002541,['c'],1,left,['2'],5,0.33516469999995024,,,2,18,Vrouw,Rechts,1,
,xotask,xotask,xotask,15,3,87,567,training,negativefb,44,hard,25,1.366472000000158,['n'],1,right,['2'],5,0.5313270999999986,,,2,18,Vrouw,Rechts,1,
,xotask,xotask,xotask,16,3,88,568,training,negativefb,56,hard,29,0.9012097999998332,['n'],1,right,['3'],4,0.3145916999997098,,,2,18,Vrouw,Rechts,1,
,xotask,xotask,xotask,17,3,89,569,training,negativefb,68,hard,52,1.034639099999822,['c'],1,left,['3'],4,0.34121120000008887,,,2,18,Vrouw,Rechts,1,
,xotask,xotask,xotask,18,3,90,570,training,negativefb,60,average,62,0.8666935999999623,['c'],1,left,['3'],4,0.25359359999993103,,,2,18,Vrouw,Rechts,1,
,xotask,xotask,xotask,19,3,91,571,training,negativefb,37,hard,27,1.2341590999999426,['c'],0,right,['3'],4,0.22591579999971145,,,2,18,Vrouw,Rechts,1,
,xotask,xotask,xotask,20,3,92,572,training,negativefb,67,average,63,1.0843666000000667,['n'],0,left,['3'],4,0.29401819999975487,,,2,18,Vrouw,Rechts,1,
,xotask,xotask,xotask,21,3,93,573,training,negativefb,57,hard,50,0.9664803000000575,['c'],1,left,['3'],4,0.2120058999998946,,,2,18,Vrouw,Rechts,1,
,xotask,xotask,xotask,22,3,94,574,training,negativefb,75,easy,72,0.7324757999999747,['c'],1,left,['3'],4,0.18295979999993506,,,2,18,Vrouw,Rechts,1,
,xotask,xotask,xotask,23,3,95,575,training,negativefb,80,hard,53,0.7003208999999515,['c'],1,left,['3'],4,0.37932279999995444,,,2,18,Vrouw,Rechts,1,
,xotask,xotask,xotask,0,4,96,624,training,negativefb,61,average,63,0.9507923999999548,['c'],1,left,['3'],4,0.32818879999967976,,,2,18,Vrouw,Rechts,1,
,xotask,xotask,xotask,1,4,97,625,training,negativefb,47,hard,26,1.0500680000000102,['n'],1,right,['3'],4,0.15331490000016856,,,2,18,Vrouw,Rechts,1,
,xotask,xotask,xotask,2,4,98,626,training,negativefb,82,easy,71,0.7512298000001465,['c'],1,left,['3'],4,0.16537650000009307,,,2,18,Vrouw,Rechts,1,
,xotask,xotask,xotask,3,4,99,627,training,negativefb,80,easy,8,2.3685436999999183,['n'],1,right,['3'],4,0.15968450000036682,,,2,18,Vrouw,Rechts,1,
,xotask,xotask,xotask,4,4,100,628,training,negativefb,52,easy,7,0.6662741000000096,['n'],1,right,['3'],4,0.18256890000020576,,,2,18,Vrouw,Rechts,1,
,xotask,xotask,xotask,5,4,101,629,training,negativefb,34,hard,28,0.7165673999998035,['n'],1,right,['3'],4,0.15507779999961713,,,2,18,Vrouw,Rechts,1,
,xotask,xotask,xotask,6,4,102,630,training,negativefb,53,average,63,1.2840080999999373,['n'],0,left,['2'],5,0.16151840000020457,,,2,18,Vrouw,Rechts,1,
,xotask,xotask,xotask,7,4,103,631,training,negativefb,70,hard,51,1.9165917000000263,['c'],1,left,['3'],4,0.2067618000000948,,,2,18,Vrouw,Rechts,1,
,xotask,xotask,xotask,8,4,104,632,training,negativefb,88,easy,72,0.7993027000002257,['c'],1,left,['3'],4,0.19859479999968244,,,2,18,Vrouw,Rechts,1,
,xotask,xotask,xotask,9,4,105,633,training,negativefb,85,easy,8,0.6839981000002808,['n'],1,right,['2'],5,0.18773630000032426,,,2,18,Vrouw,Rechts,1,
,xotask,xotask,xotask,10,4,106,634,training,negativefb,54,average,60,0.9838070000000698,['c'],1,left,['3'],4,0.26862260000007154,,,2,18,Vrouw,Rechts,1,
,xotask,xotask,xotask,11,4,107,635,training,negativefb,88,average,18,0.633662099999583,['n'],1,right,['2'],5,0.40073050000000876,,,2,18,Vrouw,Rechts,1,
,xotask,xotask,xotask,12,4,108,636,training,negativefb,58,hard,51,1.183703699999569,['n'],0,left,['3'],4,0.16146840000010343,,,2,18,Vrouw,Rechts,1,
,xotask,xotask,xotask,13,4,109,637,training,negativefb,87,average,63,0.9007179999998698,['c'],1,left,['3'],4,0.368083100000149,,,2,18,Vrouw,Rechts,1,
,xotask,xotask,xotask,14,4,110,638,training,negativefb,57,average,60,0.933480299999701,['c'],1,left,['3'],4,0.29191919999993843,,,2,18,Vrouw,Rechts,1,
,xotask,xotask,xotask,15,4,111,639,training,negativefb,45,average,18,1.118157599999904,['n'],1,right,['3'],4,0.1878858999998556,,,2,18,Vrouw,Rechts,1,
,xotask,xotask,xotask,16,4,112,640,training,negativefb,76,easy,74,0.9007905999997092,['c'],1,left,['3'],4,0.17655199999990145,,,2,18,Vrouw,Rechts,1,
,xotask,xotask,xotask,17,4,113,641,training,negativefb,77,easy,7,0.6664519000000837,['n'],1,right,['3'],4,0.1516145000000506,,,2,18,Vrouw,Rechts,1,
,xotask,xotask,xotask,18,4,114,642,training,negativefb,69,hard,54,1.4000286999998934,['c'],1,left,['3'],4,0.1850122000000738,,,2,18,Vrouw,Rechts,1,
,xotask,xotask,xotask,19,4,115,643,training,negativefb,59,easy,5,0.7669849000003524,['n'],1,right,['3'],4,0.16296330000022863,,,2,18,Vrouw,Rechts,1,
,xotask,xotask,xotask,20,4,116,644,training,negativefb,87,average,15,0.8832677000000331,['n'],1,right,['3'],4,0.19424350000008417,,,2,18,Vrouw,Rechts,1,
,xotask,xotask,xotask,21,4,117,645,training,negativefb,58,average,17,0.9178885000001173,['n'],1,right,['3'],4,0.2060602999999901,,,2,18,Vrouw,Rechts,1,
,xotask,xotask,xotask,22,4,118,646,training,negativefb,64,easy,73,1.0012032999998155,['c'],1,left,['3'],4,0.1661168999999063,,,2,18,Vrouw,Rechts,1,
,xotask,xotask,xotask,23,4,119,647,training,negativefb,72,average,18,0.8344293999998627,['n'],1,right,['3'],4,0.1581239000001915,,,2,18,Vrouw,Rechts,1,
,dotcolour,xotask,xotask,0,5,360,696,main,negativefb,-99,hard,,0.7837913999996999,['c'],1,left,['3'],4,1.0649192000000767,42,,2,18,Vrouw,Rechts,1,
,dotcolour,xotask,xotask,1,5,361,697,main,negativefb,-99,easy,,0.751571100000092,['n'],1,right,['3'],4,0.5365306000003329,15,,2,18,Vrouw,Rechts,1,
,dotcolour,xotask,xotask,2,5,362,698,main,negativefb,-99,easy,,0.7002236999996967,['n'],1,right,['3'],4,0.9684960999998111,17,,2,18,Vrouw,Rechts,1,
,dotcolour,xotask,xotask,3,5,363,699,main,negativefb,-99,easy,,0.7833510000000388,['n'],1,right,['2'],5,0.8671512999999322,15,,2,18,Vrouw,Rechts,1,
,dotcolour,xotask,xotask,4,5,364,700,main,negativefb,-99,easy,,0.7179710999998861,['n'],1,right,['2'],5,0.24416019999989658,19,,2,18,Vrouw,Rechts,1,
,dotcolour,xotask,xotask,5,5,365,701,main,negativefb,-99,easy,,0.7337594999999055,['c'],1,left,['2'],5,0.4223700000002282,63,,2,18,Vrouw,Rechts,1,
,dotcolour,xotask,xotask,6,5,366,702,main,negativefb,-99,average,,1.0680320999999822,['c'],0,right,['2'],5,0.40324869999994917,28,,2,18,Vrouw,Rechts,1,
,dotcolour,xotask,xotask,7,5,367,703,main,negativefb,-99,average,,0.7012479999998504,['c'],1,left,['3'],4,0.8402144000001499,54,,2,18,Vrouw,Rechts,1,
,dotcolour,xotask,xotask,8,5,368,704,main,negativefb,-99,easy,,0.7176439999998365,['c'],1,left,['2'],5,0.3468347000002723,64,,2,18,Vrouw,Rechts,1,
,dotcolour,xotask,xotask,9,5,369,705,main,negativefb,-99,easy,,0.7348360000000866,['c'],1,left,['2'],5,0.5930387000003066,62,,2,18,Vrouw,Rechts,1,
,dotcolour,xotask,xotask,10,5,370,706,main,negativefb,-99,hard,,1.3006831999996393,['n'],0,left,['3'],4,0.35086509999973714,41,,2,18,Vrouw,Rechts,1,
,dotcolour,xotask,xotask,11,5,371,707,main,negativefb,-99,easy,,0.6502059999997982,['n'],1,right,['3'],4,0.26297080000040296,16,,2,18,Vrouw,Rechts,1,
,dotcolour,xotask,xotask,12,5,372,708,main,negativefb,-99,average,,0.71762630000012,['n'],1,right,['3'],4,0.28946289999976216,25,,2,18,Vrouw,Rechts,1,
,dotcolour,xotask,xotask,13,5,373,709,main,negativefb,-99,hard,,1.0507910000001175,['n'],1,right,['3'],4,0.2049363999999514,39,,2,18,Vrouw,Rechts,1,
,dotcolour,xotask,xotask,14,5,374,710,main,negativefb,-99,average,,0.6678868000003604,['n'],1,right,['3'],4,0.2101714999998876,29,,2,18,Vrouw,Rechts,1,
,dotcolour,xotask,xotask,15,5,375,711,main,negativefb,-99,easy,,0.7513539999999921,['c'],1,left,['2'],5,0.31703719999995883,61,,2,18,Vrouw,Rechts,1,
,dotcolour,xotask,xotask,16,5,376,712,main,negativefb,-99,hard,,1.6349919999997837,['c'],0,right,['2'],5,0.2959016999998312,38,,2,18,Vrouw,Rechts,1,
,dotcolour,xotask,xotask,17,5,377,713,main,negativefb,-99,average,,0.9335808000000725,['c'],1,left,['3'],4,0.20832889999974213,54,,2,18,Vrouw,Rechts,1,
,dotcolour,xotask,xotask,18,5,378,714,main,negativefb,-99,average,,0.7000196000003598,['c'],1,left,['2'],5,0.30043309999973644,54,,2,18,Vrouw,Rechts,1,
,dotcolour,xotask,xotask,19,5,379,715,main,negativefb,-99,hard,,0.8011995000001662,['n'],1,right,['3'],4,0.2892584999999599,36,,2,18,Vrouw,Rechts,1,
,dotcolour,xotask,xotask,20,5,380,716,main,negativefb,-99,hard,,0.8329890999998497,['n'],0,left,['3'],4,0.21378880000020217,43,,2,18,Vrouw,Rechts,1,
,dotcolour,xotask,xotask,21,5,381,717,main,negativefb,-99,easy,,0.5676988999998684,['c'],1,left,['3'],4,0.2227287000000615,61,,2,18,Vrouw,Rechts,1,
,dotcolour,xotask,xotask,22,5,382,718,main,negativefb,-99,easy,,0.6345526000000064,['n'],1,right,['2'],5,0.46969999999964784,15,,2,18,Vrouw,Rechts,1,
,dotcolour,xotask,xotask,23,5,383,719,main,negativefb,-99,easy,,1.1670019000002867,['c'],1,left,['2'],5,0.3410135999997692,63,,2,18,Vrouw,Rechts,1,
,dotcolour,xotask,xotask,24,5,384,720,main,negativefb,-99,average,,2.3342263000004095,['c'],1,left,['3'],4,0.48313210000014806,55,,2,18,Vrouw,Rechts,1,
,dotcolour,xotask,xotask,25,5,385,721,main,negativefb,-99,average,,0.6513952999998764,['n'],1,right,['2'],5,0.4547637999999097,27,,2,18,Vrouw,Rechts,1,
,dotcolour,xotask,xotask,26,5,386,722,main,negativefb,-99,average,,0.6339235999998891,['n'],1,right,['2'],5,0.24378710000019055,25,,2,18,Vrouw,Rechts,1,
,dotcolour,xotask,xotask,27,5,387,723,main,negativefb,-99,easy,,0.9342603000000054,['c'],1,left,['2'],5,0.3579050000003008,61,,2,18,Vrouw,Rechts,1,
,dotcolour,xotask,xotask,28,5,388,724,main,negativefb,-99,average,,0.6850517000002583,['n'],1,right,['2'],5,0.3489363999997295,26,,2,18,Vrouw,Rechts,1,
,dotcolour,xotask,xotask,29,5,389,725,main,negativefb,-99,hard,,0.7178408999998283,['c'],1,left,['2'],5,0.2836715000003096,44,,2,18,Vrouw,Rechts,1,
,dotcolour,xotask,xotask,30,5,390,726,main,negativefb,-99,hard,,1.133817199999612,['c'],0,right,['3'],4,0.2914050999997926,36,,2,18,Vrouw,Rechts,1,
,dotcolour,xotask,xotask,31,5,391,727,main,negativefb,-99,average,,0.8355145000000448,['c'],1,left,['2'],5,0.3435534000000189,53,,2,18,Vrouw,Rechts,1,
,dotcolour,xotask,xotask,32,5,392,728,main,negativefb,-99,easy,,0.7009922000002007,['n'],1,right,['2'],5,0.2621475000000828,16,,2,18,Vrouw,Rechts,1,
,dotcolour,xotask,xotask,33,5,393,729,main,negativefb,-99,hard,,1.8842821999996886,['c'],1,left,['2'],5,1.0981864000000314,45,,2,18,Vrouw,Rechts,1,
,dotcolour,xotask,xotask,34,5,394,730,main,negativefb,-99,hard,,1.0513875000001462,['n'],1,right,['2'],5,0.4528482000000622,35,,2,18,Vrouw,Rechts,1,
,dotcolour,xotask,xotask,35,5,395,731,main,negativefb,-99,hard,,1.9183791999998903,['n'],0,left,['3'],4,0.6386319999996886,45,,2,18,Vrouw,Rechts,1,
,dotcolour,xotask,xotask,36,5,396,732,main,negativefb,-99,hard,,1.1669018000002325,['c'],1,left,['3'],4,1.455099700000119,43,,2,18,Vrouw,Rechts,1,
,dotcolour,xotask,xotask,37,5,397,733,main,negativefb,-99,average,,0.9338392999998177,['c'],1,left,['3'],4,0.1767451999999139,51,,2,18,Vrouw,Rechts,1,
,dotcolour,xotask,xotask,38,5,398,734,main,negativefb,-99,easy,,0.584293500000058,['n'],1,right,['2'],5,0.20330960000001141,17,,2,18,Vrouw,Rechts,1,
,dotcolour,xotask,xotask,39,5,399,735,main,negativefb,-99,average,,0.901046899999983,['c'],1,left,['2'],5,0.19235130000015488,53,,2,18,Vrouw,Rechts,1,
,dotcolour,xotask,xotask,40,5,400,736,main,negativefb,-99,easy,,0.6176823000000695,['c'],1,left,['2'],5,0.17659499999990658,63,,2,18,Vrouw,Rechts,1,
,dotcolour,xotask,xotask,41,5,401,737,main,negativefb,-99,average,,1.1173433999997542,['c'],1,left,['2'],5,0.18195969999987938,52,,2,18,Vrouw,Rechts,1,
,dotcolour,xotask,xotask,42,5,402,738,main,negativefb,-99,easy,,0.6839654999998857,['n'],1,right,['2'],5,0.7239996999996947,17,,2,18,Vrouw,Rechts,1,
,dotcolour,xotask,xotask,43,5,403,739,main,negativefb,-99,easy,,0.5851545999998962,['n'],1,right,['2'],5,0.1847237000001769,18,,2,18,Vrouw,Rechts,1,
,dotcolour,xotask,xotask,44,5,404,740,main,negativefb,-99,easy,,0.5840964999997595,['c'],1,left,['2'],5,0.3870222000000467,62,,2,18,Vrouw,Rechts,1,
,dotcolour,xotask,xotask,45,5,405,741,main,negativefb,-99,average,,1.8671843999995872,['c'],1,left,['2'],5,0.4259415999999874,55,,2,18,Vrouw,Rechts,1,
,dotcolour,xotask,xotask,46,5,406,742,main,negativefb,-99,easy,,0.484295000000202,['n'],1,right,['3'],4,0.21365220000006957,19,,2,18,Vrouw,Rechts,1,
,dotcolour,xotask,xotask,47,5,407,743,main,negativefb,-99,average,,0.7345105999997941,['c'],1,left,['3'],4,0.2250957000001108,52,,2,18,Vrouw,Rechts,1,
,dotcolour,xotask,xotask,48,5,408,744,main,negativefb,-99,hard,,0.7012328999999227,['c'],0,right,['3'],4,0.13354720000006637,38,,2,18,Vrouw,Rechts,1,
,dotcolour,xotask,xotask,49,5,409,745,main,negativefb,-99,average,,0.7835480000003372,['n'],1,right,['3'],4,0.15320770000016637,27,,2,18,Vrouw,Rechts,1,
,dotcolour,xotask,xotask,50,5,410,746,main,negativefb,-99,hard,,0.6509456999997383,['n'],0,left,['3'],4,0.08224329999984548,41,,2,18,Vrouw,Rechts,1,
,dotcolour,xotask,xotask,51,5,411,747,main,negativefb,-99,easy,,0.5506340000001728,['c'],1,left,['2'],5,0.27362389999962033,62,,2,18,Vrouw,Rechts,1,
,dotcolour,xotask,xotask,52,5,412,748,main,negativefb,-99,hard,,0.5508934999998019,['n'],1,right,['3'],4,0.13003580000031434,39,,2,18,Vrouw,Rechts,1,
,dotcolour,xotask,xotask,53,5,413,749,main,negativefb,-99,average,,0.9007786000001943,['n'],1,right,['2'],5,0.22523299999966184,26,,2,18,Vrouw,Rechts,1,
,dotcolour,xotask,xotask,54,5,414,750,main,negativefb,-99,hard,,0.718351999999868,['n'],1,right,['3'],4,0.18865489999961937,37,,2,18,Vrouw,Rechts,1,
,dotcolour,xotask,xotask,55,5,415,751,main,negativefb,-99,hard,,1.433382299999721,['n'],0,left,['3'],4,0.22114779999992606,44,,2,18,Vrouw,Rechts,1,
,dotcolour,xotask,xotask,56,5,416,752,main,negativefb,-99,hard,,0.934679099999812,['n'],1,right,['3'],4,0.14297850000002654,38,,2,18,Vrouw,Rechts,1,
,dotcolour,xotask,xotask,57,5,417,753,main,negativefb,-99,easy,,0.5843712000000778,['n'],1,right,['2'],5,0.1953656000000592,16,,2,18,Vrouw,Rechts,1,
,dotcolour,xotask,xotask,58,5,418,754,main,negativefb,-99,easy,,0.7672850999997536,['c'],1,left,['2'],5,0.25459419999970123,64,,2,18,Vrouw,Rechts,1,
,dotcolour,xotask,xotask,59,5,419,755,main,negativefb,-99,average,,0.8669943999998395,['n'],1,right,['3'],4,0.12218750000010914,28,,2,18,Vrouw,Rechts,1,
,dotcolour,xotask,xotask,60,5,420,756,main,negativefb,-99,hard,,0.667520500000137,['n'],1,right,['2'],5,0.23534419999987222,38,,2,18,Vrouw,Rechts,1,
,dotcolour,xotask,xotask,61,5,421,757,main,negativefb,-99,hard,,0.6346112000001085,['n'],1,right,['2'],5,0.19370570000000953,38,,2,18,Vrouw,Rechts,1,
,dotcolour,xotask,xotask,62,5,422,758,main,negativefb,-99,average,,0.5342803000003187,['n'],1,right,['3'],4,0.1256960999999137,28,,2,18,Vrouw,Rechts,1,
,dotcolour,xotask,xotask,63,5,423,759,main,negativefb,-99,hard,,0.6671738000000005,['n'],0,left,['3'],4,0.16713260000005903,42,,2,18,Vrouw,Rechts,1,
,dotcolour,xotask,xotask,64,5,424,760,main,negativefb,-99,average,,0.48360760000014125,['n'],1,right,['3'],4,0.1341362999996818,27,,2,18,Vrouw,Rechts,1,
,dotcolour,xotask,xotask,65,5,425,761,main,negativefb,-99,average,,1.0345667999999932,['c'],1,left,['2'],5,0.3357559000000947,51,,2,18,Vrouw,Rechts,1,
,dotcolour,xotask,xotask,66,5,426,762,main,negativefb,-99,average,,0.7679854000002706,['c'],1,left,['2'],5,0.22802709999996296,52,,2,18,Vrouw,Rechts,1,
,dotcolour,xotask,xotask,67,5,427,763,main,negativefb,-99,average,,2.267219099999693,['n'],1,right,['3'],4,0.12161109999988184,29,,2,18,Vrouw,Rechts,1,
,dotcolour,xotask,xotask,68,5,428,764,main,negativefb,-99,hard,,1.650081599999794,['c'],1,left,['3'],4,0.21178609999969922,43,,2,18,Vrouw,Rechts,1,
,dotcolour,xotask,xotask,69,5,429,765,main,negativefb,-99,easy,,0.7673693000001549,['c'],1,left,['2'],5,0.27752220000002126,65,,2,18,Vrouw,Rechts,1,
,dotcolour,xotask,xotask,70,5,430,766,main,negativefb,-99,hard,,2.55067310000004,['n'],0,left,['3'],4,0.32549269999981334,44,,2,18,Vrouw,Rechts,1,
,dotcolour,xotask,xotask,71,5,431,767,main,negativefb,-99,hard,,0.6841135999998187,['n'],1,right,['3'],4,0.14287130000002435,36,,2,18,Vrouw,Rechts,1,
,dotcolour,xotask,xotask,0,6,432,768,main,negativefb,-99,easy,,0.5347545000004175,['n'],1,right,['3'],4,0.17064669999990656,16,,2,18,Vrouw,Rechts,1,
,dotcolour,xotask,xotask,1,6,433,769,main,negativefb,-99,average,,1.450575999999728,['n'],1,right,['3'],4,0.5308909000000313,28,,2,18,Vrouw,Rechts,1,
,dotcolour,xotask,xotask,2,6,434,770,main,negativefb,-99,easy,,0.6002038000001448,['n'],1,right,['2'],5,0.3100433999998131,19,,2,18,Vrouw,Rechts,1,
,dotcolour,xotask,xotask,3,6,435,771,main,negativefb,-99,hard,,1.418317399999978,['n'],1,right,['3'],4,0.35374629999978424,39,,2,18,Vrouw,Rechts,1,
,dotcolour,xotask,xotask,4,6,436,772,main,negativefb,-99,average,,0.73532460000024,['c'],1,left,['2'],5,0.7834982999997919,55,,2,18,Vrouw,Rechts,1,
,dotcolour,xotask,xotask,5,6,437,773,main,negativefb,-99,hard,,1.5675535999998829,['c'],1,left,['3'],4,0.32171370000014576,44,,2,18,Vrouw,Rechts,1,
,dotcolour,xotask,xotask,6,6,438,774,main,negativefb,-99,average,,0.6181816999996954,['n'],1,right,['3'],4,0.24527740000030462,29,,2,18,Vrouw,Rechts,1,
,dotcolour,xotask,xotask,7,6,439,775,main,negativefb,-99,easy,,0.8849362999999357,['c'],1,left,['2'],5,0.20114840000042022,63,,2,18,Vrouw,Rechts,1,
,dotcolour,xotask,xotask,8,6,440,776,main,negativefb,-99,easy,,1.6352919999999358,['c'],1,left,['2'],5,0.38458399999990434,62,,2,18,Vrouw,Rechts,1,
,dotcolour,xotask,xotask,9,6,441,777,main,negativefb,-99,easy,,0.7011986000002253,['n'],1,right,['2'],5,0.4700944999999592,17,,2,18,Vrouw,Rechts,1,
,dotcolour,xotask,xotask,10,6,442,778,main,negativefb,-99,hard,,1.1842728000001443,['c'],0,right,['2'],5,0.277035000000069,35,,2,18,Vrouw,Rechts,1,
,dotcolour,xotask,xotask,11,6,443,779,main,negativefb,-99,average,,0.6176398000002337,['c'],1,left,['2'],5,0.570150200000171,54,,2,18,Vrouw,Rechts,1,
,dotcolour,xotask,xotask,12,6,444,780,main,negativefb,-99,hard,,1.1017624999999498,['c'],1,left,['3'],4,0.20066380000025674,44,,2,18,Vrouw,Rechts,1,
,dotcolour,xotask,xotask,13,6,445,781,main,negativefb,-99,easy,,0.7335072000000764,['n'],1,right,['2'],5,0.2591803999998774,18,,2,18,Vrouw,Rechts,1,
,dotcolour,xotask,xotask,14,6,446,782,main,negativefb,-99,average,,0.6681176000001869,['n'],1,right,['2'],5,0.1671331000002283,26,,2,18,Vrouw,Rechts,1,
,dotcolour,xotask,xotask,15,6,447,783,main,negativefb,-99,average,,1.0346362999998746,['c'],1,left,['2'],5,0.45571800000016083,51,,2,18,Vrouw,Rechts,1,
,dotcolour,xotask,xotask,16,6,448,784,main,negativefb,-99,easy,,0.7171296999999868,['n'],1,right,['3'],4,0.29797129999997196,17,,2,18,Vrouw,Rechts,1,
,dotcolour,xotask,xotask,17,6,449,785,main,negativefb,-99,hard,,1.401014000000032,['c'],1,left,['3'],4,0.20718370000031427,41,,2,18,Vrouw,Rechts,1,
,dotcolour,xotask,xotask,18,6,450,786,main,negativefb,-99,hard,,0.7507394999997814,['c'],0,right,['3'],4,0.1452849000002061,39,,2,18,Vrouw,Rechts,1,
,dotcolour,xotask,xotask,19,6,451,787,main,negativefb,-99,average,,0.5665110999998433,['n'],1,right,['3'],4,0.1340541999998095,25,,2,18,Vrouw,Rechts,1,
,dotcolour,xotask,xotask,20,6,452,788,main,negativefb,-99,easy,,0.7676735000000008,['c'],1,left,['3'],4,0.11497989999998026,62,,2,18,Vrouw,Rechts,1,
,dotcolour,xotask,xotask,21,6,453,789,main,negativefb,-99,easy,,1.3683412000000317,['c'],1,left,['2'],5,0.6637746999999763,61,,2,18,Vrouw,Rechts,1,
,dotcolour,xotask,xotask,22,6,454,790,main,negativefb,-99,average,,0.6500821999998152,['c'],1,left,['3'],4,0.21165209999981016,54,,2,18,Vrouw,Rechts,1,
,dotcolour,xotask,xotask,23,6,455,791,main,negativefb,-99,easy,,0.5677147000001241,['n'],1,right,['2'],5,0.22259140000005573,16,,2,18,Vrouw,Rechts,1,
,dotcolour,xotask,xotask,24,6,456,792,main,negativefb,-99,easy,,0.5844207000000097,['n'],1,right,['2'],5,0.19082049999997253,19,,2,18,Vrouw,Rechts,1,
,dotcolour,xotask,xotask,25,6,457,793,main,negativefb,-99,average,,0.7017510000000584,['c'],1,left,['3'],4,0.10006590000011784,54,,2,18,Vrouw,Rechts,1,
,dotcolour,xotask,xotask,26,6,458,794,main,negativefb,-99,hard,,0.6509129000000939,['c'],1,left,['3'],4,0.11903190000020913,45,,2,18,Vrouw,Rechts,1,
,dotcolour,xotask,xotask,27,6,459,795,main,negativefb,-99,easy,,0.6349532999997791,['c'],1,left,['2'],5,0.22549500000013722,63,,2,18,Vrouw,Rechts,1,
,dotcolour,xotask,xotask,28,6,460,796,main,negativefb,-99,average,,0.7846832000000177,['n'],1,right,['3'],4,0.38617100000010396,29,,2,18,Vrouw,Rechts,1,
,dotcolour,xotask,xotask,29,6,461,797,main,negativefb,-99,average,,0.7504788000001099,['c'],1,left,['2'],5,0.2934127999997145,51,,2,18,Vrouw,Rechts,1,
,dotcolour,xotask,xotask,30,6,462,798,main,negativefb,-99,hard,,1.300402600000325,['n'],1,right,['3'],4,0.21490970000013476,38,,2,18,Vrouw,Rechts,1,
,dotcolour,xotask,xotask,31,6,463,799,main,negativefb,-99,easy,,0.7504134000000704,['c'],1,left,['2'],5,0.20111560000032114,65,,2,18,Vrouw,Rechts,1,
,dotcolour,xotask,xotask,32,6,464,800,main,negativefb,-99,hard,,2.3012917000000925,['c'],0,right,['2'],5,0.30987819999973,39,,2,18,Vrouw,Rechts,1,
,dotcolour,xotask,xotask,33,6,465,801,main,negativefb,-99,average,,2.167300599999635,['c'],1,left,['2'],5,0.14785359999996217,55,,2,18,Vrouw,Rechts,1,
,dotcolour,xotask,xotask,34,6,466,802,main,negativefb,-99,hard,,1.4669598999998925,['c'],1,left,['3'],4,0.23667230000000927,45,,2,18,Vrouw,Rechts,1,
,dotcolour,xotask,xotask,35,6,467,803,main,negativefb,-99,average,,1.1506423999999242,['c'],1,left,['3'],4,0.18948950000003606,53,,2,18,Vrouw,Rechts,1,
,dotcolour,xotask,xotask,36,6,468,804,main,negativefb,-99,hard,,1.050423199999841,['n'],0,left,['3'],4,0.10881979999976465,41,,2,18,Vrouw,Rechts,1,
,dotcolour,xotask,xotask,37,6,469,805,main,negativefb,-99,average,,0.8340822999998636,['n'],1,right,['3'],4,0.08880980000003547,25,,2,18,Vrouw,Rechts,1,
,dotcolour,xotask,xotask,38,6,470,806,main,negativefb,-99,average,,0.7172842999998466,['n'],1,right,['2'],5,0.1135034000003543,26,,2,18,Vrouw,Rechts,1,
,dotcolour,xotask,xotask,39,6,471,807,main,negativefb,-99,average,,0.7178100999999515,['n'],1,right,['2'],5,0.11328919999959908,27,,2,18,Vrouw,Rechts,1,
,dotcolour,xotask,xotask,40,6,472,808,main,negativefb,-99,easy,,0.5507414000003337,['n'],1,right,['2'],5,0.09643229999983305,19,,2,18,Vrouw,Rechts,1,
,dotcolour,xotask,xotask,41,6,473,809,main,negativefb,-99,easy,,1.9341168000000835,['c'],1,left,['2'],5,0.22360389999994368,62,,2,18,Vrouw,Rechts,1,
,dotcolour,xotask,xotask,42,6,474,810,main,negativefb,-99,average,,0.7003501999997752,['n'],1,right,['3'],4,0.13962919999994483,29,,2,18,Vrouw,Rechts,1,
,dotcolour,xotask,xotask,43,6,475,811,main,negativefb,-99,average,,0.7342714999999771,['n'],1,right,['3'],4,0.11331620000009934,28,,2,18,Vrouw,Rechts,1,
,dotcolour,xotask,xotask,44,6,476,812,main,negativefb,-99,average,,0.8503765000000385,['n'],1,right,['3'],4,0.17296230000010837,26,,2,18,Vrouw,Rechts,1,
,dotcolour,xotask,xotask,45,6,477,813,main,negativefb,-99,easy,,2.2515465999999833,['n'],0,left,['3'],4,0.3483224000001428,62,,2,18,Vrouw,Rechts,1,
,dotcolour,xotask,xotask,46,6,478,814,main,negativefb,-99,hard,,0.7665170000000217,['n'],1,right,['3'],4,0.8958394000001135,38,,2,18,Vrouw,Rechts,1,
,dotcolour,xotask,xotask,47,6,479,815,main,negativefb,-99,easy,,0.718237400000362,['n'],1,right,['2'],5,0.209373499999856,16,,2,18,Vrouw,Rechts,1,
,dotcolour,xotask,xotask,48,6,480,816,main,negativefb,-99,average,,1.1836600999999973,['c'],1,left,['3'],4,0.313979599999584,52,,2,18,Vrouw,Rechts,1,
,dotcolour,xotask,xotask,49,6,481,817,main,negativefb,-99,hard,,1.6181102000000465,['n'],0,left,['2'],5,0.16621299999997063,45,,2,18,Vrouw,Rechts,1,
,dotcolour,xotask,xotask,50,6,482,818,main,negativefb,-99,easy,,0.7171849999999722,['n'],1,right,['2'],5,0.282959000000119,17,,2,18,Vrouw,Rechts,1,
,dotcolour,xotask,xotask,51,6,483,819,main,negativefb,-99,hard,,1.2676624999999149,['n'],1,right,['2'],5,0.11804340000026059,35,,2,18,Vrouw,Rechts,1,
,dotcolour,xotask,xotask,52,6,484,820,main,negativefb,-99,hard,,0.9672413000002962,['c'],1,left,['3'],4,0.23496569999997519,42,,2,18,Vrouw,Rechts,1,
,dotcolour,xotask,xotask,53,6,485,821,main,negativefb,-99,easy,,0.7176698999996916,['n'],1,right,['3'],4,0.25419330000022455,17,,2,18,Vrouw,Rechts,1,
,dotcolour,xotask,xotask,54,6,486,822,main,negativefb,-99,easy,,1.0502234999999018,['c'],1,left,['2'],5,0.41874830000006114,63,,2,18,Vrouw,Rechts,1,
,dotcolour,xotask,xotask,55,6,487,823,main,negativefb,-99,hard,,1.3164606999998796,['c'],1,left,['2'],5,0.2704122999998617,42,,2,18,Vrouw,Rechts,1,
,dotcolour,xotask,xotask,56,6,488,824,main,negativefb,-99,hard,,1.7515481999998883,['n'],1,right,['3'],4,0.16588309999997364,36,,2,18,Vrouw,Rechts,1,
,dotcolour,xotask,xotask,57,6,489,825,main,negativefb,-99,average,,0.601745800000117,['c'],1,left,['3'],4,0.14327240000011443,54,,2,18,Vrouw,Rechts,1,
,dotcolour,xotask,xotask,58,6,490,826,main,negativefb,-99,hard,,0.9018755000001875,['n'],0,left,['3'],4,0.1108737999998084,42,,2,18,Vrouw,Rechts,1,
,dotcolour,xotask,xotask,59,6,491,827,main,negativefb,-99,hard,,0.8852627000001121,['n'],1,right,['3'],4,0.11280450000003839,36,,2,18,Vrouw,Rechts,1,
,dotcolour,xotask,xotask,60,6,492,828,main,negativefb,-99,average,,0.6503084000000854,['n'],1,right,['3'],4,0.12305330000026515,26,,2,18,Vrouw,Rechts,1,
,dotcolour,xotask,xotask,61,6,493,829,main,negativefb,-99,hard,,1.1340101000000686,['n'],0,left,['3'],4,0.16204609999977038,43,,2,18,Vrouw,Rechts,1,
,dotcolour,xotask,xotask,62,6,494,830,main,negativefb,-99,hard,,1.1005973999999696,['c'],1,left,['3'],4,0.11270210000020597,43,,2,18,Vrouw,Rechts,1,
,dotcolour,xotask,xotask,63,6,495,831,main,negativefb,-99,average,,0.6177625000000262,['c'],1,left,['3'],4,0.10871919999999591,53,,2,18,Vrouw,Rechts,1,
,dotcolour,xotask,xotask,64,6,496,832,main,negativefb,-99,average,,0.6177593000002162,['c'],1,left,['3'],4,0.15260999999964042,52,,2,18,Vrouw,Rechts,1,
,dotcolour,xotask,xotask,65,6,497,833,main,negativefb,-99,easy,,1.1346292999996876,['c'],1,left,['3'],4,0.08616989999973157,65,,2,18,Vrouw,Rechts,1,
,dotcolour,xotask,xotask,66,6,498,834,main,negativefb,-99,easy,,0.6681613000000652,['n'],1,right,['2'],5,0.27289459999974497,16,,2,18,Vrouw,Rechts,1,
,dotcolour,xotask,xotask,67,6,499,835,main,negativefb,-99,easy,,1.6517060999999558,['c'],1,left,['2'],5,0.24476860000004308,63,,2,18,Vrouw,Rechts,1,
,dotcolour,xotask,xotask,68,6,500,836,main,negativefb,-99,hard,,2.3673291000000063,['c'],0,right,['3'],4,0.19709000000011656,38,,2,18,Vrouw,Rechts,1,
,dotcolour,xotask,xotask,69,6,501,837,main,negativefb,-99,hard,,0.6506310999998277,['n'],1,right,['3'],4,0.17259169999988444,35,,2,18,Vrouw,Rechts,1,
,dotcolour,xotask,xotask,70,6,502,838,main,negativefb,-99,easy,,0.6841973999999027,['c'],1,left,['2'],5,0.14713860000028944,62,,2,18,Vrouw,Rechts,1,
,dotcolour,xotask,xotask,71,6,503,839,main,negativefb,-99,hard,,2.384759799999756,['n'],1,right,['3'],4,0.5758167999997568,35,,2,18,Vrouw,Rechts,1,
,dotcolour,xotask,xotask,0,7,504,840,main,negativefb,-99,easy,,0.5339169000003494,['n'],1,right,['3'],4,0.25585789999968256,19,,2,18,Vrouw,Rechts,1,
,dotcolour,xotask,xotask,1,7,505,841,main,negativefb,-99,hard,,0.9174912000003133,['n'],1,right,['3'],4,0.45855459999984305,37,,2,18,Vrouw,Rechts,1,
,dotcolour,xotask,xotask,2,7,506,842,main,negativefb,-99,hard,,0.9509305000001405,['n'],0,left,['3'],4,0.09104210000032253,43,,2,18,Vrouw,Rechts,1,
,dotcolour,xotask,xotask,3,7,507,843,main,negativefb,-99,easy,,0.6168572000001404,['c'],1,left,['2'],5,0.2956216000002314,63,,2,18,Vrouw,Rechts,1,
,dotcolour,xotask,xotask,4,7,508,844,main,negativefb,-99,hard,,0.9344240999998874,['n'],0,left,['3'],4,0.16734170000017912,43,,2,18,Vrouw,Rechts,1,
,dotcolour,xotask,xotask,5,7,509,845,main,negativefb,-99,easy,,0.5007037999998829,['n'],1,right,['3'],4,0.14922149999983958,17,,2,18,Vrouw,Rechts,1,
,dotcolour,xotask,xotask,6,7,510,846,main,negativefb,-99,easy,,0.7011841999997159,['c'],1,left,['2'],5,0.2602182000000539,61,,2,18,Vrouw,Rechts,1,
,dotcolour,xotask,xotask,7,7,511,847,main,negativefb,-99,hard,,0.7004793000000973,['n'],1,right,['3'],4,0.5905310000002828,35,,2,18,Vrouw,Rechts,1,
,dotcolour,xotask,xotask,8,7,512,848,main,negativefb,-99,easy,,0.6837596000000303,['c'],1,left,['2'],5,0.28558109999994485,63,,2,18,Vrouw,Rechts,1,
,dotcolour,xotask,xotask,9,7,513,849,main,negativefb,-99,average,,0.7836486000001059,['n'],1,right,['2'],5,0.7705697000001237,29,,2,18,Vrouw,Rechts,1,
,dotcolour,xotask,xotask,10,7,514,850,main,negativefb,-99,average,,0.6845121999999719,['c'],1,left,['2'],5,0.305202300000019,54,,2,18,Vrouw,Rechts,1,
,dotcolour,xotask,xotask,11,7,515,851,main,negativefb,-99,average,,1.1510105000002113,['c'],1,left,['2'],5,0.3045348999999078,53,,2,18,Vrouw,Rechts,1,
,dotcolour,xotask,xotask,12,7,516,852,main,negativefb,-99,hard,,0.5835713999999825,['n'],1,right,['3'],4,0.23735279999982595,37,,2,18,Vrouw,Rechts,1,
,dotcolour,xotask,xotask,13,7,517,853,main,negativefb,-99,easy,,0.7666408000000047,['c'],1,left,['2'],5,0.3265982000002623,63,,2,18,Vrouw,Rechts,1,
,dotcolour,xotask,xotask,14,7,518,854,main,negativefb,-99,easy,,0.7181501000000026,['c'],1,left,['2'],5,0.18158219999986613,61,,2,18,Vrouw,Rechts,1,
,dotcolour,xotask,xotask,15,7,519,855,main,negativefb,-99,easy,,0.5168327999999747,['n'],1,right,['2'],5,0.17104280000012295,19,,2,18,Vrouw,Rechts,1,
,dotcolour,xotask,xotask,16,7,520,856,main,negativefb,-99,easy,,0.5337043999998059,['n'],1,right,['2'],5,0.09466500000007727,15,,2,18,Vrouw,Rechts,1,
,dotcolour,xotask,xotask,17,7,521,857,main,negativefb,-99,hard,,1.367894299999989,['n'],0,left,['3'],4,0.12579539999978806,43,,2,18,Vrouw,Rechts,1,
,dotcolour,xotask,xotask,18,7,522,858,main,negativefb,-99,average,,0.6173275999999532,['c'],1,left,['3'],4,0.11344909999979791,54,,2,18,Vrouw,Rechts,1,
,dotcolour,xotask,xotask,19,7,523,859,main,negativefb,-99,average,,0.6829450999998699,['n'],1,right,['3'],4,0.09835729999986143,26,,2,18,Vrouw,Rechts,1,
,dotcolour,xotask,xotask,20,7,524,860,main,negativefb,-99,easy,,0.633502099999987,['n'],1,right,['2'],5,0.20604530000036902,17,,2,18,Vrouw,Rechts,1,
,dotcolour,xotask,xotask,21,7,525,861,main,negativefb,-99,hard,,0.7675732999996399,['c'],0,right,['3'],4,0.20002400000021225,37,,2,18,Vrouw,Rechts,1,
,dotcolour,xotask,xotask,22,7,526,862,main,negativefb,-99,average,,0.5005440000004455,['n'],1,right,['2'],5,0.14043369999990318,28,,2,18,Vrouw,Rechts,1,
,dotcolour,xotask,xotask,23,7,527,863,main,negativefb,-99,easy,,0.8998814000001403,['c'],1,left,['2'],5,0.11524700000018129,64,,2,18,Vrouw,Rechts,1,
,dotcolour,xotask,xotask,24,7,528,864,main,negativefb,-99,easy,,0.6166469999998299,['n'],1,right,['2'],5,0.14317159999973228,16,,2,18,Vrouw,Rechts,1,
,dotcolour,xotask,xotask,25,7,529,865,main,negativefb,-99,easy,,0.6503394999999728,['c'],1,left,['2'],5,0.30441879999989396,61,,2,18,Vrouw,Rechts,1,
,dotcolour,xotask,xotask,26,7,530,866,main,negativefb,-99,average,,0.8018875999996453,['c'],1,left,['2'],5,0.1654008000000431,55,,2,18,Vrouw,Rechts,1,
,dotcolour,xotask,xotask,27,7,531,867,main,negativefb,-99,hard,,0.7683030999996845,['n'],1,right,['3'],4,0.19227589999991324,36,,2,18,Vrouw,Rechts,1,
,dotcolour,xotask,xotask,28,7,532,868,main,negativefb,-99,average,,0.5339041000001998,['n'],1,right,['3'],4,0.1085640000001149,25,,2,18,Vrouw,Rechts,1,
,dotcolour,xotask,xotask,29,7,533,869,main,negativefb,-99,easy,,0.7666709999998602,['n'],1,right,['3'],4,0.11467779999975392,18,,2,18,Vrouw,Rechts,1,
,dotcolour,xotask,xotask,30,7,534,870,main,negativefb,-99,average,,0.5004970999998477,['n'],1,right,['2'],5,0.18714730000010604,26,,2,18,Vrouw,Rechts,1,
,dotcolour,xotask,xotask,31,7,535,871,main,negativefb,-99,hard,,0.5508268999997199,['c'],1,left,['3'],4,0.36630920000015976,44,,2,18,Vrouw,Rechts,1,
,dotcolour,xotask,xotask,32,7,536,872,main,negativefb,-99,hard,,2.0330371999998533,['c'],0,right,['3'],4,0.20599459999993996,36,,2,18,Vrouw,Rechts,1,
,dotcolour,xotask,xotask,33,7,537,873,main,negativefb,-99,hard,,1.3842518000001292,['n'],1,right,['3'],4,0.11947289999989152,37,,2,18,Vrouw,Rechts,1,
,dotcolour,xotask,xotask,34,7,538,874,main,negativefb,-99,hard,,0.9669948999999178,['c'],1,left,['3'],4,0.14894709999998668,42,,2,18,Vrouw,Rechts,1,
,dotcolour,xotask,xotask,35,7,539,875,main,negativefb,-99,average,,0.6178509999999733,['c'],1,left,['2'],5,0.27882180000005974,55,,2,18,Vrouw,Rechts,1,
,dotcolour,xotask,xotask,36,7,540,876,main,negativefb,-99,easy,,0.5838350999997601,['n'],1,right,['2'],5,0.2539071999999578,17,,2,18,Vrouw,Rechts,1,
,dotcolour,xotask,xotask,37,7,541,877,main,negativefb,-99,average,,0.7840507000000798,['c'],1,left,['2'],5,0.15705790000038178,55,,2,18,Vrouw,Rechts,1,
,dotcolour,xotask,xotask,38,7,542,878,main,negativefb,-99,hard,,1.1831512999997358,['n'],1,right,['3'],4,0.24896720000015193,37,,2,18,Vrouw,Rechts,1,
,dotcolour,xotask,xotask,39,7,543,879,main,negativefb,-99,average,,0.8175559000001158,['c'],1,left,['3'],4,0.15858419999995021,53,,2,18,Vrouw,Rechts,1,
,dotcolour,xotask,xotask,40,7,544,880,main,negativefb,-99,hard,,2.317523600000186,['n'],0,left,['3'],4,0.16530490000013742,41,,2,18,Vrouw,Rechts,1,
,dotcolour,xotask,xotask,41,7,545,881,main,negativefb,-99,hard,,0.6850187999998525,['n'],1,right,['3'],4,0.12328269999989061,38,,2,18,Vrouw,Rechts,1,
,dotcolour,xotask,xotask,42,7,546,882,main,negativefb,-99,easy,,0.6840049000002182,['n'],1,right,['2'],5,0.25206059999982244,18,,2,18,Vrouw,Rechts,1,
,dotcolour,xotask,xotask,43,7,547,883,main,negativefb,-99,average,,0.5669900999996571,['n'],1,right,['2'],5,0.16448730000001888,25,,2,18,Vrouw,Rechts,1,
,dotcolour,xotask,xotask,44,7,548,884,main,negativefb,-99,easy,,0.8015879999998106,['c'],1,left,['3'],4,0.25460629999997764,65,,2,18,Vrouw,Rechts,1,
,dotcolour,xotask,xotask,45,7,549,885,main,negativefb,-99,hard,,1.1514806999998655,['n'],0,left,['3'],4,0.1271271999999044,42,,2,18,Vrouw,Rechts,1,
,dotcolour,xotask,xotask,46,7,550,886,main,negativefb,-99,average,,1.0351034999998774,['n'],1,right,['3'],4,0.15450529999998253,29,,2,18,Vrouw,Rechts,1,
,dotcolour,xotask,xotask,47,7,551,887,main,negativefb,-99,easy,,0.7836461000001691,['c'],1,left,['2'],5,0.21302550000018527,62,,2,18,Vrouw,Rechts,1,
,dotcolour,xotask,xotask,48,7,552,888,main,negativefb,-99,easy,,0.6180273999998462,['c'],1,left,['2'],5,0.2139194999999745,63,,2,18,Vrouw,Rechts,1,
,dotcolour,xotask,xotask,49,7,553,889,main,negativefb,-99,average,,0.5499632999999449,['c'],1,left,['2'],5,0.2722680000001674,55,,2,18,Vrouw,Rechts,1,
,dotcolour,xotask,xotask,50,7,554,890,main,negativefb,-99,easy,,0.582808500000283,['n'],1,right,['2'],5,0.3747951999998804,19,,2,18,Vrouw,Rechts,1,
,dotcolour,xotask,xotask,51,7,555,891,main,negativefb,-99,hard,,1.1006403999999748,['c'],0,right,['3'],4,0.189589700000397,39,,2,18,Vrouw,Rechts,1,
,dotcolour,xotask,xotask,52,7,556,892,main,negativefb,-99,average,,0.6180116999998972,['c'],1,left,['2'],5,0.2860262999997758,53,,2,18,Vrouw,Rechts,1,
,dotcolour,xotask,xotask,53,7,557,893,main,negativefb,-99,hard,,1.567822299999989,['c'],1,left,['3'],4,0.23624759999984235,43,,2,18,Vrouw,Rechts,1,
,dotcolour,xotask,xotask,54,7,558,894,main,negativefb,-99,easy,,0.7509487999996054,['c'],1,left,['2'],5,0.25320220000003246,64,,2,18,Vrouw,Rechts,1,
,dotcolour,xotask,xotask,55,7,559,895,main,negativefb,-99,average,,1.95096760000024,['n'],1,right,['2'],5,1.2063113000003796,28,,2,18,Vrouw,Rechts,1,
,dotcolour,xotask,xotask,56,7,560,896,main,negativefb,-99,easy,,0.6507751999997708,['c'],1,left,['2'],5,0.22145399999999427,64,,2,18,Vrouw,Rechts,1,
,dotcolour,xotask,xotask,57,7,561,897,main,negativefb,-99,hard,,1.350806499999635,['n'],0,left,['3'],4,0.16705499999989115,43,,2,18,Vrouw,Rechts,1,
,dotcolour,xotask,xotask,58,7,562,898,main,negativefb,-99,hard,,1.6679062999996859,['n'],1,right,['3'],4,0.7023991000000933,36,,2,18,Vrouw,Rechts,1,
,dotcolour,xotask,xotask,59,7,563,899,main,negativefb,-99,easy,,0.6001928000000589,['n'],1,right,['2'],5,1.0593911999999364,19,,2,18,Vrouw,Rechts,1,
,dotcolour,xotask,xotask,60,7,564,900,main,negativefb,-99,average,,0.6184779000000162,['c'],1,left,['3'],4,0.38495600000032937,54,,2,18,Vrouw,Rechts,1,
,dotcolour,xotask,xotask,61,7,565,901,main,negativefb,-99,hard,,0.6838510999996288,['c'],1,left,['3'],4,0.3671950999996625,45,,2,18,Vrouw,Rechts,1,
,dotcolour,xotask,xotask,62,7,566,902,main,negativefb,-99,average,,0.8017924999999195,['c'],1,left,['3'],4,0.1687685000001693,51,,2,18,Vrouw,Rechts,1,
,dotcolour,xotask,xotask,63,7,567,903,main,negativefb,-99,average,,0.5328769999996439,['n'],1,right,['2'],5,0.47023680000029344,27,,2,18,Vrouw,Rechts,1,
,dotcolour,xotask,xotask,64,7,568,904,main,negativefb,-99,hard,,1.3677228999999897,['c'],1,left,['3'],4,0.3091218999998091,42,,2,18,Vrouw,Rechts,1,
,dotcolour,xotask,xotask,65,7,569,905,main,negativefb,-99,average,,1.801119799999924,['n'],1,right,['3'],4,0.7537711999998464,26,,2,18,Vrouw,Rechts,1,
,dotcolour,xotask,xotask,66,7,570,906,main,negativefb,-99,average,,0.8514958000000661,['n'],1,right,['3'],4,0.10666509999964546,25,,2,18,Vrouw,Rechts,1,
,dotcolour,xotask,xotask,67,7,571,907,main,negativefb,-99,easy,,0.6174787999998443,['n'],1,right,['3'],4,0.1423768999998174,16,,2,18,Vrouw,Rechts,1,
,dotcolour,xotask,xotask,68,7,572,908,main,negativefb,-99,hard,,1.100326600000244,['c'],1,left,['3'],4,0.6058069000000614,41,,2,18,Vrouw,Rechts,1,
,dotcolour,xotask,xotask,69,7,573,909,main,negativefb,-99,hard,,1.4010349999998652,['c'],0,right,['3'],4,0.1259635999999773,39,,2,18,Vrouw,Rechts,1,
,dotcolour,xotask,xotask,70,7,574,910,main,negativefb,-99,average,,0.7672041999999237,['n'],1,right,['3'],4,0.35560209999994186,28,,2,18,Vrouw,Rechts,1,
,dotcolour,xotask,xotask,71,7,575,911,main,negativefb,-99,average,,1.049603400000251,['c'],1,left,['2'],5,0.2850271000002067,53,,2,18,Vrouw,Rechts,1,
,xotask,xotask,xotask,0,0,0,672,training,negativefb,79,easy,9,1.0336452000001373,['n'],1,right,['2'],5,0.652395599999636,,,2,18,Vrouw,Rechts,1,
,xotask,xotask,xotask,1,0,1,673,training,negativefb,47,average,64,0.7679035000001022,['c'],1,left,['2'],5,0.29097760000013295,,,2,18,Vrouw,Rechts,1,
