starttime,task,fbtask,firsttask,withinblocktrial,block,withintasktrial,trial,running,feedback,fbscore,difflevel,reddots,rt,resp,cor,cresp,conf_press,cj,RTconf,n_xes,stoptime,sub,age,gender,handedness,session,
1714638886,dotcolour,dotcolour,xotask,0,0,0,0,training,positivefb,92,hard,35,3.0172458999995797,['n'],1,right,['3'],4,1.7266142000007676,,,4,20,Vrouw,Rechts,1,
,dotcolour,dotcolour,xotask,1,0,1,1,training,positivefb,97,easy,65,1.716417999999976,['c'],1,left,['1'],6,1.7561799999994037,,,4,20,Vrouw,Rechts,1,
,dotcolour,dotcolour,xotask,2,0,2,2,training,positivefb,96,hard,36,1.7336031000004368,['n'],1,right,['1'],6,2.143998499999725,,,4,20,Vrouw,Rechts,1,
,dotcolour,dotcolour,xotask,3,0,3,3,training,positivefb,95,easy,16,3.1508567000000767,['n'],1,right,['3'],4,2.116755299999568,,,4,20,Vrouw,Rechts,1,
,dotcolour,dotcolour,xotask,4,0,4,4,training,positivefb,89,average,52,2.400503800000479,['c'],1,left,['1'],6,0.9914167000006273,,,4,20,Vrouw,Rechts,1,
,dotcolour,dotcolour,xotask,5,0,5,5,training,positivefb,85,hard,42,2.800434700000551,['c'],1,left,['2'],5,1.1754113999995752,,,4,20,Vrouw,Rechts,1,
,dotcolour,dotcolour,xotask,6,0,6,6,training,positivefb,99,average,26,1.450212100000499,['n'],1,right,['9'],2,1.9031804999995074,,,4,20,Vrouw,Rechts,1,
,dotcolour,dotcolour,xotask,7,0,7,7,training,positivefb,70,hard,41,4.066808999999921,['n'],0,left,['8'],3,1.007440499999575,,,4,20,Vrouw,Rechts,1,
,dotcolour,dotcolour,xotask,8,0,8,8,training,positivefb,90,hard,36,1.4341425000002346,['c'],0,right,['3'],4,1.0540532000004532,,,4,20,Vrouw,Rechts,1,
,dotcolour,dotcolour,xotask,9,0,9,9,training,positivefb,88,average,52,1.1670613999995112,['c'],1,left,['2'],5,1.0294690000000628,,,4,20,Vrouw,Rechts,1,
,dotcolour,dotcolour,xotask,10,0,10,10,training,positivefb,79,average,26,0.9505829999998241,['n'],1,right,['2'],5,2.7756769999996322,,,4,20,Vrouw,Rechts,1,
,dotcolour,dotcolour,xotask,11,0,11,11,training,positivefb,100,easy,19,1.3839726000005612,['n'],1,right,['2'],5,3.2170554000003904,,,4,20,Vrouw,Rechts,1,
,dotcolour,dotcolour,xotask,12,0,12,12,training,positivefb,87,easy,16,1.6160372999993342,['n'],1,right,['1'],6,0.782180100000005,,,4,20,Vrouw,Rechts,1,
,dotcolour,dotcolour,xotask,13,0,13,13,training,positivefb,95,average,29,1.4164478000002418,['n'],1,right,['2'],5,0.9347307999996701,,,4,20,Vrouw,Rechts,1,
,dotcolour,dotcolour,xotask,14,0,14,14,training,positivefb,51,hard,39,2.499342600000091,['n'],1,right,['3'],4,1.0694063999999344,,,4,20,Vrouw,Rechts,1,
,dotcolour,dotcolour,xotask,15,0,15,15,training,positivefb,87,average,55,1.2342588000001342,['c'],1,left,['1'],6,1.5617190000002665,,,4,20,Vrouw,Rechts,1,
,dotcolour,dotcolour,xotask,16,0,16,16,training,positivefb,96,easy,64,0.850422499999695,['c'],1,left,['1'],6,0.7925619999996343,,,4,20,Vrouw,Rechts,1,
,dotcolour,dotcolour,xotask,17,0,17,17,training,positivefb,96,easy,63,0.8679472000003443,['c'],1,left,['1'],6,0.5510753999997178,,,4,20,Vrouw,Rechts,1,
,dotcolour,dotcolour,xotask,18,0,18,18,training,positivefb,96,average,52,1.0676498999991964,['c'],1,left,['1'],6,0.397734500000297,,,4,20,Vrouw,Rechts,1,
,dotcolour,dotcolour,xotask,19,0,19,19,training,positivefb,99,average,25,0.633358699999917,['n'],1,right,['1'],6,0.6603095999998914,,,4,20,Vrouw,Rechts,1,
,dotcolour,dotcolour,xotask,20,0,20,20,training,positivefb,81,hard,44,0.9997581999996328,['n'],0,left,['1'],6,0.2505929999997534,,,4,20,Vrouw,Rechts,1,
,dotcolour,dotcolour,xotask,21,0,21,21,training,positivefb,92,average,53,1.1656349000004411,['c'],1,left,['1'],6,0.8663410999997723,,,4,20,Vrouw,Rechts,1,
,dotcolour,dotcolour,xotask,22,0,22,22,training,positivefb,86,hard,38,1.9658731999998054,['n'],1,right,['3'],4,1.0490670999997747,,,4,20,Vrouw,Rechts,1,
,dotcolour,dotcolour,xotask,23,0,23,23,training,positivefb,97,hard,39,2.450066500000503,['n'],1,right,['8'],3,1.6453107999996064,,,4,20,Vrouw,Rechts,1,
,dotcolour,dotcolour,xotask,24,0,24,24,training,positivefb,86,hard,41,1.6668699000001652,['n'],0,left,['2'],5,0.7045627000006789,,,4,20,Vrouw,Rechts,1,
,dotcolour,dotcolour,xotask,25,0,25,25,training,positivefb,99,easy,18,0.8491352999999435,['n'],1,right,['2'],5,1.3302218999997422,,,4,20,Vrouw,Rechts,1,
,dotcolour,dotcolour,xotask,26,0,26,26,training,positivefb,99,average,29,1.1832045000001017,['n'],1,right,['1'],6,0.6622206000001825,,,4,20,Vrouw,Rechts,1,
,dotcolour,dotcolour,xotask,27,0,27,27,training,positivefb,91,easy,61,1.1495973000000959,['c'],1,left,['1'],6,0.6786371000007421,,,4,20,Vrouw,Rechts,1,
,dotcolour,dotcolour,xotask,28,0,28,28,training,positivefb,61,hard,41,2.7840087000004132,['n'],0,left,['3'],4,2.1960996999996496,,,4,20,Vrouw,Rechts,1,
,dotcolour,dotcolour,xotask,29,0,29,29,training,positivefb,99,easy,15,1.383817299999464,['n'],1,right,['1'],6,0.5015425999999934,,,4,20,Vrouw,Rechts,1,
,dotcolour,dotcolour,xotask,30,0,30,30,training,positivefb,97,average,53,1.5169715000001815,['c'],1,left,['2'],5,2.9890768000004755,,,4,20,Vrouw,Rechts,1,
,dotcolour,dotcolour,xotask,31,0,31,31,training,positivefb,78,hard,44,2.350756299999375,['n'],0,left,['2'],5,0.7261306999998851,,,4,20,Vrouw,Rechts,1,
,dotcolour,dotcolour,xotask,32,0,32,32,training,positivefb,90,easy,15,1.000153699999828,['n'],1,right,['1'],6,0.4656282000005376,,,4,20,Vrouw,Rechts,1,
,dotcolour,dotcolour,xotask,33,0,33,33,training,positivefb,82,easy,18,0.7329830999997284,['n'],1,right,['1'],6,0.5060822000004919,,,4,20,Vrouw,Rechts,1,
,dotcolour,dotcolour,xotask,34,0,34,34,training,positivefb,87,average,55,0.8164112000004025,['c'],1,left,['1'],6,1.245378499999788,,,4,20,Vrouw,Rechts,1,
,dotcolour,dotcolour,xotask,35,0,35,35,training,positivefb,62,hard,39,3.867110500000308,['c'],0,right,['3'],4,0.8731055999996897,,,4,20,Vrouw,Rechts,1,
,dotcolour,dotcolour,xotask,36,0,36,36,training,positivefb,90,easy,61,1.2012285999999222,['c'],1,left,['1'],6,0.6788018999995984,,,4,20,Vrouw,Rechts,1,
,dotcolour,dotcolour,xotask,37,0,37,37,training,positivefb,100,easy,65,0.9340998999996373,['c'],1,left,['1'],6,1.6146224000003713,,,4,20,Vrouw,Rechts,1,
,dotcolour,dotcolour,xotask,38,0,38,38,training,positivefb,94,average,28,1.1329052999999476,['n'],1,right,['1'],6,0.3040187999995396,,,4,20,Vrouw,Rechts,1,
,dotcolour,dotcolour,xotask,39,0,39,39,training,positivefb,68,hard,39,1.3828606999995827,['c'],0,right,['3'],4,0.5643504999998186,,,4,20,Vrouw,Rechts,1,
,dotcolour,dotcolour,xotask,40,0,40,40,training,positivefb,97,easy,18,1.050671699999839,['n'],1,right,['1'],6,0.6277596999998423,,,4,20,Vrouw,Rechts,1,
,dotcolour,dotcolour,xotask,41,0,41,41,training,positivefb,98,easy,61,1.0505964000003587,['c'],1,left,['1'],6,0.6494763000000603,,,4,20,Vrouw,Rechts,1,
,dotcolour,dotcolour,xotask,42,0,42,42,training,positivefb,51,hard,41,1.6670306999994864,['n'],0,left,['3'],4,0.5411692000006951,,,4,20,Vrouw,Rechts,1,
,dotcolour,dotcolour,xotask,43,0,43,43,training,positivefb,36,hard,41,1.9172152000001006,['n'],0,left,['3'],4,0.41888810000000376,,,4,20,Vrouw,Rechts,1,
,dotcolour,dotcolour,xotask,44,0,44,44,training,positivefb,87,average,26,1.23298960000011,['n'],1,right,['1'],6,0.7130236000002697,,,4,20,Vrouw,Rechts,1,
,dotcolour,dotcolour,xotask,45,0,45,45,training,positivefb,93,hard,43,2.066607899999326,['c'],1,left,['3'],4,0.4180427999999665,,,4,20,Vrouw,Rechts,1,
,dotcolour,dotcolour,xotask,46,0,46,46,training,positivefb,98,average,25,1.4830572000000757,['n'],1,right,['3'],4,0.525768400000743,,,4,20,Vrouw,Rechts,1,
,dotcolour,dotcolour,xotask,47,0,47,47,training,positivefb,96,easy,64,1.066544199999953,['c'],1,left,['1'],6,1.3674434000004112,,,4,20,Vrouw,Rechts,1,
,dotcolour,dotcolour,xotask,48,0,48,48,training,positivefb,96,average,29,1.8331402000003436,['n'],1,right,['1'],6,0.6553369000002931,,,4,20,Vrouw,Rechts,1,
,dotcolour,dotcolour,xotask,49,0,49,49,training,positivefb,95,easy,16,1.499049200000627,['n'],1,right,['1'],6,0.4094974999998158,,,4,20,Vrouw,Rechts,1,
,dotcolour,dotcolour,xotask,50,0,50,50,training,positivefb,86,average,52,3.6671010000000024,['c'],1,left,['8'],3,0.8063740000006874,,,4,20,Vrouw,Rechts,1,
,dotcolour,dotcolour,xotask,51,0,51,51,training,positivefb,80,hard,45,1.8169363999995767,['c'],1,left,['3'],4,0.6936415999998644,,,4,20,Vrouw,Rechts,1,
,dotcolour,dotcolour,xotask,52,0,52,52,training,positivefb,66,easy,15,1.2165310999998837,['n'],1,right,['1'],6,0.6577311000000918,,,4,20,Vrouw,Rechts,1,
,dotcolour,dotcolour,xotask,53,0,53,53,training,positivefb,96,hard,36,2.9997996000001876,['n'],1,right,['3'],4,1.6957940000002054,,,4,20,Vrouw,Rechts,1,
,dotcolour,dotcolour,xotask,54,0,54,54,training,positivefb,95,easy,62,0.9998992999999246,['c'],1,left,['1'],6,0.6121290000000954,,,4,20,Vrouw,Rechts,1,
,dotcolour,dotcolour,xotask,55,0,55,55,training,positivefb,93,average,53,1.0683626000000004,['c'],1,left,['1'],6,0.45740549999936775,,,4,20,Vrouw,Rechts,1,
,dotcolour,dotcolour,xotask,56,0,56,56,training,positivefb,81,hard,39,2.6495336999996653,['c'],0,right,['3'],4,0.9085595000005924,,,4,20,Vrouw,Rechts,1,
,dotcolour,dotcolour,xotask,57,0,57,57,training,positivefb,97,average,52,3.4830825999997614,['c'],1,left,['8'],3,2.181875199999922,,,4,20,Vrouw,Rechts,1,
,dotcolour,dotcolour,xotask,58,0,58,58,training,positivefb,99,average,25,1.184255000000121,['n'],1,right,['1'],6,0.8462501000003613,,,4,20,Vrouw,Rechts,1,
,dotcolour,dotcolour,xotask,59,0,59,59,training,positivefb,94,easy,63,0.8010852000006707,['c'],1,left,['1'],6,0.32505829999990965,,,4,20,Vrouw,Rechts,1,
,dotcolour,dotcolour,xotask,0,1,60,60,training,positivefb,83,average,55,2.7503803999998127,['c'],1,left,['1'],6,0.6389565999998013,,,4,20,Vrouw,Rechts,1,
,dotcolour,dotcolour,xotask,1,1,61,61,training,positivefb,96,average,28,0.8835595000000467,['n'],1,right,['1'],6,0.7536906999994244,,,4,20,Vrouw,Rechts,1,
,dotcolour,dotcolour,xotask,2,1,62,62,training,positivefb,16,hard,43,1.8504532000006293,['n'],0,left,['3'],4,3.0336406999995233,,,4,20,Vrouw,Rechts,1,
,dotcolour,dotcolour,xotask,3,1,63,63,training,positivefb,97,hard,37,2.3171545999994123,['n'],1,right,['3'],4,1.9954614000007496,,,4,20,Vrouw,Rechts,1,
,dotcolour,dotcolour,xotask,4,1,64,64,training,positivefb,91,easy,18,1.1336591999997836,['n'],1,right,['1'],6,0.35840529999950377,,,4,20,Vrouw,Rechts,1,
,dotcolour,dotcolour,xotask,5,1,65,65,training,positivefb,92,hard,45,1.0660391999999774,['c'],1,left,['2'],5,0.7572638000001461,,,4,20,Vrouw,Rechts,1,
,dotcolour,dotcolour,xotask,6,1,66,66,training,positivefb,90,easy,65,1.0349489000000176,['c'],1,left,['1'],6,0.5017508000000817,,,4,20,Vrouw,Rechts,1,
,dotcolour,dotcolour,xotask,7,1,67,67,training,positivefb,69,hard,38,1.0677929000003132,['n'],1,right,['1'],6,0.48791129999972327,,,4,20,Vrouw,Rechts,1,
,dotcolour,dotcolour,xotask,8,1,68,68,training,positivefb,97,hard,37,1.5498130999994828,['n'],1,right,['2'],5,0.9500467999996545,,,4,20,Vrouw,Rechts,1,
,dotcolour,dotcolour,xotask,9,1,69,69,training,positivefb,97,average,54,1.0832653000006758,['c'],1,left,['1'],6,0.41293300000052113,,,4,20,Vrouw,Rechts,1,
,dotcolour,dotcolour,xotask,10,1,70,70,training,positivefb,94,average,26,1.333849000000555,['n'],1,right,['1'],6,0.6874771999991935,,,4,20,Vrouw,Rechts,1,
,dotcolour,dotcolour,xotask,11,1,71,71,training,positivefb,92,average,28,1.5503701999996338,['n'],1,right,['1'],6,0.4462474000001748,,,4,20,Vrouw,Rechts,1,
,dotcolour,dotcolour,xotask,12,1,72,72,training,positivefb,63,hard,43,1.883150900000146,['c'],1,left,['2'],5,1.8092786999995951,,,4,20,Vrouw,Rechts,1,
,dotcolour,dotcolour,xotask,13,1,73,73,training,positivefb,89,average,53,1.466034999999465,['c'],1,left,['1'],6,1.054243999999926,,,4,20,Vrouw,Rechts,1,
,dotcolour,dotcolour,xotask,14,1,74,74,training,positivefb,93,easy,62,0.6670468000002074,['c'],1,left,['1'],6,0.4492890000001353,,,4,20,Vrouw,Rechts,1,
,dotcolour,dotcolour,xotask,15,1,75,75,training,positivefb,91,easy,19,0.9161301999993157,['n'],1,right,['1'],6,0.35455220000039844,,,4,20,Vrouw,Rechts,1,
,dotcolour,dotcolour,xotask,16,1,76,76,training,positivefb,97,average,25,0.6178340999995271,['n'],1,right,['1'],6,0.26833429999987857,,,4,20,Vrouw,Rechts,1,
,dotcolour,dotcolour,xotask,17,1,77,77,training,positivefb,94,hard,45,1.5507599000002301,['n'],0,left,['3'],4,0.9878369999996721,,,4,20,Vrouw,Rechts,1,
,dotcolour,dotcolour,xotask,18,1,78,78,training,positivefb,98,easy,18,0.9013108999997712,['n'],1,right,['1'],6,0.38426409999919997,,,4,20,Vrouw,Rechts,1,
,dotcolour,dotcolour,xotask,19,1,79,79,training,positivefb,49,hard,43,1.5332626999997956,['n'],0,left,['3'],4,1.81206309999925,,,4,20,Vrouw,Rechts,1,
,dotcolour,dotcolour,xotask,20,1,80,80,training,positivefb,42,hard,41,2.4833827999991627,['n'],0,left,['3'],4,1.1755137000000104,,,4,20,Vrouw,Rechts,1,
,dotcolour,dotcolour,xotask,21,1,81,81,training,positivefb,88,average,29,1.4171270000006189,['n'],1,right,['2'],5,1.744245600000795,,,4,20,Vrouw,Rechts,1,
,dotcolour,dotcolour,xotask,22,1,82,82,training,positivefb,89,easy,64,1.5663682000003973,['c'],1,left,['1'],6,0.45138409999981377,,,4,20,Vrouw,Rechts,1,
,dotcolour,dotcolour,xotask,23,1,83,83,training,positivefb,98,easy,18,0.7668597000001682,['n'],1,right,['1'],6,0.28271500000028027,,,4,20,Vrouw,Rechts,1,
,dotcolour,dotcolour,xotask,24,1,84,84,training,positivefb,83,hard,37,1.4506942999996681,['n'],1,right,['3'],4,1.1260371999997005,,,4,20,Vrouw,Rechts,1,
,dotcolour,dotcolour,xotask,25,1,85,85,training,positivefb,83,average,52,2.0330407999999807,['c'],1,left,['1'],6,0.7838146999993114,,,4,20,Vrouw,Rechts,1,
,dotcolour,dotcolour,xotask,26,1,86,86,training,positivefb,91,hard,36,1.1833058000001984,['n'],1,right,['3'],4,0.705690499999946,,,4,20,Vrouw,Rechts,1,
,dotcolour,dotcolour,xotask,27,1,87,87,training,positivefb,99,hard,35,2.083445600000232,['n'],1,right,['2'],5,2.601662099999885,,,4,20,Vrouw,Rechts,1,
,dotcolour,dotcolour,xotask,28,1,88,88,training,positivefb,98,easy,63,1.5168973999998343,['c'],1,left,['1'],6,0.38070520000019314,,,4,20,Vrouw,Rechts,1,
,dotcolour,dotcolour,xotask,29,1,89,89,training,positivefb,65,average,55,2.1012062999998307,['c'],1,left,['1'],6,0.31384170000001177,,,4,20,Vrouw,Rechts,1,
,dotcolour,dotcolour,xotask,30,1,90,90,training,positivefb,98,easy,17,0.7832028000002538,['n'],1,right,['1'],6,0.39076530000056664,,,4,20,Vrouw,Rechts,1,
,dotcolour,dotcolour,xotask,31,1,91,91,training,positivefb,98,average,54,1.14992809999967,['c'],1,left,['2'],5,0.8655232000000979,,,4,20,Vrouw,Rechts,1,
,dotcolour,dotcolour,xotask,32,1,92,92,training,positivefb,94,easy,15,0.7177676999999676,['n'],1,right,['1'],6,0.32174359999953595,,,4,20,Vrouw,Rechts,1,
,dotcolour,dotcolour,xotask,33,1,93,93,training,positivefb,97,average,25,1.0332650000000285,['n'],1,right,['1'],6,0.25159160000021075,,,4,20,Vrouw,Rechts,1,
,dotcolour,dotcolour,xotask,34,1,94,94,training,positivefb,98,average,29,1.0001153000002887,['n'],1,right,['1'],6,0.2904330999999729,,,4,20,Vrouw,Rechts,1,
,dotcolour,dotcolour,xotask,35,1,95,95,training,positivefb,94,easy,65,0.7506245999993553,['c'],1,left,['1'],6,0.3529681999998502,,,4,20,Vrouw,Rechts,1,
,dotcolour,dotcolour,xotask,36,1,96,96,training,positivefb,86,hard,35,0.7169596000003366,['n'],1,right,['1'],6,0.2543982999995933,,,4,20,Vrouw,Rechts,1,
,dotcolour,dotcolour,xotask,37,1,97,97,training,positivefb,97,average,53,0.6989026999999624,['c'],1,left,['1'],6,0.3359833000004073,,,4,20,Vrouw,Rechts,1,
,dotcolour,dotcolour,xotask,38,1,98,98,training,positivefb,97,easy,62,0.7000588000000789,['c'],1,left,['1'],6,0.3267769000003682,,,4,20,Vrouw,Rechts,1,
,dotcolour,dotcolour,xotask,39,1,99,99,training,positivefb,91,easy,65,0.6335178999997879,['c'],1,left,['1'],6,0.31245060000037483,,,4,20,Vrouw,Rechts,1,
,dotcolour,dotcolour,xotask,40,1,100,100,training,positivefb,94,hard,45,1.0850142999997843,['c'],1,left,['2'],5,0.6258619000000181,,,4,20,Vrouw,Rechts,1,
,dotcolour,dotcolour,xotask,41,1,101,101,training,positivefb,83,average,25,0.7181980999994266,['n'],1,right,['1'],6,0.4203091999997923,,,4,20,Vrouw,Rechts,1,
,dotcolour,dotcolour,xotask,42,1,102,102,training,positivefb,73,hard,41,2.7338497000000643,['c'],1,left,['3'],4,0.5824768000002223,,,4,20,Vrouw,Rechts,1,
,dotcolour,dotcolour,xotask,43,1,103,103,training,positivefb,92,easy,18,0.9831617999998343,['n'],1,right,['1'],6,0.2720921999998609,,,4,20,Vrouw,Rechts,1,
,dotcolour,dotcolour,xotask,44,1,104,104,training,positivefb,60,hard,44,1.8327881999994133,['n'],0,left,['3'],4,0.5236562999998569,,,4,20,Vrouw,Rechts,1,
,dotcolour,dotcolour,xotask,45,1,105,105,training,positivefb,93,average,53,0.817400799999632,['c'],1,left,['1'],6,0.26240150000012363,,,4,20,Vrouw,Rechts,1,
,dotcolour,dotcolour,xotask,46,1,106,106,training,positivefb,99,easy,64,0.9833103999999366,['c'],1,left,['1'],6,0.32464989999971294,,,4,20,Vrouw,Rechts,1,
,dotcolour,dotcolour,xotask,47,1,107,107,training,positivefb,92,hard,37,1.1001203000005262,['n'],1,right,['1'],6,0.3564385999998194,,,4,20,Vrouw,Rechts,1,
,dotcolour,dotcolour,xotask,48,1,108,108,training,positivefb,77,hard,36,1.7172692000003735,['n'],1,right,['3'],4,0.3299308000005112,,,4,20,Vrouw,Rechts,1,
,dotcolour,dotcolour,xotask,49,1,109,109,training,positivefb,91,easy,62,0.8180666999996902,['c'],1,left,['1'],6,0.32470829999965645,,,4,20,Vrouw,Rechts,1,
,dotcolour,dotcolour,xotask,50,1,110,110,training,positivefb,96,average,54,1.6488323999992645,['c'],1,left,['3'],4,0.5500107999996544,,,4,20,Vrouw,Rechts,1,
,dotcolour,dotcolour,xotask,51,1,111,111,training,positivefb,91,easy,18,1.0999209999999948,['n'],1,right,['1'],6,0.2277234999992288,,,4,20,Vrouw,Rechts,1,
,dotcolour,dotcolour,xotask,52,1,112,112,training,positivefb,99,easy,19,0.8338216000001921,['n'],1,right,['1'],6,0.4740166000001409,,,4,20,Vrouw,Rechts,1,
,dotcolour,dotcolour,xotask,53,1,113,113,training,positivefb,98,average,51,1.250036999999793,['c'],1,left,['3'],4,1.8687161999996533,,,4,20,Vrouw,Rechts,1,
,dotcolour,dotcolour,xotask,54,1,114,114,training,positivefb,81,hard,36,1.2343857999994725,['n'],1,right,['3'],4,0.5365597999998499,,,4,20,Vrouw,Rechts,1,
,dotcolour,dotcolour,xotask,55,1,115,115,training,positivefb,78,average,29,1.9004752000000735,['n'],1,right,['3'],4,0.15092699999968318,,,4,20,Vrouw,Rechts,1,
,dotcolour,dotcolour,xotask,56,1,116,116,training,positivefb,96,average,25,1.1003695999997944,['n'],1,right,['1'],6,0.3008754000002227,,,4,20,Vrouw,Rechts,1,
,dotcolour,dotcolour,xotask,57,1,117,117,training,positivefb,98,easy,19,0.7827206000001752,['n'],1,right,['1'],6,0.31401259999984177,,,4,20,Vrouw,Rechts,1,
,dotcolour,dotcolour,xotask,58,1,118,118,training,positivefb,88,hard,45,2.1826013999998395,['c'],1,left,['3'],4,0.9265013999993243,,,4,20,Vrouw,Rechts,1,
,dotcolour,dotcolour,xotask,59,1,119,119,training,positivefb,93,easy,64,0.9013998999998876,['c'],1,left,['1'],6,0.3179104999999254,,,4,20,Vrouw,Rechts,1,
,xotask,dotcolour,xotask,0,2,120,120,main,positivefb,-99,hard,,1.9007543999996415,['n'],1,right,['1'],6,0.808743599999616,26,,4,20,Vrouw,Rechts,1,
,xotask,dotcolour,xotask,1,2,121,121,main,positivefb,-99,hard,,1.3686195999998745,['c'],1,left,['1'],6,0.9952060000005076,54,,4,20,Vrouw,Rechts,1,
,xotask,dotcolour,xotask,2,2,122,122,main,positivefb,-99,hard,,2.533948400000554,['c'],1,left,['3'],4,2.1188783999996303,50,,4,20,Vrouw,Rechts,1,
,xotask,dotcolour,xotask,3,2,123,123,main,positivefb,-99,hard,,1.5168691999997463,['c'],1,left,['3'],4,0.8627018000006501,53,,4,20,Vrouw,Rechts,1,
,xotask,dotcolour,xotask,4,2,124,124,main,positivefb,-99,easy,,1.351230399999622,['c'],1,left,['2'],5,0.5749296000003596,74,,4,20,Vrouw,Rechts,1,
,xotask,dotcolour,xotask,5,2,125,125,main,positivefb,-99,easy,,1.3680567999999766,['c'],1,left,['1'],6,0.49066080000011425,71,,4,20,Vrouw,Rechts,1,
,xotask,dotcolour,xotask,6,2,126,126,main,positivefb,-99,easy,,1.4677615999999034,['n'],1,right,['2'],5,2.460823899999923,7,,4,20,Vrouw,Rechts,1,
,xotask,dotcolour,xotask,7,2,127,127,main,positivefb,-99,easy,,1.4510404000002382,['n'],1,right,['1'],6,0.585886599999867,8,,4,20,Vrouw,Rechts,1,
,xotask,dotcolour,xotask,8,2,128,128,main,positivefb,-99,average,,2.034292999999707,['c'],1,left,['2'],5,0.6578655000002982,61,,4,20,Vrouw,Rechts,1,
,xotask,dotcolour,xotask,9,2,129,129,main,positivefb,-99,hard,,3.4336591000001135,['n'],1,right,['8'],3,1.1825729000001957,29,,4,20,Vrouw,Rechts,1,
,xotask,dotcolour,xotask,10,2,130,130,main,positivefb,-99,easy,,1.4506463999996413,['c'],1,left,['3'],4,0.4703023000001849,74,,4,20,Vrouw,Rechts,1,
,xotask,dotcolour,xotask,11,2,131,131,main,positivefb,-99,easy,,1.5504958000001352,['n'],1,right,['2'],5,0.7024243000005299,8,,4,20,Vrouw,Rechts,1,
,xotask,dotcolour,xotask,12,2,132,132,main,positivefb,-99,hard,,2.051095599999826,['c'],1,left,['3'],4,0.4977991000005204,52,,4,20,Vrouw,Rechts,1,
,xotask,dotcolour,xotask,13,2,133,133,main,positivefb,-99,average,,1.1843324000001303,['c'],1,left,['2'],5,0.41474360000029264,64,,4,20,Vrouw,Rechts,1,
,xotask,dotcolour,xotask,14,2,134,134,main,positivefb,-99,easy,,1.1176079999995636,['c'],1,left,['1'],6,0.4261767999996664,74,,4,20,Vrouw,Rechts,1,
,xotask,dotcolour,xotask,15,2,135,135,main,positivefb,-99,hard,,1.2667553000001135,['n'],1,right,['1'],6,0.39204400000016904,25,,4,20,Vrouw,Rechts,1,
,xotask,dotcolour,xotask,16,2,136,136,main,positivefb,-99,average,,1.8339813000002323,['c'],1,left,['3'],4,0.3598575999994864,61,,4,20,Vrouw,Rechts,1,
,xotask,dotcolour,xotask,17,2,137,137,main,positivefb,-99,easy,,0.9020341000004919,['n'],1,right,['1'],6,0.37471819999973377,5,,4,20,Vrouw,Rechts,1,
,xotask,dotcolour,xotask,18,2,138,138,main,positivefb,-99,hard,,1.2677327999999761,['n'],1,right,['1'],6,0.40635569999994914,27,,4,20,Vrouw,Rechts,1,
,xotask,dotcolour,xotask,19,2,139,139,main,positivefb,-99,easy,,1.0521494000004168,['c'],1,left,['2'],5,0.5003608000006352,71,,4,20,Vrouw,Rechts,1,
,xotask,dotcolour,xotask,20,2,140,140,main,positivefb,-99,hard,,1.2686479999993026,['n'],0,left,['1'],6,0.5501868000001195,51,,4,20,Vrouw,Rechts,1,
,xotask,dotcolour,xotask,21,2,141,141,main,positivefb,-99,easy,,2.535178199999791,['c'],0,right,['3'],4,0.3641238999998677,9,,4,20,Vrouw,Rechts,1,
,xotask,dotcolour,xotask,22,2,142,142,main,positivefb,-99,average,,1.2842428000003565,['n'],1,right,['1'],6,0.5636296999991828,15,,4,20,Vrouw,Rechts,1,
,xotask,dotcolour,xotask,23,2,143,143,main,positivefb,-99,average,,2.068196199999875,['n'],1,right,['3'],4,0.5476896000000124,16,,4,20,Vrouw,Rechts,1,
,xotask,dotcolour,xotask,24,2,144,144,main,positivefb,-99,easy,,1.8002544000000853,['n'],1,right,['1'],6,0.3827368000002025,9,,4,20,Vrouw,Rechts,1,
,xotask,dotcolour,xotask,25,2,145,145,main,positivefb,-99,easy,,1.1509532000000036,['c'],1,left,['1'],6,0.3702564999994138,72,,4,20,Vrouw,Rechts,1,
,xotask,dotcolour,xotask,26,2,146,146,main,positivefb,-99,easy,,1.0346640000007028,['c'],1,left,['1'],6,0.3542654000002585,72,,4,20,Vrouw,Rechts,1,
,xotask,dotcolour,xotask,27,2,147,147,main,positivefb,-99,hard,,1.2510002999997596,['n'],1,right,['2'],5,0.8755404000003182,28,,4,20,Vrouw,Rechts,1,
,xotask,dotcolour,xotask,28,2,148,148,main,positivefb,-99,easy,,1.033411200000046,['c'],1,left,['1'],6,0.4718029999994542,72,,4,20,Vrouw,Rechts,1,
,xotask,dotcolour,xotask,29,2,149,149,main,positivefb,-99,hard,,3.0509598000007827,['c'],1,left,['1'],6,0.7881033000003299,54,,4,20,Vrouw,Rechts,1,
,xotask,dotcolour,xotask,30,2,150,150,main,positivefb,-99,hard,,1.3006368999995175,['n'],1,right,['3'],4,0.31346080000002985,28,,4,20,Vrouw,Rechts,1,
,xotask,dotcolour,xotask,31,2,151,151,main,positivefb,-99,easy,,0.9842392999998992,['n'],1,right,['1'],6,0.3513315000000148,8,,4,20,Vrouw,Rechts,1,
,xotask,dotcolour,xotask,32,2,152,152,main,positivefb,-99,average,,0.8002614999995785,['n'],1,right,['1'],6,0.32142170000042825,15,,4,20,Vrouw,Rechts,1,
,xotask,dotcolour,xotask,33,2,153,153,main,positivefb,-99,hard,,1.200918599999568,['c'],0,right,['3'],4,0.3015374000005977,26,,4,20,Vrouw,Rechts,1,
,xotask,dotcolour,xotask,34,2,154,154,main,positivefb,-99,easy,,0.7173369000001912,['n'],0,left,['9'],2,2.541532499999448,72,,4,20,Vrouw,Rechts,1,
,xotask,dotcolour,xotask,35,2,155,155,main,positivefb,-99,hard,,4.451319199999489,['c'],1,left,['3'],4,0.5101838999999018,54,,4,20,Vrouw,Rechts,1,
,xotask,dotcolour,xotask,36,2,156,156,main,positivefb,-99,hard,,1.6175333000001046,['c'],1,left,['3'],4,0.45883059999960096,53,,4,20,Vrouw,Rechts,1,
,xotask,dotcolour,xotask,37,2,157,157,main,positivefb,-99,average,,1.1180979000000661,['n'],1,right,['1'],6,0.42045989999951416,16,,4,20,Vrouw,Rechts,1,
,xotask,dotcolour,xotask,38,2,158,158,main,positivefb,-99,average,,0.867674299999635,['n'],1,right,['1'],6,0.7937559000001784,15,,4,20,Vrouw,Rechts,1,
,xotask,dotcolour,xotask,39,2,159,159,main,positivefb,-99,average,,1.1346966000000975,['c'],1,left,['1'],6,0.4064744999996037,60,,4,20,Vrouw,Rechts,1,
,xotask,dotcolour,xotask,40,2,160,160,main,positivefb,-99,hard,,1.9836224999999104,['c'],1,left,['2'],5,0.6316772999998648,51,,4,20,Vrouw,Rechts,1,
,xotask,dotcolour,xotask,41,2,161,161,main,positivefb,-99,easy,,1.017753399999492,['n'],1,right,['1'],6,0.5181968999995661,7,,4,20,Vrouw,Rechts,1,
,xotask,dotcolour,xotask,42,2,162,162,main,positivefb,-99,average,,0.8176931000007244,['c'],1,left,['1'],6,0.32994310000049154,64,,4,20,Vrouw,Rechts,1,
,xotask,dotcolour,xotask,43,2,163,163,main,positivefb,-99,average,,1.135099099999934,['n'],1,right,['1'],6,1.280055700000048,17,,4,20,Vrouw,Rechts,1,
,xotask,dotcolour,xotask,44,2,164,164,main,positivefb,-99,hard,,0.9015314999996917,['c'],1,left,['1'],6,0.626106499999878,54,,4,20,Vrouw,Rechts,1,
,xotask,dotcolour,xotask,45,2,165,165,main,positivefb,-99,easy,,2.166693199999827,['n'],1,right,['3'],4,0.7312313000002177,6,,4,20,Vrouw,Rechts,1,
,xotask,dotcolour,xotask,46,2,166,166,main,positivefb,-99,hard,,1.5678545000000668,['c'],0,right,['2'],5,0.8799811999997473,26,,4,20,Vrouw,Rechts,1,
,xotask,dotcolour,xotask,47,2,167,167,main,positivefb,-99,average,,0.9517046000000846,['n'],1,right,['1'],6,0.40837480000027426,17,,4,20,Vrouw,Rechts,1,
,xotask,dotcolour,xotask,48,2,168,168,main,positivefb,-99,average,,1.118102500000532,['c'],1,left,['2'],5,0.9478718999998819,62,,4,20,Vrouw,Rechts,1,
,xotask,dotcolour,xotask,49,2,169,169,main,positivefb,-99,average,,0.9346670000004451,['c'],1,left,['1'],6,0.31327930000043125,64,,4,20,Vrouw,Rechts,1,
,xotask,dotcolour,xotask,50,2,170,170,main,positivefb,-99,average,,0.7684174000005441,['c'],1,left,['1'],6,0.39123669999935373,60,,4,20,Vrouw,Rechts,1,
,xotask,dotcolour,xotask,51,2,171,171,main,positivefb,-99,easy,,1.018589599999359,['n'],1,right,['1'],6,0.30505379999976867,5,,4,20,Vrouw,Rechts,1,
,xotask,dotcolour,xotask,52,2,172,172,main,positivefb,-99,average,,1.1335344999997687,['n'],1,right,['1'],6,0.3442224999998871,17,,4,20,Vrouw,Rechts,1,
,xotask,dotcolour,xotask,53,2,173,173,main,positivefb,-99,easy,,2.333769300000313,['c'],1,left,['3'],4,0.2776137999999264,72,,4,20,Vrouw,Rechts,1,
,xotask,dotcolour,xotask,54,2,174,174,main,positivefb,-99,average,,3.2181534999999712,['c'],1,left,['3'],4,0.3633750000008149,63,,4,20,Vrouw,Rechts,1,
,xotask,dotcolour,xotask,55,2,175,175,main,positivefb,-99,average,,0.8674612999993769,['n'],1,right,['1'],6,0.37909829999989597,19,,4,20,Vrouw,Rechts,1,
,xotask,dotcolour,xotask,56,2,176,176,main,positivefb,-99,average,,1.4507558999994217,['n'],1,right,['2'],5,0.5550627999991775,17,,4,20,Vrouw,Rechts,1,
,xotask,dotcolour,xotask,57,2,177,177,main,positivefb,-99,hard,,0.785259600000245,['n'],1,right,['1'],6,0.5108165000001463,26,,4,20,Vrouw,Rechts,1,
,xotask,dotcolour,xotask,58,2,178,178,main,positivefb,-99,average,,0.9508530000002793,['c'],1,left,['1'],6,0.3333243000006405,62,,4,20,Vrouw,Rechts,1,
,xotask,dotcolour,xotask,59,2,179,179,main,positivefb,-99,hard,,1.051169899999877,['c'],0,right,['1'],6,0.33459320000019943,28,,4,20,Vrouw,Rechts,1,
,xotask,dotcolour,xotask,0,3,180,180,main,positivefb,-99,easy,,1.2015645999999833,['n'],1,right,['1'],6,0.374752300000182,5,,4,20,Vrouw,Rechts,1,
,xotask,dotcolour,xotask,1,3,181,181,main,positivefb,-99,hard,,1.1847523999995246,['n'],1,right,['3'],4,0.2414297000004808,29,,4,20,Vrouw,Rechts,1,
,xotask,dotcolour,xotask,2,3,182,182,main,positivefb,-99,hard,,1.0685820999997304,['n'],1,right,['2'],5,0.28720610000073066,29,,4,20,Vrouw,Rechts,1,
,xotask,dotcolour,xotask,3,3,183,183,main,positivefb,-99,hard,,0.8512029999992592,['n'],1,right,['1'],6,0.29039649999958783,28,,4,20,Vrouw,Rechts,1,
,xotask,dotcolour,xotask,4,3,184,184,main,positivefb,-99,easy,,1.534008200000244,['n'],1,right,['1'],6,0.1857729000003019,6,,4,20,Vrouw,Rechts,1,
,xotask,dotcolour,xotask,5,3,185,185,main,positivefb,-99,hard,,1.2667117000000871,['c'],1,left,['1'],6,0.2968888000004881,51,,4,20,Vrouw,Rechts,1,
,xotask,dotcolour,xotask,6,3,186,186,main,positivefb,-99,easy,,0.8007257999997819,['n'],1,right,['1'],6,0.31022910000046977,8,,4,20,Vrouw,Rechts,1,
,xotask,dotcolour,xotask,7,3,187,187,main,positivefb,-99,easy,,1.100503600000593,['n'],1,right,['1'],6,0.230229199999485,6,,4,20,Vrouw,Rechts,1,
,xotask,dotcolour,xotask,8,3,188,188,main,positivefb,-99,hard,,1.9011366000004273,['n'],1,right,['2'],5,0.722498799999812,25,,4,20,Vrouw,Rechts,1,
,xotask,dotcolour,xotask,9,3,189,189,main,positivefb,-99,hard,,2.2839420000000246,['c'],1,left,['3'],4,1.0276224999997794,53,,4,20,Vrouw,Rechts,1,
,xotask,dotcolour,xotask,10,3,190,190,main,positivefb,-99,easy,,1.7006723000004058,['c'],1,left,['2'],5,1.0550517000001491,70,,4,20,Vrouw,Rechts,1,
,xotask,dotcolour,xotask,11,3,191,191,main,positivefb,-99,average,,1.9011072000002969,['c'],1,left,['3'],4,0.7301711000000068,61,,4,20,Vrouw,Rechts,1,
,xotask,dotcolour,xotask,12,3,192,192,main,positivefb,-99,average,,1.8507308999996894,['n'],1,right,['2'],5,0.9798445000005813,19,,4,20,Vrouw,Rechts,1,
,xotask,dotcolour,xotask,13,3,193,193,main,positivefb,-99,average,,1.2343844000006357,['n'],1,right,['2'],5,0.4527554999995118,15,,4,20,Vrouw,Rechts,1,
,xotask,dotcolour,xotask,14,3,194,194,main,positivefb,-99,average,,2.2843973999997615,['n'],0,left,['3'],4,1.2156743000005008,60,,4,20,Vrouw,Rechts,1,
,xotask,dotcolour,xotask,15,3,195,195,main,positivefb,-99,average,,1.9679439000001366,['c'],1,left,['3'],4,0.7212730000001102,62,,4,20,Vrouw,Rechts,1,
,xotask,dotcolour,xotask,16,3,196,196,main,positivefb,-99,easy,,1.5515544999998383,['n'],1,right,['2'],5,0.4477413999993587,9,,4,20,Vrouw,Rechts,1,
,xotask,dotcolour,xotask,17,3,197,197,main,positivefb,-99,average,,3.5014754999992874,['n'],1,right,['3'],4,0.849850399999923,16,,4,20,Vrouw,Rechts,1,
,xotask,dotcolour,xotask,18,3,198,198,main,positivefb,-99,average,,1.2175696000003882,['n'],1,right,['2'],5,0.6244159999996555,16,,4,20,Vrouw,Rechts,1,
,xotask,dotcolour,xotask,19,3,199,199,main,positivefb,-99,easy,,1.1514963999998145,['c'],1,left,['2'],5,0.6986246999995274,74,,4,20,Vrouw,Rechts,1,
,xotask,dotcolour,xotask,20,3,200,200,main,positivefb,-99,easy,,1.0514887999997882,['n'],1,right,['1'],6,0.4212848999995913,7,,4,20,Vrouw,Rechts,1,
,xotask,dotcolour,xotask,21,3,201,201,main,positivefb,-99,easy,,3.3846204999999827,['c'],1,left,['3'],4,0.41349500000069384,71,,4,20,Vrouw,Rechts,1,
,xotask,dotcolour,xotask,22,3,202,202,main,positivefb,-99,average,,1.2675870999992185,['c'],1,left,['1'],6,0.2910864000004949,61,,4,20,Vrouw,Rechts,1,
,xotask,dotcolour,xotask,23,3,203,203,main,positivefb,-99,average,,2.067271700000674,['n'],0,left,['3'],4,0.36589399999957095,62,,4,20,Vrouw,Rechts,1,
,xotask,dotcolour,xotask,24,3,204,204,main,positivefb,-99,easy,,0.8172591000002285,['c'],1,left,['1'],6,0.27985179999996035,74,,4,20,Vrouw,Rechts,1,
,xotask,dotcolour,xotask,25,3,205,205,main,positivefb,-99,average,,0.8514159000005748,['c'],1,left,['1'],6,0.37126919999991514,62,,4,20,Vrouw,Rechts,1,
,xotask,dotcolour,xotask,26,3,206,206,main,positivefb,-99,hard,,1.2848119000000224,['c'],1,left,['2'],5,0.4583882999995694,54,,4,20,Vrouw,Rechts,1,
,xotask,dotcolour,xotask,27,3,207,207,main,positivefb,-99,average,,0.851419800000258,['c'],1,left,['1'],6,0.3744440999998915,60,,4,20,Vrouw,Rechts,1,
,xotask,dotcolour,xotask,28,3,208,208,main,positivefb,-99,average,,0.7839169999997466,['c'],1,left,['1'],6,0.3779890999994677,64,,4,20,Vrouw,Rechts,1,
,xotask,dotcolour,xotask,29,3,209,209,main,positivefb,-99,average,,0.7510683999998946,['n'],1,right,['1'],6,0.334063000000242,15,,4,20,Vrouw,Rechts,1,
,xotask,dotcolour,xotask,30,3,210,210,main,positivefb,-99,hard,,1.2837646000007226,['c'],0,right,['2'],5,0.41390659999979107,25,,4,20,Vrouw,Rechts,1,
,xotask,dotcolour,xotask,31,3,211,211,main,positivefb,-99,easy,,0.9013408000000709,['n'],1,right,['1'],6,0.40224489999945945,9,,4,20,Vrouw,Rechts,1,
,xotask,dotcolour,xotask,32,3,212,212,main,positivefb,-99,easy,,0.8335840999998254,['c'],1,left,['1'],6,0.3615265000007639,74,,4,20,Vrouw,Rechts,1,
,xotask,dotcolour,xotask,33,3,213,213,main,positivefb,-99,hard,,1.2503597000004447,['c'],1,left,['2'],5,0.4020020999996632,51,,4,20,Vrouw,Rechts,1,
,xotask,dotcolour,xotask,34,3,214,214,main,positivefb,-99,average,,1.450784499999827,['n'],1,right,['1'],6,0.3292920000003505,15,,4,20,Vrouw,Rechts,1,
,xotask,dotcolour,xotask,35,3,215,215,main,positivefb,-99,average,,1.4185317000001305,['c'],1,left,['2'],5,0.6121474999999919,64,,4,20,Vrouw,Rechts,1,
,xotask,dotcolour,xotask,36,3,216,216,main,positivefb,-99,hard,,1.0168382000001657,['n'],0,left,['1'],6,0.2842441000002509,51,,4,20,Vrouw,Rechts,1,
,xotask,dotcolour,xotask,37,3,217,217,main,positivefb,-99,easy,,0.8668213000000833,['n'],1,right,['1'],6,0.3035534999999072,5,,4,20,Vrouw,Rechts,1,
,xotask,dotcolour,xotask,38,3,218,218,main,positivefb,-99,average,,1.550481000000218,['n'],1,right,['2'],5,0.2377542000003814,19,,4,20,Vrouw,Rechts,1,
,xotask,dotcolour,xotask,39,3,219,219,main,positivefb,-99,hard,,1.068069299999479,['c'],1,left,['1'],6,0.5392824000000473,52,,4,20,Vrouw,Rechts,1,
,xotask,dotcolour,xotask,40,3,220,220,main,positivefb,-99,average,,2.334867999999915,['c'],1,left,['3'],4,0.2808929000002536,61,,4,20,Vrouw,Rechts,1,
,xotask,dotcolour,xotask,41,3,221,221,main,positivefb,-99,easy,,0.935935999999856,['c'],1,left,['2'],5,0.31335029999991093,72,,4,20,Vrouw,Rechts,1,
,xotask,dotcolour,xotask,42,3,222,222,main,positivefb,-99,hard,,0.7503608000006352,['c'],1,left,['1'],6,0.3515546999997241,52,,4,20,Vrouw,Rechts,1,
,xotask,dotcolour,xotask,43,3,223,223,main,positivefb,-99,hard,,2.1172850000002654,['n'],1,right,['3'],4,0.8697322999996686,25,,4,20,Vrouw,Rechts,1,
,xotask,dotcolour,xotask,44,3,224,224,main,positivefb,-99,easy,,0.91775620000044,['n'],1,right,['1'],6,0.30368240000007063,9,,4,20,Vrouw,Rechts,1,
,xotask,dotcolour,xotask,45,3,225,225,main,positivefb,-99,hard,,1.1338034000000334,['c'],1,left,['1'],6,0.35053959999913786,54,,4,20,Vrouw,Rechts,1,
,xotask,dotcolour,xotask,46,3,226,226,main,positivefb,-99,easy,,1.1838490999998612,['n'],1,right,['1'],6,0.6099953000002643,8,,4,20,Vrouw,Rechts,1,
,xotask,dotcolour,xotask,47,3,227,227,main,positivefb,-99,easy,,0.9161285000000134,['c'],1,left,['1'],6,0.31767219999983354,71,,4,20,Vrouw,Rechts,1,
,xotask,dotcolour,xotask,48,3,228,228,main,positivefb,-99,hard,,1.1668577999998888,['n'],1,right,['2'],5,1.3234075000000303,29,,4,20,Vrouw,Rechts,1,
,xotask,dotcolour,xotask,49,3,229,229,main,positivefb,-99,hard,,2.150430200000301,['n'],0,left,['8'],3,1.1374363999993875,53,,4,20,Vrouw,Rechts,1,
,xotask,dotcolour,xotask,50,3,230,230,main,positivefb,-99,easy,,1.9337452999998277,['c'],1,left,['3'],4,0.34298630000012054,73,,4,20,Vrouw,Rechts,1,
,xotask,dotcolour,xotask,51,3,231,231,main,positivefb,-99,easy,,1.2170230000001538,['c'],1,left,['1'],6,0.425683399999798,70,,4,20,Vrouw,Rechts,1,
,xotask,dotcolour,xotask,52,3,232,232,main,positivefb,-99,hard,,1.9510983000000124,['n'],1,right,['3'],4,0.5079912999999578,26,,4,20,Vrouw,Rechts,1,
,xotask,dotcolour,xotask,53,3,233,233,main,positivefb,-99,hard,,3.1334776999992755,['c'],1,left,['3'],4,0.5400063000006412,51,,4,20,Vrouw,Rechts,1,
,xotask,dotcolour,xotask,54,3,234,234,main,positivefb,-99,easy,,1.784054499999911,['c'],1,left,['3'],4,0.35916850000012346,73,,4,20,Vrouw,Rechts,1,
,xotask,dotcolour,xotask,55,3,235,235,main,positivefb,-99,average,,1.0674499999995533,['n'],1,right,['3'],4,0.479317400000582,15,,4,20,Vrouw,Rechts,1,
,xotask,dotcolour,xotask,56,3,236,236,main,positivefb,-99,average,,3.216883200000666,['n'],1,right,['8'],3,0.4601680000005217,19,,4,20,Vrouw,Rechts,1,
,xotask,dotcolour,xotask,57,3,237,237,main,positivefb,-99,hard,,1.8839185999995607,['c'],0,right,['3'],4,0.3356597000001784,25,,4,20,Vrouw,Rechts,1,
,xotask,dotcolour,xotask,58,3,238,238,main,positivefb,-99,hard,,1.8684762000002593,['n'],1,right,['3'],4,0.32097669999984646,29,,4,20,Vrouw,Rechts,1,
,xotask,dotcolour,xotask,59,3,239,239,main,positivefb,-99,average,,2.6842179999994187,['n'],1,right,['2'],5,0.40951960000074905,18,,4,20,Vrouw,Rechts,1,
,xotask,dotcolour,xotask,0,4,240,240,main,positivefb,-99,easy,,1.8005534000003536,['c'],1,left,['2'],5,0.3777380000001358,73,,4,20,Vrouw,Rechts,1,
,xotask,dotcolour,xotask,1,4,241,241,main,positivefb,-99,easy,,0.7502852999996321,['n'],1,right,['1'],6,0.34181399999943096,6,,4,20,Vrouw,Rechts,1,
,xotask,dotcolour,xotask,2,4,242,242,main,positivefb,-99,easy,,1.1174277999998594,['n'],1,right,['1'],6,0.5246092999996108,7,,4,20,Vrouw,Rechts,1,
,xotask,dotcolour,xotask,3,4,243,243,main,positivefb,-99,hard,,1.7672673999995823,['c'],0,right,['3'],4,1.6420239999997648,26,,4,20,Vrouw,Rechts,1,
,xotask,dotcolour,xotask,4,4,244,244,main,positivefb,-99,average,,3.151152800000091,['c'],1,left,['3'],4,0.35539429999971617,60,,4,20,Vrouw,Rechts,1,
,xotask,dotcolour,xotask,5,4,245,245,main,positivefb,-99,average,,1.3008357999997315,['n'],1,right,['2'],5,0.4737462000002779,16,,4,20,Vrouw,Rechts,1,
,xotask,dotcolour,xotask,6,4,246,246,main,positivefb,-99,easy,,0.9010579000005237,['c'],1,left,['1'],6,0.4757878000000346,70,,4,20,Vrouw,Rechts,1,
,xotask,dotcolour,xotask,7,4,247,247,main,positivefb,-99,hard,,2.2163934000000154,['n'],0,left,['3'],4,0.33705510000072536,52,,4,20,Vrouw,Rechts,1,
,xotask,dotcolour,xotask,8,4,248,248,main,positivefb,-99,hard,,3.735055299999658,['n'],0,left,['3'],4,0.22337360000074113,50,,4,20,Vrouw,Rechts,1,
,xotask,dotcolour,xotask,9,4,249,249,main,positivefb,-99,easy,,1.1687072000004264,['n'],1,right,['1'],6,0.28847940000014205,5,,4,20,Vrouw,Rechts,1,
,xotask,dotcolour,xotask,10,4,250,250,main,positivefb,-99,easy,,0.7844961000000694,['n'],1,right,['1'],6,0.2620084999998653,7,,4,20,Vrouw,Rechts,1,
,xotask,dotcolour,xotask,11,4,251,251,main,positivefb,-99,average,,0.7680659999996351,['n'],1,right,['1'],6,0.3265903999999864,18,,4,20,Vrouw,Rechts,1,
,xotask,dotcolour,xotask,12,4,252,252,main,positivefb,-99,hard,,1.3668887999992876,['n'],1,right,['1'],6,0.36371260000032635,29,,4,20,Vrouw,Rechts,1,
,xotask,dotcolour,xotask,13,4,253,253,main,positivefb,-99,hard,,1.3682462000006126,['c'],1,left,['2'],5,1.2559762999999293,52,,4,20,Vrouw,Rechts,1,
,xotask,dotcolour,xotask,14,4,254,254,main,positivefb,-99,easy,,1.751348699999653,['n'],1,right,['3'],4,0.40805579999960173,5,,4,20,Vrouw,Rechts,1,
,xotask,dotcolour,xotask,15,4,255,255,main,positivefb,-99,hard,,1.7183562000000165,['n'],0,left,['3'],4,0.6440717999994376,54,,4,20,Vrouw,Rechts,1,
,xotask,dotcolour,xotask,16,4,256,256,main,positivefb,-99,easy,,1.3513566999999966,['n'],1,right,['2'],5,1.174377800000002,6,,4,20,Vrouw,Rechts,1,
,xotask,dotcolour,xotask,17,4,257,257,main,positivefb,-99,hard,,1.4336504000002606,['n'],1,right,['2'],5,0.3585741999995662,26,,4,20,Vrouw,Rechts,1,
,xotask,dotcolour,xotask,18,4,258,258,main,positivefb,-99,hard,,1.4176681999997527,['n'],1,right,['2'],5,0.528721300000143,27,,4,20,Vrouw,Rechts,1,
,xotask,dotcolour,xotask,19,4,259,259,main,positivefb,-99,average,,1.76699969999936,['n'],1,right,['2'],5,0.5184558999999354,16,,4,20,Vrouw,Rechts,1,
,xotask,dotcolour,xotask,20,4,260,260,main,positivefb,-99,average,,1.0849635000004128,['c'],1,left,['2'],5,0.7432132000003548,62,,4,20,Vrouw,Rechts,1,
,xotask,dotcolour,xotask,21,4,261,261,main,positivefb,-99,average,,1.0345788000004177,['n'],1,right,['1'],6,0.432878200000232,16,,4,20,Vrouw,Rechts,1,
,xotask,dotcolour,xotask,22,4,262,262,main,positivefb,-99,hard,,1.4516790999996374,['n'],0,left,['2'],5,0.9263332999998966,50,,4,20,Vrouw,Rechts,1,
,xotask,dotcolour,xotask,23,4,263,263,main,positivefb,-99,average,,1.0843846000007034,['c'],1,left,['2'],5,0.37419540000064444,62,,4,20,Vrouw,Rechts,1,
,xotask,dotcolour,xotask,24,4,264,264,main,positivefb,-99,average,,1.3176179000001866,['c'],1,left,['1'],6,0.33156340000005,61,,4,20,Vrouw,Rechts,1,
,xotask,dotcolour,xotask,25,4,265,265,main,positivefb,-99,hard,,2.3836654999995517,['n'],0,left,['3'],4,0.6403095000005123,50,,4,20,Vrouw,Rechts,1,
,xotask,dotcolour,xotask,26,4,266,266,main,positivefb,-99,easy,,1.3343376000002536,['c'],1,left,['2'],5,0.46646680000048946,74,,4,20,Vrouw,Rechts,1,
,xotask,dotcolour,xotask,27,4,267,267,main,positivefb,-99,average,,1.5509040999995705,['n'],0,left,['2'],5,0.45034620000024006,61,,4,20,Vrouw,Rechts,1,
,xotask,dotcolour,xotask,28,4,268,268,main,positivefb,-99,hard,,3.7177652999998827,['n'],0,left,['3'],4,0.4121922000003906,52,,4,20,Vrouw,Rechts,1,
,xotask,dotcolour,xotask,29,4,269,269,main,positivefb,-99,average,,1.0015948000000208,['c'],1,left,['1'],6,0.6364270000003671,60,,4,20,Vrouw,Rechts,1,
,xotask,dotcolour,xotask,30,4,270,270,main,positivefb,-99,average,,0.9504557999998724,['c'],1,left,['1'],6,0.358201399999416,62,,4,20,Vrouw,Rechts,1,
,xotask,dotcolour,xotask,31,4,271,271,main,positivefb,-99,average,,1.8179864000003363,['c'],1,left,['2'],5,0.3837763999999879,62,,4,20,Vrouw,Rechts,1,
,xotask,dotcolour,xotask,32,4,272,272,main,positivefb,-99,hard,,2.083666199999243,['c'],0,right,['2'],5,1.0062240000006568,29,,4,20,Vrouw,Rechts,1,
,xotask,dotcolour,xotask,33,4,273,273,main,positivefb,-99,average,,1.2853203999993639,['n'],1,right,['2'],5,0.5075719999995272,18,,4,20,Vrouw,Rechts,1,
,xotask,dotcolour,xotask,34,4,274,274,main,positivefb,-99,easy,,0.8185364999999365,['n'],1,right,['1'],6,0.41550590000042575,6,,4,20,Vrouw,Rechts,1,
,xotask,dotcolour,xotask,35,4,275,275,main,positivefb,-99,easy,,3.400969299999815,['n'],1,right,['3'],4,0.6481682000003275,5,,4,20,Vrouw,Rechts,1,
,xotask,dotcolour,xotask,36,4,276,276,main,positivefb,-99,hard,,1.2844310999998925,['c'],1,left,['1'],6,0.4827813999991122,52,,4,20,Vrouw,Rechts,1,
,xotask,dotcolour,xotask,37,4,277,277,main,positivefb,-99,easy,,0.7347565000000031,['c'],1,left,['1'],6,0.3874181999999564,72,,4,20,Vrouw,Rechts,1,
,xotask,dotcolour,xotask,38,4,278,278,main,positivefb,-99,average,,2.0508396999994147,['c'],1,left,['3'],4,0.29099370000039926,63,,4,20,Vrouw,Rechts,1,
,xotask,dotcolour,xotask,39,4,279,279,main,positivefb,-99,easy,,1.0175538999992568,['c'],1,left,['1'],6,0.5263531999999032,74,,4,20,Vrouw,Rechts,1,
,xotask,dotcolour,xotask,40,4,280,280,main,positivefb,-99,hard,,1.5505640000001222,['n'],1,right,['2'],5,1.1094230999997308,28,,4,20,Vrouw,Rechts,1,
,xotask,dotcolour,xotask,41,4,281,281,main,positivefb,-99,easy,,1.0834069000002273,['c'],1,left,['1'],6,0.4228934000002482,74,,4,20,Vrouw,Rechts,1,
,xotask,dotcolour,xotask,42,4,282,282,main,positivefb,-99,hard,,1.1170584000001327,['n'],1,right,['8'],3,5.369594300000244,26,,4,20,Vrouw,Rechts,1,
,xotask,dotcolour,xotask,43,4,283,283,main,positivefb,-99,average,,2.817515800000365,['c'],0,right,['8'],3,0.45093850000012026,16,,4,20,Vrouw,Rechts,1,
,xotask,dotcolour,xotask,44,4,284,284,main,positivefb,-99,easy,,1.5005232999992586,['n'],1,right,['1'],6,0.3816623000002437,7,,4,20,Vrouw,Rechts,1,
,xotask,dotcolour,xotask,45,4,285,285,main,positivefb,-99,hard,,1.7168587999994998,['n'],1,right,['3'],4,0.5220668000001751,26,,4,20,Vrouw,Rechts,1,
,xotask,dotcolour,xotask,46,4,286,286,main,positivefb,-99,easy,,0.8008603999996922,['c'],1,left,['1'],6,0.3821469000004072,72,,4,20,Vrouw,Rechts,1,
,xotask,dotcolour,xotask,47,4,287,287,main,positivefb,-99,hard,,1.9682594000005338,['n'],1,right,['3'],4,1.1935671000001093,26,,4,20,Vrouw,Rechts,1,
,xotask,dotcolour,xotask,48,4,288,288,main,positivefb,-99,hard,,1.234783900000366,['c'],1,left,['1'],6,0.35295140000016545,52,,4,20,Vrouw,Rechts,1,
,xotask,dotcolour,xotask,49,4,289,289,main,positivefb,-99,average,,1.0513307000001078,['n'],1,right,['1'],6,0.3300797000001694,18,,4,20,Vrouw,Rechts,1,
,xotask,dotcolour,xotask,50,4,290,290,main,positivefb,-99,hard,,1.3016246000006504,['c'],0,right,['2'],5,0.4340185000000929,25,,4,20,Vrouw,Rechts,1,
,xotask,dotcolour,xotask,51,4,291,291,main,positivefb,-99,easy,,0.9677389999997104,['c'],1,left,['1'],6,0.36229110000022047,73,,4,20,Vrouw,Rechts,1,
,xotask,dotcolour,xotask,52,4,292,292,main,positivefb,-99,easy,,0.8006409999998141,['c'],1,left,['1'],6,0.3329788999999437,73,,4,20,Vrouw,Rechts,1,
,xotask,dotcolour,xotask,53,4,293,293,main,positivefb,-99,hard,,1.8006494000001112,['c'],1,left,['3'],4,0.2886009000003469,54,,4,20,Vrouw,Rechts,1,
,xotask,dotcolour,xotask,54,4,294,294,main,positivefb,-99,easy,,0.7673067000005176,['c'],1,left,['1'],6,0.4468849000004411,71,,4,20,Vrouw,Rechts,1,
,xotask,dotcolour,xotask,55,4,295,295,main,positivefb,-99,easy,,0.8003639999997176,['n'],1,right,['1'],6,0.3099730999992971,9,,4,20,Vrouw,Rechts,1,
,xotask,dotcolour,xotask,56,4,296,296,main,positivefb,-99,average,,0.8341190999999526,['c'],1,left,['2'],5,0.5940005999991627,63,,4,20,Vrouw,Rechts,1,
,xotask,dotcolour,xotask,57,4,297,297,main,positivefb,-99,average,,1.117816799999673,['c'],0,right,['0'],1,2.1182923999995182,18,,4,20,Vrouw,Rechts,1,
,xotask,dotcolour,xotask,58,4,298,298,main,positivefb,-99,average,,1.1170716000005996,['n'],1,right,['1'],6,0.4062036999994234,18,,4,20,Vrouw,Rechts,1,
,xotask,dotcolour,xotask,59,4,299,299,main,positivefb,-99,average,,2.78488279999965,['n'],1,right,['3'],4,0.3759401999996044,15,,4,20,Vrouw,Rechts,1,
,dotcolour,dotcolour,xotask,0,0,0,300,training,positivefb,93,hard,36,2.1511773000001995,['c'],0,right,['2'],5,0.9196161999998367,,,4,20,Vrouw,Rechts,1,
,dotcolour,dotcolour,xotask,1,0,1,301,training,positivefb,95,easy,15,0.7671426999995674,['n'],1,right,['1'],6,0.25274850000005245,,,4,20,Vrouw,Rechts,1,
,dotcolour,dotcolour,xotask,2,0,2,302,training,positivefb,94,easy,15,0.7342188000002352,['n'],1,right,['1'],6,0.18932429999949818,,,4,20,Vrouw,Rechts,1,
,dotcolour,dotcolour,xotask,3,0,3,303,training,positivefb,96,average,53,0.6158961000001,['c'],1,left,['1'],6,0.26903130000027886,,,4,20,Vrouw,Rechts,1,
,dotcolour,dotcolour,xotask,4,0,4,304,training,positivefb,78,hard,35,1.6501308999995672,['c'],0,right,['3'],4,0.2803310999997848,,,4,20,Vrouw,Rechts,1,
,dotcolour,dotcolour,xotask,5,0,5,305,training,positivefb,91,easy,63,0.7011821999994936,['c'],1,left,['1'],6,0.2981712000000698,,,4,20,Vrouw,Rechts,1,
,dotcolour,dotcolour,xotask,6,0,6,306,training,positivefb,96,average,28,0.8007121000000552,['n'],1,right,['1'],6,0.2304604000000836,,,4,20,Vrouw,Rechts,1,
,dotcolour,dotcolour,xotask,7,0,7,307,training,positivefb,96,easy,65,0.6170073999992383,['c'],1,left,['1'],6,0.27686240000002726,,,4,20,Vrouw,Rechts,1,
,dotcolour,dotcolour,xotask,8,0,8,308,training,positivefb,89,easy,63,0.7672970000003261,['c'],1,left,['1'],6,0.26784829999996873,,,4,20,Vrouw,Rechts,1,
,dotcolour,dotcolour,xotask,9,0,9,309,training,positivefb,94,hard,38,1.1335487000005742,['n'],1,right,['3'],4,0.35550899999998364,,,4,20,Vrouw,Rechts,1,
,dotcolour,dotcolour,xotask,10,0,10,310,training,positivefb,91,hard,43,1.5655249000001277,['n'],0,left,['3'],4,0.1507902000003014,,,4,20,Vrouw,Rechts,1,
,dotcolour,dotcolour,xotask,11,0,11,311,training,positivefb,95,hard,41,2.0339281999995364,['n'],0,left,['3'],4,0.3118386999994982,,,4,20,Vrouw,Rechts,1,
,dotcolour,dotcolour,xotask,12,0,12,312,training,positivefb,92,average,26,1.1164793000007194,['n'],1,right,['3'],4,0.2144416999999521,,,4,20,Vrouw,Rechts,1,
,dotcolour,dotcolour,xotask,13,0,13,313,training,positivefb,95,average,52,1.8177812000003541,['c'],1,left,['3'],4,0.27740240000002814,,,4,20,Vrouw,Rechts,1,
,dotcolour,dotcolour,xotask,14,0,14,314,training,positivefb,88,hard,42,1.2516454999995403,['n'],0,left,['3'],4,0.2966939999996612,,,4,20,Vrouw,Rechts,1,
,dotcolour,dotcolour,xotask,15,0,15,315,training,positivefb,92,hard,43,2.1500819000002593,['n'],0,left,['3'],4,0.29531349999979284,,,4,20,Vrouw,Rechts,1,
,dotcolour,dotcolour,xotask,16,0,16,316,training,positivefb,95,average,54,1.0502230000001873,['c'],1,left,['1'],6,0.2986621000000014,,,4,20,Vrouw,Rechts,1,
,dotcolour,dotcolour,xotask,17,0,17,317,training,positivefb,86,hard,36,1.5163000000002285,['n'],1,right,['2'],5,0.28169269999943936,,,4,20,Vrouw,Rechts,1,
,dotcolour,dotcolour,xotask,18,0,18,318,training,positivefb,96,easy,16,0.8677447000000029,['n'],1,right,['1'],6,0.28339280000000144,,,4,20,Vrouw,Rechts,1,
,dotcolour,dotcolour,xotask,19,0,19,319,training,positivefb,96,average,29,1.0340469000002486,['n'],1,right,['1'],6,0.310681800000566,,,4,20,Vrouw,Rechts,1,
,dotcolour,dotcolour,xotask,20,0,20,320,training,positivefb,98,average,54,0.648985900000298,['c'],1,left,['1'],6,0.3054658000000927,,,4,20,Vrouw,Rechts,1,
,dotcolour,dotcolour,xotask,21,0,21,321,training,positivefb,86,hard,39,1.0335594999996829,['n'],1,right,['1'],6,0.21198249999997643,,,4,20,Vrouw,Rechts,1,
,dotcolour,dotcolour,xotask,22,0,22,322,training,positivefb,99,average,27,0.5343409999995856,['n'],1,right,['1'],6,0.2621352999994997,,,4,20,Vrouw,Rechts,1,
,dotcolour,dotcolour,xotask,23,0,23,323,training,positivefb,91,average,28,0.6838211999993291,['n'],1,right,['1'],6,0.15337849999923492,,,4,20,Vrouw,Rechts,1,
,dotcolour,dotcolour,xotask,24,0,24,324,training,positivefb,94,easy,63,0.5337005999999747,['c'],1,left,['1'],6,0.26180049999948096,,,4,20,Vrouw,Rechts,1,
,dotcolour,dotcolour,xotask,25,0,25,325,training,positivefb,95,easy,19,0.6840046999996048,['n'],1,right,['1'],6,0.35178759999962494,,,4,20,Vrouw,Rechts,1,
,dotcolour,dotcolour,xotask,26,0,26,326,training,positivefb,69,hard,41,1.3504221000002872,['n'],0,left,['2'],5,0.7727375999993455,,,4,20,Vrouw,Rechts,1,
,dotcolour,dotcolour,xotask,27,0,27,327,training,positivefb,98,easy,15,0.7007221000003483,['n'],1,right,['1'],6,0.22588679999989836,,,4,20,Vrouw,Rechts,1,
,dotcolour,dotcolour,xotask,28,0,28,328,training,positivefb,81,average,29,1.0677981999997428,['n'],1,right,['2'],5,0.2863594999998895,,,4,20,Vrouw,Rechts,1,
,dotcolour,dotcolour,xotask,29,0,29,329,training,positivefb,93,easy,19,0.5662972000000082,['n'],1,right,['1'],6,0.24399130000074365,,,4,20,Vrouw,Rechts,1,
,dotcolour,dotcolour,xotask,30,0,30,330,training,positivefb,74,hard,39,1.2503187000002072,['c'],0,right,['3'],4,0.6570854000001418,,,4,20,Vrouw,Rechts,1,
,dotcolour,dotcolour,xotask,31,0,31,331,training,positivefb,91,hard,42,1.7827405000007275,['n'],0,left,['3'],4,0.18398189999970782,,,4,20,Vrouw,Rechts,1,
,dotcolour,dotcolour,xotask,32,0,32,332,training,positivefb,82,average,51,1.349760299999616,['c'],1,left,['2'],5,0.3382460999991963,,,4,20,Vrouw,Rechts,1,
,dotcolour,dotcolour,xotask,33,0,33,333,training,positivefb,91,average,53,1.0665628999995533,['c'],1,left,['2'],5,0.3622349999996004,,,4,20,Vrouw,Rechts,1,
,dotcolour,dotcolour,xotask,34,0,34,334,training,positivefb,92,average,52,0.9832498000005216,['c'],1,left,['2'],5,0.3008669999999256,,,4,20,Vrouw,Rechts,1,
,dotcolour,dotcolour,xotask,35,0,35,335,training,positivefb,93,easy,15,0.7000093999995443,['n'],1,right,['1'],6,0.34094329999970796,,,4,20,Vrouw,Rechts,1,
,dotcolour,dotcolour,xotask,36,0,36,336,training,positivefb,90,hard,36,2.8167164999995293,['n'],1,right,['3'],4,0.31946550000066054,,,4,20,Vrouw,Rechts,1,
,dotcolour,dotcolour,xotask,37,0,37,337,training,positivefb,91,hard,38,1.4164969000003111,['n'],1,right,['3'],4,0.32186519999959273,,,4,20,Vrouw,Rechts,1,
,dotcolour,dotcolour,xotask,38,0,38,338,training,positivefb,77,hard,42,1.950784599999679,['c'],1,left,['3'],4,0.5031980999992811,,,4,20,Vrouw,Rechts,1,
,dotcolour,dotcolour,xotask,39,0,39,339,training,positivefb,90,average,26,0.8167624999996406,['n'],1,right,['1'],6,0.19470799999999144,,,4,20,Vrouw,Rechts,1,
,dotcolour,dotcolour,xotask,40,0,40,340,training,positivefb,70,hard,41,1.033480499999314,['n'],0,left,['1'],6,0.16977550000046904,,,4,20,Vrouw,Rechts,1,
,dotcolour,dotcolour,xotask,41,0,41,341,training,positivefb,70,easy,65,0.7997436999994534,['n'],0,left,['0'],1,0.7798162999997658,,,4,20,Vrouw,Rechts,1,
,dotcolour,dotcolour,xotask,42,0,42,342,training,positivefb,94,average,29,1.184255299999677,['n'],1,right,['1'],6,0.18145999999978812,,,4,20,Vrouw,Rechts,1,
,dotcolour,dotcolour,xotask,43,0,43,343,training,positivefb,98,easy,63,0.8001506000000518,['c'],1,left,['1'],6,0.23772869999993418,,,4,20,Vrouw,Rechts,1,
,dotcolour,dotcolour,xotask,44,0,44,344,training,positivefb,89,easy,19,1.1671898999993573,['n'],1,right,['1'],6,0.3338229999999385,,,4,20,Vrouw,Rechts,1,
,dotcolour,dotcolour,xotask,45,0,45,345,training,positivefb,82,average,29,0.8660398000001805,['n'],1,right,['1'],6,0.2460903999999573,,,4,20,Vrouw,Rechts,1,
,dotcolour,dotcolour,xotask,46,0,46,346,training,positivefb,94,easy,17,0.7833966999996846,['n'],1,right,['1'],6,0.24588979999953153,,,4,20,Vrouw,Rechts,1,
,dotcolour,dotcolour,xotask,47,0,47,347,training,positivefb,94,easy,64,0.6998223000000507,['c'],1,left,['1'],6,0.2481642999991891,,,4,20,Vrouw,Rechts,1,
,dotcolour,dotcolour,xotask,48,0,48,348,training,positivefb,97,average,55,1.2660000999994736,['c'],1,left,['2'],5,0.20331650000025547,,,4,20,Vrouw,Rechts,1,
,dotcolour,dotcolour,xotask,49,0,49,349,training,positivefb,97,easy,63,0.7661177999998472,['c'],1,left,['1'],6,0.26075829999990674,,,4,20,Vrouw,Rechts,1,
,dotcolour,dotcolour,xotask,50,0,50,350,training,positivefb,90,hard,38,1.6825611000003846,['n'],1,right,['3'],4,0.17568839999967167,,,4,20,Vrouw,Rechts,1,
,dotcolour,dotcolour,xotask,51,0,51,351,training,positivefb,93,easy,61,0.6495920999996088,['c'],1,left,['1'],6,0.271000599999752,,,4,20,Vrouw,Rechts,1,
,dotcolour,dotcolour,xotask,52,0,52,352,training,positivefb,71,hard,45,1.733965100000205,['n'],0,left,['3'],4,0.2305913000000146,,,4,20,Vrouw,Rechts,1,
,dotcolour,dotcolour,xotask,53,0,53,353,training,positivefb,98,average,54,0.8668279000003167,['c'],1,left,['2'],5,0.7624746000001323,,,4,20,Vrouw,Rechts,1,
,dotcolour,dotcolour,xotask,54,0,54,354,training,positivefb,97,easy,15,0.7174920999996175,['n'],1,right,['1'],6,0.2323915000006309,,,4,20,Vrouw,Rechts,1,
,dotcolour,dotcolour,xotask,55,0,55,355,training,positivefb,86,hard,38,1.3512376000007862,['n'],1,right,['2'],5,0.2567923000005976,,,4,20,Vrouw,Rechts,1,
,dotcolour,dotcolour,xotask,56,0,56,356,training,positivefb,82,hard,45,2.4664910999999847,['c'],1,left,['3'],4,0.30855030000020633,,,4,20,Vrouw,Rechts,1,
,dotcolour,dotcolour,xotask,57,0,57,357,training,positivefb,80,average,52,1.1674767000004067,['c'],1,left,['3'],4,0.21825010000065959,,,4,20,Vrouw,Rechts,1,
,dotcolour,dotcolour,xotask,58,0,58,358,training,positivefb,96,average,25,0.5507090999999491,['n'],1,right,['1'],6,0.2907488999999259,,,4,20,Vrouw,Rechts,1,
,dotcolour,dotcolour,xotask,59,0,59,359,training,positivefb,100,easy,61,0.582854899999802,['c'],1,left,['1'],6,0.29623049999918294,,,4,20,Vrouw,Rechts,1,
,dotcolour,dotcolour,xotask,0,1,60,360,training,positivefb,99,easy,15,0.7173492000001715,['n'],1,right,['1'],6,0.4074832000005699,,,4,20,Vrouw,Rechts,1,
,dotcolour,dotcolour,xotask,1,1,61,361,training,positivefb,98,average,29,0.7676372999994783,['n'],1,right,['1'],6,0.21681019999959972,,,4,20,Vrouw,Rechts,1,
,dotcolour,dotcolour,xotask,2,1,62,362,training,positivefb,96,easy,18,0.5165034000001469,['n'],1,right,['1'],6,0.25102830000014364,,,4,20,Vrouw,Rechts,1,
,dotcolour,dotcolour,xotask,3,1,63,363,training,positivefb,97,average,54,0.6004362000003312,['c'],1,left,['1'],6,0.2808400999992955,,,4,20,Vrouw,Rechts,1,
,dotcolour,dotcolour,xotask,4,1,64,364,training,positivefb,99,average,55,0.5339014000001043,['c'],1,left,['1'],6,0.3204758000001675,,,4,20,Vrouw,Rechts,1,
,dotcolour,dotcolour,xotask,5,1,65,365,training,positivefb,97,easy,15,0.5830710000000181,['n'],1,right,['1'],6,0.24412130000018806,,,4,20,Vrouw,Rechts,1,
,dotcolour,dotcolour,xotask,6,1,66,366,training,positivefb,94,average,27,0.7165345000003072,['n'],1,right,['1'],6,0.42202699999961624,,,4,20,Vrouw,Rechts,1,
,dotcolour,dotcolour,xotask,7,1,67,367,training,positivefb,92,average,52,0.7667553000001135,['c'],1,left,['1'],6,0.2552904000003764,,,4,20,Vrouw,Rechts,1,
,dotcolour,dotcolour,xotask,8,1,68,368,training,positivefb,95,average,29,0.7166574000002583,['n'],1,right,['1'],6,0.28819170000042504,,,4,20,Vrouw,Rechts,1,
,dotcolour,dotcolour,xotask,9,1,69,369,training,positivefb,95,average,26,0.8998983999999837,['n'],1,right,['1'],6,0.15337759999965783,,,4,20,Vrouw,Rechts,1,
,dotcolour,dotcolour,xotask,10,1,70,370,training,positivefb,73,easy,62,0.8345429999999396,['c'],1,left,['1'],6,0.29827540000042063,,,4,20,Vrouw,Rechts,1,
,dotcolour,dotcolour,xotask,11,1,71,371,training,positivefb,89,average,54,1.5508794000006674,['c'],1,left,['1'],6,0.42377289999967616,,,4,20,Vrouw,Rechts,1,
,dotcolour,dotcolour,xotask,12,1,72,372,training,positivefb,70,hard,35,1.4832013000004736,['c'],0,right,['3'],4,0.32402339999953256,,,4,20,Vrouw,Rechts,1,
,dotcolour,dotcolour,xotask,13,1,73,373,training,positivefb,89,hard,39,2.0007411999995384,['c'],0,right,['3'],4,0.2549250000001848,,,4,20,Vrouw,Rechts,1,
,dotcolour,dotcolour,xotask,14,1,74,374,training,positivefb,97,easy,19,0.5505385999995269,['n'],1,right,['2'],5,0.3676759999998467,,,4,20,Vrouw,Rechts,1,
,dotcolour,dotcolour,xotask,15,1,75,375,training,positivefb,65,hard,41,2.100339300000087,['n'],0,left,['3'],4,0.23684509999930015,,,4,20,Vrouw,Rechts,1,
,dotcolour,dotcolour,xotask,16,1,76,376,training,positivefb,92,average,51,1.0003131000003123,['c'],1,left,['2'],5,0.5795514999999796,,,4,20,Vrouw,Rechts,1,
,dotcolour,dotcolour,xotask,17,1,77,377,training,positivefb,96,easy,19,0.7504772000002049,['n'],1,right,['1'],6,0.24694819999967876,,,4,20,Vrouw,Rechts,1,
,dotcolour,dotcolour,xotask,18,1,78,378,training,positivefb,92,average,29,1.0321633999992628,['n'],1,right,['2'],5,0.24424739999994927,,,4,20,Vrouw,Rechts,1,
,dotcolour,dotcolour,xotask,19,1,79,379,training,positivefb,76,hard,41,1.6680422999997973,['c'],1,left,['3'],4,0.23248830000011367,,,4,20,Vrouw,Rechts,1,
,dotcolour,dotcolour,xotask,20,1,80,380,training,positivefb,56,hard,42,1.2829325000002427,['n'],0,left,['3'],4,0.5157514000002266,,,4,20,Vrouw,Rechts,1,
,dotcolour,dotcolour,xotask,21,1,81,381,training,positivefb,98,easy,63,0.7993436999995538,['c'],1,left,['1'],6,0.302258200000324,,,4,20,Vrouw,Rechts,1,
,dotcolour,dotcolour,xotask,22,1,82,382,training,positivefb,69,average,55,0.8161457999995037,['n'],0,left,['0'],1,0.9543099000002258,,,4,20,Vrouw,Rechts,1,
,dotcolour,dotcolour,xotask,23,1,83,383,training,positivefb,97,easy,64,0.7342839000002641,['c'],1,left,['1'],6,0.3268029999999271,,,4,20,Vrouw,Rechts,1,
,dotcolour,dotcolour,xotask,24,1,84,384,training,positivefb,91,hard,35,2.3014485999992758,['c'],0,right,['3'],4,0.27056069999980537,,,4,20,Vrouw,Rechts,1,
,dotcolour,dotcolour,xotask,25,1,85,385,training,positivefb,94,hard,36,1.8497148000005836,['n'],1,right,['3'],4,0.24110319999999774,,,4,20,Vrouw,Rechts,1,
,dotcolour,dotcolour,xotask,26,1,86,386,training,positivefb,93,average,52,1.1501523000006273,['c'],1,left,['1'],6,0.2898171999995611,,,4,20,Vrouw,Rechts,1,
,dotcolour,dotcolour,xotask,27,1,87,387,training,positivefb,91,hard,41,1.433009000000311,['c'],1,left,['2'],5,0.3179681999999957,,,4,20,Vrouw,Rechts,1,
,dotcolour,dotcolour,xotask,28,1,88,388,training,positivefb,97,easy,61,0.6169555999995282,['c'],1,left,['1'],6,0.28093859999989945,,,4,20,Vrouw,Rechts,1,
,dotcolour,dotcolour,xotask,29,1,89,389,training,positivefb,98,easy,18,0.8012745000005452,['n'],1,right,['1'],6,0.22966449999967153,,,4,20,Vrouw,Rechts,1,
,dotcolour,dotcolour,xotask,30,1,90,390,training,positivefb,67,hard,35,0.9990911999993841,['n'],1,right,['1'],6,0.2366436000002068,,,4,20,Vrouw,Rechts,1,
,dotcolour,dotcolour,xotask,31,1,91,391,training,positivefb,98,easy,64,0.7495682000007946,['c'],1,left,['1'],6,0.2777083999999377,,,4,20,Vrouw,Rechts,1,
,dotcolour,dotcolour,xotask,32,1,92,392,training,positivefb,79,hard,39,1.3157596999999441,['c'],0,right,['3'],4,0.5505132999996931,,,4,20,Vrouw,Rechts,1,
,dotcolour,dotcolour,xotask,33,1,93,393,training,positivefb,98,average,25,0.784821500000362,['n'],1,right,['1'],6,0.27331109999977343,,,4,20,Vrouw,Rechts,1,
,dotcolour,dotcolour,xotask,34,1,94,394,training,positivefb,88,hard,43,2.0007752999999866,['c'],1,left,['3'],4,0.2700623999999152,,,4,20,Vrouw,Rechts,1,
,dotcolour,dotcolour,xotask,35,1,95,395,training,positivefb,98,hard,41,1.083195700000033,['c'],1,left,['2'],5,0.6242860000002111,,,4,20,Vrouw,Rechts,1,
,dotcolour,dotcolour,xotask,36,1,96,396,training,positivefb,81,hard,36,2.566503400000329,['c'],0,right,['3'],4,0.18478259999938018,,,4,20,Vrouw,Rechts,1,
,dotcolour,dotcolour,xotask,37,1,97,397,training,positivefb,52,hard,44,2.516611200000625,['c'],1,left,['3'],4,0.2773942000003444,,,4,20,Vrouw,Rechts,1,
,dotcolour,dotcolour,xotask,38,1,98,398,training,positivefb,93,easy,15,1.400271900000007,['n'],1,right,['1'],6,0.32286409999960597,,,4,20,Vrouw,Rechts,1,
,dotcolour,dotcolour,xotask,39,1,99,399,training,positivefb,97,easy,62,0.8834729999998672,['c'],1,left,['1'],6,0.26649710000037885,,,4,20,Vrouw,Rechts,1,
,dotcolour,dotcolour,xotask,40,1,100,400,training,positivefb,83,average,28,1.5168323999996574,['n'],1,right,['2'],5,0.3874794000003021,,,4,20,Vrouw,Rechts,1,
,dotcolour,dotcolour,xotask,41,1,101,401,training,positivefb,45,hard,37,1.3669583999999304,['c'],0,right,['3'],4,0.5172972999998819,,,4,20,Vrouw,Rechts,1,
,dotcolour,dotcolour,xotask,42,1,102,402,training,positivefb,76,average,29,1.6512908000004245,['n'],1,right,['1'],6,0.2622197000000597,,,4,20,Vrouw,Rechts,1,
,dotcolour,dotcolour,xotask,43,1,103,403,training,positivefb,96,easy,64,0.8005604999998468,['c'],1,left,['1'],6,0.22056620000057592,,,4,20,Vrouw,Rechts,1,
,dotcolour,dotcolour,xotask,44,1,104,404,training,positivefb,94,hard,43,2.2011234999999942,['n'],0,left,['3'],4,0.4279718999996476,,,4,20,Vrouw,Rechts,1,
,dotcolour,dotcolour,xotask,45,1,105,405,training,positivefb,90,easy,61,0.9502243999995699,['c'],1,left,['1'],6,0.22988139999961277,,,4,20,Vrouw,Rechts,1,
,dotcolour,dotcolour,xotask,46,1,106,406,training,positivefb,94,average,53,1.300103699999454,['c'],1,left,['1'],6,0.2648823999998058,,,4,20,Vrouw,Rechts,1,
,dotcolour,dotcolour,xotask,47,1,107,407,training,positivefb,98,hard,36,1.0835291000003053,['n'],1,right,['2'],5,0.46621849999974074,,,4,20,Vrouw,Rechts,1,
,dotcolour,dotcolour,xotask,48,1,108,408,training,positivefb,98,easy,65,0.8008501000003889,['c'],1,left,['1'],6,0.26406889999998384,,,4,20,Vrouw,Rechts,1,
,dotcolour,dotcolour,xotask,49,1,109,409,training,positivefb,99,easy,19,0.601147100000162,['n'],1,right,['1'],6,0.27007919999959995,,,4,20,Vrouw,Rechts,1,
,dotcolour,dotcolour,xotask,50,1,110,410,training,positivefb,89,average,52,1.0839551999997639,['c'],1,left,['2'],5,0.5203651000001628,,,4,20,Vrouw,Rechts,1,
,dotcolour,dotcolour,xotask,51,1,111,411,training,positivefb,95,hard,35,1.017456100000345,['n'],1,right,['2'],5,0.2272862999998324,,,4,20,Vrouw,Rechts,1,
,dotcolour,dotcolour,xotask,52,1,112,412,training,positivefb,74,easy,16,0.8182396000001972,['c'],0,right,['1'],6,0.2890896999997494,,,4,20,Vrouw,Rechts,1,
,dotcolour,dotcolour,xotask,53,1,113,413,training,positivefb,91,hard,43,1.6175003000007564,['c'],1,left,['3'],4,0.3099314000000959,,,4,20,Vrouw,Rechts,1,
,dotcolour,dotcolour,xotask,54,1,114,414,training,positivefb,82,hard,42,1.8679454000002806,['c'],1,left,['2'],5,0.4392577999997229,,,4,20,Vrouw,Rechts,1,
,dotcolour,dotcolour,xotask,55,1,115,415,training,positivefb,89,average,25,0.7335370000000694,['n'],1,right,['1'],6,0.21625680000033753,,,4,20,Vrouw,Rechts,1,
,dotcolour,dotcolour,xotask,56,1,116,416,training,positivefb,96,average,52,1.433049299999766,['c'],1,left,['2'],5,0.7498628999992434,,,4,20,Vrouw,Rechts,1,
,dotcolour,dotcolour,xotask,57,1,117,417,training,positivefb,94,easy,19,0.7845872999996573,['n'],1,right,['1'],6,0.18524369999977353,,,4,20,Vrouw,Rechts,1,
,dotcolour,dotcolour,xotask,58,1,118,418,training,positivefb,89,easy,65,0.7505330000003596,['c'],1,left,['1'],6,0.2672045999997863,,,4,20,Vrouw,Rechts,1,
,dotcolour,dotcolour,xotask,59,1,119,419,training,positivefb,96,average,26,0.7662987999992765,['n'],1,right,['1'],6,0.2418958999996903,,,4,20,Vrouw,Rechts,1,
,dotcolour,dotcolour,xotask,0,2,120,420,main,positivefb,-99,average,25,0.999982700000146,['n'],1,right,['1'],6,0.22053860000050918,,,4,20,Vrouw,Rechts,1,
,dotcolour,dotcolour,xotask,1,2,121,421,main,positivefb,-99,easy,15,0.9170349000005444,['n'],1,right,['1'],6,0.2801416000002064,,,4,20,Vrouw,Rechts,1,
,dotcolour,dotcolour,xotask,2,2,122,422,main,positivefb,-99,easy,62,0.9513225999999122,['c'],1,left,['1'],6,0.23287580000032904,,,4,20,Vrouw,Rechts,1,
,dotcolour,dotcolour,xotask,3,2,123,423,main,positivefb,-99,average,53,2.7345304000000397,['c'],1,left,['2'],5,0.40283329999965645,,,4,20,Vrouw,Rechts,1,
,dotcolour,dotcolour,xotask,4,2,124,424,main,positivefb,-99,easy,18,2.450727999999799,['n'],1,right,['1'],6,0.16119520000029297,,,4,20,Vrouw,Rechts,1,
,dotcolour,dotcolour,xotask,5,2,125,425,main,positivefb,-99,hard,43,2.1336538999994445,['n'],0,left,['3'],4,0.26269460000003164,,,4,20,Vrouw,Rechts,1,
,dotcolour,dotcolour,xotask,6,2,126,426,main,positivefb,-99,easy,63,0.7174916999993002,['c'],1,left,['1'],6,0.28100670000003447,,,4,20,Vrouw,Rechts,1,
,dotcolour,dotcolour,xotask,7,2,127,427,main,positivefb,-99,easy,61,1.1169329000003927,['c'],1,left,['1'],6,0.24920659999952477,,,4,20,Vrouw,Rechts,1,
,dotcolour,dotcolour,xotask,8,2,128,428,main,positivefb,-99,hard,39,1.1342113000000609,['n'],1,right,['3'],4,0.4987461999999141,,,4,20,Vrouw,Rechts,1,
,dotcolour,dotcolour,xotask,9,2,129,429,main,positivefb,-99,average,29,1.1013221000002886,['n'],1,right,['2'],5,0.3954690999999002,,,4,20,Vrouw,Rechts,1,
,dotcolour,dotcolour,xotask,10,2,130,430,main,positivefb,-99,easy,64,0.7011106999998447,['c'],1,left,['1'],6,0.312068399999589,,,4,20,Vrouw,Rechts,1,
,dotcolour,dotcolour,xotask,11,2,131,431,main,positivefb,-99,easy,19,1.1342427999998108,['n'],1,right,['1'],6,0.20817749999969237,,,4,20,Vrouw,Rechts,1,
,dotcolour,dotcolour,xotask,12,2,132,432,main,positivefb,-99,hard,42,1.3010365999998612,['c'],1,left,['3'],4,0.29284240000015416,,,4,20,Vrouw,Rechts,1,
,dotcolour,dotcolour,xotask,13,2,133,433,main,positivefb,-99,average,55,0.90001889999985,['c'],1,left,['2'],5,0.34179020000010496,,,4,20,Vrouw,Rechts,1,
,dotcolour,dotcolour,xotask,14,2,134,434,main,positivefb,-99,hard,42,1.602444999999534,['n'],0,left,['3'],4,0.3212368000004062,,,4,20,Vrouw,Rechts,1,
,dotcolour,dotcolour,xotask,15,2,135,435,main,positivefb,-99,average,55,2.4175641000001633,['c'],1,left,['3'],4,0.2447052999996231,,,4,20,Vrouw,Rechts,1,
,dotcolour,dotcolour,xotask,16,2,136,436,main,positivefb,-99,easy,63,1.0177402999997867,['c'],1,left,['1'],6,0.6671704999998838,,,4,20,Vrouw,Rechts,1,
,dotcolour,dotcolour,xotask,17,2,137,437,main,positivefb,-99,average,52,1.6847984999994878,['c'],1,left,['2'],5,0.39016970000011497,,,4,20,Vrouw,Rechts,1,
,dotcolour,dotcolour,xotask,18,2,138,438,main,positivefb,-99,easy,15,1.1342730999995183,['n'],1,right,['1'],6,0.586677399999644,,,4,20,Vrouw,Rechts,1,
,dotcolour,dotcolour,xotask,19,2,139,439,main,positivefb,-99,hard,43,1.5674509999998918,['n'],0,left,['3'],4,0.35709009999936825,,,4,20,Vrouw,Rechts,1,
,dotcolour,dotcolour,xotask,20,2,140,440,main,positivefb,-99,average,54,1.5839249999999083,['c'],1,left,['2'],5,0.27968090000013035,,,4,20,Vrouw,Rechts,1,
,dotcolour,dotcolour,xotask,21,2,141,441,main,positivefb,-99,average,53,0.8834584999995059,['c'],1,left,['1'],6,0.5468430999999327,,,4,20,Vrouw,Rechts,1,
,dotcolour,dotcolour,xotask,22,2,142,442,main,positivefb,-99,hard,45,1.1680867999994007,['n'],0,left,['2'],5,0.5357481000000917,,,4,20,Vrouw,Rechts,1,
,dotcolour,dotcolour,xotask,23,2,143,443,main,positivefb,-99,average,27,1.0346810000000914,['n'],1,right,['1'],6,0.15357469999980822,,,4,20,Vrouw,Rechts,1,
,dotcolour,dotcolour,xotask,24,2,144,444,main,positivefb,-99,easy,15,0.7173831000000064,['n'],1,right,['1'],6,0.31882450000011886,,,4,20,Vrouw,Rechts,1,
,dotcolour,dotcolour,xotask,25,2,145,445,main,positivefb,-99,average,51,1.8011724999996659,['n'],0,left,['3'],4,0.30003099999976257,,,4,20,Vrouw,Rechts,1,
,dotcolour,dotcolour,xotask,26,2,146,446,main,positivefb,-99,hard,36,2.0662422999994305,['n'],1,right,['3'],4,0.22893950000070618,,,4,20,Vrouw,Rechts,1,
,dotcolour,dotcolour,xotask,27,2,147,447,main,positivefb,-99,average,25,1.0837542999997822,['n'],1,right,['1'],6,0.27429209999991144,,,4,20,Vrouw,Rechts,1,
,dotcolour,dotcolour,xotask,28,2,148,448,main,positivefb,-99,easy,63,0.7677941000001738,['c'],1,left,['1'],6,0.32920220000050904,,,4,20,Vrouw,Rechts,1,
,dotcolour,dotcolour,xotask,29,2,149,449,main,positivefb,-99,hard,37,0.7673206999998001,['n'],1,right,['1'],6,0.28647970000019995,,,4,20,Vrouw,Rechts,1,
,dotcolour,dotcolour,xotask,30,2,150,450,main,positivefb,-99,hard,38,1.9179697999998098,['c'],0,right,['3'],4,0.30357940000067174,,,4,20,Vrouw,Rechts,1,
,dotcolour,dotcolour,xotask,31,2,151,451,main,positivefb,-99,easy,15,0.8171339000000444,['n'],1,right,['1'],6,0.2671908000002077,,,4,20,Vrouw,Rechts,1,
,dotcolour,dotcolour,xotask,32,2,152,452,main,positivefb,-99,hard,43,2.233874999999898,['c'],1,left,['3'],4,0.32827030000044033,,,4,20,Vrouw,Rechts,1,
,dotcolour,dotcolour,xotask,33,2,153,453,main,positivefb,-99,easy,65,1.251196400000481,['c'],1,left,['1'],6,0.2509127000002991,,,4,20,Vrouw,Rechts,1,
,dotcolour,dotcolour,xotask,34,2,154,454,main,positivefb,-99,average,25,0.6512654000007387,['n'],1,right,['1'],6,0.21480390000033367,,,4,20,Vrouw,Rechts,1,
,dotcolour,dotcolour,xotask,35,2,155,455,main,positivefb,-99,hard,37,2.8180818000000727,['n'],1,right,['3'],4,0.3663800000003903,,,4,20,Vrouw,Rechts,1,
,dotcolour,dotcolour,xotask,36,2,156,456,main,positivefb,-99,easy,19,0.7843169999996462,['c'],0,right,['0'],1,1.6085073000003831,,,4,20,Vrouw,Rechts,1,
,dotcolour,dotcolour,xotask,37,2,157,457,main,positivefb,-99,easy,62,1.2350571000006312,['c'],1,left,['1'],6,0.3119183000007979,,,4,20,Vrouw,Rechts,1,
,dotcolour,dotcolour,xotask,38,2,158,458,main,positivefb,-99,average,29,0.8512104999999792,['n'],1,right,['1'],6,0.5305582000000868,,,4,20,Vrouw,Rechts,1,
,dotcolour,dotcolour,xotask,39,2,159,459,main,positivefb,-99,average,28,1.7834391999995205,['n'],1,right,['2'],5,0.3667899000001853,,,4,20,Vrouw,Rechts,1,
,dotcolour,dotcolour,xotask,40,2,160,460,main,positivefb,-99,hard,39,1.151813000000402,['n'],1,right,['2'],5,0.24267599999984668,,,4,20,Vrouw,Rechts,1,
,dotcolour,dotcolour,xotask,41,2,161,461,main,positivefb,-99,hard,39,1.8674144999995406,['n'],1,right,['3'],4,0.2552771999999095,,,4,20,Vrouw,Rechts,1,
,dotcolour,dotcolour,xotask,42,2,162,462,main,positivefb,-99,average,52,1.8172554000002492,['c'],1,left,['2'],5,0.25406590000056894,,,4,20,Vrouw,Rechts,1,
,dotcolour,dotcolour,xotask,43,2,163,463,main,positivefb,-99,hard,45,1.8018529000000854,['c'],1,left,['3'],4,0.27678110000033485,,,4,20,Vrouw,Rechts,1,
,dotcolour,dotcolour,xotask,44,2,164,464,main,positivefb,-99,hard,44,1.15154800000073,['n'],0,left,['2'],5,0.4686831999997594,,,4,20,Vrouw,Rechts,1,
,dotcolour,dotcolour,xotask,45,2,165,465,main,positivefb,-99,easy,65,1.1352392999997392,['c'],1,left,['1'],6,0.23737699999946926,,,4,20,Vrouw,Rechts,1,
,dotcolour,dotcolour,xotask,46,2,166,466,main,positivefb,-99,easy,62,0.6849083000006431,['c'],1,left,['1'],6,0.2570587999998679,,,4,20,Vrouw,Rechts,1,
,dotcolour,dotcolour,xotask,47,2,167,467,main,positivefb,-99,easy,15,0.6347677999992811,['n'],1,right,['1'],6,0.3500168999999005,,,4,20,Vrouw,Rechts,1,
,dotcolour,dotcolour,xotask,48,2,168,468,main,positivefb,-99,average,27,1.2667138000006162,['n'],1,right,['2'],5,0.9026714999999967,,,4,20,Vrouw,Rechts,1,
,dotcolour,dotcolour,xotask,49,2,169,469,main,positivefb,-99,hard,41,2.6336918000006335,['n'],0,left,['3'],4,0.4898243999996339,,,4,20,Vrouw,Rechts,1,
,dotcolour,dotcolour,xotask,50,2,170,470,main,positivefb,-99,average,28,0.9513651999996,['n'],1,right,['1'],6,0.7294962000005398,,,4,20,Vrouw,Rechts,1,
,dotcolour,dotcolour,xotask,51,2,171,471,main,positivefb,-99,hard,35,1.3341481999996176,['n'],1,right,['2'],5,0.3114925999998377,,,4,20,Vrouw,Rechts,1,
,dotcolour,dotcolour,xotask,52,2,172,472,main,positivefb,-99,average,52,1.134504300000117,['c'],1,left,['1'],6,0.398810699999558,,,4,20,Vrouw,Rechts,1,
,dotcolour,dotcolour,xotask,53,2,173,473,main,positivefb,-99,hard,36,1.034261200000401,['n'],1,right,['1'],6,0.28598759999931644,,,4,20,Vrouw,Rechts,1,
,dotcolour,dotcolour,xotask,54,2,174,474,main,positivefb,-99,hard,45,4.3684594000005745,['n'],0,left,['3'],4,0.16526909999993222,,,4,20,Vrouw,Rechts,1,
,dotcolour,dotcolour,xotask,55,2,175,475,main,positivefb,-99,average,25,0.8171890000003259,['n'],1,right,['1'],6,0.33441949999996723,,,4,20,Vrouw,Rechts,1,
,dotcolour,dotcolour,xotask,56,2,176,476,main,positivefb,-99,easy,15,0.5839789999999994,['n'],1,right,['1'],6,0.34688550000009855,,,4,20,Vrouw,Rechts,1,
,dotcolour,dotcolour,xotask,57,2,177,477,main,positivefb,-99,hard,35,1.034615099999428,['n'],1,right,['2'],5,0.5007191999993665,,,4,20,Vrouw,Rechts,1,
,dotcolour,dotcolour,xotask,58,2,178,478,main,positivefb,-99,average,52,0.9014683999994304,['c'],1,left,['1'],6,0.28599539999959234,,,4,20,Vrouw,Rechts,1,
,dotcolour,dotcolour,xotask,59,2,179,479,main,positivefb,-99,easy,17,0.667432799999915,['n'],1,right,['1'],6,0.30418599999939033,,,4,20,Vrouw,Rechts,1,
,dotcolour,dotcolour,xotask,0,3,180,480,main,positivefb,-99,hard,35,1.5842747000006057,['n'],1,right,['2'],5,0.35733410000011645,,,4,20,Vrouw,Rechts,1,
,dotcolour,dotcolour,xotask,1,3,181,481,main,positivefb,-99,average,26,0.7683907999999064,['n'],1,right,['1'],6,0.512977100000171,,,4,20,Vrouw,Rechts,1,
,dotcolour,dotcolour,xotask,2,3,182,482,main,positivefb,-99,hard,41,2.1181225000000268,['n'],0,left,['3'],4,0.44150749999971595,,,4,20,Vrouw,Rechts,1,
,dotcolour,dotcolour,xotask,3,3,183,483,main,positivefb,-99,average,29,0.8511247999995248,['n'],1,right,['2'],5,0.2947584999992614,,,4,20,Vrouw,Rechts,1,
,dotcolour,dotcolour,xotask,4,3,184,484,main,positivefb,-99,easy,61,0.8678601000001436,['c'],1,left,['1'],6,0.22534889999951702,,,4,20,Vrouw,Rechts,1,
,dotcolour,dotcolour,xotask,5,3,185,485,main,positivefb,-99,average,27,0.668339300000298,['n'],1,right,['1'],6,0.19905810000000201,,,4,20,Vrouw,Rechts,1,
,dotcolour,dotcolour,xotask,6,3,186,486,main,positivefb,-99,easy,64,0.7517155000005005,['c'],1,left,['1'],6,0.24100219999945693,,,4,20,Vrouw,Rechts,1,
,dotcolour,dotcolour,xotask,7,3,187,487,main,positivefb,-99,hard,45,1.6171534000004613,['n'],0,left,['3'],4,0.2566458999999668,,,4,20,Vrouw,Rechts,1,
,dotcolour,dotcolour,xotask,8,3,188,488,main,positivefb,-99,average,28,0.6682563999993363,['n'],1,right,['1'],6,0.2841275000000678,,,4,20,Vrouw,Rechts,1,
,dotcolour,dotcolour,xotask,9,3,189,489,main,positivefb,-99,hard,42,1.4006247999996049,['n'],0,left,['2'],5,0.24925869999970018,,,4,20,Vrouw,Rechts,1,
,dotcolour,dotcolour,xotask,10,3,190,490,main,positivefb,-99,hard,39,1.1504888999998002,['n'],1,right,['2'],5,0.2264428999997108,,,4,20,Vrouw,Rechts,1,
,dotcolour,dotcolour,xotask,11,3,191,491,main,positivefb,-99,easy,17,0.7851505999997244,['n'],1,right,['1'],6,0.17061720000037894,,,4,20,Vrouw,Rechts,1,
,dotcolour,dotcolour,xotask,12,3,192,492,main,positivefb,-99,average,28,0.9520493999998507,['n'],1,right,['1'],6,0.206836000000294,,,4,20,Vrouw,Rechts,1,
,dotcolour,dotcolour,xotask,13,3,193,493,main,positivefb,-99,easy,63,0.7520512000000963,['c'],1,left,['1'],6,0.27372749999994994,,,4,20,Vrouw,Rechts,1,
,dotcolour,dotcolour,xotask,14,3,194,494,main,positivefb,-99,hard,37,1.5842737000002671,['n'],1,right,['3'],4,0.288187499999367,,,4,20,Vrouw,Rechts,1,
,dotcolour,dotcolour,xotask,15,3,195,495,main,positivefb,-99,easy,17,0.7002050999999483,['n'],1,right,['1'],6,0.35415869999997085,,,4,20,Vrouw,Rechts,1,
,dotcolour,dotcolour,xotask,16,3,196,496,main,positivefb,-99,easy,65,0.9185704999999871,['c'],1,left,['1'],6,0.25548520000029384,,,4,20,Vrouw,Rechts,1,
,dotcolour,dotcolour,xotask,17,3,197,497,main,positivefb,-99,hard,37,1.167770300000484,['n'],1,right,['1'],6,0.303973600000063,,,4,20,Vrouw,Rechts,1,
,dotcolour,dotcolour,xotask,18,3,198,498,main,positivefb,-99,easy,64,0.8012301000007938,['c'],1,left,['1'],6,0.356584400000429,,,4,20,Vrouw,Rechts,1,
,dotcolour,dotcolour,xotask,19,3,199,499,main,positivefb,-99,average,51,0.8175733999996737,['c'],1,left,['3'],4,1.1108506000000489,,,4,20,Vrouw,Rechts,1,
,dotcolour,dotcolour,xotask,20,3,200,500,main,positivefb,-99,easy,63,0.8004157000004852,['c'],1,left,['1'],6,0.4105115000002115,,,4,20,Vrouw,Rechts,1,
,dotcolour,dotcolour,xotask,21,3,201,501,main,positivefb,-99,easy,64,1.4674286999998003,['c'],1,left,['1'],6,0.2734276000001046,,,4,20,Vrouw,Rechts,1,
,dotcolour,dotcolour,xotask,22,3,202,502,main,positivefb,-99,easy,19,0.867718500000592,['n'],1,right,['1'],6,0.24435640000046988,,,4,20,Vrouw,Rechts,1,
,dotcolour,dotcolour,xotask,23,3,203,503,main,positivefb,-99,average,51,1.5180663999999524,['c'],1,left,['2'],5,0.2946551000004547,,,4,20,Vrouw,Rechts,1,
,dotcolour,dotcolour,xotask,24,3,204,504,main,positivefb,-99,hard,36,0.9012908000004245,['n'],1,right,['1'],6,0.3047569000000294,,,4,20,Vrouw,Rechts,1,
,dotcolour,dotcolour,xotask,25,3,205,505,main,positivefb,-99,average,25,0.7346176999999443,['n'],1,right,['1'],6,0.31975450000027195,,,4,20,Vrouw,Rechts,1,
,dotcolour,dotcolour,xotask,26,3,206,506,main,positivefb,-99,easy,63,0.9343066000001272,['c'],1,left,['2'],5,0.3185247999999774,,,4,20,Vrouw,Rechts,1,
,dotcolour,dotcolour,xotask,27,3,207,507,main,positivefb,-99,average,54,1.7343211000006704,['n'],0,left,['3'],4,0.3327502000001914,,,4,20,Vrouw,Rechts,1,
,dotcolour,dotcolour,xotask,28,3,208,508,main,positivefb,-99,easy,19,0.7342905000004976,['n'],1,right,['1'],6,0.2905131999996229,,,4,20,Vrouw,Rechts,1,
,dotcolour,dotcolour,xotask,29,3,209,509,main,positivefb,-99,easy,17,0.7016024999993533,['n'],1,right,['1'],6,0.24450400000023365,,,4,20,Vrouw,Rechts,1,
,dotcolour,dotcolour,xotask,30,3,210,510,main,positivefb,-99,hard,38,1.200470600000699,['n'],1,right,['2'],5,0.24350159999994503,,,4,20,Vrouw,Rechts,1,
,dotcolour,dotcolour,xotask,31,3,211,511,main,positivefb,-99,average,26,0.6188670000001366,['n'],1,right,['1'],6,0.2660180000002583,,,4,20,Vrouw,Rechts,1,
,dotcolour,dotcolour,xotask,32,3,212,512,main,positivefb,-99,hard,35,0.9013076999999612,['n'],1,right,['2'],5,0.2921926999997595,,,4,20,Vrouw,Rechts,1,
,dotcolour,dotcolour,xotask,33,3,213,513,main,positivefb,-99,easy,16,0.6514078000000154,['n'],1,right,['1'],6,0.31169019999924785,,,4,20,Vrouw,Rechts,1,
,dotcolour,dotcolour,xotask,34,3,214,514,main,positivefb,-99,average,51,1.984505800000079,['c'],1,left,['2'],5,0.7969647999998415,,,4,20,Vrouw,Rechts,1,
,dotcolour,dotcolour,xotask,35,3,215,515,main,positivefb,-99,hard,45,2.6687286999995194,['c'],1,left,['3'],4,0.2754279000000679,,,4,20,Vrouw,Rechts,1,
,dotcolour,dotcolour,xotask,36,3,216,516,main,positivefb,-99,average,29,1.3004636999994545,['n'],1,right,['2'],5,0.5818822999999611,,,4,20,Vrouw,Rechts,1,
,dotcolour,dotcolour,xotask,37,3,217,517,main,positivefb,-99,hard,42,1.4179287999995722,['c'],1,left,['2'],5,0.27805069999976695,,,4,20,Vrouw,Rechts,1,
,dotcolour,dotcolour,xotask,38,3,218,518,main,positivefb,-99,hard,43,1.9841666000002078,['n'],0,left,['2'],5,0.389075000000048,,,4,20,Vrouw,Rechts,1,
,dotcolour,dotcolour,xotask,39,3,219,519,main,positivefb,-99,hard,37,0.8003011000000697,['n'],1,right,['1'],6,0.2542024999993373,,,4,20,Vrouw,Rechts,1,
,dotcolour,dotcolour,xotask,40,3,220,520,main,positivefb,-99,hard,35,1.2677237999996578,['n'],1,right,['2'],5,0.3146390000001702,,,4,20,Vrouw,Rechts,1,
,dotcolour,dotcolour,xotask,41,3,221,521,main,positivefb,-99,average,54,1.0843483000007836,['c'],1,left,['1'],6,0.723541500000465,,,4,20,Vrouw,Rechts,1,
,dotcolour,dotcolour,xotask,42,3,222,522,main,positivefb,-99,average,26,0.6831359000007069,['n'],1,right,['1'],6,0.21964479999951436,,,4,20,Vrouw,Rechts,1,
,dotcolour,dotcolour,xotask,43,3,223,523,main,positivefb,-99,easy,16,0.5498077000002013,['n'],1,right,['1'],6,0.26192790000004607,,,4,20,Vrouw,Rechts,1,
,dotcolour,dotcolour,xotask,44,3,224,524,main,positivefb,-99,average,25,0.567408300000352,['n'],1,right,['1'],6,0.3816826000002038,,,4,20,Vrouw,Rechts,1,
,dotcolour,dotcolour,xotask,45,3,225,525,main,positivefb,-99,easy,16,0.5840331999997943,['n'],1,right,['1'],6,0.3359159000001455,,,4,20,Vrouw,Rechts,1,
,dotcolour,dotcolour,xotask,46,3,226,526,main,positivefb,-99,hard,44,0.8848915999997189,['c'],1,left,['1'],6,0.3201694999997926,,,4,20,Vrouw,Rechts,1,
,dotcolour,dotcolour,xotask,47,3,227,527,main,positivefb,-99,average,52,1.2012648999998419,['c'],1,left,['1'],6,0.2758739000000787,,,4,20,Vrouw,Rechts,1,
,dotcolour,dotcolour,xotask,48,3,228,528,main,positivefb,-99,hard,37,1.6847994999998264,['n'],1,right,['2'],5,0.19882050000069285,,,4,20,Vrouw,Rechts,1,
,dotcolour,dotcolour,xotask,49,3,229,529,main,positivefb,-99,easy,18,0.6679426999999123,['n'],1,right,['1'],6,0.4050336000000243,,,4,20,Vrouw,Rechts,1,
,dotcolour,dotcolour,xotask,50,3,230,530,main,positivefb,-99,average,53,0.767391299999872,['c'],1,left,['2'],5,0.7985027000004266,,,4,20,Vrouw,Rechts,1,
,dotcolour,dotcolour,xotask,51,3,231,531,main,positivefb,-99,average,52,1.9510974999993778,['c'],1,left,['2'],5,0.42521559999931924,,,4,20,Vrouw,Rechts,1,
,dotcolour,dotcolour,xotask,52,3,232,532,main,positivefb,-99,easy,63,0.7002074000001812,['c'],1,left,['1'],6,0.3658988999995927,,,4,20,Vrouw,Rechts,1,
,dotcolour,dotcolour,xotask,53,3,233,533,main,positivefb,-99,average,54,0.6169874999995955,['c'],1,left,['1'],6,0.5988131000003705,,,4,20,Vrouw,Rechts,1,
,dotcolour,dotcolour,xotask,54,3,234,534,main,positivefb,-99,easy,18,0.6510576000000583,['n'],1,right,['1'],6,0.16575130000001081,,,4,20,Vrouw,Rechts,1,
,dotcolour,dotcolour,xotask,55,3,235,535,main,positivefb,-99,hard,44,1.3021974000002956,['n'],0,left,['2'],5,0.27481299999999464,,,4,20,Vrouw,Rechts,1,
,dotcolour,dotcolour,xotask,56,3,236,536,main,positivefb,-99,average,52,0.6843029999999999,['c'],1,left,['2'],5,0.7338621999997486,,,4,20,Vrouw,Rechts,1,
,dotcolour,dotcolour,xotask,57,3,237,537,main,positivefb,-99,hard,43,0.9851418999996895,['n'],0,left,['2'],5,2.1620068000001993,,,4,20,Vrouw,Rechts,1,
,dotcolour,dotcolour,xotask,58,3,238,538,main,positivefb,-99,hard,45,2.7354192000002513,['n'],0,left,['2'],5,0.3433991000001697,,,4,20,Vrouw,Rechts,1,
,dotcolour,dotcolour,xotask,59,3,239,539,main,positivefb,-99,easy,64,0.7672410000004675,['c'],1,left,['1'],6,0.3317859999997381,,,4,20,Vrouw,Rechts,1,
,dotcolour,dotcolour,xotask,0,4,240,540,main,positivefb,-99,average,27,2.583914900000309,['n'],1,right,['1'],6,0.49669460000041,,,4,20,Vrouw,Rechts,1,
,dotcolour,dotcolour,xotask,1,4,241,541,main,positivefb,-99,hard,36,1.0180723000003127,['n'],1,right,['2'],5,0.3656119999996008,,,4,20,Vrouw,Rechts,1,
,dotcolour,dotcolour,xotask,2,4,242,542,main,positivefb,-99,average,55,0.7012739000001602,['c'],1,left,['1'],6,0.2592319999994288,,,4,20,Vrouw,Rechts,1,
,dotcolour,dotcolour,xotask,3,4,243,543,main,positivefb,-99,average,29,0.8009310000006735,['n'],1,right,['1'],6,0.22662929999933112,,,4,20,Vrouw,Rechts,1,
,dotcolour,dotcolour,xotask,4,4,244,544,main,positivefb,-99,easy,15,0.7010656999991625,['n'],1,right,['1'],6,0.41459409999970376,,,4,20,Vrouw,Rechts,1,
,dotcolour,dotcolour,xotask,5,4,245,545,main,positivefb,-99,hard,36,1.0674692000002324,['n'],1,right,['3'],4,0.6916453999992882,,,4,20,Vrouw,Rechts,1,
,dotcolour,dotcolour,xotask,6,4,246,546,main,positivefb,-99,hard,45,2.5825676000004023,['c'],1,left,['8'],3,1.0494472000000314,,,4,20,Vrouw,Rechts,1,
,dotcolour,dotcolour,xotask,7,4,247,547,main,positivefb,-99,hard,35,1.2510987000005116,['n'],1,right,['2'],5,1.0065862999999808,,,4,20,Vrouw,Rechts,1,
,dotcolour,dotcolour,xotask,8,4,248,548,main,positivefb,-99,average,55,0.7835184999994453,['c'],1,left,['2'],5,0.36772259999997914,,,4,20,Vrouw,Rechts,1,
,dotcolour,dotcolour,xotask,9,4,249,549,main,positivefb,-99,easy,63,0.7017204000003403,['c'],1,left,['1'],6,0.24596459999975195,,,4,20,Vrouw,Rechts,1,
,dotcolour,dotcolour,xotask,10,4,250,550,main,positivefb,-99,average,27,0.8016144000002896,['n'],1,right,['1'],6,0.2617726999997103,,,4,20,Vrouw,Rechts,1,
,dotcolour,dotcolour,xotask,11,4,251,551,main,positivefb,-99,easy,19,0.9516862000000401,['n'],1,right,['1'],6,0.2452856999998403,,,4,20,Vrouw,Rechts,1,
,dotcolour,dotcolour,xotask,12,4,252,552,main,positivefb,-99,easy,62,0.7160970999993879,['c'],1,left,['1'],6,0.24861910000072385,,,4,20,Vrouw,Rechts,1,
,dotcolour,dotcolour,xotask,13,4,253,553,main,positivefb,-99,hard,45,1.0514577000003555,['n'],0,left,['3'],4,0.23686369999995804,,,4,20,Vrouw,Rechts,1,
,dotcolour,dotcolour,xotask,14,4,254,554,main,positivefb,-99,easy,63,0.850478600000315,['c'],1,left,['1'],6,0.2578456000001097,,,4,20,Vrouw,Rechts,1,
,dotcolour,dotcolour,xotask,15,4,255,555,main,positivefb,-99,average,26,0.6345891999999367,['n'],1,right,['1'],6,0.25521670000125596,,,4,20,Vrouw,Rechts,1,
,dotcolour,dotcolour,xotask,16,4,256,556,main,positivefb,-99,average,28,0.6851542000003974,['n'],1,right,['1'],6,0.3072143999997934,,,4,20,Vrouw,Rechts,1,
,dotcolour,dotcolour,xotask,17,4,257,557,main,positivefb,-99,easy,18,0.7181995999999344,['n'],1,right,['1'],6,0.2270410000000993,,,4,20,Vrouw,Rechts,1,
,dotcolour,dotcolour,xotask,18,4,258,558,main,positivefb,-99,average,53,0.9513372000001254,['c'],1,left,['9'],2,3.31691630000023,,,4,20,Vrouw,Rechts,1,
,dotcolour,dotcolour,xotask,19,4,259,559,main,positivefb,-99,easy,15,0.91770969999925,['n'],1,right,['1'],6,0.42789059999995516,,,4,20,Vrouw,Rechts,1,
,dotcolour,dotcolour,xotask,20,4,260,560,main,positivefb,-99,easy,16,0.7848470999997517,['n'],1,right,['1'],6,0.2050753999992594,,,4,20,Vrouw,Rechts,1,
,dotcolour,dotcolour,xotask,21,4,261,561,main,positivefb,-99,hard,44,2.1505041000000347,['c'],1,left,['3'],4,0.3115703000003123,,,4,20,Vrouw,Rechts,1,
,dotcolour,dotcolour,xotask,22,4,262,562,main,positivefb,-99,easy,64,0.7677376000010554,['c'],1,left,['1'],6,0.8776357000006101,,,4,20,Vrouw,Rechts,1,
,dotcolour,dotcolour,xotask,23,4,263,563,main,positivefb,-99,easy,16,0.6846839999998338,['n'],1,right,['1'],6,0.36890829999902053,,,4,20,Vrouw,Rechts,1,
,dotcolour,dotcolour,xotask,24,4,264,564,main,positivefb,-99,hard,45,1.4676330999991478,['n'],0,left,['1'],6,0.8878899999999703,,,4,20,Vrouw,Rechts,1,
,dotcolour,dotcolour,xotask,25,4,265,565,main,positivefb,-99,hard,42,1.3679805000010674,['n'],0,left,['3'],4,0.4867701000002853,,,4,20,Vrouw,Rechts,1,
,dotcolour,dotcolour,xotask,26,4,266,566,main,positivefb,-99,hard,42,1.5504234999989421,['c'],1,left,['2'],5,0.36567359999935434,,,4,20,Vrouw,Rechts,1,
,dotcolour,dotcolour,xotask,27,4,267,567,main,positivefb,-99,easy,15,1.034516400000939,['n'],1,right,['1'],6,0.3105003000000579,,,4,20,Vrouw,Rechts,1,
,dotcolour,dotcolour,xotask,28,4,268,568,main,positivefb,-99,easy,15,0.6341621999999916,['n'],1,right,['1'],6,0.3785664999995788,,,4,20,Vrouw,Rechts,1,
,dotcolour,dotcolour,xotask,29,4,269,569,main,positivefb,-99,easy,61,1.884277099999963,['c'],1,left,['1'],6,1.0890070000004926,,,4,20,Vrouw,Rechts,1,
,dotcolour,dotcolour,xotask,30,4,270,570,main,positivefb,-99,easy,18,0.7842142999998032,['n'],1,right,['1'],6,0.19850039999982982,,,4,20,Vrouw,Rechts,1,
,dotcolour,dotcolour,xotask,31,4,271,571,main,positivefb,-99,average,25,1.6514937000010832,['n'],1,right,['3'],4,0.2127316999994946,,,4,20,Vrouw,Rechts,1,
,dotcolour,dotcolour,xotask,32,4,272,572,main,positivefb,-99,easy,63,0.8006475000001956,['c'],1,left,['1'],6,0.2779854999989766,,,4,20,Vrouw,Rechts,1,
,dotcolour,dotcolour,xotask,33,4,273,573,main,positivefb,-99,easy,64,1.349949999999808,['c'],1,left,['1'],6,0.31026419999943755,,,4,20,Vrouw,Rechts,1,
,dotcolour,dotcolour,xotask,34,4,274,574,main,positivefb,-99,hard,41,2.384978099998989,['n'],0,left,['3'],4,0.6029828999999154,,,4,20,Vrouw,Rechts,1,
,dotcolour,dotcolour,xotask,35,4,275,575,main,positivefb,-99,hard,45,3.0514138999988063,['n'],0,left,['3'],4,0.3307457999999315,,,4,20,Vrouw,Rechts,1,
,dotcolour,dotcolour,xotask,36,4,276,576,main,positivefb,-99,hard,39,2.3344139000000723,['n'],1,right,['3'],4,0.7123900999995385,,,4,20,Vrouw,Rechts,1,
,dotcolour,dotcolour,xotask,37,4,277,577,main,positivefb,-99,average,29,1.917516200001046,['n'],1,right,['2'],5,0.36085350000030303,,,4,20,Vrouw,Rechts,1,
,dotcolour,dotcolour,xotask,38,4,278,578,main,positivefb,-99,hard,43,2.4013515999995434,['n'],0,left,['3'],4,0.24370029999954568,,,4,20,Vrouw,Rechts,1,
,dotcolour,dotcolour,xotask,39,4,279,579,main,positivefb,-99,hard,37,1.5338963999984117,['n'],1,right,['2'],5,2.205640599999242,,,4,20,Vrouw,Rechts,1,
,dotcolour,dotcolour,xotask,40,4,280,580,main,positivefb,-99,average,51,1.2003253000002587,['c'],1,left,['2'],5,0.534607399999004,,,4,20,Vrouw,Rechts,1,
,dotcolour,dotcolour,xotask,41,4,281,581,main,positivefb,-99,average,55,1.8341792000010173,['c'],1,left,['2'],5,0.3200084000000061,,,4,20,Vrouw,Rechts,1,
,dotcolour,dotcolour,xotask,42,4,282,582,main,positivefb,-99,easy,18,1.0173485999985132,['n'],1,right,['1'],6,0.24391819999982545,,,4,20,Vrouw,Rechts,1,
,dotcolour,dotcolour,xotask,43,4,283,583,main,positivefb,-99,hard,38,1.1679992999997921,['n'],1,right,['1'],6,0.22836289999941073,,,4,20,Vrouw,Rechts,1,
,dotcolour,dotcolour,xotask,44,4,284,584,main,positivefb,-99,average,54,1.518296800000826,['c'],1,left,['2'],5,0.2637164000007033,,,4,20,Vrouw,Rechts,1,
,dotcolour,dotcolour,xotask,45,4,285,585,main,positivefb,-99,hard,37,1.4344482999986212,['n'],1,right,['2'],5,0.5243536999987555,,,4,20,Vrouw,Rechts,1,
,dotcolour,dotcolour,xotask,46,4,286,586,main,positivefb,-99,easy,63,1.2176732999996602,['c'],1,left,['1'],6,0.22422430000005988,,,4,20,Vrouw,Rechts,1,
,dotcolour,dotcolour,xotask,47,4,287,587,main,positivefb,-99,average,52,2.417665199998737,['c'],1,left,['3'],4,0.2962230000011914,,,4,20,Vrouw,Rechts,1,
,dotcolour,dotcolour,xotask,48,4,288,588,main,positivefb,-99,hard,45,1.3346099999998842,['n'],0,left,['3'],4,0.6156680999993114,,,4,20,Vrouw,Rechts,1,
,dotcolour,dotcolour,xotask,49,4,289,589,main,positivefb,-99,average,52,1.484007200000633,['c'],1,left,['2'],5,0.4844855000010284,,,4,20,Vrouw,Rechts,1,
,dotcolour,dotcolour,xotask,50,4,290,590,main,positivefb,-99,hard,39,1.333921299999929,['n'],1,right,['2'],5,0.21262000000024273,,,4,20,Vrouw,Rechts,1,
,dotcolour,dotcolour,xotask,51,4,291,591,main,positivefb,-99,average,52,2.368991299999834,['n'],0,left,['3'],4,0.25443020000057004,,,4,20,Vrouw,Rechts,1,
,dotcolour,dotcolour,xotask,52,4,292,592,main,positivefb,-99,average,29,1.2514465000003838,['n'],1,right,['2'],5,1.291455999999016,,,4,20,Vrouw,Rechts,1,
,dotcolour,dotcolour,xotask,53,4,293,593,main,positivefb,-99,average,25,0.7850397000001976,['n'],1,right,['1'],6,0.23260880000088946,,,4,20,Vrouw,Rechts,1,
,dotcolour,dotcolour,xotask,54,4,294,594,main,positivefb,-99,easy,63,0.7844941000003018,['c'],1,left,['1'],6,0.23293910000029427,,,4,20,Vrouw,Rechts,1,
,dotcolour,dotcolour,xotask,55,4,295,595,main,positivefb,-99,easy,63,0.9179557000006753,['c'],1,left,['1'],6,0.24317519999931392,,,4,20,Vrouw,Rechts,1,
,dotcolour,dotcolour,xotask,56,4,296,596,main,positivefb,-99,hard,36,0.7676933999991888,['n'],1,right,['1'],6,0.3410392000005231,,,4,20,Vrouw,Rechts,1,
,dotcolour,dotcolour,xotask,57,4,297,597,main,positivefb,-99,average,51,2.4345043000012083,['c'],1,left,['3'],4,0.2060818999998446,,,4,20,Vrouw,Rechts,1,
,dotcolour,dotcolour,xotask,58,4,298,598,main,positivefb,-99,average,28,1.5848211999982595,['n'],1,right,['2'],5,0.8958196000003227,,,4,20,Vrouw,Rechts,1,
,dotcolour,dotcolour,xotask,59,4,299,599,main,positivefb,-99,hard,39,2.3340081999995164,['n'],1,right,['3'],4,1.0878511000009894,,,4,20,Vrouw,Rechts,1,
,dotcolour,dotcolour,xotask,0,0,0,600,training,positivefb,93,hard,39,1.3680966000010812,['n'],1,right,['2'],5,1.2799499000011565,,,4,20,Vrouw,Rechts,1,
,dotcolour,dotcolour,xotask,1,0,1,601,training,positivefb,88,average,55,0.916362999998455,['c'],1,left,['1'],6,0.45649649999904796,,,4,20,Vrouw,Rechts,1,
,dotcolour,dotcolour,xotask,2,0,2,602,training,positivefb,85,average,54,0.900117199998931,['c'],1,left,['1'],6,0.2667882000005193,,,4,20,Vrouw,Rechts,1,
,dotcolour,dotcolour,xotask,3,0,3,603,training,positivefb,85,hard,44,0.8324721999997564,['n'],0,left,['1'],6,0.2304963000005955,,,4,20,Vrouw,Rechts,1,
,dotcolour,dotcolour,xotask,4,0,4,604,training,positivefb,85,average,27,0.9332217999999557,['n'],1,right,['1'],6,0.23952509999980975,,,4,20,Vrouw,Rechts,1,
,dotcolour,dotcolour,xotask,5,0,5,605,training,positivefb,91,easy,15,0.616751600000498,['n'],1,right,['1'],6,0.21387049999975716,,,4,20,Vrouw,Rechts,1,
,dotcolour,dotcolour,xotask,6,0,6,606,training,positivefb,98,average,26,0.767484300000433,['n'],1,right,['1'],6,0.39979959999982384,,,4,20,Vrouw,Rechts,1,
,dotcolour,dotcolour,xotask,7,0,7,607,training,positivefb,94,easy,16,0.6165970000001835,['n'],1,right,['1'],6,0.2544017000000167,,,4,20,Vrouw,Rechts,1,
,dotcolour,dotcolour,xotask,8,0,8,608,training,positivefb,97,easy,65,0.566306099999565,['c'],1,left,['1'],6,0.21400469999935012,,,4,20,Vrouw,Rechts,1,
,dotcolour,dotcolour,xotask,9,0,9,609,training,positivefb,94,easy,19,0.5673821000000316,['n'],1,right,['1'],6,0.21489899999869522,,,4,20,Vrouw,Rechts,1,
,dotcolour,dotcolour,xotask,10,0,10,610,training,positivefb,99,easy,63,0.8326737999996112,['c'],1,left,['1'],6,0.20540710000022955,,,4,20,Vrouw,Rechts,1,
,dotcolour,dotcolour,xotask,11,0,11,611,training,positivefb,95,average,29,1.5165276000006997,['c'],0,right,['3'],4,0.3131567999989784,,,4,20,Vrouw,Rechts,1,
,dotcolour,dotcolour,xotask,12,0,12,612,training,positivefb,89,hard,43,1.1338175000000774,['n'],0,left,['3'],4,0.21562740000081249,,,4,20,Vrouw,Rechts,1,
,dotcolour,dotcolour,xotask,13,0,13,613,training,positivefb,99,easy,15,0.766746500001318,['n'],1,right,['1'],6,0.3040744000008999,,,4,20,Vrouw,Rechts,1,
,dotcolour,dotcolour,xotask,14,0,14,614,training,positivefb,98,average,25,0.8668381000006775,['n'],1,right,['1'],6,0.1615681000002951,,,4,20,Vrouw,Rechts,1,
,dotcolour,dotcolour,xotask,15,0,15,615,training,positivefb,97,easy,16,0.6004284999999072,['n'],1,right,['1'],6,0.27563720000034664,,,4,20,Vrouw,Rechts,1,
,dotcolour,dotcolour,xotask,16,0,16,616,training,positivefb,95,average,51,0.7331006000003981,['c'],1,left,['3'],4,1.4192342999995162,,,4,20,Vrouw,Rechts,1,
,dotcolour,dotcolour,xotask,17,0,17,617,training,positivefb,93,hard,36,1.4832967999991524,['n'],1,right,['3'],4,0.8316780000004655,,,4,20,Vrouw,Rechts,1,
,dotcolour,dotcolour,xotask,18,0,18,618,training,positivefb,97,easy,65,0.7510887999997067,['c'],1,left,['1'],6,0.2797664999998233,,,4,20,Vrouw,Rechts,1,
,dotcolour,dotcolour,xotask,19,0,19,619,training,positivefb,90,easy,63,1.050893100000394,['c'],1,left,['1'],6,0.24328000000059546,,,4,20,Vrouw,Rechts,1,
,dotcolour,dotcolour,xotask,20,0,20,620,training,positivefb,89,average,55,1.4835284999990108,['c'],1,left,['3'],4,0.6708029000001261,,,4,20,Vrouw,Rechts,1,
,dotcolour,dotcolour,xotask,21,0,21,621,training,positivefb,77,average,54,1.4341167000002315,['c'],1,left,['3'],4,0.2507009000000835,,,4,20,Vrouw,Rechts,1,
,dotcolour,dotcolour,xotask,22,0,22,622,training,positivefb,79,hard,41,0.8842492999992828,['n'],0,left,['3'],4,0.2782639000015479,,,4,20,Vrouw,Rechts,1,
,dotcolour,dotcolour,xotask,23,0,23,623,training,positivefb,81,hard,41,1.6834252999997261,['n'],0,left,['3'],4,0.22443329999987327,,,4,20,Vrouw,Rechts,1,
,dotcolour,dotcolour,xotask,24,0,24,624,training,positivefb,82,hard,39,1.134260999999242,['n'],1,right,['3'],4,0.20147569999971893,,,4,20,Vrouw,Rechts,1,
,dotcolour,dotcolour,xotask,25,0,25,625,training,positivefb,66,hard,39,2.1343241999984457,['c'],0,right,['3'],4,0.25258450000001176,,,4,20,Vrouw,Rechts,1,
,dotcolour,dotcolour,xotask,26,0,26,626,training,positivefb,97,easy,65,0.8181421999997838,['c'],1,left,['1'],6,0.2660596000005171,,,4,20,Vrouw,Rechts,1,
,dotcolour,dotcolour,xotask,27,0,27,627,training,positivefb,96,easy,16,0.8164630999999645,['n'],1,right,['1'],6,0.22236619999966933,,,4,20,Vrouw,Rechts,1,
,dotcolour,dotcolour,xotask,28,0,28,628,training,positivefb,89,hard,39,1.2836939999997412,['n'],1,right,['3'],4,0.32263849999981176,,,4,20,Vrouw,Rechts,1,
,dotcolour,dotcolour,xotask,29,0,29,629,training,positivefb,9,easy,17,0.733972600000925,['c'],0,right,['0'],1,1.5761304999996355,,,4,20,Vrouw,Rechts,1,
,dotcolour,dotcolour,xotask,30,0,30,630,training,positivefb,58,average,53,4.565993000000162,['n'],0,left,['3'],4,0.3066595000000234,,,4,20,Vrouw,Rechts,1,
,dotcolour,dotcolour,xotask,31,0,31,631,training,positivefb,94,easy,63,0.8828519999988202,['c'],1,left,['1'],6,0.2676651000001584,,,4,20,Vrouw,Rechts,1,
,dotcolour,dotcolour,xotask,32,0,32,632,training,positivefb,93,easy,64,1.5505869000007806,['c'],1,left,['2'],5,0.7467374999996537,,,4,20,Vrouw,Rechts,1,
,dotcolour,dotcolour,xotask,33,0,33,633,training,positivefb,90,average,27,0.7669956999998249,['n'],1,right,['1'],6,0.2627224000007118,,,4,20,Vrouw,Rechts,1,
,dotcolour,dotcolour,xotask,34,0,34,634,training,positivefb,89,average,26,1.2823807000004308,['n'],1,right,['1'],6,0.20090030000028491,,,4,20,Vrouw,Rechts,1,
,dotcolour,dotcolour,xotask,35,0,35,635,training,positivefb,98,easy,16,1.4660464000007778,['n'],1,right,['1'],6,0.846580500001437,,,4,20,Vrouw,Rechts,1,
,dotcolour,dotcolour,xotask,36,0,36,636,training,positivefb,88,hard,42,2.5495179000008648,['c'],1,left,['3'],4,0.30336870000064664,,,4,20,Vrouw,Rechts,1,
,dotcolour,dotcolour,xotask,37,0,37,637,training,positivefb,99,average,29,0.7514455999989877,['n'],1,right,['1'],6,0.24475229999916337,,,4,20,Vrouw,Rechts,1,
,dotcolour,dotcolour,xotask,38,0,38,638,training,positivefb,91,average,25,0.8998468999998295,['n'],1,right,['1'],6,0.18412770000031742,,,4,20,Vrouw,Rechts,1,
,dotcolour,dotcolour,xotask,39,0,39,639,training,positivefb,96,easy,64,0.6660135000001901,['c'],1,left,['1'],6,0.24575419999928272,,,4,20,Vrouw,Rechts,1,
,dotcolour,dotcolour,xotask,40,0,40,640,training,positivefb,71,hard,38,3.766533599999093,['c'],0,right,['3'],4,0.28603599999951257,,,4,20,Vrouw,Rechts,1,
,dotcolour,dotcolour,xotask,41,0,41,641,training,positivefb,88,hard,38,1.1340373000002728,['n'],1,right,['3'],4,0.277141999999003,,,4,20,Vrouw,Rechts,1,
,dotcolour,dotcolour,xotask,42,0,42,642,training,positivefb,79,hard,44,1.4336141000003408,['n'],0,left,['3'],4,0.20958669999890844,,,4,20,Vrouw,Rechts,1,
,dotcolour,dotcolour,xotask,43,0,43,643,training,positivefb,83,hard,35,3.1671349000007467,['n'],1,right,['3'],4,0.21839970000110043,,,4,20,Vrouw,Rechts,1,
,dotcolour,dotcolour,xotask,44,0,44,644,training,positivefb,75,average,28,0.8174755999989429,['n'],1,right,['2'],5,0.4171363999994355,,,4,20,Vrouw,Rechts,1,
,dotcolour,dotcolour,xotask,45,0,45,645,training,positivefb,84,easy,65,0.9334326999996847,['c'],1,left,['1'],6,0.23531480000019656,,,4,20,Vrouw,Rechts,1,
,dotcolour,dotcolour,xotask,46,0,46,646,training,positivefb,77,hard,42,1.3007520999999542,['n'],0,left,['3'],4,0.20646119999946677,,,4,20,Vrouw,Rechts,1,
,dotcolour,dotcolour,xotask,47,0,47,647,training,positivefb,94,average,52,1.5680162999997265,['c'],1,left,['2'],5,0.48777030000019295,,,4,20,Vrouw,Rechts,1,
,dotcolour,dotcolour,xotask,48,0,48,648,training,positivefb,84,average,52,0.9838894999993499,['c'],1,left,['1'],6,0.26876910000100906,,,4,20,Vrouw,Rechts,1,
,dotcolour,dotcolour,xotask,49,0,49,649,training,positivefb,87,hard,44,1.734392399999706,['n'],0,left,['3'],4,0.1646997999996529,,,4,20,Vrouw,Rechts,1,
,dotcolour,dotcolour,xotask,50,0,50,650,training,positivefb,79,average,53,1.5838762999992468,['c'],1,left,['2'],5,0.24678320000020904,,,4,20,Vrouw,Rechts,1,
,dotcolour,dotcolour,xotask,51,0,51,651,training,positivefb,85,hard,37,1.3838470999999117,['n'],1,right,['2'],5,0.27022720000059053,,,4,20,Vrouw,Rechts,1,
,dotcolour,dotcolour,xotask,52,0,52,652,training,positivefb,91,easy,15,0.8514433999989706,['n'],1,right,['1'],6,0.33783039999980247,,,4,20,Vrouw,Rechts,1,
,dotcolour,dotcolour,xotask,53,0,53,653,training,positivefb,83,average,53,1.5680685000006633,['n'],0,left,['2'],5,0.541876900000716,,,4,20,Vrouw,Rechts,1,
,dotcolour,dotcolour,xotask,54,0,54,654,training,positivefb,92,easy,15,1.8495533999994223,['n'],1,right,['1'],6,0.3024441999987175,,,4,20,Vrouw,Rechts,1,
