starttime,task,fbtask,firsttask,withinblocktrial,block,withintasktrial,trial,running,feedback,fbscore,difflevel,n_xes,rt,resp,cor,cresp,conf_press,cj,RTconf,reddots,post1,post2,post3,post4,post5,stoptime,sub,age,gender,handedness,session,
1715583554,xotask,xotask,xotask,0,0,0,0,training,negativefb,98,average,62,2.9831624999999917,['c'],1,left,['2'],5,0.747907199999986,,,,,,,,16,21,Vrouw,Rechts,2,
,xotask,xotask,xotask,1,0,1,1,training,negativefb,85,average,60,1.0328452999999627,['c'],1,left,['2'],5,0.30850049999997964,,,,,,,,16,21,Vrouw,Rechts,2,
,xotask,xotask,xotask,2,0,2,2,training,negativefb,76,hard,25,0.5998594000000139,['n'],1,right,['2'],5,0.32065990000000966,,,,,,,,16,21,Vrouw,Rechts,2,
,xotask,xotask,xotask,3,0,3,3,training,negativefb,62,hard,26,0.7161882999999989,['n'],1,right,['1'],6,0.3514111000000071,,,,,,,,16,21,Vrouw,Rechts,2,
,xotask,xotask,xotask,4,0,4,4,training,negativefb,64,hard,26,0.6003505000000473,['n'],1,right,['2'],5,0.3134608999999955,,,,,,,,16,21,Vrouw,Rechts,2,
,xotask,xotask,xotask,5,0,5,5,training,negativefb,67,average,61,1.0662428999999634,['n'],0,left,['2'],5,0.3467719999999872,,,,,,,,16,21,Vrouw,Rechts,2,
,xotask,xotask,xotask,6,0,6,6,training,negativefb,74,average,63,0.6509095999999772,['c'],1,left,['2'],5,0.33909649999998237,,,,,,,,16,21,Vrouw,Rechts,2,
,xotask,xotask,xotask,7,0,7,7,training,negativefb,63,easy,73,0.6162267999999926,['c'],1,left,['2'],5,0.293433900000025,,,,,,,,16,21,Vrouw,Rechts,2,
,xotask,xotask,xotask,8,0,8,8,training,negativefb,50,easy,5,2.450630600000011,['c'],0,right,['8'],3,0.6642477999999983,,,,,,,,16,21,Vrouw,Rechts,2,
,xotask,xotask,xotask,9,0,9,9,training,negativefb,78,average,63,1.0840037000000393,['c'],1,left,['2'],5,0.48310569999995323,,,,,,,,16,21,Vrouw,Rechts,2,
,xotask,xotask,xotask,10,0,10,10,training,negativefb,94,average,18,0.8333395000000223,['n'],1,right,['2'],5,0.3666211999999973,,,,,,,,16,21,Vrouw,Rechts,2,
,xotask,xotask,xotask,11,0,11,11,training,negativefb,35,hard,54,1.0989215999999828,['c'],1,left,['3'],4,1.7962721999999758,,,,,,,,16,21,Vrouw,Rechts,2,
,xotask,xotask,xotask,12,0,12,12,training,negativefb,90,easy,74,0.8328473999999915,['c'],1,left,['2'],5,0.28333489999999983,,,,,,,,16,21,Vrouw,Rechts,2,
,xotask,xotask,xotask,13,0,13,13,training,negativefb,77,hard,28,0.6003753000000529,['n'],1,right,['2'],5,0.2390651000000048,,,,,,,,16,21,Vrouw,Rechts,2,
,xotask,xotask,xotask,14,0,14,14,training,negativefb,73,hard,53,1.116152100000022,['c'],1,left,['2'],5,0.2894023000000061,,,,,,,,16,21,Vrouw,Rechts,2,
,xotask,xotask,xotask,15,0,15,15,training,negativefb,77,easy,9,0.5665496999999959,['n'],1,right,['2'],5,0.2160701999999901,,,,,,,,16,21,Vrouw,Rechts,2,
,xotask,xotask,xotask,16,0,16,16,training,negativefb,90,average,17,0.5838795000000232,['n'],1,right,['2'],5,0.17570570000003727,,,,,,,,16,21,Vrouw,Rechts,2,
,xotask,xotask,xotask,17,0,17,17,training,negativefb,51,hard,50,0.6499822000000108,['c'],1,left,['2'],5,0.24707089999998288,,,,,,,,16,21,Vrouw,Rechts,2,
,xotask,xotask,xotask,18,0,18,18,training,negativefb,86,hard,53,0.7002699999999891,['c'],1,left,['2'],5,0.2741571000000249,,,,,,,,16,21,Vrouw,Rechts,2,
,xotask,xotask,xotask,19,0,19,19,training,negativefb,33,hard,51,0.7157555000000002,['n'],0,left,['2'],5,0.2510495000000219,,,,,,,,16,21,Vrouw,Rechts,2,
,xotask,xotask,xotask,20,0,20,20,training,negativefb,36,easy,8,0.6161594999999807,['n'],1,right,['2'],5,0.19162949999997636,,,,,,,,16,21,Vrouw,Rechts,2,
,xotask,xotask,xotask,21,0,21,21,training,negativefb,11,easy,7,0.6495095000000219,['c'],0,right,['0'],1,1.64745929999998,,,,,,,,16,21,Vrouw,Rechts,2,
,xotask,xotask,xotask,22,0,22,22,training,negativefb,74,hard,26,0.7847369000000413,['n'],1,right,['2'],5,0.3580748999999628,,,,,,,,16,21,Vrouw,Rechts,2,
,xotask,xotask,xotask,23,0,23,23,training,negativefb,69,hard,29,1.4501806999999758,['c'],0,right,['2'],5,0.32648059999996804,,,,,,,,16,21,Vrouw,Rechts,2,
,xotask,xotask,xotask,24,0,24,24,training,negativefb,37,hard,50,0.9497787000000244,['n'],0,left,['2'],5,0.28472749999997404,,,,,,,,16,21,Vrouw,Rechts,2,
,xotask,xotask,xotask,25,0,25,25,training,negativefb,86,easy,74,0.5831142000000114,['c'],1,left,['1'],6,0.5848119000000338,,,,,,,,16,21,Vrouw,Rechts,2,
,xotask,xotask,xotask,26,0,26,26,training,negativefb,86,average,18,0.5648471000000086,['n'],1,right,['2'],5,0.25968460000001414,,,,,,,,16,21,Vrouw,Rechts,2,
,xotask,xotask,xotask,27,0,27,27,training,negativefb,86,easy,6,0.4830630999999812,['n'],1,right,['1'],6,0.4384332000000768,,,,,,,,16,21,Vrouw,Rechts,2,
,xotask,xotask,xotask,28,0,28,28,training,negativefb,40,easy,73,0.6172430000000304,['c'],1,left,['2'],5,0.21199990000002344,,,,,,,,16,21,Vrouw,Rechts,2,
,xotask,xotask,xotask,29,0,29,29,training,negativefb,79,easy,72,0.6334782000000132,['c'],1,left,['2'],5,0.2426117999999633,,,,,,,,16,21,Vrouw,Rechts,2,
,xotask,xotask,xotask,30,0,30,30,training,negativefb,87,easy,5,0.4826525999999376,['n'],1,right,['1'],6,0.2458001999999624,,,,,,,,16,21,Vrouw,Rechts,2,
,xotask,xotask,xotask,31,0,31,31,training,negativefb,62,average,18,0.5492916999999125,['n'],1,right,['1'],6,0.19863899999995738,,,,,,,,16,21,Vrouw,Rechts,2,
,xotask,xotask,xotask,32,0,32,32,training,negativefb,58,hard,26,0.6663745000000745,['n'],1,right,['2'],5,0.261385300000029,,,,,,,,16,21,Vrouw,Rechts,2,
,xotask,xotask,xotask,33,0,33,33,training,negativefb,44,average,63,0.6158378000000084,['c'],1,left,['2'],5,0.2099971000000096,,,,,,,,16,21,Vrouw,Rechts,2,
,xotask,xotask,xotask,34,0,34,34,training,negativefb,56,easy,70,0.7006370000000288,['c'],1,left,['2'],5,0.24542810000002646,,,,,,,,16,21,Vrouw,Rechts,2,
,xotask,xotask,xotask,35,0,35,35,training,negativefb,50,hard,29,0.533745900000099,['n'],1,right,['2'],5,0.2720537999999806,,,,,,,,16,21,Vrouw,Rechts,2,
,xotask,xotask,xotask,36,0,36,36,training,negativefb,84,average,61,0.7329323999999815,['c'],1,left,['2'],5,0.303427299999953,,,,,,,,16,21,Vrouw,Rechts,2,
,xotask,xotask,xotask,37,0,37,37,training,negativefb,85,average,63,0.41685839999991003,['c'],1,left,['2'],5,0.2821810000000369,,,,,,,,16,21,Vrouw,Rechts,2,
,xotask,xotask,xotask,38,0,38,38,training,negativefb,68,average,18,0.682596999999987,['n'],1,right,['2'],5,0.1886456999999382,,,,,,,,16,21,Vrouw,Rechts,2,
,xotask,xotask,xotask,39,0,39,39,training,negativefb,55,hard,51,1.1660273000001098,['n'],0,left,['3'],4,0.2543557999999848,,,,,,,,16,21,Vrouw,Rechts,2,
,xotask,xotask,xotask,40,0,40,40,training,negativefb,51,easy,73,1.099959799999965,['c'],1,left,['2'],5,0.2243782000000465,,,,,,,,16,21,Vrouw,Rechts,2,
,xotask,xotask,xotask,41,0,41,41,training,negativefb,27,average,60,0.5330046999999922,['c'],1,left,['2'],5,0.29813319999993837,,,,,,,,16,21,Vrouw,Rechts,2,
,xotask,xotask,xotask,42,0,42,42,training,negativefb,35,average,16,0.5513037000000622,['n'],1,right,['2'],5,0.24029539999992267,,,,,,,,16,21,Vrouw,Rechts,2,
,xotask,xotask,xotask,43,0,43,43,training,negativefb,37,hard,51,1.4498307000000068,['n'],0,left,['3'],4,0.7500438999999233,,,,,,,,16,21,Vrouw,Rechts,2,
,xotask,xotask,xotask,44,0,44,44,training,negativefb,53,average,18,0.549173499999938,['n'],1,right,['2'],5,0.6343313999999509,,,,,,,,16,21,Vrouw,Rechts,2,
,xotask,xotask,xotask,45,0,45,45,training,negativefb,29,easy,6,0.46652990000006866,['n'],1,right,['1'],6,0.31841420000000653,,,,,,,,16,21,Vrouw,Rechts,2,
,xotask,xotask,xotask,46,0,46,46,training,negativefb,77,average,16,0.7008650000000216,['n'],1,right,['2'],5,0.26955020000002605,,,,,,,,16,21,Vrouw,Rechts,2,
,xotask,xotask,xotask,47,0,47,47,training,negativefb,49,average,17,0.5330402999999251,['n'],1,right,['2'],5,0.21379239999998845,,,,,,,,16,21,Vrouw,Rechts,2,
,xotask,xotask,xotask,48,0,48,48,training,negativefb,39,average,64,0.7664321999999402,['c'],1,left,['2'],5,0.28734960000008414,,,,,,,,16,21,Vrouw,Rechts,2,
,xotask,xotask,xotask,49,0,49,49,training,negativefb,59,easy,72,0.46558149999998477,['c'],1,left,['2'],5,0.24832630000003064,,,,,,,,16,21,Vrouw,Rechts,2,
,xotask,xotask,xotask,50,0,50,50,training,negativefb,70,easy,7,0.5174207000000024,['n'],1,right,['2'],5,0.2981965000000173,,,,,,,,16,21,Vrouw,Rechts,2,
,xotask,xotask,xotask,51,0,51,51,training,negativefb,76,hard,52,0.9507029000000102,['c'],1,left,['2'],5,0.25713120000000345,,,,,,,,16,21,Vrouw,Rechts,2,
,xotask,xotask,xotask,52,0,52,52,training,negativefb,13,easy,5,0.6837578999999323,['n'],1,right,['2'],5,0.2113298000000441,,,,,,,,16,21,Vrouw,Rechts,2,
,xotask,xotask,xotask,53,0,53,53,training,negativefb,62,easy,5,0.7672565999999961,['n'],1,right,['2'],5,0.25339660000008735,,,,,,,,16,21,Vrouw,Rechts,2,
,xotask,xotask,xotask,54,0,54,54,training,negativefb,81,average,17,0.6339094999999588,['n'],1,right,['2'],5,0.21721339999999145,,,,,,,,16,21,Vrouw,Rechts,2,
,xotask,xotask,xotask,55,0,55,55,training,negativefb,65,hard,29,0.48354119999999057,['n'],1,right,['2'],5,0.1574335999999903,,,,,,,,16,21,Vrouw,Rechts,2,
,xotask,xotask,xotask,56,0,56,56,training,negativefb,82,hard,25,1.3326006999999436,['n'],1,right,['2'],5,0.1631135999999742,,,,,,,,16,21,Vrouw,Rechts,2,
,xotask,xotask,xotask,57,0,57,57,training,negativefb,64,easy,73,0.5156420999999227,['c'],1,left,['2'],5,0.17686570000000756,,,,,,,,16,21,Vrouw,Rechts,2,
,xotask,xotask,xotask,58,0,58,58,training,negativefb,53,hard,52,0.6173162999999704,['c'],1,left,['2'],5,0.18481939999992392,,,,,,,,16,21,Vrouw,Rechts,2,
,xotask,xotask,xotask,59,0,59,59,training,negativefb,63,easy,71,0.534051599999998,['c'],1,left,['2'],5,0.19609319999995023,,,,,,,,16,21,Vrouw,Rechts,2,
,xotask,xotask,xotask,0,1,60,60,training,negativefb,75,average,61,0.666658200000029,['c'],1,left,['2'],5,0.1841473000000633,,,,,,,,16,21,Vrouw,Rechts,2,
,xotask,xotask,xotask,1,1,61,61,training,negativefb,45,hard,51,0.6999845000000278,['c'],1,left,['2'],5,0.14047369999991588,,,,,,,,16,21,Vrouw,Rechts,2,
,xotask,xotask,xotask,2,1,62,62,training,negativefb,78,average,62,0.5669446000000562,['c'],1,left,['2'],5,0.18497489999992922,,,,,,,,16,21,Vrouw,Rechts,2,
,xotask,xotask,xotask,3,1,63,63,training,negativefb,54,average,17,0.6001942000000327,['n'],1,right,['2'],5,0.12070970000002035,,,,,,,,16,21,Vrouw,Rechts,2,
,xotask,xotask,xotask,4,1,64,64,training,negativefb,3,easy,7,0.48297969999998713,['c'],0,right,['9'],2,1.3770302000000356,,,,,,,,16,21,Vrouw,Rechts,2,
,xotask,xotask,xotask,5,1,65,65,training,negativefb,38,hard,54,0.8835544999999456,['c'],1,left,['2'],5,0.15882650000003196,,,,,,,,16,21,Vrouw,Rechts,2,
,xotask,xotask,xotask,6,1,66,66,training,negativefb,38,hard,54,1.0491502999999511,['c'],1,left,['2'],5,0.1597585000000663,,,,,,,,16,21,Vrouw,Rechts,2,
,xotask,xotask,xotask,7,1,67,67,training,negativefb,86,hard,26,0.6164741999999706,['n'],1,right,['2'],5,0.16906089999997675,,,,,,,,16,21,Vrouw,Rechts,2,
,xotask,xotask,xotask,8,1,68,68,training,negativefb,74,hard,51,0.7665637000000061,['c'],1,left,['2'],5,0.15479659999994055,,,,,,,,16,21,Vrouw,Rechts,2,
,xotask,xotask,xotask,9,1,69,69,training,negativefb,80,easy,72,0.5668574000000035,['c'],1,left,['2'],5,0.15937059999998837,,,,,,,,16,21,Vrouw,Rechts,2,
,xotask,xotask,xotask,10,1,70,70,training,negativefb,62,easy,5,0.5332012999999733,['n'],1,right,['2'],5,0.07513110000002143,,,,,,,,16,21,Vrouw,Rechts,2,
,xotask,xotask,xotask,11,1,71,71,training,negativefb,71,average,64,0.5165622999999187,['c'],1,left,['2'],5,0.1646046999999271,,,,,,,,16,21,Vrouw,Rechts,2,
,xotask,xotask,xotask,12,1,72,72,training,negativefb,68,average,63,0.6335666999999603,['c'],1,left,['2'],5,0.14942179999991367,,,,,,,,16,21,Vrouw,Rechts,2,
,xotask,xotask,xotask,13,1,73,73,training,negativefb,52,hard,28,0.9172310999999809,['n'],1,right,['2'],5,0.1549332999999251,,,,,,,,16,21,Vrouw,Rechts,2,
,xotask,xotask,xotask,14,1,74,74,training,negativefb,92,average,63,0.6172447000000147,['c'],1,left,['2'],5,0.18833270000004632,,,,,,,,16,21,Vrouw,Rechts,2,
,xotask,xotask,xotask,15,1,75,75,training,negativefb,69,hard,51,0.4839671999999382,['c'],1,left,['2'],5,0.16168550000008963,,,,,,,,16,21,Vrouw,Rechts,2,
,xotask,xotask,xotask,16,1,76,76,training,negativefb,60,average,15,0.501564099999996,['n'],1,right,['2'],5,0.10307000000000244,,,,,,,,16,21,Vrouw,Rechts,2,
,xotask,xotask,xotask,17,1,77,77,training,negativefb,60,average,18,0.5506012999999257,['c'],0,right,['9'],2,0.9657350999999608,,,,,,,,16,21,Vrouw,Rechts,2,
,xotask,xotask,xotask,18,1,78,78,training,negativefb,49,hard,50,1.00038440000003,['c'],1,left,['2'],5,0.1744328999999425,,,,,,,,16,21,Vrouw,Rechts,2,
,xotask,xotask,xotask,19,1,79,79,training,negativefb,88,average,62,0.4323431000000255,['c'],1,left,['2'],5,0.1353027000000111,,,,,,,,16,21,Vrouw,Rechts,2,
,xotask,xotask,xotask,20,1,80,80,training,negativefb,79,average,16,0.4667087000000265,['n'],1,right,['2'],5,0.11092940000003182,,,,,,,,16,21,Vrouw,Rechts,2,
,xotask,xotask,xotask,21,1,81,81,training,negativefb,55,easy,7,0.43331739999996444,['n'],1,right,['2'],5,0.09785780000004252,,,,,,,,16,21,Vrouw,Rechts,2,
,xotask,xotask,xotask,22,1,82,82,training,negativefb,83,average,15,0.5161219999999958,['n'],1,right,['1'],6,0.36194240000008904,,,,,,,,16,21,Vrouw,Rechts,2,
,xotask,xotask,xotask,23,1,83,83,training,negativefb,72,hard,27,0.5152360000000726,['n'],1,right,['2'],5,0.14313939999999548,,,,,,,,16,21,Vrouw,Rechts,2,
,xotask,xotask,xotask,24,1,84,84,training,negativefb,74,average,62,0.6503003999999919,['c'],1,left,['2'],5,0.15200670000001537,,,,,,,,16,21,Vrouw,Rechts,2,
,xotask,xotask,xotask,25,1,85,85,training,negativefb,48,easy,70,0.550995999999941,['c'],1,left,['2'],5,0.10766090000004169,,,,,,,,16,21,Vrouw,Rechts,2,
,xotask,xotask,xotask,26,1,86,86,training,negativefb,80,easy,70,0.5163589999999658,['c'],1,left,['2'],5,0.12320840000006683,,,,,,,,16,21,Vrouw,Rechts,2,
,xotask,xotask,xotask,27,1,87,87,training,negativefb,80,hard,51,0.8498559999999316,['c'],1,left,['2'],5,0.13272229999995488,,,,,,,,16,21,Vrouw,Rechts,2,
,xotask,xotask,xotask,28,1,88,88,training,negativefb,47,easy,7,0.5165521999999783,['n'],1,right,['2'],5,0.1149443000000474,,,,,,,,16,21,Vrouw,Rechts,2,
,xotask,xotask,xotask,29,1,89,89,training,negativefb,92,easy,5,0.4486608999999362,['n'],1,right,['2'],5,0.14111379999997098,,,,,,,,16,21,Vrouw,Rechts,2,
,xotask,xotask,xotask,30,1,90,90,training,negativefb,86,average,18,0.48443169999995916,['n'],1,right,['2'],5,0.0926408000000265,,,,,,,,16,21,Vrouw,Rechts,2,
,xotask,xotask,xotask,31,1,91,91,training,negativefb,57,average,17,0.43284779999999046,['n'],1,right,['2'],5,0.11172050000004674,,,,,,,,16,21,Vrouw,Rechts,2,
,xotask,xotask,xotask,32,1,92,92,training,negativefb,83,easy,5,0.5182165999999597,['n'],1,right,['2'],5,0.1192154999999957,,,,,,,,16,21,Vrouw,Rechts,2,
,xotask,xotask,xotask,33,1,93,93,training,negativefb,58,easy,73,0.40065019999997276,['c'],1,left,['2'],5,0.13062239999999292,,,,,,,,16,21,Vrouw,Rechts,2,
,xotask,xotask,xotask,34,1,94,94,training,negativefb,52,hard,25,1.1498500999999806,['n'],1,right,['2'],5,0.11217529999998987,,,,,,,,16,21,Vrouw,Rechts,2,
,xotask,xotask,xotask,35,1,95,95,training,negativefb,48,hard,29,0.8339238000000933,['c'],0,right,['2'],5,0.14715639999997165,,,,,,,,16,21,Vrouw,Rechts,2,
,xotask,xotask,xotask,36,1,96,96,training,negativefb,83,hard,54,0.7504533999999694,['n'],0,left,['2'],5,0.19163579999997182,,,,,,,,16,21,Vrouw,Rechts,2,
,xotask,xotask,xotask,37,1,97,97,training,negativefb,60,average,18,0.7504951000000801,['n'],1,right,['2'],5,0.13016399999992245,,,,,,,,16,21,Vrouw,Rechts,2,
,xotask,xotask,xotask,38,1,98,98,training,negativefb,79,average,15,0.43338779999999133,['n'],1,right,['2'],5,0.12405069999999796,,,,,,,,16,21,Vrouw,Rechts,2,
,xotask,xotask,xotask,39,1,99,99,training,negativefb,74,easy,70,0.6006558000000268,['c'],1,left,['2'],5,0.08651020000002063,,,,,,,,16,21,Vrouw,Rechts,2,
,xotask,xotask,xotask,40,1,100,100,training,negativefb,42,hard,25,0.448929000000021,['n'],1,right,['2'],5,0.10630859999992026,,,,,,,,16,21,Vrouw,Rechts,2,
,xotask,xotask,xotask,41,1,101,101,training,negativefb,66,easy,6,0.5501682999999957,['n'],1,right,['2'],5,0.0965516999999636,,,,,,,,16,21,Vrouw,Rechts,2,
,xotask,xotask,xotask,42,1,102,102,training,negativefb,62,hard,26,0.8671405999999706,['n'],1,right,['2'],5,0.08255239999994046,,,,,,,,16,21,Vrouw,Rechts,2,
,xotask,xotask,xotask,43,1,103,103,training,negativefb,59,hard,25,1.5495188999999527,['c'],0,right,['2'],5,0.12113800000008723,,,,,,,,16,21,Vrouw,Rechts,2,
,xotask,xotask,xotask,44,1,104,104,training,negativefb,73,easy,73,0.700196500000061,['c'],1,left,['2'],5,0.16091799999992418,,,,,,,,16,21,Vrouw,Rechts,2,
,xotask,xotask,xotask,45,1,105,105,training,negativefb,42,easy,6,0.5001082999999653,['n'],1,right,['2'],5,0.11049730000002,,,,,,,,16,21,Vrouw,Rechts,2,
,xotask,xotask,xotask,46,1,106,106,training,negativefb,62,average,18,1.3499063000000433,['n'],1,right,['2'],5,0.14084260000004178,,,,,,,,16,21,Vrouw,Rechts,2,
,xotask,xotask,xotask,47,1,107,107,training,negativefb,51,average,64,0.5666397999999617,['c'],1,left,['2'],5,0.11280109999995602,,,,,,,,16,21,Vrouw,Rechts,2,
,xotask,xotask,xotask,48,1,108,108,training,negativefb,70,easy,5,0.4996653000000606,['n'],1,right,['2'],5,0.0809498999999505,,,,,,,,16,21,Vrouw,Rechts,2,
,xotask,xotask,xotask,49,1,109,109,training,negativefb,57,average,63,0.8177744999999277,['c'],1,left,['2'],5,0.12554469999997764,,,,,,,,16,21,Vrouw,Rechts,2,
,xotask,xotask,xotask,50,1,110,110,training,negativefb,83,easy,70,0.7828653999999915,['c'],1,left,['2'],5,0.15380419999996775,,,,,,,,16,21,Vrouw,Rechts,2,
,xotask,xotask,xotask,51,1,111,111,training,negativefb,87,easy,73,0.583171200000038,['c'],1,left,['2'],5,0.12442459999999755,,,,,,,,16,21,Vrouw,Rechts,2,
,xotask,xotask,xotask,52,1,112,112,training,negativefb,41,easy,72,0.4508845000000292,['c'],1,left,['2'],5,0.1086708999999928,,,,,,,,16,21,Vrouw,Rechts,2,
,xotask,xotask,xotask,53,1,113,113,training,negativefb,57,average,63,0.4992271000000983,['c'],1,left,['2'],5,0.14910650000001624,,,,,,,,16,21,Vrouw,Rechts,2,
,xotask,xotask,xotask,54,1,114,114,training,negativefb,85,hard,27,0.41671180000003005,['n'],1,right,['2'],5,0.13501099999996313,,,,,,,,16,21,Vrouw,Rechts,2,
,xotask,xotask,xotask,55,1,115,115,training,negativefb,78,easy,72,0.5657313000000386,['c'],1,left,['2'],5,0.07549549999998817,,,,,,,,16,21,Vrouw,Rechts,2,
,xotask,xotask,xotask,56,1,116,116,training,negativefb,23,easy,5,0.4495918000000074,['n'],1,right,['2'],5,0.09389740000005986,,,,,,,,16,21,Vrouw,Rechts,2,
,xotask,xotask,xotask,57,1,117,117,training,negativefb,56,hard,52,0.8341722000000118,['c'],1,left,['2'],5,0.11408159999996315,,,,,,,,16,21,Vrouw,Rechts,2,
,xotask,xotask,xotask,58,1,118,118,training,negativefb,64,hard,25,0.9666435999999976,['c'],0,right,['2'],5,0.11169470000004367,,,,,,,,16,21,Vrouw,Rechts,2,
,xotask,xotask,xotask,59,1,119,119,training,negativefb,60,hard,53,0.7999115999999731,['c'],1,left,['2'],5,0.12330229999997755,,,,,,,,16,21,Vrouw,Rechts,2,
,xotask,xotask,xotask,0,2,120,120,main,negativefb,-99,easy,74,1.4834111999999777,['c'],1,left,['2'],5,0.12947520000000168,,,,,,,,16,21,Vrouw,Rechts,2,
,xotask,xotask,xotask,1,2,121,121,main,negativefb,-99,hard,50,0.9667699000000312,['c'],1,left,['2'],5,0.09545889999992596,,,,,,,,16,21,Vrouw,Rechts,2,
,xotask,xotask,xotask,2,2,122,122,main,negativefb,-99,hard,51,1.1499297999999953,['c'],1,left,['2'],5,0.0952729000000545,,,,,,,,16,21,Vrouw,Rechts,2,
,xotask,xotask,xotask,3,2,123,123,main,negativefb,-99,easy,6,0.5342863999999281,['n'],1,right,['2'],5,0.07914249999998901,,,,,,,,16,21,Vrouw,Rechts,2,
,xotask,xotask,xotask,4,2,124,124,main,negativefb,-99,hard,50,0.6502718000000414,['c'],1,left,['2'],5,0.09106689999998707,,,,,,,,16,21,Vrouw,Rechts,2,
,xotask,xotask,xotask,5,2,125,125,main,negativefb,-99,average,62,0.6667079999999714,['n'],0,left,['2'],5,0.1182559000000083,,,,,,,,16,21,Vrouw,Rechts,2,
,xotask,xotask,xotask,6,2,126,126,main,negativefb,-99,average,63,0.48359819999996034,['n'],0,left,['2'],5,0.11020970000004127,,,,,,,,16,21,Vrouw,Rechts,2,
,xotask,xotask,xotask,7,2,127,127,main,negativefb,-99,hard,25,0.9505382999999483,['n'],1,right,['2'],5,0.17346309999993537,,,,,,,,16,21,Vrouw,Rechts,2,
,xotask,xotask,xotask,8,2,128,128,main,negativefb,-99,average,64,1.3166587000000618,['n'],0,left,['2'],5,0.08988179999994372,,,,,,,,16,21,Vrouw,Rechts,2,
,xotask,xotask,xotask,9,2,129,129,main,negativefb,-99,hard,52,0.6178025000000389,['c'],1,left,['2'],5,0.1597682999999961,,,,,,,,16,21,Vrouw,Rechts,2,
,xotask,xotask,xotask,10,2,130,130,main,negativefb,-99,average,18,0.71676709999997,['c'],0,right,['2'],5,0.10951109999996333,,,,,,,,16,21,Vrouw,Rechts,2,
,xotask,xotask,xotask,11,2,131,131,main,negativefb,-99,easy,5,0.40038619999995717,['n'],1,right,['2'],5,0.13841089999993983,,,,,,,,16,21,Vrouw,Rechts,2,
,xotask,xotask,xotask,12,2,132,132,main,negativefb,-99,easy,7,0.6844211000000087,['n'],1,right,['2'],5,0.11403210000003128,,,,,,,,16,21,Vrouw,Rechts,2,
,xotask,xotask,xotask,13,2,133,133,main,negativefb,-99,average,17,0.550969900000041,['n'],1,right,['2'],5,0.11280759999999646,,,,,,,,16,21,Vrouw,Rechts,2,
,xotask,xotask,xotask,14,2,134,134,main,negativefb,-99,hard,54,0.5841473000000406,['c'],1,left,['2'],5,0.14928789999999026,,,,,,,,16,21,Vrouw,Rechts,2,
,xotask,xotask,xotask,15,2,135,135,main,negativefb,-99,average,63,0.7001609000000144,['c'],1,left,['2'],5,0.17282030000001214,,,,,,,,16,21,Vrouw,Rechts,2,
,xotask,xotask,xotask,16,2,136,136,main,negativefb,-99,hard,52,0.6678160999999818,['c'],1,left,['2'],5,0.18017300000008163,,,,,,,,16,21,Vrouw,Rechts,2,
,xotask,xotask,xotask,17,2,137,137,main,negativefb,-99,average,63,0.5505676999999878,['c'],1,left,['2'],5,0.168473199999994,,,,,,,,16,21,Vrouw,Rechts,2,
,xotask,xotask,xotask,18,2,138,138,main,negativefb,-99,easy,70,0.5346303000000034,['c'],1,left,['2'],5,0.18051300000001902,,,,,,,,16,21,Vrouw,Rechts,2,
,xotask,xotask,xotask,19,2,139,139,main,negativefb,-99,average,19,0.46717020000005505,['n'],1,right,['2'],5,0.15649819999998726,,,,,,,,16,21,Vrouw,Rechts,2,
,xotask,xotask,xotask,20,2,140,140,main,negativefb,-99,easy,8,0.5682639999999992,['n'],1,right,['2'],5,0.11255749999997988,,,,,,,,16,21,Vrouw,Rechts,2,
,xotask,xotask,xotask,21,2,141,141,main,negativefb,-99,easy,74,0.43339960000002975,['c'],1,left,['2'],5,0.131665699999985,,,,,,,,16,21,Vrouw,Rechts,2,
,xotask,xotask,xotask,22,2,142,142,main,negativefb,-99,easy,72,0.549863000000073,['c'],1,left,['2'],5,0.1457873000000518,,,,,,,,16,21,Vrouw,Rechts,2,
,xotask,xotask,xotask,23,2,143,143,main,negativefb,-99,hard,28,0.45033889999990606,['n'],1,right,['2'],5,0.15540610000005017,,,,,,,,16,21,Vrouw,Rechts,2,
,xotask,xotask,xotask,24,2,144,144,main,negativefb,-99,hard,28,0.6498467000000119,['n'],1,right,['2'],5,0.12394129999995585,,,,,,,,16,21,Vrouw,Rechts,2,
,xotask,xotask,xotask,25,2,145,145,main,negativefb,-99,easy,73,0.4664256999999452,['c'],1,left,['2'],5,0.16529819999993833,,,,,,,,16,21,Vrouw,Rechts,2,
,xotask,xotask,xotask,26,2,146,146,main,negativefb,-99,easy,70,0.6328818000000638,['c'],1,left,['2'],5,0.13457240000002457,,,,,,,,16,21,Vrouw,Rechts,2,
,xotask,xotask,xotask,27,2,147,147,main,negativefb,-99,easy,7,0.5848548999999821,['n'],1,right,['2'],5,0.16184290000001056,,,,,,,,16,21,Vrouw,Rechts,2,
,xotask,xotask,xotask,28,2,148,148,main,negativefb,-99,easy,73,0.6353692000000137,['c'],1,left,['2'],5,0.15510199999994256,,,,,,,,16,21,Vrouw,Rechts,2,
,xotask,xotask,xotask,29,2,149,149,main,negativefb,-99,average,16,0.45013649999998506,['n'],1,right,['2'],5,0.14894140000001244,,,,,,,,16,21,Vrouw,Rechts,2,
,xotask,xotask,xotask,30,2,150,150,main,negativefb,-99,average,17,0.5845818000000236,['n'],1,right,['2'],5,0.15907900000001973,,,,,,,,16,21,Vrouw,Rechts,2,
,xotask,xotask,xotask,31,2,151,151,main,negativefb,-99,easy,74,0.6500325000000657,['c'],1,left,['2'],5,0.1851230999999416,,,,,,,,16,21,Vrouw,Rechts,2,
,xotask,xotask,xotask,32,2,152,152,main,negativefb,-99,average,18,0.5672731000000795,['n'],1,right,['2'],5,0.1555906999999479,,,,,,,,16,21,Vrouw,Rechts,2,
,xotask,xotask,xotask,33,2,153,153,main,negativefb,-99,hard,53,0.6334709000000203,['c'],1,left,['2'],5,0.16446669999993446,,,,,,,,16,21,Vrouw,Rechts,2,
,xotask,xotask,xotask,34,2,154,154,main,negativefb,-99,hard,28,0.6164469000000281,['n'],1,right,['2'],5,0.11037950000002184,,,,,,,,16,21,Vrouw,Rechts,2,
,xotask,xotask,xotask,35,2,155,155,main,negativefb,-99,average,16,0.5673021000000062,['n'],1,right,['2'],5,0.11732099999994716,,,,,,,,16,21,Vrouw,Rechts,2,
,xotask,xotask,xotask,36,2,156,156,main,negativefb,-99,hard,28,0.38310310000008485,['n'],1,right,['2'],5,0.19374869999990096,,,,,,,,16,21,Vrouw,Rechts,2,
,xotask,xotask,xotask,37,2,157,157,main,negativefb,-99,hard,53,0.7156827000000021,['c'],1,left,['2'],5,0.1346706000000495,,,,,,,,16,21,Vrouw,Rechts,2,
,xotask,xotask,xotask,38,2,158,158,main,negativefb,-99,easy,8,0.48267109999994773,['n'],1,right,['2'],5,0.16673630000002504,,,,,,,,16,21,Vrouw,Rechts,2,
,xotask,xotask,xotask,39,2,159,159,main,negativefb,-99,easy,6,0.5834716000000526,['n'],1,right,['2'],5,0.16092639999999392,,,,,,,,16,21,Vrouw,Rechts,2,
,xotask,xotask,xotask,40,2,160,160,main,negativefb,-99,average,19,0.5337611000001061,['n'],1,right,['2'],5,0.12563000000000102,,,,,,,,16,21,Vrouw,Rechts,2,
,xotask,xotask,xotask,41,2,161,161,main,negativefb,-99,easy,7,0.38332070000001295,['n'],1,right,['2'],5,0.1551851000000397,,,,,,,,16,21,Vrouw,Rechts,2,
,xotask,xotask,xotask,42,2,162,162,main,negativefb,-99,easy,8,0.48417430000006334,['n'],1,right,['2'],5,0.1467710999999099,,,,,,,,16,21,Vrouw,Rechts,2,
,xotask,xotask,xotask,43,2,163,163,main,negativefb,-99,hard,28,0.8672265000000152,['n'],1,right,['2'],5,0.11524410000004082,,,,,,,,16,21,Vrouw,Rechts,2,
,xotask,xotask,xotask,44,2,164,164,main,negativefb,-99,average,61,0.8494335000000319,['c'],1,left,['2'],5,0.11008040000001529,,,,,,,,16,21,Vrouw,Rechts,2,
,xotask,xotask,xotask,45,2,165,165,main,negativefb,-99,easy,71,0.3672283000000789,['c'],1,left,['2'],5,0.1961737000000312,,,,,,,,16,21,Vrouw,Rechts,2,
,xotask,xotask,xotask,46,2,166,166,main,negativefb,-99,hard,28,0.6511591999999382,['n'],1,right,['2'],5,0.14690540000003693,,,,,,,,16,21,Vrouw,Rechts,2,
,xotask,xotask,xotask,47,2,167,167,main,negativefb,-99,average,62,0.6007830000000922,['c'],1,left,['2'],5,0.1590281999999661,,,,,,,,16,21,Vrouw,Rechts,2,
,xotask,xotask,xotask,48,2,168,168,main,negativefb,-99,hard,26,0.48433699999998225,['n'],1,right,['2'],5,0.13342549999993025,,,,,,,,16,21,Vrouw,Rechts,2,
,xotask,xotask,xotask,49,2,169,169,main,negativefb,-99,average,60,0.5836927000000287,['c'],1,left,['2'],5,0.16211680000003525,,,,,,,,16,21,Vrouw,Rechts,2,
,xotask,xotask,xotask,50,2,170,170,main,negativefb,-99,hard,52,0.3672073000000182,['c'],1,left,['2'],5,0.2135780999999497,,,,,,,,16,21,Vrouw,Rechts,2,
,xotask,xotask,xotask,51,2,171,171,main,negativefb,-99,average,61,0.6505147999999963,['c'],1,left,['2'],5,0.14834819999998672,,,,,,,,16,21,Vrouw,Rechts,2,
,xotask,xotask,xotask,52,2,172,172,main,negativefb,-99,average,19,0.5167345999999498,['n'],1,right,['2'],5,0.13068910000004053,,,,,,,,16,21,Vrouw,Rechts,2,
,xotask,xotask,xotask,53,2,173,173,main,negativefb,-99,hard,50,0.7170855000000529,['c'],1,left,['2'],5,0.13775989999999183,,,,,,,,16,21,Vrouw,Rechts,2,
,xotask,xotask,xotask,54,2,174,174,main,negativefb,-99,easy,6,0.46701419999999416,['n'],1,right,['2'],5,0.13114740000003167,,,,,,,,16,21,Vrouw,Rechts,2,
,xotask,xotask,xotask,55,2,175,175,main,negativefb,-99,hard,25,0.6510520000000497,['c'],0,right,['2'],5,0.1570325000000139,,,,,,,,16,21,Vrouw,Rechts,2,
,xotask,xotask,xotask,56,2,176,176,main,negativefb,-99,average,17,0.41671900000005735,['n'],1,right,['2'],5,0.10299540000005436,,,,,,,,16,21,Vrouw,Rechts,2,
,xotask,xotask,xotask,57,2,177,177,main,negativefb,-99,easy,72,0.43352330000004713,['c'],1,left,['2'],5,0.1380548000000772,,,,,,,,16,21,Vrouw,Rechts,2,
,xotask,xotask,xotask,58,2,178,178,main,negativefb,-99,hard,26,0.5,['n'],1,right,['2'],5,0.12926070000003165,,,,,,,,16,21,Vrouw,Rechts,2,
,xotask,xotask,xotask,59,2,179,179,main,negativefb,-99,average,64,0.2999245000000883,['c'],1,left,['2'],5,0.15325780000000577,,,,,,,,16,21,Vrouw,Rechts,2,
,xotask,xotask,xotask,0,3,180,180,main,negativefb,-99,easy,72,0.5332555999999613,['c'],1,left,['2'],5,0.15470609999999851,,,,,,,,16,21,Vrouw,Rechts,2,
,xotask,xotask,xotask,1,3,181,181,main,negativefb,-99,average,62,0.5506113999999798,['c'],1,left,['2'],5,0.1273314999999684,,,,,,,,16,21,Vrouw,Rechts,2,
,xotask,xotask,xotask,2,3,182,182,main,negativefb,-99,hard,29,0.6004818000000114,['c'],0,right,['2'],5,0.14648859999999786,,,,,,,,16,21,Vrouw,Rechts,2,
,xotask,xotask,xotask,3,3,183,183,main,negativefb,-99,easy,72,0.5504654000000073,['c'],1,left,['2'],5,0.13715109999998276,,,,,,,,16,21,Vrouw,Rechts,2,
,xotask,xotask,xotask,4,3,184,184,main,negativefb,-99,hard,28,0.4659179000000222,['n'],1,right,['2'],5,0.10618859999999586,,,,,,,,16,21,Vrouw,Rechts,2,
,xotask,xotask,xotask,5,3,185,185,main,negativefb,-99,easy,8,0.5166877000000341,['n'],1,right,['2'],5,0.11375269999996362,,,,,,,,16,21,Vrouw,Rechts,2,
,xotask,xotask,xotask,6,3,186,186,main,negativefb,-99,hard,52,1.0840531999999712,['n'],0,left,['2'],5,0.10700480000002699,,,,,,,,16,21,Vrouw,Rechts,2,
,xotask,xotask,xotask,7,3,187,187,main,negativefb,-99,hard,27,0.3505738999999721,['c'],0,right,['2'],5,0.0979623000000629,,,,,,,,16,21,Vrouw,Rechts,2,
,xotask,xotask,xotask,8,3,188,188,main,negativefb,-99,average,19,0.4170719999999619,['n'],1,right,['2'],5,0.07889829999999165,,,,,,,,16,21,Vrouw,Rechts,2,
,xotask,xotask,xotask,9,3,189,189,main,negativefb,-99,easy,6,0.3331209000000399,['c'],0,right,['2'],5,0.17492300000003524,,,,,,,,16,21,Vrouw,Rechts,2,
,xotask,xotask,xotask,10,3,190,190,main,negativefb,-99,average,61,0.5676368000000593,['c'],1,left,['2'],5,0.09050950000005287,,,,,,,,16,21,Vrouw,Rechts,2,
,xotask,xotask,xotask,11,3,191,191,main,negativefb,-99,hard,28,0.33438039999998637,['n'],1,right,['2'],5,0.10625849999996717,,,,,,,,16,21,Vrouw,Rechts,2,
,xotask,xotask,xotask,12,3,192,192,main,negativefb,-99,average,16,0.4666105000000016,['n'],1,right,['2'],5,0.09263470000007601,,,,,,,,16,21,Vrouw,Rechts,2,
,xotask,xotask,xotask,13,3,193,193,main,negativefb,-99,easy,7,0.4343430999999782,['n'],1,right,['2'],5,0.13668280000001687,,,,,,,,16,21,Vrouw,Rechts,2,
,xotask,xotask,xotask,14,3,194,194,main,negativefb,-99,hard,29,0.3668361999999661,['c'],0,right,['2'],5,0.20491609999999127,,,,,,,,16,21,Vrouw,Rechts,2,
,xotask,xotask,xotask,15,3,195,195,main,negativefb,-99,average,60,0.38391330000001744,['n'],0,left,['2'],5,0.18246099999998933,,,,,,,,16,21,Vrouw,Rechts,2,
,xotask,xotask,xotask,16,3,196,196,main,negativefb,-99,hard,26,0.5168005000000448,['n'],1,right,['2'],5,0.13149280000004637,,,,,,,,16,21,Vrouw,Rechts,2,
,xotask,xotask,xotask,17,3,197,197,main,negativefb,-99,average,16,0.4329771999999821,['n'],1,right,['2'],5,0.10237640000002557,,,,,,,,16,21,Vrouw,Rechts,2,
,xotask,xotask,xotask,18,3,198,198,main,negativefb,-99,average,16,0.34962110000003577,['n'],1,right,['2'],5,0.11672859999998764,,,,,,,,16,21,Vrouw,Rechts,2,
,xotask,xotask,xotask,19,3,199,199,main,negativefb,-99,easy,73,0.5333755999999994,['c'],1,left,['2'],5,0.11581360000002405,,,,,,,,16,21,Vrouw,Rechts,2,
,xotask,xotask,xotask,20,3,200,200,main,negativefb,-99,average,63,0.5830518999999867,['c'],1,left,['2'],5,0.12834920000000238,,,,,,,,16,21,Vrouw,Rechts,2,
,xotask,xotask,xotask,21,3,201,201,main,negativefb,-99,average,62,0.6677660999999944,['n'],0,left,['2'],5,0.14593589999992673,,,,,,,,16,21,Vrouw,Rechts,2,
,xotask,xotask,xotask,22,3,202,202,main,negativefb,-99,hard,50,0.45040030000006936,['n'],0,left,['2'],5,0.13133210000000872,,,,,,,,16,21,Vrouw,Rechts,2,
,xotask,xotask,xotask,23,3,203,203,main,negativefb,-99,average,64,0.750438000000031,['n'],0,left,['2'],5,0.11333760000002258,,,,,,,,16,21,Vrouw,Rechts,2,
,xotask,xotask,xotask,24,3,204,204,main,negativefb,-99,easy,70,0.4497019000000364,['c'],1,left,['2'],5,0.14804530000003524,,,,,,,,16,21,Vrouw,Rechts,2,
,xotask,xotask,xotask,25,3,205,205,main,negativefb,-99,easy,71,0.5169224999999642,['c'],1,left,['2'],5,0.24256099999990965,,,,,,,,16,21,Vrouw,Rechts,2,
,xotask,xotask,xotask,26,3,206,206,main,negativefb,-99,easy,7,0.5664197999999487,['n'],1,right,['2'],5,0.1314473000001044,,,,,,,,16,21,Vrouw,Rechts,2,
,xotask,xotask,xotask,27,3,207,207,main,negativefb,-99,hard,53,0.7993731999999909,['c'],1,left,['2'],5,0.15154930000005606,,,,,,,,16,21,Vrouw,Rechts,2,
,xotask,xotask,xotask,28,3,208,208,main,negativefb,-99,hard,51,0.667577499999993,['c'],1,left,['2'],5,0.15926890000002913,,,,,,,,16,21,Vrouw,Rechts,2,
,xotask,xotask,xotask,29,3,209,209,main,negativefb,-99,average,19,0.450145599999928,['n'],1,right,['2'],5,0.12813380000000052,,,,,,,,16,21,Vrouw,Rechts,2,
,xotask,xotask,xotask,30,3,210,210,main,negativefb,-99,hard,27,0.9673715999999786,['c'],0,right,['2'],5,0.14146089999997002,,,,,,,,16,21,Vrouw,Rechts,2,
,xotask,xotask,xotask,31,3,211,211,main,negativefb,-99,average,17,0.3503210000000081,['n'],1,right,['2'],5,0.16298349999999573,,,,,,,,16,21,Vrouw,Rechts,2,
,xotask,xotask,xotask,32,3,212,212,main,negativefb,-99,average,63,0.6337087000000565,['c'],1,left,['2'],5,0.1481519000000162,,,,,,,,16,21,Vrouw,Rechts,2,
,xotask,xotask,xotask,33,3,213,213,main,negativefb,-99,easy,71,0.5675641999999925,['c'],1,left,['2'],5,0.19304550000003928,,,,,,,,16,21,Vrouw,Rechts,2,
,xotask,xotask,xotask,34,3,214,214,main,negativefb,-99,average,18,0.5005085000000236,['n'],1,right,['2'],5,0.1102486999999428,,,,,,,,16,21,Vrouw,Rechts,2,
,xotask,xotask,xotask,35,3,215,215,main,negativefb,-99,easy,6,0.5013901999999462,['n'],1,right,['2'],5,0.08681419999993523,,,,,,,,16,21,Vrouw,Rechts,2,
,xotask,xotask,xotask,36,3,216,216,main,negativefb,-99,average,15,0.583169200000043,['n'],1,right,['2'],5,0.10898950000000696,,,,,,,,16,21,Vrouw,Rechts,2,
,xotask,xotask,xotask,37,3,217,217,main,negativefb,-99,easy,71,0.43334809999998924,['c'],1,left,['2'],5,0.15228749999994307,,,,,,,,16,21,Vrouw,Rechts,2,
,xotask,xotask,xotask,38,3,218,218,main,negativefb,-99,average,18,0.5500895000000128,['n'],1,right,['2'],5,0.08527060000005804,,,,,,,,16,21,Vrouw,Rechts,2,
,xotask,xotask,xotask,39,3,219,219,main,negativefb,-99,hard,51,0.30034309999996367,['c'],1,left,['2'],5,0.1585370000000239,,,,,,,,16,21,Vrouw,Rechts,2,
,xotask,xotask,xotask,40,3,220,220,main,negativefb,-99,hard,50,0.6503379000000677,['c'],1,left,['2'],5,0.10308580000003076,,,,,,,,16,21,Vrouw,Rechts,2,
,xotask,xotask,xotask,41,3,221,221,main,negativefb,-99,average,60,0.054154899999957706,['c'],1,left,['2'],5,0.10799630000008165,,,,,,,,16,21,Vrouw,Rechts,2,
,xotask,xotask,xotask,42,3,222,222,main,negativefb,-99,easy,5,2.517849599999977,['n'],1,right,['2'],5,0.6837759999999662,,,,,,,,16,21,Vrouw,Rechts,2,
,xotask,xotask,xotask,43,3,223,223,main,negativefb,-99,easy,7,0.49916989999996986,['n'],1,right,['2'],5,0.13329659999999421,,,,,,,,16,21,Vrouw,Rechts,2,
,xotask,xotask,xotask,44,3,224,224,main,negativefb,-99,easy,70,0.5508531000000403,['c'],1,left,['2'],5,0.09077849999994214,,,,,,,,16,21,Vrouw,Rechts,2,
,xotask,xotask,xotask,45,3,225,225,main,negativefb,-99,average,64,0.44955449999997654,['c'],1,left,['2'],5,0.1339163999999755,,,,,,,,16,21,Vrouw,Rechts,2,
,xotask,xotask,xotask,46,3,226,226,main,negativefb,-99,easy,7,0.31652170000006663,['n'],1,right,['2'],5,0.10077899999998863,,,,,,,,16,21,Vrouw,Rechts,2,
,xotask,xotask,xotask,47,3,227,227,main,negativefb,-99,average,64,0.4667913000000681,['c'],1,left,['2'],5,0.15885750000006738,,,,,,,,16,21,Vrouw,Rechts,2,
,xotask,xotask,xotask,48,3,228,228,main,negativefb,-99,hard,52,0.26736529999993763,['n'],0,left,['8'],3,0.8706614999999829,,,,,,,,16,21,Vrouw,Rechts,2,
,xotask,xotask,xotask,49,3,229,229,main,negativefb,-99,hard,28,0.6995641999999407,['c'],0,right,['2'],5,0.1288244999999506,,,,,,,,16,21,Vrouw,Rechts,2,
,xotask,xotask,xotask,50,3,230,230,main,negativefb,-99,easy,5,0.5329348999999866,['n'],1,right,['2'],5,0.19152679999990596,,,,,,,,16,21,Vrouw,Rechts,2,
,xotask,xotask,xotask,51,3,231,231,main,negativefb,-99,easy,71,0.48285889999999654,['c'],1,left,['2'],5,0.15758849999997437,,,,,,,,16,21,Vrouw,Rechts,2,
,xotask,xotask,xotask,52,3,232,232,main,negativefb,-99,hard,51,0.7998288999999659,['c'],1,left,['2'],5,0.2562533000000258,,,,,,,,16,21,Vrouw,Rechts,2,
,xotask,xotask,xotask,53,3,233,233,main,negativefb,-99,hard,28,0.7179140000000643,['n'],1,right,['2'],5,0.11416289999999663,,,,,,,,16,21,Vrouw,Rechts,2,
,xotask,xotask,xotask,54,3,234,234,main,negativefb,-99,average,19,0.33401630000003024,['c'],0,right,['2'],5,0.18577749999997195,,,,,,,,16,21,Vrouw,Rechts,2,
,xotask,xotask,xotask,55,3,235,235,main,negativefb,-99,hard,50,0.31701250000003256,['n'],0,left,['2'],5,0.14218620000008286,,,,,,,,16,21,Vrouw,Rechts,2,
,xotask,xotask,xotask,56,3,236,236,main,negativefb,-99,easy,8,0.39963969999996607,['n'],1,right,['2'],5,0.11384859999998298,,,,,,,,16,21,Vrouw,Rechts,2,
,xotask,xotask,xotask,57,3,237,237,main,negativefb,-99,easy,70,0.4165350999999191,['n'],0,left,['2'],5,0.205795500000022,,,,,,,,16,21,Vrouw,Rechts,2,
,xotask,xotask,xotask,58,3,238,238,main,negativefb,-99,hard,28,0.533300699999927,['n'],1,right,['2'],5,0.11311809999995148,,,,,,,,16,21,Vrouw,Rechts,2,
,xotask,xotask,xotask,59,3,239,239,main,negativefb,-99,hard,50,0.7001254000000472,['c'],1,left,['2'],5,0.09780539999997018,,,,,,,,16,21,Vrouw,Rechts,2,
,xotask,xotask,xotask,0,4,240,240,main,negativefb,-99,hard,27,0.633007799999973,['n'],1,right,['2'],5,0.079189700000029,,,,,,,,16,21,Vrouw,Rechts,2,
,xotask,xotask,xotask,1,4,241,241,main,negativefb,-99,hard,25,0.3177586000000474,['n'],1,right,['2'],5,0.12063899999998284,,,,,,,,16,21,Vrouw,Rechts,2,
,xotask,xotask,xotask,2,4,242,242,main,negativefb,-99,hard,28,0.4497082999999975,['n'],1,right,['2'],5,0.13872399999991103,,,,,,,,16,21,Vrouw,Rechts,2,
,xotask,xotask,xotask,3,4,243,243,main,negativefb,-99,average,62,0.2661414000000377,['c'],1,left,['2'],5,0.123179499999992,,,,,,,,16,21,Vrouw,Rechts,2,
,xotask,xotask,xotask,4,4,244,244,main,negativefb,-99,easy,74,0.850734999999986,['c'],1,left,['2'],5,0.2055236999999579,,,,,,,,16,21,Vrouw,Rechts,2,
,xotask,xotask,xotask,5,4,245,245,main,negativefb,-99,easy,9,0.45008069999994404,['n'],1,right,['2'],5,0.15619519999995646,,,,,,,,16,21,Vrouw,Rechts,2,
,xotask,xotask,xotask,6,4,246,246,main,negativefb,-99,easy,9,0.5000537999999324,['n'],1,right,['2'],5,0.17892870000002858,,,,,,,,16,21,Vrouw,Rechts,2,
,xotask,xotask,xotask,7,4,247,247,main,negativefb,-99,hard,29,0.5674645000000282,['c'],0,right,['2'],5,0.12542389999998704,,,,,,,,16,21,Vrouw,Rechts,2,
,xotask,xotask,xotask,8,4,248,248,main,negativefb,-99,average,62,0.7328975000000355,['c'],1,left,['2'],5,0.16504399999996622,,,,,,,,16,21,Vrouw,Rechts,2,
,xotask,xotask,xotask,9,4,249,249,main,negativefb,-99,average,62,0.5326667000000498,['c'],1,left,['2'],5,0.15423920000000635,,,,,,,,16,21,Vrouw,Rechts,2,
,xotask,xotask,xotask,10,4,250,250,main,negativefb,-99,easy,72,0.45070859999998447,['c'],1,left,['2'],5,0.33075910000002295,,,,,,,,16,21,Vrouw,Rechts,2,
,xotask,xotask,xotask,11,4,251,251,main,negativefb,-99,easy,70,0.45142789999999877,['c'],1,left,['2'],5,0.17981029999998555,,,,,,,,16,21,Vrouw,Rechts,2,
,xotask,xotask,xotask,12,4,252,252,main,negativefb,-99,hard,29,0.5675534000000653,['n'],1,right,['2'],5,0.12013039999999364,,,,,,,,16,21,Vrouw,Rechts,2,
,xotask,xotask,xotask,13,4,253,253,main,negativefb,-99,easy,71,0.7346125999999913,['c'],1,left,['2'],5,0.11850960000003852,,,,,,,,16,21,Vrouw,Rechts,2,
,xotask,xotask,xotask,14,4,254,254,main,negativefb,-99,hard,51,0.6000419000000647,['n'],0,left,['2'],5,0.09850349999999253,,,,,,,,16,21,Vrouw,Rechts,2,
,xotask,xotask,xotask,15,4,255,255,main,negativefb,-99,easy,71,0.26631400000007943,['c'],1,left,['2'],5,0.13392369999996845,,,,,,,,16,21,Vrouw,Rechts,2,
,xotask,xotask,xotask,16,4,256,256,main,negativefb,-99,average,15,0.23328379999998106,['c'],0,right,['2'],5,0.15186080000000857,,,,,,,,16,21,Vrouw,Rechts,2,
,xotask,xotask,xotask,17,4,257,257,main,negativefb,-99,hard,25,0.9506294999999909,['n'],1,right,['2'],5,0.06875270000000455,,,,,,,,16,21,Vrouw,Rechts,2,
,xotask,xotask,xotask,18,4,258,258,main,negativefb,-99,hard,51,0.767228799999998,['n'],0,left,['2'],5,0.12418979999995372,,,,,,,,16,21,Vrouw,Rechts,2,
,xotask,xotask,xotask,19,4,259,259,main,negativefb,-99,hard,26,0.6677627999999913,['n'],1,right,['2'],5,0.10819390000006024,,,,,,,,16,21,Vrouw,Rechts,2,
,xotask,xotask,xotask,20,4,260,260,main,negativefb,-99,hard,50,0.43316329999993286,['c'],1,left,['2'],5,0.128536199999985,,,,,,,,16,21,Vrouw,Rechts,2,
,xotask,xotask,xotask,21,4,261,261,main,negativefb,-99,average,19,0.683169600000042,['n'],1,right,['2'],5,0.10553319999996802,,,,,,,,16,21,Vrouw,Rechts,2,
,xotask,xotask,xotask,22,4,262,262,main,negativefb,-99,average,18,0.7834302999999636,['c'],0,right,['2'],5,0.13444089999995867,,,,,,,,16,21,Vrouw,Rechts,2,
,xotask,xotask,xotask,23,4,263,263,main,negativefb,-99,hard,53,0.5000991999999087,['c'],1,left,['2'],5,0.13342419999992217,,,,,,,,16,21,Vrouw,Rechts,2,
,xotask,xotask,xotask,24,4,264,264,main,negativefb,-99,average,18,0.5004493999999795,['n'],1,right,['2'],5,0.1409912000000304,,,,,,,,16,21,Vrouw,Rechts,2,
,xotask,xotask,xotask,25,4,265,265,main,negativefb,-99,easy,71,0.6173034999999345,['c'],1,left,['2'],5,0.31098800000006577,,,,,,,,16,21,Vrouw,Rechts,2,
,xotask,xotask,xotask,26,4,266,266,main,negativefb,-99,hard,54,1.1350074000000632,['c'],1,left,['2'],5,0.13491709999993873,,,,,,,,16,21,Vrouw,Rechts,2,
,xotask,xotask,xotask,27,4,267,267,main,negativefb,-99,average,16,0.633683700000006,['n'],1,right,['2'],5,0.06541530000004059,,,,,,,,16,21,Vrouw,Rechts,2,
,xotask,xotask,xotask,28,4,268,268,main,negativefb,-99,easy,7,0.7169428999999354,['c'],0,right,['9'],2,1.0997376000000259,,,,,,,,16,21,Vrouw,Rechts,2,
,xotask,xotask,xotask,29,4,269,269,main,negativefb,-99,hard,50,0.7174151000000393,['c'],1,left,['2'],5,0.9715982000000167,,,,,,,,16,21,Vrouw,Rechts,2,
,xotask,xotask,xotask,30,4,270,270,main,negativefb,-99,hard,25,0.9169165000000703,['n'],1,right,['2'],5,0.12900579999995898,,,,,,,,16,21,Vrouw,Rechts,2,
,xotask,xotask,xotask,31,4,271,271,main,negativefb,-99,average,60,0.5997200000000475,['n'],0,left,['2'],5,0.14126139999996212,,,,,,,,16,21,Vrouw,Rechts,2,
,xotask,xotask,xotask,32,4,272,272,main,negativefb,-99,easy,5,0.46770630000003166,['n'],1,right,['2'],5,0.1580089000000271,,,,,,,,16,21,Vrouw,Rechts,2,
,xotask,xotask,xotask,33,4,273,273,main,negativefb,-99,average,62,0.550880799999959,['c'],1,left,['2'],5,0.13008050000007643,,,,,,,,16,21,Vrouw,Rechts,2,
,xotask,xotask,xotask,34,4,274,274,main,negativefb,-99,easy,72,0.7174130999999306,['c'],1,left,['2'],5,0.11357320000001891,,,,,,,,16,21,Vrouw,Rechts,2,
,xotask,xotask,xotask,35,4,275,275,main,negativefb,-99,hard,54,0.4831053000000338,['c'],1,left,['2'],5,0.09051230000000032,,,,,,,,16,21,Vrouw,Rechts,2,
,xotask,xotask,xotask,36,4,276,276,main,negativefb,-99,average,61,0.3671845999999732,['n'],0,left,['2'],5,0.1216801000000487,,,,,,,,16,21,Vrouw,Rechts,2,
,xotask,xotask,xotask,37,4,277,277,main,negativefb,-99,average,16,0.4839757999999392,['n'],1,right,['2'],5,0.09792200000003959,,,,,,,,16,21,Vrouw,Rechts,2,
,xotask,xotask,xotask,38,4,278,278,main,negativefb,-99,easy,72,0.44877259999998387,['c'],1,left,['2'],5,0.16595910000000913,,,,,,,,16,21,Vrouw,Rechts,2,
,xotask,xotask,xotask,39,4,279,279,main,negativefb,-99,easy,5,0.4003185999999914,['n'],1,right,['2'],5,0.10401239999998779,,,,,,,,16,21,Vrouw,Rechts,2,
,xotask,xotask,xotask,40,4,280,280,main,negativefb,-99,easy,7,0.8339897000000747,['n'],1,right,['2'],5,0.11510120000002644,,,,,,,,16,21,Vrouw,Rechts,2,
,xotask,xotask,xotask,41,4,281,281,main,negativefb,-99,hard,51,0.5487424000000374,['c'],1,left,['2'],5,0.1858569000000898,,,,,,,,16,21,Vrouw,Rechts,2,
,xotask,xotask,xotask,42,4,282,282,main,negativefb,-99,average,63,0.48273950000009336,['n'],0,left,['2'],5,0.11926710000000185,,,,,,,,16,21,Vrouw,Rechts,2,
,xotask,xotask,xotask,43,4,283,283,main,negativefb,-99,hard,28,0.6993542999999818,['c'],0,right,['2'],5,0.19207190000008723,,,,,,,,16,21,Vrouw,Rechts,2,
,xotask,xotask,xotask,44,4,284,284,main,negativefb,-99,average,17,0.766586499999903,['n'],1,right,['2'],5,0.13879769999994096,,,,,,,,16,21,Vrouw,Rechts,2,
,xotask,xotask,xotask,45,4,285,285,main,negativefb,-99,easy,7,0.583504199999993,['n'],1,right,['2'],5,0.1350436999999829,,,,,,,,16,21,Vrouw,Rechts,2,
,xotask,xotask,xotask,46,4,286,286,main,negativefb,-99,average,64,0.5832027000000153,['c'],1,left,['2'],5,0.1307453000000578,,,,,,,,16,21,Vrouw,Rechts,2,
,xotask,xotask,xotask,47,4,287,287,main,negativefb,-99,easy,5,1.2513500000000022,['n'],1,right,['2'],5,0.17983220000007805,,,,,,,,16,21,Vrouw,Rechts,2,
,xotask,xotask,xotask,48,4,288,288,main,negativefb,-99,hard,52,0.4505854000000227,['n'],0,left,['2'],5,0.08478409999997893,,,,,,,,16,21,Vrouw,Rechts,2,
,xotask,xotask,xotask,49,4,289,289,main,negativefb,-99,average,17,0.2818461000000525,['c'],0,right,['2'],5,0.08688219999999092,,,,,,,,16,21,Vrouw,Rechts,2,
,xotask,xotask,xotask,50,4,290,290,main,negativefb,-99,hard,51,0.6339937999999847,['c'],1,left,['2'],5,0.14675230000000283,,,,,,,,16,21,Vrouw,Rechts,2,
,xotask,xotask,xotask,51,4,291,291,main,negativefb,-99,hard,29,0.6506004999999959,['n'],1,right,['2'],5,0.1000199000000066,,,,,,,,16,21,Vrouw,Rechts,2,
,xotask,xotask,xotask,52,4,292,292,main,negativefb,-99,average,60,0.6012632000000622,['c'],1,left,['2'],5,0.10473260000003393,,,,,,,,16,21,Vrouw,Rechts,2,
,xotask,xotask,xotask,53,4,293,293,main,negativefb,-99,easy,74,0.5170601000000943,['c'],1,left,['2'],5,0.08901090000006207,,,,,,,,16,21,Vrouw,Rechts,2,
,xotask,xotask,xotask,54,4,294,294,main,negativefb,-99,easy,7,0.3336203999999725,['n'],1,right,['2'],5,0.09693600000002789,,,,,,,,16,21,Vrouw,Rechts,2,
,xotask,xotask,xotask,55,4,295,295,main,negativefb,-99,average,19,0.64984579999998,['n'],1,right,['2'],5,0.1088931000000457,,,,,,,,16,21,Vrouw,Rechts,2,
,xotask,xotask,xotask,56,4,296,296,main,negativefb,-99,average,19,0.6012575999999399,['n'],1,right,['2'],5,0.1529209999999921,,,,,,,,16,21,Vrouw,Rechts,2,
,xotask,xotask,xotask,57,4,297,297,main,negativefb,-99,average,60,0.33391149999999925,['c'],1,left,['2'],5,0.12536390000002484,,,,,,,,16,21,Vrouw,Rechts,2,
,xotask,xotask,xotask,58,4,298,298,main,negativefb,-99,easy,70,0.4008876999999984,['c'],1,left,['2'],5,0.11422759999993559,,,,,,,,16,21,Vrouw,Rechts,2,
,xotask,xotask,xotask,59,4,299,299,main,negativefb,-99,easy,6,0.4178925999999592,['c'],0,right,['9'],2,0.7175697000000127,,,,,,,,16,21,Vrouw,Rechts,2,
,xotask,xotask,xotask,0,0,0,300,training,negativefb,63,average,17,1.1996101000000863,['n'],1,right,['2'],5,0.08708579999995436,,,,,,,,16,21,Vrouw,Rechts,2,
,xotask,xotask,xotask,1,0,1,301,training,negativefb,75,easy,9,0.5163361999999552,['n'],1,right,['2'],5,0.11236450000001241,,,,,,,,16,21,Vrouw,Rechts,2,
,xotask,xotask,xotask,2,0,2,302,training,negativefb,91,average,60,0.7342212999999447,['c'],1,left,['2'],5,0.14201460000003863,,,,,,,,16,21,Vrouw,Rechts,2,
,xotask,xotask,xotask,3,0,3,303,training,negativefb,92,average,64,0.5156329000000142,['c'],1,left,['2'],5,0.11667980000004263,,,,,,,,16,21,Vrouw,Rechts,2,
,xotask,xotask,xotask,4,0,4,304,training,negativefb,24,hard,25,1.1164248000000043,['c'],0,right,['2'],5,0.1161286999999902,,,,,,,,16,21,Vrouw,Rechts,2,
,xotask,xotask,xotask,5,0,5,305,training,negativefb,73,average,19,0.46586809999996603,['n'],1,right,['2'],5,0.10828839999999218,,,,,,,,16,21,Vrouw,Rechts,2,
,xotask,xotask,xotask,6,0,6,306,training,negativefb,68,hard,53,0.46605720000002293,['n'],0,left,['2'],5,0.14163380000002235,,,,,,,,16,21,Vrouw,Rechts,2,
,xotask,xotask,xotask,7,0,7,307,training,negativefb,81,hard,51,0.4495179000000462,['c'],1,left,['2'],5,0.10243239999999787,,,,,,,,16,21,Vrouw,Rechts,2,
,xotask,xotask,xotask,8,0,8,308,training,negativefb,69,easy,71,0.41657039999995504,['c'],1,left,['2'],5,0.09013700000014069,,,,,,,,16,21,Vrouw,Rechts,2,
,xotask,xotask,xotask,9,0,9,309,training,negativefb,73,average,15,0.45021029999998063,['c'],0,right,['9'],2,0.8601200999999037,,,,,,,,16,21,Vrouw,Rechts,2,
,xotask,xotask,xotask,10,0,10,310,training,negativefb,85,easy,74,0.7846263000001272,['c'],1,left,['2'],5,0.17098079999982474,,,,,,,,16,21,Vrouw,Rechts,2,
,xotask,xotask,xotask,11,0,11,311,training,negativefb,37,hard,53,1.1180644000000939,['c'],1,left,['2'],5,0.08665780000001178,,,,,,,,16,21,Vrouw,Rechts,2,
,xotask,xotask,xotask,12,0,12,312,training,negativefb,86,easy,8,0.4660976000000119,['n'],1,right,['2'],5,0.1136756000000787,,,,,,,,16,21,Vrouw,Rechts,2,
,xotask,xotask,xotask,13,0,13,313,training,negativefb,49,easy,72,0.45046290000004774,['c'],1,left,['2'],5,0.060449500000004264,,,,,,,,16,21,Vrouw,Rechts,2,
,xotask,xotask,xotask,14,0,14,314,training,negativefb,33,hard,54,0.7339395999999851,['c'],1,left,['2'],5,0.18097860000011678,,,,,,,,16,21,Vrouw,Rechts,2,
,xotask,xotask,xotask,15,0,15,315,training,negativefb,65,average,18,1.783366800000067,['n'],1,right,['9'],2,0.15074540000000525,,,,,,,,16,21,Vrouw,Rechts,2,
,xotask,xotask,xotask,16,0,16,316,training,negativefb,43,hard,26,1.1333211999999548,['n'],1,right,['2'],5,0.14711540000007517,,,,,,,,16,21,Vrouw,Rechts,2,
,xotask,xotask,xotask,17,0,17,317,training,negativefb,81,hard,26,0.6494582000000264,['n'],1,right,['2'],5,0.10008510000011483,,,,,,,,16,21,Vrouw,Rechts,2,
,xotask,xotask,xotask,18,0,18,318,training,negativefb,59,easy,73,0.5006928000000244,['c'],1,left,['2'],5,0.0848844999998164,,,,,,,,16,21,Vrouw,Rechts,2,
,xotask,xotask,xotask,19,0,19,319,training,negativefb,66,average,15,0.5172267000000375,['n'],1,right,['2'],5,0.10039679999999862,,,,,,,,16,21,Vrouw,Rechts,2,
,xotask,xotask,xotask,20,0,20,320,training,negativefb,84,easy,8,0.4335119999998369,['n'],1,right,['2'],5,0.1276854000000185,,,,,,,,16,21,Vrouw,Rechts,2,
,xotask,xotask,xotask,21,0,21,321,training,negativefb,92,hard,54,0.5325109000000339,['c'],1,left,['2'],5,0.11714459999984683,,,,,,,,16,21,Vrouw,Rechts,2,
,xotask,xotask,xotask,22,0,22,322,training,negativefb,88,easy,71,0.46664659999987634,['c'],1,left,['2'],5,0.08557919999998376,,,,,,,,16,21,Vrouw,Rechts,2,
,xotask,xotask,xotask,23,0,23,323,training,negativefb,68,hard,54,0.41642639999986386,['n'],0,left,['2'],5,0.0982997000000978,,,,,,,,16,21,Vrouw,Rechts,2,
,xotask,xotask,xotask,24,0,24,324,training,negativefb,49,average,62,0.5513209000000643,['c'],1,left,['2'],5,0.1208836999999221,,,,,,,,16,21,Vrouw,Rechts,2,
,xotask,xotask,xotask,25,0,25,325,training,negativefb,42,easy,73,0.48313469999993686,['c'],1,left,['2'],5,0.21691599999985556,,,,,,,,16,21,Vrouw,Rechts,2,
,xotask,xotask,xotask,26,0,26,326,training,negativefb,52,easy,8,0.6816426999998839,['n'],1,right,['2'],5,0.09320089999982883,,,,,,,,16,21,Vrouw,Rechts,2,
,xotask,xotask,xotask,27,0,27,327,training,negativefb,74,easy,71,1.0162987999999586,['c'],1,left,['2'],5,0.2570211999998264,,,,,,,,16,21,Vrouw,Rechts,2,
,xotask,xotask,xotask,28,0,28,328,training,negativefb,52,average,60,0.6179122000000916,['c'],1,left,['2'],5,0.11035360000005312,,,,,,,,16,21,Vrouw,Rechts,2,
,xotask,xotask,xotask,29,0,29,329,training,negativefb,43,average,16,0.6330508999999438,['n'],1,right,['2'],5,0.1370387000001756,,,,,,,,16,21,Vrouw,Rechts,2,
,xotask,xotask,xotask,30,0,30,330,training,negativefb,83,average,64,0.5670052000000396,['c'],1,left,['2'],5,0.1652888000000985,,,,,,,,16,21,Vrouw,Rechts,2,
,xotask,xotask,xotask,31,0,31,331,training,negativefb,45,hard,52,0.666771400000016,['c'],1,left,['2'],5,0.12440199999991819,,,,,,,,16,21,Vrouw,Rechts,2,
,xotask,xotask,xotask,32,0,32,332,training,negativefb,63,easy,72,0.5155597999998918,['c'],1,left,['2'],5,0.1388397000000623,,,,,,,,16,21,Vrouw,Rechts,2,
,xotask,xotask,xotask,33,0,33,333,training,negativefb,38,hard,51,0.834064799999851,['c'],1,left,['2'],5,0.39715400000000045,,,,,,,,16,21,Vrouw,Rechts,2,
,xotask,xotask,xotask,34,0,34,334,training,negativefb,53,hard,53,0.5821693999998843,['c'],1,left,['2'],5,0.11796169999979611,,,,,,,,16,21,Vrouw,Rechts,2,
,xotask,xotask,xotask,35,0,35,335,training,negativefb,46,hard,25,0.5832537999999658,['n'],1,right,['2'],5,0.09726279999995313,,,,,,,,16,21,Vrouw,Rechts,2,
,xotask,xotask,xotask,36,0,36,336,training,negativefb,52,average,60,0.5175073000000339,['c'],1,left,['2'],5,0.13025680000009743,,,,,,,,16,21,Vrouw,Rechts,2,
,xotask,xotask,xotask,37,0,37,337,training,negativefb,67,hard,26,0.6006632000000991,['n'],1,right,['2'],5,0.10062460000017381,,,,,,,,16,21,Vrouw,Rechts,2,
,xotask,xotask,xotask,38,0,38,338,training,negativefb,73,average,16,0.4515175999999883,['n'],1,right,['2'],5,0.10362140000006548,,,,,,,,16,21,Vrouw,Rechts,2,
,xotask,xotask,xotask,39,0,39,339,training,negativefb,65,average,17,0.5656851999999617,['n'],1,right,['2'],5,0.10876409999991665,,,,,,,,16,21,Vrouw,Rechts,2,
,xotask,xotask,xotask,40,0,40,340,training,negativefb,25,hard,26,0.9664821999999731,['n'],1,right,['2'],5,0.10703320000015992,,,,,,,,16,21,Vrouw,Rechts,2,
,xotask,xotask,xotask,41,0,41,341,training,negativefb,5,average,60,0.7330826999998408,['n'],0,left,['2'],5,0.425381299999799,,,,,,,,16,21,Vrouw,Rechts,2,
,xotask,xotask,xotask,42,0,42,342,training,negativefb,65,hard,25,0.549271200000021,['n'],1,right,['2'],5,0.13883799999985058,,,,,,,,16,21,Vrouw,Rechts,2,
,xotask,xotask,xotask,43,0,43,343,training,negativefb,77,average,18,0.6340752000000975,['n'],1,right,['2'],5,0.11528720000001158,,,,,,,,16,21,Vrouw,Rechts,2,
,xotask,xotask,xotask,44,0,44,344,training,negativefb,59,hard,27,0.5161525999999412,['n'],1,right,['2'],5,0.08268780000003062,,,,,,,,16,21,Vrouw,Rechts,2,
,xotask,xotask,xotask,45,0,45,345,training,negativefb,65,easy,9,0.5998830000000908,['n'],1,right,['2'],5,0.1429740999999467,,,,,,,,16,21,Vrouw,Rechts,2,
,xotask,xotask,xotask,46,0,46,346,training,negativefb,65,average,64,0.5669193999999607,['c'],1,left,['2'],5,0.11552740000001904,,,,,,,,16,21,Vrouw,Rechts,2,
,xotask,xotask,xotask,47,0,47,347,training,negativefb,62,easy,6,0.5164353000000119,['n'],1,right,['2'],5,0.11482150000006186,,,,,,,,16,21,Vrouw,Rechts,2,
,xotask,xotask,xotask,48,0,48,348,training,negativefb,93,easy,6,0.4830133999998907,['n'],1,right,['2'],5,0.13190240000017184,,,,,,,,16,21,Vrouw,Rechts,2,
,xotask,xotask,xotask,49,0,49,349,training,negativefb,52,easy,7,0.41687100000012833,['n'],1,right,['2'],5,0.13345640000011372,,,,,,,,16,21,Vrouw,Rechts,2,
,xotask,xotask,xotask,50,0,50,350,training,negativefb,91,easy,6,0.48292510000010225,['n'],1,right,['2'],5,0.1182450000001154,,,,,,,,16,21,Vrouw,Rechts,2,
,xotask,xotask,xotask,51,0,51,351,training,negativefb,63,easy,72,0.9497460000000046,['c'],1,left,['2'],5,0.14717580000001362,,,,,,,,16,21,Vrouw,Rechts,2,
,xotask,xotask,xotask,52,0,52,352,training,negativefb,63,easy,7,0.48416120000001683,['n'],1,right,['2'],5,0.09060100000010607,,,,,,,,16,21,Vrouw,Rechts,2,
,xotask,xotask,xotask,53,0,53,353,training,negativefb,64,average,61,0.5494721000000027,['c'],1,left,['2'],5,0.19323400000007496,,,,,,,,16,21,Vrouw,Rechts,2,
,xotask,xotask,xotask,54,0,54,354,training,negativefb,64,average,62,0.6007197999999789,['c'],1,left,['2'],5,0.15374520000000302,,,,,,,,16,21,Vrouw,Rechts,2,
,xotask,xotask,xotask,55,0,55,355,training,negativefb,32,easy,72,0.46536829999990914,['c'],1,left,['2'],5,0.1692439999999351,,,,,,,,16,21,Vrouw,Rechts,2,
,xotask,xotask,xotask,56,0,56,356,training,negativefb,75,hard,27,0.4329384000000118,['n'],1,right,['2'],5,0.07298910000008618,,,,,,,,16,21,Vrouw,Rechts,2,
,xotask,xotask,xotask,57,0,57,357,training,negativefb,45,hard,25,1.066304799999898,['c'],0,right,['2'],5,0.14029649999997673,,,,,,,,16,21,Vrouw,Rechts,2,
,xotask,xotask,xotask,58,0,58,358,training,negativefb,59,hard,53,1.183569900000066,['c'],1,left,['2'],5,0.023306499999989683,,,,,,,,16,21,Vrouw,Rechts,2,
,xotask,xotask,xotask,59,0,59,359,training,negativefb,78,average,17,0.4328935000000911,['n'],1,right,['2'],5,0.10175059999983205,,,,,,,,16,21,Vrouw,Rechts,2,
,xotask,xotask,xotask,0,1,60,360,training,negativefb,70,easy,5,0.6008125999999265,['n'],1,right,['2'],5,0.08781369999996969,,,,,,,,16,21,Vrouw,Rechts,2,
,xotask,xotask,xotask,1,1,61,361,training,negativefb,54,average,62,0.5158566999998584,['c'],1,left,['2'],5,0.07205869999984316,,,,,,,,16,21,Vrouw,Rechts,2,
,xotask,xotask,xotask,2,1,62,362,training,negativefb,45,easy,70,0.5000327000000198,['c'],1,left,['2'],5,0.11313169999993988,,,,,,,,16,21,Vrouw,Rechts,2,
,xotask,xotask,xotask,3,1,63,363,training,negativefb,95,easy,8,0.4842465000001539,['n'],1,right,['2'],5,0.23353919999999562,,,,,,,,16,21,Vrouw,Rechts,2,
,xotask,xotask,xotask,4,1,64,364,training,negativefb,63,hard,28,0.699536500000022,['c'],0,right,['2'],5,0.11685119999992821,,,,,,,,16,21,Vrouw,Rechts,2,
,xotask,xotask,xotask,5,1,65,365,training,negativefb,31,average,64,0.6492882999998528,['c'],1,left,['2'],5,0.11011710000002495,,,,,,,,16,21,Vrouw,Rechts,2,
,xotask,xotask,xotask,6,1,66,366,training,negativefb,86,easy,6,0.500235499999917,['n'],1,right,['2'],5,0.11801549999995586,,,,,,,,16,21,Vrouw,Rechts,2,
,xotask,xotask,xotask,7,1,67,367,training,negativefb,50,hard,29,0.5507192000000032,['n'],1,right,['2'],5,0.06760080000003654,,,,,,,,16,21,Vrouw,Rechts,2,
,xotask,xotask,xotask,8,1,68,368,training,negativefb,82,easy,70,0.6672238999999536,['c'],1,left,['2'],5,0.07824909999999363,,,,,,,,16,21,Vrouw,Rechts,2,
,xotask,xotask,xotask,9,1,69,369,training,negativefb,56,average,62,0.6826912999999877,['c'],1,left,['2'],5,0.13635339999996177,,,,,,,,16,21,Vrouw,Rechts,2,
,xotask,xotask,xotask,10,1,70,370,training,negativefb,65,average,16,0.5667741000002025,['n'],1,right,['2'],5,0.10010480000005373,,,,,,,,16,21,Vrouw,Rechts,2,
,xotask,xotask,xotask,11,1,71,371,training,negativefb,52,easy,74,0.517517400000088,['c'],1,left,['2'],5,0.0837839000000713,,,,,,,,16,21,Vrouw,Rechts,2,
,xotask,xotask,xotask,12,1,72,372,training,negativefb,66,average,18,0.8662204999998266,['n'],1,right,['2'],5,0.06995630000005804,,,,,,,,16,21,Vrouw,Rechts,2,
,xotask,xotask,xotask,13,1,73,373,training,negativefb,80,average,16,0.6344814999999926,['n'],1,right,['2'],5,0.08994849999999133,,,,,,,,16,21,Vrouw,Rechts,2,
,xotask,xotask,xotask,14,1,74,374,training,negativefb,50,hard,51,0.7674701000000823,['c'],1,left,['2'],5,0.08014910000019881,,,,,,,,16,21,Vrouw,Rechts,2,
,xotask,xotask,xotask,15,1,75,375,training,negativefb,41,easy,5,0.6012423000001945,['n'],1,right,['2'],5,0.044642100000146456,,,,,,,,16,21,Vrouw,Rechts,2,
,xotask,xotask,xotask,16,1,76,376,training,negativefb,56,hard,28,0.7178257000000485,['c'],0,right,['2'],5,0.14325720000010733,,,,,,,,16,21,Vrouw,Rechts,2,
,xotask,xotask,xotask,17,1,77,377,training,negativefb,59,easy,73,1.4657964999998967,['c'],1,left,['2'],5,0.04718290000005254,,,,,,,,16,21,Vrouw,Rechts,2,
,xotask,xotask,xotask,18,1,78,378,training,negativefb,64,hard,53,0.7007068000000345,['n'],0,left,['2'],5,0.04974560000005113,,,,,,,,16,21,Vrouw,Rechts,2,
,xotask,xotask,xotask,19,1,79,379,training,negativefb,58,hard,29,0.3173221999998077,['c'],0,right,['2'],5,0.04356529999995473,,,,,,,,16,21,Vrouw,Rechts,2,
,xotask,xotask,xotask,20,1,80,380,training,negativefb,47,easy,8,0.7678407999999308,['n'],1,right,['2'],5,0.0993957999999111,,,,,,,,16,21,Vrouw,Rechts,2,
,xotask,xotask,xotask,21,1,81,381,training,negativefb,80,easy,71,0.6829389000001811,['c'],1,left,['2'],5,0.14020989999994526,,,,,,,,16,21,Vrouw,Rechts,2,
,xotask,xotask,xotask,22,1,82,382,training,negativefb,64,hard,27,0.46733769999991637,['n'],1,right,['2'],5,0.0685212999999294,,,,,,,,16,21,Vrouw,Rechts,2,
,xotask,xotask,xotask,23,1,83,383,training,negativefb,30,average,63,0.46670769999991535,['c'],1,left,['2'],5,0.15091690000008384,,,,,,,,16,21,Vrouw,Rechts,2,
,xotask,xotask,xotask,24,1,84,384,training,negativefb,77,hard,50,0.7334624000000076,['c'],1,left,['2'],5,0.09961279999993167,,,,,,,,16,21,Vrouw,Rechts,2,
,xotask,xotask,xotask,25,1,85,385,training,negativefb,66,easy,8,0.4497639999999592,['n'],1,right,['2'],5,0.10191149999991467,,,,,,,,16,21,Vrouw,Rechts,2,
,xotask,xotask,xotask,26,1,86,386,training,negativefb,55,average,62,0.41715769999996155,['c'],1,left,['2'],5,0.13703789999999572,,,,,,,,16,21,Vrouw,Rechts,2,
,xotask,xotask,xotask,27,1,87,387,training,negativefb,63,hard,52,0.46702730000015436,['n'],0,left,['2'],5,0.08020360000000437,,,,,,,,16,21,Vrouw,Rechts,2,
,xotask,xotask,xotask,28,1,88,388,training,negativefb,62,average,15,0.7995530000000599,['n'],1,right,['2'],5,0.10239049999995586,,,,,,,,16,21,Vrouw,Rechts,2,
,xotask,xotask,xotask,29,1,89,389,training,negativefb,57,average,18,0.5174638000000868,['c'],0,right,['2'],5,0.14204909999989468,,,,,,,,16,21,Vrouw,Rechts,2,
,xotask,xotask,xotask,30,1,90,390,training,negativefb,61,hard,51,0.6008030999998937,['c'],1,left,['2'],5,0.07236939999984315,,,,,,,,16,21,Vrouw,Rechts,2,
,xotask,xotask,xotask,31,1,91,391,training,negativefb,69,easy,6,0.46659100000010767,['n'],1,right,['2'],5,0.11546479999992698,,,,,,,,16,21,Vrouw,Rechts,2,
,xotask,xotask,xotask,32,1,92,392,training,negativefb,66,average,60,0.45080080000002454,['c'],1,left,['2'],5,0.13264010000011695,,,,,,,,16,21,Vrouw,Rechts,2,
,xotask,xotask,xotask,33,1,93,393,training,negativefb,78,hard,26,0.6501519999999346,['n'],1,right,['2'],5,0.11717610000005152,,,,,,,,16,21,Vrouw,Rechts,2,
,xotask,xotask,xotask,34,1,94,394,training,negativefb,71,easy,8,0.6483605000000807,['n'],1,right,['2'],5,0.07873930000005203,,,,,,,,16,21,Vrouw,Rechts,2,
,xotask,xotask,xotask,35,1,95,395,training,negativefb,54,average,19,0.4497725999999602,['n'],1,right,['2'],5,0.07404129999986253,,,,,,,,16,21,Vrouw,Rechts,2,
,xotask,xotask,xotask,36,1,96,396,training,negativefb,59,average,18,0.2330179999999018,['c'],0,right,['2'],5,0.06253010000000359,,,,,,,,16,21,Vrouw,Rechts,2,
,xotask,xotask,xotask,37,1,97,397,training,negativefb,62,hard,53,3.150514899999962,['n'],0,left,['2'],5,0.07821390000003703,,,,,,,,16,21,Vrouw,Rechts,2,
,xotask,xotask,xotask,38,1,98,398,training,negativefb,80,easy,7,0.48336730000005446,['n'],1,right,['2'],5,0.08849180000015622,,,,,,,,16,21,Vrouw,Rechts,2,
,xotask,xotask,xotask,39,1,99,399,training,negativefb,17,hard,27,0.3992541000000074,['n'],1,right,['2'],5,0.08510360000013861,,,,,,,,16,21,Vrouw,Rechts,2,
,xotask,xotask,xotask,40,1,100,400,training,negativefb,86,average,63,0.5011336000000028,['c'],1,left,['2'],5,0.07746270000006916,,,,,,,,16,21,Vrouw,Rechts,2,
,xotask,xotask,xotask,41,1,101,401,training,negativefb,81,easy,9,0.5173091000001477,['n'],1,right,['2'],5,0.07066629999985707,,,,,,,,16,21,Vrouw,Rechts,2,
,xotask,xotask,xotask,42,1,102,402,training,negativefb,46,average,15,0.532296899999892,['n'],1,right,['2'],5,0.05489469999997709,,,,,,,,16,21,Vrouw,Rechts,2,
,xotask,xotask,xotask,43,1,103,403,training,negativefb,75,hard,53,0.4167984999999135,['c'],1,left,['2'],5,0.08352560000002995,,,,,,,,16,21,Vrouw,Rechts,2,
,xotask,xotask,xotask,44,1,104,404,training,negativefb,75,hard,52,0.36606639999990875,['c'],1,left,['2'],5,0.09046519999992597,,,,,,,,16,21,Vrouw,Rechts,2,
,xotask,xotask,xotask,45,1,105,405,training,negativefb,71,hard,28,0.36586929999998574,['c'],0,right,['2'],5,0.0874037999999473,,,,,,,,16,21,Vrouw,Rechts,2,
,xotask,xotask,xotask,46,1,106,406,training,negativefb,62,hard,50,0.31735570000000735,['n'],0,left,['2'],5,0.06402909999997064,,,,,,,,16,21,Vrouw,Rechts,2,
,xotask,xotask,xotask,47,1,107,407,training,negativefb,61,hard,52,0.4333750999999211,['c'],1,left,['2'],5,0.07701090000000477,,,,,,,,16,21,Vrouw,Rechts,2,
,xotask,xotask,xotask,48,1,108,408,training,negativefb,50,average,18,0.2997168000001693,['c'],0,right,['2'],5,0.11020529999996143,,,,,,,,16,21,Vrouw,Rechts,2,
,xotask,xotask,xotask,49,1,109,409,training,negativefb,35,easy,72,0.29963040000006913,['n'],0,left,['2'],5,0.03880609999987428,,,,,,,,16,21,Vrouw,Rechts,2,
,xotask,xotask,xotask,50,1,110,410,training,negativefb,74,easy,71,0.4509461999998621,['c'],1,left,['2'],5,0.09100680000005923,,,,,,,,16,21,Vrouw,Rechts,2,
,xotask,xotask,xotask,51,1,111,411,training,negativefb,80,average,19,0.3843005000001085,['n'],1,right,['2'],5,0.06490580000013324,,,,,,,,16,21,Vrouw,Rechts,2,
,xotask,xotask,xotask,52,1,112,412,training,negativefb,50,average,60,0.25058119999994233,['c'],1,left,['2'],5,0.15632890000006228,,,,,,,,16,21,Vrouw,Rechts,2,
,xotask,xotask,xotask,53,1,113,413,training,negativefb,87,easy,70,0.6331427999998596,['c'],1,left,['2'],5,0.21335750000002918,,,,,,,,16,21,Vrouw,Rechts,2,
,xotask,xotask,xotask,54,1,114,414,training,negativefb,64,hard,28,0.450363599999946,['c'],0,right,['2'],5,0.08298659999991287,,,,,,,,16,21,Vrouw,Rechts,2,
,xotask,xotask,xotask,55,1,115,415,training,negativefb,61,easy,73,0.5005250000001524,['c'],1,left,['2'],5,0.100174799999877,,,,,,,,16,21,Vrouw,Rechts,2,
,xotask,xotask,xotask,56,1,116,416,training,negativefb,50,average,60,0.4176021999999193,['n'],0,left,['2'],5,0.11879939999994349,,,,,,,,16,21,Vrouw,Rechts,2,
,xotask,xotask,xotask,57,1,117,417,training,negativefb,67,average,62,0.4162770000000364,['c'],1,left,['2'],5,0.11403080000013688,,,,,,,,16,21,Vrouw,Rechts,2,
,xotask,xotask,xotask,58,1,118,418,training,negativefb,40,hard,28,0.4832487000001038,['n'],1,right,['2'],5,0.08237669999994068,,,,,,,,16,21,Vrouw,Rechts,2,
,xotask,xotask,xotask,59,1,119,419,training,negativefb,61,easy,73,0.41715190000013536,['c'],1,left,['2'],5,0.030940799999825686,,,,,,,,16,21,Vrouw,Rechts,2,
,dotcolour,xotask,xotask,0,2,120,420,main,negativefb,-99,hard,,0.8671343999999408,['c'],0,right,['2'],5,0.0785164999999779,38,,,,,,,16,21,Vrouw,Rechts,2,
,dotcolour,xotask,xotask,1,2,121,421,main,negativefb,-99,hard,,0.7335626999999931,['n'],0,left,['2'],5,0.08751440000014554,43,,,,,,,16,21,Vrouw,Rechts,2,
,dotcolour,xotask,xotask,2,2,122,422,main,negativefb,-99,hard,,0.43264399999998204,['c'],0,right,['2'],5,0.09123109999995904,39,,,,,,,16,21,Vrouw,Rechts,2,
,dotcolour,xotask,xotask,3,2,123,423,main,negativefb,-99,hard,,0.3507677000000058,['n'],0,left,['2'],5,0.07467859999997017,43,,,,,,,16,21,Vrouw,Rechts,2,
,dotcolour,xotask,xotask,4,2,124,424,main,negativefb,-99,average,,0.4012221000000409,['c'],1,left,['2'],5,0.12023690000000897,55,,,,,,,16,21,Vrouw,Rechts,2,
,dotcolour,xotask,xotask,5,2,125,425,main,negativefb,-99,easy,,0.5345657000000301,['n'],1,right,['2'],5,0.0710481000000982,16,,,,,,,16,21,Vrouw,Rechts,2,
,dotcolour,xotask,xotask,6,2,126,426,main,negativefb,-99,average,,0.48343210000007275,['c'],1,left,['2'],5,0.09799780000003011,51,,,,,,,16,21,Vrouw,Rechts,2,
,dotcolour,xotask,xotask,7,2,127,427,main,negativefb,-99,average,,0.48417319999998654,['n'],1,right,['2'],5,0.0841363999998066,25,,,,,,,16,21,Vrouw,Rechts,2,
,dotcolour,xotask,xotask,8,2,128,428,main,negativefb,-99,easy,,0.3167291000002024,['c'],0,right,['2'],5,0.04501269999991564,19,,,,,,,16,21,Vrouw,Rechts,2,
,dotcolour,xotask,xotask,9,2,129,429,main,negativefb,-99,hard,,0.2656710999999632,['n'],0,left,['2'],5,0.12098999999989246,45,,,,,,,16,21,Vrouw,Rechts,2,
,dotcolour,xotask,xotask,10,2,130,430,main,negativefb,-99,easy,,0.2668830000000071,['c'],1,left,['2'],5,0.14634430000000975,63,,,,,,,16,21,Vrouw,Rechts,2,
,dotcolour,xotask,xotask,11,2,131,431,main,negativefb,-99,easy,,0.1442632999999205,['n'],0,left,['2'],5,0.1822229999997944,64,,,,,,,16,21,Vrouw,Rechts,2,
,dotcolour,xotask,xotask,12,2,132,432,main,negativefb,-99,average,,0.5176312999999482,['n'],1,right,['2'],5,0.08215040000004592,29,,,,,,,16,21,Vrouw,Rechts,2,
,dotcolour,xotask,xotask,13,2,133,433,main,negativefb,-99,easy,,0.3830566000001454,['n'],1,right,['2'],5,0.1360111000001325,18,,,,,,,16,21,Vrouw,Rechts,2,
,dotcolour,xotask,xotask,14,2,134,434,main,negativefb,-99,easy,,0.40138329999990674,['c'],1,left,['2'],5,0.10785579999992478,65,,,,,,,16,21,Vrouw,Rechts,2,
,dotcolour,xotask,xotask,15,2,135,435,main,negativefb,-99,hard,,0.4172330999999758,['n'],1,right,['2'],5,0.09652219999998124,37,,,,,,,16,21,Vrouw,Rechts,2,
,dotcolour,xotask,xotask,16,2,136,436,main,negativefb,-99,hard,,0.5340672999998333,['n'],0,left,['2'],5,0.0647902000000613,42,,,,,,,16,21,Vrouw,Rechts,2,
,dotcolour,xotask,xotask,17,2,137,437,main,negativefb,-99,average,,0.5167119000000184,['n'],1,right,['2'],5,0.12154409999993732,26,,,,,,,16,21,Vrouw,Rechts,2,
,dotcolour,xotask,xotask,18,2,138,438,main,negativefb,-99,hard,,0.4336290999999619,['c'],1,left,['2'],5,0.09325319999993553,43,,,,,,,16,21,Vrouw,Rechts,2,
,dotcolour,xotask,xotask,19,2,139,439,main,negativefb,-99,average,,0.466508900000008,['c'],1,left,['2'],5,0.11982399999988047,55,,,,,,,16,21,Vrouw,Rechts,2,
,dotcolour,xotask,xotask,20,2,140,440,main,negativefb,-99,easy,,0.46664910000004056,['c'],0,right,['9'],2,0.9374342999999499,16,,,,,,,16,21,Vrouw,Rechts,2,
,dotcolour,xotask,xotask,21,2,141,441,main,negativefb,-99,hard,,0.9164054000000306,['c'],1,left,['2'],5,0.07944010000005619,42,,,,,,,16,21,Vrouw,Rechts,2,
,dotcolour,xotask,xotask,22,2,142,442,main,negativefb,-99,easy,,0.4165069999999105,['c'],0,right,['2'],5,0.21352200000001176,19,,,,,,,16,21,Vrouw,Rechts,2,
,dotcolour,xotask,xotask,23,2,143,443,main,negativefb,-99,hard,,0.5666934999999285,['n'],1,right,['2'],5,0.0788770999999997,37,,,,,,,16,21,Vrouw,Rechts,2,
,dotcolour,xotask,xotask,24,2,144,444,main,negativefb,-99,hard,,0.5339822000000822,['n'],0,left,['2'],5,0.056229199999961565,42,,,,,,,16,21,Vrouw,Rechts,2,
,dotcolour,xotask,xotask,25,2,145,445,main,negativefb,-99,easy,,0.28325599999993756,['c'],0,right,['2'],5,0.12340590000007978,17,,,,,,,16,21,Vrouw,Rechts,2,
,dotcolour,xotask,xotask,26,2,146,446,main,negativefb,-99,easy,,0.13657060000014098,['n'],1,right,['2'],5,0.07178030000000035,16,,,,,,,16,21,Vrouw,Rechts,2,
,dotcolour,xotask,xotask,27,2,147,447,main,negativefb,-99,average,,0.12752770000020064,['n'],0,left,['2'],5,0.06962450000014542,53,,,,,,,16,21,Vrouw,Rechts,2,
,dotcolour,xotask,xotask,28,2,148,448,main,negativefb,-99,average,,0.10208400000010442,['c'],1,left,['2'],5,0.12365189999991344,55,,,,,,,16,21,Vrouw,Rechts,2,
,dotcolour,xotask,xotask,29,2,149,449,main,negativefb,-99,hard,,0.267160899999908,['n'],1,right,['2'],5,0.1397733999999673,38,,,,,,,16,21,Vrouw,Rechts,2,
,dotcolour,xotask,xotask,30,2,150,450,main,negativefb,-99,hard,,0.6504220000001624,['c'],1,left,['2'],5,0.08618490000003476,42,,,,,,,16,21,Vrouw,Rechts,2,
,dotcolour,xotask,xotask,31,2,151,451,main,negativefb,-99,average,,0.5836441999999806,['c'],0,right,['2'],5,0.10789569999997184,29,,,,,,,16,21,Vrouw,Rechts,2,
,dotcolour,xotask,xotask,32,2,152,452,main,negativefb,-99,easy,,0.4845045999998092,['c'],1,left,['2'],5,0.07719099999985701,63,,,,,,,16,21,Vrouw,Rechts,2,
,dotcolour,xotask,xotask,33,2,153,453,main,negativefb,-99,hard,,0.5336214999999811,['n'],1,right,['2'],5,0.102223899999899,39,,,,,,,16,21,Vrouw,Rechts,2,
,dotcolour,xotask,xotask,34,2,154,454,main,negativefb,-99,easy,,0.500125399999888,['n'],1,right,['2'],5,0.10284449999994649,17,,,,,,,16,21,Vrouw,Rechts,2,
,dotcolour,xotask,xotask,35,2,155,455,main,negativefb,-99,average,,0.36725430000001325,['n'],1,right,['2'],5,0.04395350000004328,28,,,,,,,16,21,Vrouw,Rechts,2,
,dotcolour,xotask,xotask,36,2,156,456,main,negativefb,-99,easy,,0.4668163999999706,['c'],1,left,['2'],5,0.10554869999987204,64,,,,,,,16,21,Vrouw,Rechts,2,
,dotcolour,xotask,xotask,37,2,157,457,main,negativefb,-99,hard,,0.5841279000001123,['n'],1,right,['2'],5,0.07019220000006499,37,,,,,,,16,21,Vrouw,Rechts,2,
,dotcolour,xotask,xotask,38,2,158,458,main,negativefb,-99,hard,,0.6333615000000918,['n'],1,right,['2'],5,0.13169919999995727,35,,,,,,,16,21,Vrouw,Rechts,2,
,dotcolour,xotask,xotask,39,2,159,459,main,negativefb,-99,easy,,0.38322790000006535,['c'],1,left,['2'],5,0.08862789999989218,63,,,,,,,16,21,Vrouw,Rechts,2,
,dotcolour,xotask,xotask,40,2,160,460,main,negativefb,-99,easy,,0.3338005000000521,['n'],0,left,['2'],5,0.08853030000000217,65,,,,,,,16,21,Vrouw,Rechts,2,
,dotcolour,xotask,xotask,41,2,161,461,main,negativefb,-99,average,,0.3662894999999935,['c'],1,left,['2'],5,0.09523140000010244,54,,,,,,,16,21,Vrouw,Rechts,2,
,dotcolour,xotask,xotask,42,2,162,462,main,negativefb,-99,average,,0.48317310000015823,['c'],1,left,['2'],5,0.09747049999987212,54,,,,,,,16,21,Vrouw,Rechts,2,
,dotcolour,xotask,xotask,43,2,163,463,main,negativefb,-99,hard,,0.35053400000015245,['n'],1,right,['2'],5,0.07285299999989547,35,,,,,,,16,21,Vrouw,Rechts,2,
,dotcolour,xotask,xotask,44,2,164,464,main,negativefb,-99,average,,0.4502495000001545,['n'],1,right,['2'],5,0.08450920000018414,27,,,,,,,16,21,Vrouw,Rechts,2,
,dotcolour,xotask,xotask,45,2,165,465,main,negativefb,-99,easy,,0.33253190000004906,['n'],1,right,['2'],5,0.08468870000001516,16,,,,,,,16,21,Vrouw,Rechts,2,
,dotcolour,xotask,xotask,46,2,166,466,main,negativefb,-99,average,,0.33275079999998525,['n'],0,left,['2'],5,0.14061850000007325,51,,,,,,,16,21,Vrouw,Rechts,2,
,dotcolour,xotask,xotask,47,2,167,467,main,negativefb,-99,hard,,0.3331161000000975,['c'],0,right,['2'],5,0.06613559999982499,39,,,,,,,16,21,Vrouw,Rechts,2,
,dotcolour,xotask,xotask,48,2,168,468,main,negativefb,-99,average,,0.36740549999990435,['c'],0,right,['2'],5,0.11392479999994976,29,,,,,,,16,21,Vrouw,Rechts,2,
,dotcolour,xotask,xotask,49,2,169,469,main,negativefb,-99,average,,0.3501962000000276,['n'],1,right,['2'],5,0.10472939999999653,28,,,,,,,16,21,Vrouw,Rechts,2,
,dotcolour,xotask,xotask,50,2,170,470,main,negativefb,-99,easy,,0.4169011999999839,['c'],1,left,['2'],5,0.09181279999984326,61,,,,,,,16,21,Vrouw,Rechts,2,
,dotcolour,xotask,xotask,51,2,171,471,main,negativefb,-99,average,,0.3832462000000305,['n'],1,right,['2'],5,0.10693349999996826,28,,,,,,,16,21,Vrouw,Rechts,2,
,dotcolour,xotask,xotask,52,2,172,472,main,negativefb,-99,easy,,0.46698859999992237,['n'],1,right,['2'],5,0.14882590000001983,19,,,,,,,16,21,Vrouw,Rechts,2,
,dotcolour,xotask,xotask,53,2,173,473,main,negativefb,-99,average,,0.40110310000000027,['n'],1,right,['2'],5,0.0715867999999773,29,,,,,,,16,21,Vrouw,Rechts,2,
,dotcolour,xotask,xotask,54,2,174,474,main,negativefb,-99,easy,,0.4506810000000314,['c'],1,left,['2'],5,0.11519120000002658,65,,,,,,,16,21,Vrouw,Rechts,2,
,dotcolour,xotask,xotask,55,2,175,475,main,negativefb,-99,easy,,0.43347769999991215,['c'],1,left,['2'],5,0.118261000000075,64,,,,,,,16,21,Vrouw,Rechts,2,
,dotcolour,xotask,xotask,56,2,176,476,main,negativefb,-99,average,,0.5673785000001317,['c'],1,left,['2'],5,0.10740729999997711,51,,,,,,,16,21,Vrouw,Rechts,2,
,dotcolour,xotask,xotask,57,2,177,477,main,negativefb,-99,hard,,0.6016720999998597,['n'],0,left,['2'],5,0.06368699999984528,44,,,,,,,16,21,Vrouw,Rechts,2,
,dotcolour,xotask,xotask,58,2,178,478,main,negativefb,-99,average,,0.4160392999999658,['c'],1,left,['2'],5,0.1661225000000286,52,,,,,,,16,21,Vrouw,Rechts,2,
,dotcolour,xotask,xotask,59,2,179,479,main,negativefb,-99,hard,,0.5157649999998739,['n'],0,left,['2'],5,0.1151471999999103,42,,,,,,,16,21,Vrouw,Rechts,2,
,dotcolour,xotask,xotask,0,3,180,480,main,negativefb,-99,hard,,0.6679952999998022,['n'],1,right,['2'],5,0.07335120000016104,36,,,,,,,16,21,Vrouw,Rechts,2,
,dotcolour,xotask,xotask,1,3,181,481,main,negativefb,-99,average,,0.4185982999999851,['n'],1,right,['2'],5,0.09530150000000503,27,,,,,,,16,21,Vrouw,Rechts,2,
,dotcolour,xotask,xotask,2,3,182,482,main,negativefb,-99,easy,,0.5000452000001587,['c'],1,left,['2'],5,0.16908340000009048,65,,,,,,,16,21,Vrouw,Rechts,2,
,dotcolour,xotask,xotask,3,3,183,483,main,negativefb,-99,average,,0.3173037999999906,['n'],1,right,['2'],5,0.13459869999996954,26,,,,,,,16,21,Vrouw,Rechts,2,
,dotcolour,xotask,xotask,4,3,184,484,main,negativefb,-99,hard,,1.0837076999998771,['c'],0,right,['2'],5,0.07876710000005005,35,,,,,,,16,21,Vrouw,Rechts,2,
,dotcolour,xotask,xotask,5,3,185,485,main,negativefb,-99,hard,,0.4011290999999346,['n'],0,left,['2'],5,0.09244749999993473,42,,,,,,,16,21,Vrouw,Rechts,2,
,dotcolour,xotask,xotask,6,3,186,486,main,negativefb,-99,hard,,0.41794209999989107,['n'],0,left,['2'],5,0.09727689999999711,43,,,,,,,16,21,Vrouw,Rechts,2,
,dotcolour,xotask,xotask,7,3,187,487,main,negativefb,-99,hard,,0.41664029999992636,['c'],0,right,['2'],5,0.09428950000005898,37,,,,,,,16,21,Vrouw,Rechts,2,
,dotcolour,xotask,xotask,8,3,188,488,main,negativefb,-99,easy,,0.3175730000000385,['c'],1,left,['2'],5,0.10259900000005473,61,,,,,,,16,21,Vrouw,Rechts,2,
,dotcolour,xotask,xotask,9,3,189,489,main,negativefb,-99,easy,,0.3339621000000079,['c'],1,left,['2'],5,0.12584300000003168,62,,,,,,,16,21,Vrouw,Rechts,2,
,dotcolour,xotask,xotask,10,3,190,490,main,negativefb,-99,hard,,0.43322650000004614,['c'],0,right,['2'],5,0.15243740000005346,36,,,,,,,16,21,Vrouw,Rechts,2,
,dotcolour,xotask,xotask,11,3,191,491,main,negativefb,-99,average,,0.41663890000018,['n'],1,right,['2'],5,0.13871549999998933,29,,,,,,,16,21,Vrouw,Rechts,2,
,dotcolour,xotask,xotask,12,3,192,492,main,negativefb,-99,easy,,0.45006480000006377,['n'],0,left,['9'],2,0.8360291999999845,64,,,,,,,16,21,Vrouw,Rechts,2,
,dotcolour,xotask,xotask,13,3,193,493,main,negativefb,-99,average,,0.6496847999999318,['c'],1,left,['2'],5,0.12122019999992517,52,,,,,,,16,21,Vrouw,Rechts,2,
,dotcolour,xotask,xotask,14,3,194,494,main,negativefb,-99,average,,1.0503727000000254,['n'],1,right,['2'],5,0.18786360000012792,25,,,,,,,16,21,Vrouw,Rechts,2,
,dotcolour,xotask,xotask,15,3,195,495,main,negativefb,-99,easy,,0.5014567999999144,['c'],1,left,['2'],5,0.08931860000006964,64,,,,,,,16,21,Vrouw,Rechts,2,
,dotcolour,xotask,xotask,16,3,196,496,main,negativefb,-99,hard,,0.35130019999996875,['c'],0,right,['2'],5,0.16016270000000077,36,,,,,,,16,21,Vrouw,Rechts,2,
,dotcolour,xotask,xotask,17,3,197,497,main,negativefb,-99,average,,0.5330854999999701,['c'],1,left,['2'],5,0.10175540000000183,52,,,,,,,16,21,Vrouw,Rechts,2,
,dotcolour,xotask,xotask,18,3,198,498,main,negativefb,-99,average,,0.5337792000000263,['n'],1,right,['2'],5,0.1321043999998892,28,,,,,,,16,21,Vrouw,Rechts,2,
,dotcolour,xotask,xotask,19,3,199,499,main,negativefb,-99,hard,,0.48352040000008856,['n'],1,right,['2'],5,0.0929799999998977,39,,,,,,,16,21,Vrouw,Rechts,2,
,dotcolour,xotask,xotask,20,3,200,500,main,negativefb,-99,average,,0.44970169999987775,['n'],0,left,['2'],5,0.0962157000001298,51,,,,,,,16,21,Vrouw,Rechts,2,
,dotcolour,xotask,xotask,21,3,201,501,main,negativefb,-99,average,,0.3331250999999611,['c'],1,left,['2'],5,0.10417439999991984,55,,,,,,,16,21,Vrouw,Rechts,2,
,dotcolour,xotask,xotask,22,3,202,502,main,negativefb,-99,easy,,0.23354340000014417,['n'],0,left,['2'],5,0.17989119999992909,64,,,,,,,16,21,Vrouw,Rechts,2,
,dotcolour,xotask,xotask,23,3,203,503,main,negativefb,-99,average,,0.38416910000000826,['c'],0,right,['2'],5,0.11848669999994854,27,,,,,,,16,21,Vrouw,Rechts,2,
,dotcolour,xotask,xotask,24,3,204,504,main,negativefb,-99,hard,,0.4513698000000659,['n'],1,right,['2'],5,0.12837280000007922,37,,,,,,,16,21,Vrouw,Rechts,2,
,dotcolour,xotask,xotask,25,3,205,505,main,negativefb,-99,hard,,0.5669078000000809,['n'],1,right,['2'],5,0.070036699999946,38,,,,,,,16,21,Vrouw,Rechts,2,
,dotcolour,xotask,xotask,26,3,206,506,main,negativefb,-99,easy,,0.4001878999999917,['n'],1,right,['2'],5,0.0761998999998923,18,,,,,,,16,21,Vrouw,Rechts,2,
,dotcolour,xotask,xotask,27,3,207,507,main,negativefb,-99,average,,0.5843899999999849,['c'],1,left,['2'],5,0.058008500000141794,53,,,,,,,16,21,Vrouw,Rechts,2,
,dotcolour,xotask,xotask,28,3,208,508,main,negativefb,-99,easy,,0.48363240000003316,['c'],1,left,['2'],5,0.10153239999999641,64,,,,,,,16,21,Vrouw,Rechts,2,
,dotcolour,xotask,xotask,29,3,209,509,main,negativefb,-99,hard,,0.43423540000003413,['n'],0,left,['2'],5,0.09682569999995394,43,,,,,,,16,21,Vrouw,Rechts,2,
,dotcolour,xotask,xotask,30,3,210,510,main,negativefb,-99,easy,,0.5018760999998904,['n'],1,right,['2'],5,0.1066968000000088,15,,,,,,,16,21,Vrouw,Rechts,2,
,dotcolour,xotask,xotask,31,3,211,511,main,negativefb,-99,hard,,0.7002806000000419,['c'],1,left,['2'],5,0.13121670000009544,43,,,,,,,16,21,Vrouw,Rechts,2,
,dotcolour,xotask,xotask,32,3,212,512,main,negativefb,-99,easy,,0.4166533000000072,['c'],1,left,['2'],5,0.10224280000011277,65,,,,,,,16,21,Vrouw,Rechts,2,
,dotcolour,xotask,xotask,33,3,213,513,main,negativefb,-99,average,,0.4506541000000652,['n'],1,right,['2'],5,0.25768090000019583,26,,,,,,,16,21,Vrouw,Rechts,2,
,dotcolour,xotask,xotask,34,3,214,514,main,negativefb,-99,average,,0.41710909999983414,['n'],1,right,['2'],5,0.05552330000000438,28,,,,,,,16,21,Vrouw,Rechts,2,
,dotcolour,xotask,xotask,35,3,215,515,main,negativefb,-99,hard,,0.5678545000000668,['c'],1,left,['2'],5,0.10334869999996954,42,,,,,,,16,21,Vrouw,Rechts,2,
,dotcolour,xotask,xotask,36,3,216,516,main,negativefb,-99,hard,,0.5674152000001413,['c'],1,left,['2'],5,0.13190989999998237,44,,,,,,,16,21,Vrouw,Rechts,2,
,dotcolour,xotask,xotask,37,3,217,517,main,negativefb,-99,hard,,0.5340134999999009,['c'],1,left,['2'],5,0.11561080000001311,43,,,,,,,16,21,Vrouw,Rechts,2,
,dotcolour,xotask,xotask,38,3,218,518,main,negativefb,-99,hard,,0.5325013000001491,['n'],0,left,['2'],5,0.07506699999999,41,,,,,,,16,21,Vrouw,Rechts,2,
,dotcolour,xotask,xotask,39,3,219,519,main,negativefb,-99,hard,,0.5175570999999763,['c'],1,left,['2'],5,0.12415489999989404,43,,,,,,,16,21,Vrouw,Rechts,2,
,dotcolour,xotask,xotask,40,3,220,520,main,negativefb,-99,average,,0.3178627999998298,['n'],0,left,['2'],5,0.11466460000019651,55,,,,,,,16,21,Vrouw,Rechts,2,
,dotcolour,xotask,xotask,41,3,221,521,main,negativefb,-99,average,,0.6844079999998485,['n'],1,right,['2'],5,0.08452330000000075,26,,,,,,,16,21,Vrouw,Rechts,2,
,dotcolour,xotask,xotask,42,3,222,522,main,negativefb,-99,average,,0.5171146000000135,['c'],1,left,['2'],5,0.08516129999998157,52,,,,,,,16,21,Vrouw,Rechts,2,
,dotcolour,xotask,xotask,43,3,223,523,main,negativefb,-99,easy,,0.5168833000000177,['n'],1,right,['2'],5,0.0937175000001389,15,,,,,,,16,21,Vrouw,Rechts,2,
,dotcolour,xotask,xotask,44,3,224,524,main,negativefb,-99,hard,,0.6501782000000276,['c'],0,right,['2'],5,0.08820040000000517,38,,,,,,,16,21,Vrouw,Rechts,2,
,dotcolour,xotask,xotask,45,3,225,525,main,negativefb,-99,easy,,0.4502534000000651,['n'],1,right,['2'],5,0.10033690000000206,16,,,,,,,16,21,Vrouw,Rechts,2,
,dotcolour,xotask,xotask,46,3,226,526,main,negativefb,-99,average,,0.36764560000005986,['c'],1,left,['2'],5,0.05016550000004827,53,,,,,,,16,21,Vrouw,Rechts,2,
,dotcolour,xotask,xotask,47,3,227,527,main,negativefb,-99,hard,,0.4843791999999212,['n'],1,right,['2'],5,0.10976189999996677,38,,,,,,,16,21,Vrouw,Rechts,2,
,dotcolour,xotask,xotask,48,3,228,528,main,negativefb,-99,easy,,0.5674710999999206,['n'],1,right,['2'],5,0.12333000000012362,17,,,,,,,16,21,Vrouw,Rechts,2,
,dotcolour,xotask,xotask,49,3,229,529,main,negativefb,-99,average,,0.6828792999999678,['n'],1,right,['2'],5,0.13279990000000907,26,,,,,,,16,21,Vrouw,Rechts,2,
,dotcolour,xotask,xotask,50,3,230,530,main,negativefb,-99,average,,0.3832265000000916,['c'],1,left,['2'],5,0.05665410000005977,51,,,,,,,16,21,Vrouw,Rechts,2,
,dotcolour,xotask,xotask,51,3,231,531,main,negativefb,-99,easy,,0.5504516000000876,['n'],1,right,['2'],5,0.12082490000011603,17,,,,,,,16,21,Vrouw,Rechts,2,
,dotcolour,xotask,xotask,52,3,232,532,main,negativefb,-99,easy,,0.6003840999999284,['n'],1,right,['2'],5,0.14942980000000716,19,,,,,,,16,21,Vrouw,Rechts,2,
,dotcolour,xotask,xotask,53,3,233,533,main,negativefb,-99,average,,0.5672277999999551,['c'],1,left,['2'],5,0.0325681000001623,54,,,,,,,16,21,Vrouw,Rechts,2,
,dotcolour,xotask,xotask,54,3,234,534,main,negativefb,-99,easy,,0.4169073999999,['n'],1,right,['2'],5,0.11206779999997707,18,,,,,,,16,21,Vrouw,Rechts,2,
,dotcolour,xotask,xotask,55,3,235,535,main,negativefb,-99,easy,,0.4168359000000237,['n'],1,right,['2'],5,0.1082867999998598,16,,,,,,,16,21,Vrouw,Rechts,2,
,dotcolour,xotask,xotask,56,3,236,536,main,negativefb,-99,easy,,0.40079210000021703,['n'],1,right,['2'],5,0.08880330000010872,19,,,,,,,16,21,Vrouw,Rechts,2,
,dotcolour,xotask,xotask,57,3,237,537,main,negativefb,-99,easy,,0.45156420000012076,['c'],1,left,['2'],5,0.10712390000003325,62,,,,,,,16,21,Vrouw,Rechts,2,
,dotcolour,xotask,xotask,58,3,238,538,main,negativefb,-99,easy,,0.39982930000019223,['c'],1,left,['2'],5,0.12855449999983648,64,,,,,,,16,21,Vrouw,Rechts,2,
,dotcolour,xotask,xotask,59,3,239,539,main,negativefb,-99,hard,,0.41684680000003027,['c'],1,left,['2'],5,0.1242506000000958,41,,,,,,,16,21,Vrouw,Rechts,2,
,dotcolour,xotask,xotask,0,4,240,540,main,negativefb,-99,easy,,0.8341356000000815,['c'],1,left,['2'],5,0.09272089999990385,61,,,,,,,16,21,Vrouw,Rechts,2,
,dotcolour,xotask,xotask,1,4,241,541,main,negativefb,-99,hard,,0.3170807999999852,['c'],1,left,['2'],5,0.10267019999992044,45,,,,,,,16,21,Vrouw,Rechts,2,
,dotcolour,xotask,xotask,2,4,242,542,main,negativefb,-99,easy,,0.4508264999999483,['c'],1,left,['2'],5,0.1368632000001071,64,,,,,,,16,21,Vrouw,Rechts,2,
,dotcolour,xotask,xotask,3,4,243,543,main,negativefb,-99,easy,,0.4502623999999287,['c'],1,left,['2'],5,0.12241139999991901,63,,,,,,,16,21,Vrouw,Rechts,2,
,dotcolour,xotask,xotask,4,4,244,544,main,negativefb,-99,easy,,0.38329060000000936,['n'],1,right,['2'],5,0.111221599999908,16,,,,,,,16,21,Vrouw,Rechts,2,
,dotcolour,xotask,xotask,5,4,245,545,main,negativefb,-99,average,,0.5000674999998864,['n'],0,left,['2'],5,0.08775500000001557,51,,,,,,,16,21,Vrouw,Rechts,2,
,dotcolour,xotask,xotask,6,4,246,546,main,negativefb,-99,average,,0.4163218000001052,['c'],0,right,['2'],5,2.2203931999999895,25,,,,,,,16,21,Vrouw,Rechts,2,
,dotcolour,xotask,xotask,7,4,247,547,main,negativefb,-99,hard,,0.41732329999990725,['n'],1,right,['2'],5,0.09101850000001832,35,,,,,,,16,21,Vrouw,Rechts,2,
,dotcolour,xotask,xotask,8,4,248,548,main,negativefb,-99,hard,,0.4845207000000755,['c'],1,left,['2'],5,0.1422519000000193,43,,,,,,,16,21,Vrouw,Rechts,2,
,dotcolour,xotask,xotask,9,4,249,549,main,negativefb,-99,average,,0.45101039999985915,['c'],1,left,['2'],5,0.19127109999999448,53,,,,,,,16,21,Vrouw,Rechts,2,
,dotcolour,xotask,xotask,10,4,250,550,main,negativefb,-99,easy,,0.43315289999986817,['c'],1,left,['2'],5,0.31954479999990326,64,,,,,,,16,21,Vrouw,Rechts,2,
,dotcolour,xotask,xotask,11,4,251,551,main,negativefb,-99,hard,,0.5334749000001011,['n'],0,left,['2'],5,0.11012639999989915,43,,,,,,,16,21,Vrouw,Rechts,2,
,dotcolour,xotask,xotask,12,4,252,552,main,negativefb,-99,hard,,0.38397859999986395,['n'],1,right,['2'],5,0.13921340000001692,36,,,,,,,16,21,Vrouw,Rechts,2,
,dotcolour,xotask,xotask,13,4,253,553,main,negativefb,-99,hard,,0.3826229000001149,['n'],1,right,['2'],5,0.11923950000004879,35,,,,,,,16,21,Vrouw,Rechts,2,
,dotcolour,xotask,xotask,14,4,254,554,main,negativefb,-99,easy,,0.43432499999994434,['n'],1,right,['2'],5,0.12964209999995546,19,,,,,,,16,21,Vrouw,Rechts,2,
,dotcolour,xotask,xotask,15,4,255,555,main,negativefb,-99,average,,0.40066689999980554,['n'],1,right,['2'],5,0.19030500000008033,28,,,,,,,16,21,Vrouw,Rechts,2,
,dotcolour,xotask,xotask,16,4,256,556,main,negativefb,-99,average,,0.5669404000000213,['c'],1,left,['2'],5,0.1361736999999721,51,,,,,,,16,21,Vrouw,Rechts,2,
,dotcolour,xotask,xotask,17,4,257,557,main,negativefb,-99,easy,,0.4171200000000681,['n'],0,left,['2'],5,0.17960939999989023,65,,,,,,,16,21,Vrouw,Rechts,2,
,dotcolour,xotask,xotask,18,4,258,558,main,negativefb,-99,easy,,0.3838594999999714,['n'],1,right,['2'],5,0.14221010000005663,15,,,,,,,16,21,Vrouw,Rechts,2,
,dotcolour,xotask,xotask,19,4,259,559,main,negativefb,-99,average,,0.3163806999998542,['c'],1,left,['2'],5,0.06955410000000484,54,,,,,,,16,21,Vrouw,Rechts,2,
,dotcolour,xotask,xotask,20,4,260,560,main,negativefb,-99,hard,,0.5001650000001518,['n'],1,right,['2'],5,0.1112170999999762,35,,,,,,,16,21,Vrouw,Rechts,2,
,dotcolour,xotask,xotask,21,4,261,561,main,negativefb,-99,easy,,0.4999679999998534,['n'],1,right,['2'],5,0.17565619999982118,19,,,,,,,16,21,Vrouw,Rechts,2,
,dotcolour,xotask,xotask,22,4,262,562,main,negativefb,-99,average,,0.4340405999998893,['n'],1,right,['2'],5,0.2403689000000213,25,,,,,,,16,21,Vrouw,Rechts,2,
,dotcolour,xotask,xotask,23,4,263,563,main,negativefb,-99,average,,0.634388600000193,['c'],1,left,['2'],5,0.11782470000002832,52,,,,,,,16,21,Vrouw,Rechts,2,
,dotcolour,xotask,xotask,24,4,264,564,main,negativefb,-99,hard,,1.3676146000000244,['c'],1,left,['2'],5,0.09963589999983924,45,,,,,,,16,21,Vrouw,Rechts,2,
,dotcolour,xotask,xotask,25,4,265,565,main,negativefb,-99,average,,0.43561929999987115,['n'],0,left,['2'],5,0.11917519999997239,52,,,,,,,16,21,Vrouw,Rechts,2,
,dotcolour,xotask,xotask,26,4,266,566,main,negativefb,-99,average,,0.48440180000011424,['n'],1,right,['2'],5,0.11891229999991992,28,,,,,,,16,21,Vrouw,Rechts,2,
,dotcolour,xotask,xotask,27,4,267,567,main,negativefb,-99,hard,,0.3516892000000098,['c'],0,right,['2'],5,0.1332951999997931,36,,,,,,,16,21,Vrouw,Rechts,2,
,dotcolour,xotask,xotask,28,4,268,568,main,negativefb,-99,hard,,0.2505728999999519,['n'],1,right,['2'],5,0.13541110000005574,39,,,,,,,16,21,Vrouw,Rechts,2,
,dotcolour,xotask,xotask,29,4,269,569,main,negativefb,-99,hard,,0.6499517999998261,['n'],0,left,['2'],5,0.1364248999998381,44,,,,,,,16,21,Vrouw,Rechts,2,
,dotcolour,xotask,xotask,30,4,270,570,main,negativefb,-99,hard,,0.38290540000002693,['c'],0,right,['2'],5,0.12439830000016627,36,,,,,,,16,21,Vrouw,Rechts,2,
,dotcolour,xotask,xotask,31,4,271,571,main,negativefb,-99,average,,0.5666400000000067,['c'],1,left,['2'],5,0.12132249999990563,53,,,,,,,16,21,Vrouw,Rechts,2,
,dotcolour,xotask,xotask,32,4,272,572,main,negativefb,-99,easy,,0.3327595000000656,['c'],1,left,['2'],5,0.14510889999996834,61,,,,,,,16,21,Vrouw,Rechts,2,
,dotcolour,xotask,xotask,33,4,273,573,main,negativefb,-99,hard,,0.3338670999999067,['n'],0,left,['2'],5,0.10969780000004903,44,,,,,,,16,21,Vrouw,Rechts,2,
,dotcolour,xotask,xotask,34,4,274,574,main,negativefb,-99,average,,0.11770240000009835,['c'],1,left,['2'],5,0.059287499999982174,51,,,,,,,16,21,Vrouw,Rechts,2,
,dotcolour,xotask,xotask,35,4,275,575,main,negativefb,-99,average,,0.18056019999994533,['c'],0,right,['2'],5,0.12209600000005594,28,,,,,,,16,21,Vrouw,Rechts,2,
,dotcolour,xotask,xotask,36,4,276,576,main,negativefb,-99,hard,,0.2834293000000798,['n'],0,left,['2'],5,0.07407530000000406,43,,,,,,,16,21,Vrouw,Rechts,2,
,dotcolour,xotask,xotask,37,4,277,577,main,negativefb,-99,average,,0.3335881000000427,['c'],0,right,['2'],5,0.05919719999997142,25,,,,,,,16,21,Vrouw,Rechts,2,
,dotcolour,xotask,xotask,38,4,278,578,main,negativefb,-99,easy,,0.28436139999985244,['n'],1,right,['2'],5,0.08692730000007032,19,,,,,,,16,21,Vrouw,Rechts,2,
,dotcolour,xotask,xotask,39,4,279,579,main,negativefb,-99,easy,,0.5166226999999708,['c'],1,left,['2'],5,0.15828010000018367,63,,,,,,,16,21,Vrouw,Rechts,2,
,dotcolour,xotask,xotask,40,4,280,580,main,negativefb,-99,average,,0.33348399999999856,['n'],0,left,['2'],5,0.08476910000013049,52,,,,,,,16,21,Vrouw,Rechts,2,
,dotcolour,xotask,xotask,41,4,281,581,main,negativefb,-99,easy,,0.2840515000000323,['c'],0,right,['2'],5,0.0708977000001596,17,,,,,,,16,21,Vrouw,Rechts,2,
,dotcolour,xotask,xotask,42,4,282,582,main,negativefb,-99,easy,,0.3341138000000683,['n'],1,right,['2'],5,0.07948630000009871,16,,,,,,,16,21,Vrouw,Rechts,2,
,dotcolour,xotask,xotask,43,4,283,583,main,negativefb,-99,easy,,0.5357213999998294,['c'],1,left,['2'],5,0.08757510000009461,61,,,,,,,16,21,Vrouw,Rechts,2,
,dotcolour,xotask,xotask,44,4,284,584,main,negativefb,-99,hard,,0.3178912000000764,['n'],1,right,['2'],5,0.09664629999997487,38,,,,,,,16,21,Vrouw,Rechts,2,
,dotcolour,xotask,xotask,45,4,285,585,main,negativefb,-99,easy,,0.2338328000000729,['c'],0,right,['2'],5,0.1408241999999973,16,,,,,,,16,21,Vrouw,Rechts,2,
,dotcolour,xotask,xotask,46,4,286,586,main,negativefb,-99,hard,,0.35015759999987495,['n'],0,left,['2'],5,0.1780416999999943,43,,,,,,,16,21,Vrouw,Rechts,2,
,dotcolour,xotask,xotask,47,4,287,587,main,negativefb,-99,average,,0.5830210999999963,['n'],1,right,['2'],5,0.06106560000011996,29,,,,,,,16,21,Vrouw,Rechts,2,
,dotcolour,xotask,xotask,48,4,288,588,main,negativefb,-99,hard,,0.5674234000000524,['c'],1,left,['2'],5,0.09180149999997411,41,,,,,,,16,21,Vrouw,Rechts,2,
,dotcolour,xotask,xotask,49,4,289,589,main,negativefb,-99,hard,,0.26756829999999354,['n'],1,right,['2'],5,0.10337039999990338,36,,,,,,,16,21,Vrouw,Rechts,2,
,dotcolour,xotask,xotask,50,4,290,590,main,negativefb,-99,easy,,0.5350528999999824,['c'],1,left,['2'],5,0.09450179999998909,61,,,,,,,16,21,Vrouw,Rechts,2,
,dotcolour,xotask,xotask,51,4,291,591,main,negativefb,-99,average,,0.4172779000000446,['n'],1,right,['2'],5,0.11540680000007342,27,,,,,,,16,21,Vrouw,Rechts,2,
,dotcolour,xotask,xotask,52,4,292,592,main,negativefb,-99,hard,,0.45044880000000376,['n'],1,right,['2'],5,0.17335019999995893,38,,,,,,,16,21,Vrouw,Rechts,2,
,dotcolour,xotask,xotask,53,4,293,593,main,negativefb,-99,hard,,0.24992750000001251,['c'],1,left,['2'],5,0.09376420000012331,44,,,,,,,16,21,Vrouw,Rechts,2,
,dotcolour,xotask,xotask,54,4,294,594,main,negativefb,-99,easy,,0.3823620000000574,['c'],1,left,['2'],5,0.13980349999997088,64,,,,,,,16,21,Vrouw,Rechts,2,
,dotcolour,xotask,xotask,55,4,295,595,main,negativefb,-99,easy,,0.31700339999997595,['c'],0,right,['2'],5,0.19453429999998662,15,,,,,,,16,21,Vrouw,Rechts,2,
,dotcolour,xotask,xotask,56,4,296,596,main,negativefb,-99,average,,0.2838506000000507,['n'],1,right,['2'],5,0.15294629999993958,28,,,,,,,16,21,Vrouw,Rechts,2,
,dotcolour,xotask,xotask,57,4,297,597,main,negativefb,-99,average,,0.43290410000008706,['n'],0,left,['2'],5,0.19323340000005373,52,,,,,,,16,21,Vrouw,Rechts,2,
,dotcolour,xotask,xotask,58,4,298,598,main,negativefb,-99,average,,0.4177145000001019,['n'],1,right,['2'],5,0.12247579999984737,26,,,,,,,16,21,Vrouw,Rechts,2,
,dotcolour,xotask,xotask,59,4,299,599,main,negativefb,-99,easy,,0.449703799999952,['n'],1,right,['2'],5,0.10820980000016789,15,,,,,,,16,21,Vrouw,Rechts,2,
,xotask,xotask,xotask,0,0,0,600,training,negativefb,76,average,17,0.9176226000001861,['n'],1,right,['2'],5,0.44694030000005114,,,,,,,,16,21,Vrouw,Rechts,2,
,xotask,xotask,xotask,1,0,1,601,training,negativefb,74,easy,9,0.6003188000001956,['n'],1,right,['2'],5,0.08447269999987839,,,,,,,,16,21,Vrouw,Rechts,2,
,xotask,xotask,xotask,2,0,2,602,training,negativefb,33,average,62,0.4669103000001087,['n'],0,left,['9'],2,0.6875250000000506,,,,,,,,16,21,Vrouw,Rechts,2,
,xotask,xotask,xotask,3,0,3,603,training,negativefb,42,easy,70,0.5993395999998938,['c'],1,left,['2'],5,0.1724011999999675,,,,,,,,16,21,Vrouw,Rechts,2,
,xotask,xotask,xotask,4,0,4,604,training,negativefb,67,average,60,0.41767830000003414,['c'],1,left,['2'],5,0.09340100000008533,,,,,,,,16,21,Vrouw,Rechts,2,
,xotask,xotask,xotask,5,0,5,605,training,negativefb,49,average,16,0.48316360000012537,['n'],1,right,['2'],5,0.08599470000012843,,,,,,,,16,21,Vrouw,Rechts,2,
,xotask,xotask,xotask,6,0,6,606,training,negativefb,47,easy,70,0.7336883999998918,['c'],1,left,['2'],5,0.029553699999951277,,,,,,,,16,21,Vrouw,Rechts,2,
,xotask,xotask,xotask,7,0,7,607,training,negativefb,59,easy,7,0.5832465999999386,['n'],1,right,['2'],5,0.029869799999914903,,,,,,,,16,21,Vrouw,Rechts,2,
,xotask,xotask,xotask,8,0,8,608,training,negativefb,41,hard,26,0.4826055000000906,['c'],0,right,['2'],5,0.11351569999987987,,,,,,,,16,21,Vrouw,Rechts,2,
,xotask,xotask,xotask,9,0,9,609,training,negativefb,66,hard,27,0.5503373999999894,['n'],1,right,['2'],5,0.08014430000002903,,,,,,,,16,21,Vrouw,Rechts,2,
,xotask,xotask,xotask,10,0,10,610,training,negativefb,65,average,19,0.5670067000000927,['n'],1,right,['2'],5,0.07070840000005774,,,,,,,,16,21,Vrouw,Rechts,2,
,xotask,xotask,xotask,11,0,11,611,training,negativefb,90,hard,29,0.5346196999998938,['n'],1,right,['2'],5,0.142941300000075,,,,,,,,16,21,Vrouw,Rechts,2,
,xotask,xotask,xotask,12,0,12,612,training,negativefb,40,average,15,0.5164389999999912,['n'],1,right,['2'],5,0.07691809999982979,,,,,,,,16,21,Vrouw,Rechts,2,
,xotask,xotask,xotask,13,0,13,613,training,negativefb,43,easy,74,0.6829744000001483,['c'],1,left,['2'],5,0.06236920000014834,,,,,,,,16,21,Vrouw,Rechts,2,
,xotask,xotask,xotask,14,0,14,614,training,negativefb,42,easy,8,2.3001844999998866,['c'],0,right,['2'],5,0.07287180000002991,,,,,,,,16,21,Vrouw,Rechts,2,
,xotask,xotask,xotask,15,0,15,615,training,negativefb,70,average,16,0.8001126999999997,['n'],1,right,['2'],5,0.18164139999998952,,,,,,,,16,21,Vrouw,Rechts,2,
,xotask,xotask,xotask,16,0,16,616,training,negativefb,57,average,60,0.4491330000000744,['c'],1,left,['2'],5,0.11631629999988036,,,,,,,,16,21,Vrouw,Rechts,2,
,xotask,xotask,xotask,17,0,17,617,training,negativefb,49,average,19,0.599953400000004,['c'],0,right,['2'],5,0.10383989999991172,,,,,,,,16,21,Vrouw,Rechts,2,
,xotask,xotask,xotask,18,0,18,618,training,negativefb,70,average,19,0.7519273000000339,['n'],1,right,['2'],5,0.09366730000010648,,,,,,,,16,21,Vrouw,Rechts,2,
,xotask,xotask,xotask,19,0,19,619,training,negativefb,70,hard,25,0.4827176999999665,['n'],1,right,['2'],5,0.07920269999999618,,,,,,,,16,21,Vrouw,Rechts,2,
,xotask,xotask,xotask,20,0,20,620,training,negativefb,34,average,64,0.5660294000001613,['c'],1,left,['2'],5,0.07768750000013824,,,,,,,,16,21,Vrouw,Rechts,2,
,xotask,xotask,xotask,21,0,21,621,training,negativefb,83,hard,53,0.7006490999999642,['c'],1,left,['2'],5,0.12865179999994325,,,,,,,,16,21,Vrouw,Rechts,2,
,xotask,xotask,xotask,22,0,22,622,training,negativefb,31,easy,6,0.5166827999998986,['n'],1,right,['2'],5,0.09385829999996531,,,,,,,,16,21,Vrouw,Rechts,2,
,xotask,xotask,xotask,23,0,23,623,training,negativefb,49,average,63,0.5844677000000047,['c'],1,left,['2'],5,0.08478169999989404,,,,,,,,16,21,Vrouw,Rechts,2,
,xotask,xotask,xotask,24,0,24,624,training,negativefb,49,hard,54,0.5680428999999094,['c'],1,left,['2'],5,0.08239140000000589,,,,,,,,16,21,Vrouw,Rechts,2,
,xotask,xotask,xotask,25,0,25,625,training,negativefb,57,hard,26,0.4661766000001535,['n'],1,right,['2'],5,0.07665440000005219,,,,,,,,16,21,Vrouw,Rechts,2,
,xotask,xotask,xotask,26,0,26,626,training,negativefb,64,easy,74,0.7986250999999811,['c'],1,left,['2'],5,0.08094349999987571,,,,,,,,16,21,Vrouw,Rechts,2,
,xotask,xotask,xotask,27,0,27,627,training,negativefb,65,easy,7,0.45049070000004576,['n'],1,right,['2'],5,0.06052730000010342,,,,,,,,16,21,Vrouw,Rechts,2,
,xotask,xotask,xotask,28,0,28,628,training,negativefb,44,hard,27,0.8169060000000172,['c'],0,right,['2'],5,0.11458310000011807,,,,,,,,16,21,Vrouw,Rechts,2,
,xotask,xotask,xotask,29,0,29,629,training,negativefb,59,easy,71,0.500506200000018,['c'],1,left,['2'],5,0.08246660000008887,,,,,,,,16,21,Vrouw,Rechts,2,
,xotask,xotask,xotask,30,0,30,630,training,negativefb,68,easy,72,0.5836049000001822,['c'],1,left,['2'],5,0.10339560000011261,,,,,,,,16,21,Vrouw,Rechts,2,
,xotask,xotask,xotask,31,0,31,631,training,negativefb,36,hard,53,0.4166950999999699,['c'],1,left,['2'],5,0.10719190000008894,,,,,,,,16,21,Vrouw,Rechts,2,
,xotask,xotask,xotask,32,0,32,632,training,negativefb,49,hard,50,0.9323905000001105,['c'],1,left,['2'],5,0.08134670000004007,,,,,,,,16,21,Vrouw,Rechts,2,
,xotask,xotask,xotask,33,0,33,633,training,negativefb,85,hard,28,0.6326007999998637,['n'],1,right,['2'],5,0.10845570000014959,,,,,,,,16,21,Vrouw,Rechts,2,
,xotask,xotask,xotask,34,0,34,634,training,negativefb,63,easy,72,0.5003326000000925,['c'],1,left,['2'],5,0.10105399999997644,,,,,,,,16,21,Vrouw,Rechts,2,
,xotask,xotask,xotask,35,0,35,635,training,negativefb,52,easy,9,1.4494274999999561,['n'],1,right,['2'],5,0.07904009999992923,,,,,,,,16,21,Vrouw,Rechts,2,
,xotask,xotask,xotask,36,0,36,636,training,negativefb,47,hard,54,0.48254399999996167,['c'],1,left,['2'],5,0.09752049999997325,,,,,,,,16,21,Vrouw,Rechts,2,
,xotask,xotask,xotask,37,0,37,637,training,negativefb,71,hard,27,0.7495042000000467,['n'],1,right,['2'],5,0.008219800000006217,,,,,,,,16,21,Vrouw,Rechts,2,
,xotask,xotask,xotask,38,0,38,638,training,negativefb,46,hard,53,0.4339030000001003,['c'],1,left,['2'],5,0.10322039999982735,,,,,,,,16,21,Vrouw,Rechts,2,
,xotask,xotask,xotask,39,0,39,639,training,negativefb,64,average,61,0.46758390000013605,['c'],1,left,['2'],5,0.08828779999998915,,,,,,,,16,21,Vrouw,Rechts,2,
,xotask,xotask,xotask,40,0,40,640,training,negativefb,68,average,61,0.6339496999999028,['n'],0,left,['2'],5,0.06705190000002403,,,,,,,,16,21,Vrouw,Rechts,2,
,xotask,xotask,xotask,41,0,41,641,training,negativefb,54,easy,5,1.467018199999984,['n'],1,right,['2'],5,0.013762499999984357,,,,,,,,16,21,Vrouw,Rechts,2,
,xotask,xotask,xotask,42,0,42,642,training,negativefb,28,hard,53,0.39896420000013677,['c'],1,left,['2'],5,0.11010620000001836,,,,,,,,16,21,Vrouw,Rechts,2,
,xotask,xotask,xotask,43,0,43,643,training,negativefb,62,average,61,0.5655570999999782,['c'],1,left,['2'],5,0.11546290000001136,,,,,,,,16,21,Vrouw,Rechts,2,
,xotask,xotask,xotask,44,0,44,644,training,negativefb,83,average,18,0.6325971999999638,['n'],1,right,['2'],5,0.061897499999986394,,,,,,,,16,21,Vrouw,Rechts,2,
