starttime,task,fbtask,firsttask,withinblocktrial,block,withintasktrial,trial,running,feedback,fbscore,difflevel,reddots,rt,resp,cor,cresp,conf_press,cj,RTconf,n_xes,post1,post2,post3,post4,post5,stoptime,sub,age,gender,handedness,session,
1715675584,dotcolour,dotcolour,dotcolour,0,0,0,0,training,negativefb,99,easy,19,7.733577900000455,['n'],1,right,['9'],5,4.590451099999882,,,,,,,,29,18,Man,Links,2,
,dotcolour,dotcolour,dotcolour,1,0,1,1,training,negativefb,48,easy,63,1.2325033000006442,['c'],1,left,['0'],6,0.6052883000002112,,,,,,,,29,18,Man,Links,2,
,dotcolour,dotcolour,dotcolour,2,0,2,2,training,negativefb,80,average,26,0.7827287000000069,['n'],1,right,['9'],5,0.4852231999993819,,,,,,,,29,18,Man,Links,2,
,dotcolour,dotcolour,dotcolour,3,0,3,3,training,negativefb,54,average,25,1.0170240000006743,['c'],0,right,['8'],4,0.36907179999980144,,,,,,,,29,18,Man,Links,2,
,dotcolour,dotcolour,dotcolour,4,0,4,4,training,negativefb,41,hard,41,0.9665062999993097,['n'],0,left,['9'],5,0.3642330000002403,,,,,,,,29,18,Man,Links,2,
,dotcolour,dotcolour,dotcolour,5,0,5,5,training,negativefb,85,average,53,0.7996282999993127,['c'],1,left,['0'],6,0.47780779999993683,,,,,,,,29,18,Man,Links,2,
,dotcolour,dotcolour,dotcolour,6,0,6,6,training,negativefb,69,average,25,0.6505448000007164,['n'],1,right,['0'],6,0.3135757999998532,,,,,,,,29,18,Man,Links,2,
,dotcolour,dotcolour,dotcolour,7,0,7,7,training,negativefb,87,average,29,0.6836364000000685,['n'],1,right,['0'],6,0.32157230000029813,,,,,,,,29,18,Man,Links,2,
,dotcolour,dotcolour,dotcolour,8,0,8,8,training,negativefb,65,easy,65,0.7831107000001793,['c'],1,left,['9'],5,0.38172579999991285,,,,,,,,29,18,Man,Links,2,
,dotcolour,dotcolour,dotcolour,9,0,9,9,training,negativefb,88,average,53,0.6508169999997335,['c'],1,left,['9'],5,0.34046699999998964,,,,,,,,29,18,Man,Links,2,
,dotcolour,dotcolour,dotcolour,10,0,10,10,training,negativefb,55,average,55,0.7997261999998955,['c'],1,left,['9'],5,0.45532339999954274,,,,,,,,29,18,Man,Links,2,
,dotcolour,dotcolour,dotcolour,11,0,11,11,training,negativefb,79,average,29,0.7501404000004186,['n'],1,right,['9'],5,0.4950574000004053,,,,,,,,29,18,Man,Links,2,
,dotcolour,dotcolour,dotcolour,12,0,12,12,training,negativefb,22,average,25,1.0332316999993054,['n'],1,right,['8'],4,0.44226920000073733,,,,,,,,29,18,Man,Links,2,
,dotcolour,dotcolour,dotcolour,13,0,13,13,training,negativefb,93,easy,61,0.8504675999993196,['c'],1,left,['0'],6,0.3193437999998423,,,,,,,,29,18,Man,Links,2,
,dotcolour,dotcolour,dotcolour,14,0,14,14,training,negativefb,97,easy,62,0.6508166999992682,['c'],1,left,['9'],5,0.3363910999996733,,,,,,,,29,18,Man,Links,2,
,dotcolour,dotcolour,dotcolour,15,0,15,15,training,negativefb,73,hard,35,0.7682985000001281,['n'],1,right,['8'],4,0.412748300000203,,,,,,,,29,18,Man,Links,2,
,dotcolour,dotcolour,dotcolour,16,0,16,16,training,negativefb,68,easy,17,0.8664472999998907,['n'],1,right,['9'],5,0.6414880000002086,,,,,,,,29,18,Man,Links,2,
,dotcolour,dotcolour,dotcolour,17,0,17,17,training,negativefb,34,hard,38,0.716827000000194,['c'],0,right,['8'],4,0.34846310000011727,,,,,,,,29,18,Man,Links,2,
,dotcolour,dotcolour,dotcolour,18,0,18,18,training,negativefb,57,average,28,1.1665875999997297,['n'],1,right,['9'],5,0.44706679999944754,,,,,,,,29,18,Man,Links,2,
,dotcolour,dotcolour,dotcolour,19,0,19,19,training,negativefb,60,easy,15,1.700588599999719,['n'],1,right,['9'],5,0.6103872000003321,,,,,,,,29,18,Man,Links,2,
,dotcolour,dotcolour,dotcolour,20,0,20,20,training,negativefb,68,average,26,1.318355800000063,['n'],1,right,['9'],5,0.5658886999999595,,,,,,,,29,18,Man,Links,2,
,dotcolour,dotcolour,dotcolour,21,0,21,21,training,negativefb,73,easy,16,0.7162755999997898,['n'],1,right,['0'],6,0.3783867999991344,,,,,,,,29,18,Man,Links,2,
,dotcolour,dotcolour,dotcolour,22,0,22,22,training,negativefb,40,easy,18,0.8001855999991676,['n'],1,right,['9'],5,0.371866599999521,,,,,,,,29,18,Man,Links,2,
,dotcolour,dotcolour,dotcolour,23,0,23,23,training,negativefb,71,hard,36,1.317708199999288,['c'],0,right,['8'],4,0.424285900000541,,,,,,,,29,18,Man,Links,2,
,dotcolour,dotcolour,dotcolour,24,0,24,24,training,negativefb,67,easy,62,0.6652483999996548,['c'],1,left,['0'],6,0.29323199999998906,,,,,,,,29,18,Man,Links,2,
,dotcolour,dotcolour,dotcolour,25,0,25,25,training,negativefb,54,hard,37,1.2826038000002882,['n'],1,right,['9'],5,0.26197250000041095,,,,,,,,29,18,Man,Links,2,
,dotcolour,dotcolour,dotcolour,26,0,26,26,training,negativefb,96,average,55,0.07092980000015814,['c'],1,left,['9'],5,1.348736299999473,,,,,,,,29,18,Man,Links,2,
,dotcolour,dotcolour,dotcolour,27,0,27,27,training,negativefb,90,easy,64,2.4332933999994566,['c'],1,left,['0'],6,0.4374229999993986,,,,,,,,29,18,Man,Links,2,
,dotcolour,dotcolour,dotcolour,28,0,28,28,training,negativefb,60,hard,35,0.7342767000000094,['n'],1,right,['9'],5,0.2856411999991906,,,,,,,,29,18,Man,Links,2,
,dotcolour,dotcolour,dotcolour,29,0,29,29,training,negativefb,32,hard,43,0.9501974999993763,['c'],1,left,['9'],5,0.30909259999953065,,,,,,,,29,18,Man,Links,2,
,dotcolour,dotcolour,dotcolour,30,0,30,30,training,negativefb,68,hard,35,0.8675534000003609,['n'],1,right,['9'],5,0.254603300000781,,,,,,,,29,18,Man,Links,2,
,dotcolour,dotcolour,dotcolour,31,0,31,31,training,negativefb,63,hard,44,1.0657693000002837,['n'],0,left,['9'],5,0.9773795000000973,,,,,,,,29,18,Man,Links,2,
,dotcolour,dotcolour,dotcolour,32,0,32,32,training,negativefb,95,easy,63,0.6510191000006671,['c'],1,left,['0'],6,0.42463499999939813,,,,,,,,29,18,Man,Links,2,
,dotcolour,dotcolour,dotcolour,33,0,33,33,training,negativefb,65,hard,43,1.9335934999999154,['c'],1,left,['9'],5,0.3147456000006059,,,,,,,,29,18,Man,Links,2,
,dotcolour,dotcolour,dotcolour,34,0,34,34,training,negativefb,97,hard,42,1.0163423000003604,['c'],1,left,['9'],5,0.35750819999975647,,,,,,,,29,18,Man,Links,2,
,dotcolour,dotcolour,dotcolour,35,0,35,35,training,negativefb,59,hard,39,1.0672365999998874,['n'],1,right,['8'],4,1.293077400000584,,,,,,,,29,18,Man,Links,2,
,dotcolour,dotcolour,dotcolour,36,0,36,36,training,negativefb,82,easy,18,0.7006242999996175,['n'],1,right,['9'],5,0.6455773000006957,,,,,,,,29,18,Man,Links,2,
,dotcolour,dotcolour,dotcolour,37,0,37,37,training,negativefb,49,hard,35,5.933771799999704,['c'],0,right,['9'],5,0.646888599999329,,,,,,,,29,18,Man,Links,2,
,dotcolour,dotcolour,dotcolour,38,0,38,38,training,negativefb,65,easy,16,0.8997050999996645,['n'],1,right,['9'],5,0.625807899999927,,,,,,,,29,18,Man,Links,2,
,dotcolour,dotcolour,dotcolour,39,0,39,39,training,negativefb,92,hard,44,0.7845668999998452,['c'],1,left,['0'],6,0.3773714999997537,,,,,,,,29,18,Man,Links,2,
,dotcolour,dotcolour,dotcolour,40,0,40,40,training,negativefb,85,easy,16,0.7508702999994057,['n'],1,right,['9'],5,0.4926012999994782,,,,,,,,29,18,Man,Links,2,
,dotcolour,dotcolour,dotcolour,41,0,41,41,training,negativefb,47,hard,41,1.549576800000068,['c'],1,left,['8'],4,0.3072154000001319,,,,,,,,29,18,Man,Links,2,
,dotcolour,dotcolour,dotcolour,42,0,42,42,training,negativefb,82,average,54,0.7839308999991772,['c'],1,left,['9'],5,0.3680092999993576,,,,,,,,29,18,Man,Links,2,
,dotcolour,dotcolour,dotcolour,43,0,43,43,training,negativefb,55,hard,41,1.1335830000007263,['c'],1,left,['8'],4,0.35599700000057055,,,,,,,,29,18,Man,Links,2,
,dotcolour,dotcolour,dotcolour,44,0,44,44,training,negativefb,59,easy,19,0.7998378000002049,['n'],1,right,['9'],5,0.26225740000063524,,,,,,,,29,18,Man,Links,2,
,dotcolour,dotcolour,dotcolour,45,0,45,45,training,negativefb,69,average,53,0.9169568999996045,['c'],1,left,['9'],5,0.40035600000010163,,,,,,,,29,18,Man,Links,2,
,dotcolour,dotcolour,dotcolour,46,0,46,46,training,negativefb,64,easy,65,0.598709300000337,['c'],1,left,['0'],6,0.26376429999982065,,,,,,,,29,18,Man,Links,2,
,dotcolour,dotcolour,dotcolour,47,0,47,47,training,negativefb,58,hard,37,1.1016098000000056,['n'],1,right,['9'],5,0.24157959999956802,,,,,,,,29,18,Man,Links,2,
,dotcolour,dotcolour,dotcolour,48,0,48,48,training,negativefb,36,hard,45,0.833748199999718,['c'],1,left,['8'],4,0.27122380000037083,,,,,,,,29,18,Man,Links,2,
,dotcolour,dotcolour,dotcolour,49,0,49,49,training,negativefb,69,average,29,1.0493538999999146,['n'],1,right,['9'],5,0.23404779999964376,,,,,,,,29,18,Man,Links,2,
,dotcolour,dotcolour,dotcolour,50,0,50,50,training,negativefb,69,hard,36,0.8499533000003794,['c'],0,right,['9'],5,0.35149360000013985,,,,,,,,29,18,Man,Links,2,
,dotcolour,dotcolour,dotcolour,51,0,51,51,training,negativefb,65,hard,43,0.6507698000004893,['c'],1,left,['8'],4,0.27071969999997236,,,,,,,,29,18,Man,Links,2,
,dotcolour,dotcolour,dotcolour,52,0,52,52,training,negativefb,39,easy,18,1.0504250000003594,['n'],1,right,['9'],5,0.3621889000005467,,,,,,,,29,18,Man,Links,2,
,dotcolour,dotcolour,dotcolour,53,0,53,53,training,negativefb,83,average,55,0.8346534999991491,['c'],1,left,['9'],5,0.3628265999996074,,,,,,,,29,18,Man,Links,2,
,dotcolour,dotcolour,dotcolour,54,0,54,54,training,negativefb,54,average,55,0.7836103999998159,['c'],1,left,['0'],6,0.21359039999970264,,,,,,,,29,18,Man,Links,2,
,dotcolour,dotcolour,dotcolour,55,0,55,55,training,negativefb,78,easy,62,0.8498018999998749,['c'],1,left,['0'],6,0.2680946999998923,,,,,,,,29,18,Man,Links,2,
,dotcolour,dotcolour,dotcolour,56,0,56,56,training,negativefb,90,average,52,0.6336146000003282,['c'],1,left,['0'],6,0.23175850000006903,,,,,,,,29,18,Man,Links,2,
,dotcolour,dotcolour,dotcolour,57,0,57,57,training,negativefb,37,average,54,0.5821879999994053,['c'],1,left,['0'],6,0.24720930000057706,,,,,,,,29,18,Man,Links,2,
,dotcolour,dotcolour,dotcolour,58,0,58,58,training,negativefb,87,easy,65,0.7995601000002353,['c'],1,left,['0'],6,0.8222764000001916,,,,,,,,29,18,Man,Links,2,
,dotcolour,dotcolour,dotcolour,59,0,59,59,training,negativefb,73,average,28,3.350476599999638,['n'],1,right,['8'],4,0.799214500000744,,,,,,,,29,18,Man,Links,2,
,dotcolour,dotcolour,dotcolour,0,1,60,60,training,negativefb,39,easy,64,0.6507291999996596,['c'],1,left,['0'],6,0.5156865999997535,,,,,,,,29,18,Man,Links,2,
,dotcolour,dotcolour,dotcolour,1,1,61,61,training,negativefb,69,easy,15,0.6994727999999668,['n'],1,right,['0'],6,0.27401019999979326,,,,,,,,29,18,Man,Links,2,
,dotcolour,dotcolour,dotcolour,2,1,62,62,training,negativefb,42,average,55,0.6837783000000854,['c'],1,left,['9'],5,0.23628540000026987,,,,,,,,29,18,Man,Links,2,
,dotcolour,dotcolour,dotcolour,3,1,63,63,training,negativefb,80,easy,65,0.5676648999997269,['c'],1,left,['0'],6,0.220143100000314,,,,,,,,29,18,Man,Links,2,
,dotcolour,dotcolour,dotcolour,4,1,64,64,training,negativefb,50,hard,37,1.5493858999998338,['c'],0,right,['8'],4,0.2947204000001875,,,,,,,,29,18,Man,Links,2,
,dotcolour,dotcolour,dotcolour,5,1,65,65,training,negativefb,92,average,27,0.8681286999999429,['n'],1,right,['9'],5,0.20809559999997873,,,,,,,,29,18,Man,Links,2,
,dotcolour,dotcolour,dotcolour,6,1,66,66,training,negativefb,58,hard,35,1.3504251000003933,['n'],1,right,['8'],4,0.3223971999996138,,,,,,,,29,18,Man,Links,2,
,dotcolour,dotcolour,dotcolour,7,1,67,67,training,negativefb,74,hard,36,1.10021610000058,['c'],0,right,['9'],5,0.21777250000013737,,,,,,,,29,18,Man,Links,2,
,dotcolour,dotcolour,dotcolour,8,1,68,68,training,negativefb,57,hard,41,0.9003598999997848,['c'],1,left,['9'],5,0.21265799999946466,,,,,,,,29,18,Man,Links,2,
,dotcolour,dotcolour,dotcolour,9,1,69,69,training,negativefb,21,average,51,1.2004872000006799,['c'],1,left,['0'],6,0.3571170000004713,,,,,,,,29,18,Man,Links,2,
,dotcolour,dotcolour,dotcolour,10,1,70,70,training,negativefb,93,easy,15,0.768131099999664,['n'],1,right,['0'],6,0.23208770000019285,,,,,,,,29,18,Man,Links,2,
,dotcolour,dotcolour,dotcolour,11,1,71,71,training,negativefb,74,easy,61,0.8174503000000186,['c'],1,left,['0'],6,0.11776370000006864,,,,,,,,29,18,Man,Links,2,
,dotcolour,dotcolour,dotcolour,12,1,72,72,training,negativefb,40,hard,41,0.8834062999994785,['c'],1,left,['9'],5,0.29452089999995223,,,,,,,,29,18,Man,Links,2,
,dotcolour,dotcolour,dotcolour,13,1,73,73,training,negativefb,78,average,55,1.0508247999996456,['c'],1,left,['9'],5,0.1528757999994923,,,,,,,,29,18,Man,Links,2,
,dotcolour,dotcolour,dotcolour,14,1,74,74,training,negativefb,45,hard,42,2.4334466999998767,['n'],0,left,['8'],4,0.5535841000000801,,,,,,,,29,18,Man,Links,2,
,dotcolour,dotcolour,dotcolour,15,1,75,75,training,negativefb,59,easy,19,3.183328000000074,['n'],1,right,['9'],5,0.41227489999982936,,,,,,,,29,18,Man,Links,2,
,dotcolour,dotcolour,dotcolour,16,1,76,76,training,negativefb,25,hard,39,0.8002780999995593,['c'],0,right,['9'],5,0.42078010000022914,,,,,,,,29,18,Man,Links,2,
,dotcolour,dotcolour,dotcolour,17,1,77,77,training,negativefb,72,easy,62,0.7000613999998677,['c'],1,left,['9'],5,0.2554386000001614,,,,,,,,29,18,Man,Links,2,
,dotcolour,dotcolour,dotcolour,18,1,78,78,training,negativefb,32,average,25,0.9340172000001985,['n'],1,right,['9'],5,0.22432880000087607,,,,,,,,29,18,Man,Links,2,
,dotcolour,dotcolour,dotcolour,19,1,79,79,training,negativefb,56,hard,43,0.8824518000001262,['c'],1,left,['8'],4,0.18041900000025635,,,,,,,,29,18,Man,Links,2,
,dotcolour,dotcolour,dotcolour,20,1,80,80,training,negativefb,60,average,27,1.1339058000003206,['n'],1,right,['0'],6,0.2246808999998393,,,,,,,,29,18,Man,Links,2,
,dotcolour,dotcolour,dotcolour,21,1,81,81,training,negativefb,58,easy,17,0.8343076999999539,['n'],1,right,['0'],6,0.38221340000018245,,,,,,,,29,18,Man,Links,2,
,dotcolour,dotcolour,dotcolour,22,1,82,82,training,negativefb,68,hard,37,1.0175646999996388,['c'],0,right,['8'],4,0.206184900000153,,,,,,,,29,18,Man,Links,2,
,dotcolour,dotcolour,dotcolour,23,1,83,83,training,negativefb,42,easy,65,0.6999781000004077,['c'],1,left,['0'],6,0.17025490000014543,,,,,,,,29,18,Man,Links,2,
,dotcolour,dotcolour,dotcolour,24,1,84,84,training,negativefb,67,hard,44,1.083627400000296,['c'],1,left,['9'],5,0.14390170000024227,,,,,,,,29,18,Man,Links,2,
,dotcolour,dotcolour,dotcolour,25,1,85,85,training,negativefb,75,hard,37,0.7664881999999125,['c'],0,right,['9'],5,0.2117997999994259,,,,,,,,29,18,Man,Links,2,
,dotcolour,dotcolour,dotcolour,26,1,86,86,training,negativefb,93,hard,44,0.8835312000001068,['c'],1,left,['9'],5,0.6570491000002221,,,,,,,,29,18,Man,Links,2,
,dotcolour,dotcolour,dotcolour,27,1,87,87,training,negativefb,60,hard,44,0.799421199999415,['c'],1,left,['8'],4,0.21457879999979923,,,,,,,,29,18,Man,Links,2,
,dotcolour,dotcolour,dotcolour,28,1,88,88,training,negativefb,70,easy,65,0.7509423000001334,['c'],1,left,['0'],6,0.424190699999599,,,,,,,,29,18,Man,Links,2,
,dotcolour,dotcolour,dotcolour,29,1,89,89,training,negativefb,31,hard,37,0.8671500999998898,['n'],1,right,['9'],5,0.22932519999994838,,,,,,,,29,18,Man,Links,2,
,dotcolour,dotcolour,dotcolour,30,1,90,90,training,negativefb,72,easy,62,0.7995578999998543,['c'],1,left,['0'],6,0.10855250000076921,,,,,,,,29,18,Man,Links,2,
,dotcolour,dotcolour,dotcolour,31,1,91,91,training,negativefb,72,average,54,0.9176852999999028,['c'],1,left,['0'],6,0.10767630000009376,,,,,,,,29,18,Man,Links,2,
,dotcolour,dotcolour,dotcolour,32,1,92,92,training,negativefb,91,average,25,2.2491723999992246,['n'],1,right,['9'],5,1.9103055000005043,,,,,,,,29,18,Man,Links,2,
,dotcolour,dotcolour,dotcolour,33,1,93,93,training,negativefb,54,hard,43,0.6681006999997408,['c'],1,left,['9'],5,0.2384087999998883,,,,,,,,29,18,Man,Links,2,
,dotcolour,dotcolour,dotcolour,34,1,94,94,training,negativefb,5,average,29,0.5999026999998023,['c'],0,right,['1'],1,1.6852746000004117,,,,,,,,29,18,Man,Links,2,
,dotcolour,dotcolour,dotcolour,35,1,95,95,training,negativefb,59,average,51,2.0668987999997626,['n'],0,left,['8'],4,0.6701297999998133,,,,,,,,29,18,Man,Links,2,
,dotcolour,dotcolour,dotcolour,36,1,96,96,training,negativefb,90,easy,15,1.1171730000005482,['n'],1,right,['9'],5,0.2876212999999552,,,,,,,,29,18,Man,Links,2,
,dotcolour,dotcolour,dotcolour,37,1,97,97,training,negativefb,94,average,28,0.8008836000008159,['n'],1,right,['9'],5,0.33972670000002836,,,,,,,,29,18,Man,Links,2,
,dotcolour,dotcolour,dotcolour,38,1,98,98,training,negativefb,55,easy,16,0.7347522999998546,['n'],1,right,['0'],6,0.14499610000075336,,,,,,,,29,18,Man,Links,2,
,dotcolour,dotcolour,dotcolour,39,1,99,99,training,negativefb,54,hard,37,1.584291099999973,['c'],0,right,['8'],4,0.8524397000001045,,,,,,,,29,18,Man,Links,2,
,dotcolour,dotcolour,dotcolour,40,1,100,100,training,negativefb,66,average,52,1.0174849000004542,['c'],1,left,['9'],5,0.1051831000004313,,,,,,,,29,18,Man,Links,2,
,dotcolour,dotcolour,dotcolour,41,1,101,101,training,negativefb,50,easy,61,0.7501957999993465,['c'],1,left,['9'],5,0.18336309999995137,,,,,,,,29,18,Man,Links,2,
,dotcolour,dotcolour,dotcolour,42,1,102,102,training,negativefb,66,easy,65,0.8337123000001156,['c'],1,left,['0'],6,0.14294109999991633,,,,,,,,29,18,Man,Links,2,
,dotcolour,dotcolour,dotcolour,43,1,103,103,training,negativefb,79,average,54,1.017103600000155,['c'],1,left,['9'],5,0.16895020000083605,,,,,,,,29,18,Man,Links,2,
,dotcolour,dotcolour,dotcolour,44,1,104,104,training,negativefb,85,average,52,0.8166642000005595,['c'],1,left,['9'],5,0.09753180000006978,,,,,,,,29,18,Man,Links,2,
,dotcolour,dotcolour,dotcolour,45,1,105,105,training,negativefb,58,hard,41,2.1509109999997236,['c'],1,left,['8'],4,0.27921340000011696,,,,,,,,29,18,Man,Links,2,
,dotcolour,dotcolour,dotcolour,46,1,106,106,training,negativefb,75,easy,19,0.850240699999631,['n'],1,right,['9'],5,0.21071819999997388,,,,,,,,29,18,Man,Links,2,
,dotcolour,dotcolour,dotcolour,47,1,107,107,training,negativefb,70,hard,39,1.2844677000002775,['c'],0,right,['9'],5,0.13606379999964702,,,,,,,,29,18,Man,Links,2,
,dotcolour,dotcolour,dotcolour,48,1,108,108,training,negativefb,69,easy,15,0.9175599000000147,['n'],1,right,['0'],6,0.13423120000061317,,,,,,,,29,18,Man,Links,2,
,dotcolour,dotcolour,dotcolour,49,1,109,109,training,negativefb,49,average,55,0.8000347999995938,['c'],1,left,['0'],6,0.07262999999966269,,,,,,,,29,18,Man,Links,2,
,dotcolour,dotcolour,dotcolour,50,1,110,110,training,negativefb,38,average,54,0.9683666000000812,['c'],1,left,['9'],5,0.1349990999997317,,,,,,,,29,18,Man,Links,2,
,dotcolour,dotcolour,dotcolour,51,1,111,111,training,negativefb,53,hard,42,1.2661015000003317,['c'],1,left,['9'],5,0.1271591000004264,,,,,,,,29,18,Man,Links,2,
,dotcolour,dotcolour,dotcolour,52,1,112,112,training,negativefb,65,easy,19,1.0834136999992552,['n'],1,right,['0'],6,0.15065629999935481,,,,,,,,29,18,Man,Links,2,
,dotcolour,dotcolour,dotcolour,53,1,113,113,training,negativefb,92,average,27,0.7826321000002281,['n'],1,right,['0'],6,2.4975494000000253,,,,,,,,29,18,Man,Links,2,
,dotcolour,dotcolour,dotcolour,54,1,114,114,training,negativefb,73,average,26,0.8670253999998749,['n'],1,right,['9'],5,0.21013140000013664,,,,,,,,29,18,Man,Links,2,
,dotcolour,dotcolour,dotcolour,55,1,115,115,training,negativefb,69,average,27,0.8663853999996718,['n'],1,right,['9'],5,0.1599465000008422,,,,,,,,29,18,Man,Links,2,
,dotcolour,dotcolour,dotcolour,56,1,116,116,training,negativefb,63,hard,39,0.9166446999997788,['n'],1,right,['9'],5,0.1813306999993074,,,,,,,,29,18,Man,Links,2,
,dotcolour,dotcolour,dotcolour,57,1,117,117,training,negativefb,44,easy,16,1.9661794000003283,['c'],0,right,['9'],5,0.2236573000000135,,,,,,,,29,18,Man,Links,2,
,dotcolour,dotcolour,dotcolour,58,1,118,118,training,negativefb,64,easy,63,0.6839205000005677,['c'],1,left,['9'],5,0.15544780000072933,,,,,,,,29,18,Man,Links,2,
,dotcolour,dotcolour,dotcolour,59,1,119,119,training,negativefb,38,average,29,0.7167030999999042,['n'],1,right,['0'],6,0.13652400000046327,,,,,,,,29,18,Man,Links,2,
,dotcolour,dotcolour,dotcolour,0,2,120,120,main,negativefb,-99,easy,19,0.8179508000002897,['n'],1,right,['9'],5,0.4476286999997683,,,,,,,,29,18,Man,Links,2,
,dotcolour,dotcolour,dotcolour,1,2,121,121,main,negativefb,-99,easy,62,0.7346321000004536,['c'],1,left,['0'],6,0.2495426999994379,,,,,,,,29,18,Man,Links,2,
,dotcolour,dotcolour,dotcolour,2,2,122,122,main,negativefb,-99,hard,41,0.9510380000001533,['n'],0,left,['9'],5,0.1385683999997127,,,,,,,,29,18,Man,Links,2,
,dotcolour,dotcolour,dotcolour,3,2,123,123,main,negativefb,-99,average,55,0.6998321999999462,['c'],1,left,['0'],6,0.05718960000012885,,,,,,,,29,18,Man,Links,2,
,dotcolour,dotcolour,dotcolour,4,2,124,124,main,negativefb,-99,hard,41,0.817624700000124,['c'],1,left,['9'],5,0.10329950000050303,,,,,,,,29,18,Man,Links,2,
,dotcolour,dotcolour,dotcolour,5,2,125,125,main,negativefb,-99,average,51,0.6017726999998558,['c'],1,left,['9'],5,0.07613540000056673,,,,,,,,29,18,Man,Links,2,
,dotcolour,dotcolour,dotcolour,6,2,126,126,main,negativefb,-99,average,53,0.617593200000556,['c'],1,left,['0'],6,0.2820191999999224,,,,,,,,29,18,Man,Links,2,
,dotcolour,dotcolour,dotcolour,7,2,127,127,main,negativefb,-99,easy,17,0.7679803000000902,['n'],1,right,['0'],6,0.0885309999994206,,,,,,,,29,18,Man,Links,2,
,dotcolour,dotcolour,dotcolour,8,2,128,128,main,negativefb,-99,easy,18,0.7010590999998385,['n'],1,right,['0'],6,0.13780399999996007,,,,,,,,29,18,Man,Links,2,
,dotcolour,dotcolour,dotcolour,9,2,129,129,main,negativefb,-99,average,52,0.7846776000005775,['c'],1,left,['9'],5,0.08556150000003981,,,,,,,,29,18,Man,Links,2,
,dotcolour,dotcolour,dotcolour,10,2,130,130,main,negativefb,-99,hard,36,1.0681383000001006,['n'],1,right,['0'],6,0.10381559999950696,,,,,,,,29,18,Man,Links,2,
,dotcolour,dotcolour,dotcolour,11,2,131,131,main,negativefb,-99,easy,19,0.8008944000002884,['n'],1,right,['0'],6,0.10099439999976312,,,,,,,,29,18,Man,Links,2,
,dotcolour,dotcolour,dotcolour,12,2,132,132,main,negativefb,-99,average,53,0.7666235999995479,['c'],1,left,['9'],5,0.0751497000001109,,,,,,,,29,18,Man,Links,2,
,dotcolour,dotcolour,dotcolour,13,2,133,133,main,negativefb,-99,hard,37,1.3166580999995858,['n'],1,right,['9'],5,0.08433049999985087,,,,,,,,29,18,Man,Links,2,
,dotcolour,dotcolour,dotcolour,14,2,134,134,main,negativefb,-99,hard,38,1.116242400000374,['c'],0,right,['9'],5,0.10073770000053628,,,,,,,,29,18,Man,Links,2,
,dotcolour,dotcolour,dotcolour,15,2,135,135,main,negativefb,-99,easy,17,0.8834791999997833,['n'],1,right,['0'],6,0.08580710000023828,,,,,,,,29,18,Man,Links,2,
,dotcolour,dotcolour,dotcolour,16,2,136,136,main,negativefb,-99,easy,65,0.7504503000000113,['c'],1,left,['0'],6,0.05369579999933194,,,,,,,,29,18,Man,Links,2,
,dotcolour,dotcolour,dotcolour,17,2,137,137,main,negativefb,-99,hard,43,0.6851795000002312,['c'],1,left,['0'],6,0.09682399999928748,,,,,,,,29,18,Man,Links,2,
,dotcolour,dotcolour,dotcolour,18,2,138,138,main,negativefb,-99,hard,35,1.9841375000005428,['c'],0,right,['9'],5,0.15076940000017203,,,,,,,,29,18,Man,Links,2,
,dotcolour,dotcolour,dotcolour,19,2,139,139,main,negativefb,-99,average,25,0.8677857000002405,['n'],1,right,['9'],5,0.27087159999973665,,,,,,,,29,18,Man,Links,2,
,dotcolour,dotcolour,dotcolour,20,2,140,140,main,negativefb,-99,average,51,1.4181940999997096,['c'],1,left,['0'],6,0.35586419999981445,,,,,,,,29,18,Man,Links,2,
,dotcolour,dotcolour,dotcolour,21,2,141,141,main,negativefb,-99,hard,42,0.6833459999998013,['c'],1,left,['9'],5,0.13170659999923373,,,,,,,,29,18,Man,Links,2,
,dotcolour,dotcolour,dotcolour,22,2,142,142,main,negativefb,-99,easy,62,0.6338567999991938,['c'],1,left,['9'],5,0.03762839999944845,,,,,,,,29,18,Man,Links,2,
,dotcolour,dotcolour,dotcolour,23,2,143,143,main,negativefb,-99,easy,17,0.6847483999999895,['n'],1,right,['0'],6,0.12193920000026992,,,,,,,,29,18,Man,Links,2,
,dotcolour,dotcolour,dotcolour,24,2,144,144,main,negativefb,-99,average,26,0.8667901999997412,['n'],1,right,['9'],5,0.15496910000001662,,,,,,,,29,18,Man,Links,2,
,dotcolour,dotcolour,dotcolour,25,2,145,145,main,negativefb,-99,average,55,0.6659818999996787,['c'],1,left,['9'],5,0.09044789999916247,,,,,,,,29,18,Man,Links,2,
,dotcolour,dotcolour,dotcolour,26,2,146,146,main,negativefb,-99,average,25,0.7177154000000883,['c'],0,right,['9'],5,0.17142530000000988,,,,,,,,29,18,Man,Links,2,
,dotcolour,dotcolour,dotcolour,27,2,147,147,main,negativefb,-99,hard,35,0.8008838999994623,['n'],1,right,['0'],6,0.12553089999983058,,,,,,,,29,18,Man,Links,2,
,dotcolour,dotcolour,dotcolour,28,2,148,148,main,negativefb,-99,easy,62,1.0850995999999213,['n'],0,left,['1'],1,1.3664610000005268,,,,,,,,29,18,Man,Links,2,
,dotcolour,dotcolour,dotcolour,29,2,149,149,main,negativefb,-99,easy,64,0.767878099999507,['c'],1,left,['9'],5,0.28158499999972264,,,,,,,,29,18,Man,Links,2,
,dotcolour,dotcolour,dotcolour,30,2,150,150,main,negativefb,-99,easy,15,0.6674778000005972,['n'],1,right,['0'],6,0.3244826000000103,,,,,,,,29,18,Man,Links,2,
,dotcolour,dotcolour,dotcolour,31,2,151,151,main,negativefb,-99,hard,38,1.2995949999994991,['n'],1,right,['9'],5,0.2759892000003674,,,,,,,,29,18,Man,Links,2,
,dotcolour,dotcolour,dotcolour,32,2,152,152,main,negativefb,-99,hard,41,0.8173437000004924,['c'],1,left,['8'],4,0.08953870000004827,,,,,,,,29,18,Man,Links,2,
,dotcolour,dotcolour,dotcolour,33,2,153,153,main,negativefb,-99,hard,45,0.7169957000005525,['c'],1,left,['8'],4,0.10657050000008894,,,,,,,,29,18,Man,Links,2,
,dotcolour,dotcolour,dotcolour,34,2,154,154,main,negativefb,-99,hard,39,1.2674080999995567,['c'],0,right,['0'],6,0.2763532999997551,,,,,,,,29,18,Man,Links,2,
,dotcolour,dotcolour,dotcolour,35,2,155,155,main,negativefb,-99,easy,18,0.6843810999998823,['n'],1,right,['9'],5,0.15877139999975043,,,,,,,,29,18,Man,Links,2,
,dotcolour,dotcolour,dotcolour,36,2,156,156,main,negativefb,-99,hard,45,0.6181648000001587,['c'],1,left,['9'],5,0.12111120000008668,,,,,,,,29,18,Man,Links,2,
,dotcolour,dotcolour,dotcolour,37,2,157,157,main,negativefb,-99,hard,41,1.2006422999993447,['c'],1,left,['9'],5,0.17315200000030018,,,,,,,,29,18,Man,Links,2,
,dotcolour,dotcolour,dotcolour,38,2,158,158,main,negativefb,-99,easy,61,0.60155930000019,['c'],1,left,['0'],6,0.21483960000023217,,,,,,,,29,18,Man,Links,2,
,dotcolour,dotcolour,dotcolour,39,2,159,159,main,negativefb,-99,average,25,0.6341491000002861,['n'],1,right,['9'],5,0.22137750000001688,,,,,,,,29,18,Man,Links,2,
,dotcolour,dotcolour,dotcolour,40,2,160,160,main,negativefb,-99,hard,37,0.6838668000000325,['n'],1,right,['9'],5,0.18627249999917694,,,,,,,,29,18,Man,Links,2,
,dotcolour,dotcolour,dotcolour,41,2,161,161,main,negativefb,-99,easy,17,0.6664098000001104,['n'],1,right,['8'],4,0.18508879999990313,,,,,,,,29,18,Man,Links,2,
,dotcolour,dotcolour,dotcolour,42,2,162,162,main,negativefb,-99,average,52,0.6171954999999798,['c'],1,left,['9'],5,0.1215053000005355,,,,,,,,29,18,Man,Links,2,
,dotcolour,dotcolour,dotcolour,43,2,163,163,main,negativefb,-99,average,27,0.7336095999999088,['n'],1,right,['0'],6,0.15225629999986268,,,,,,,,29,18,Man,Links,2,
,dotcolour,dotcolour,dotcolour,44,2,164,164,main,negativefb,-99,average,25,1.4179047000006904,['n'],1,right,['8'],4,0.5300271999994948,,,,,,,,29,18,Man,Links,2,
,dotcolour,dotcolour,dotcolour,45,2,165,165,main,negativefb,-99,average,25,1.1510794999994687,['n'],1,right,['9'],5,0.48807829999987007,,,,,,,,29,18,Man,Links,2,
,dotcolour,dotcolour,dotcolour,46,2,166,166,main,negativefb,-99,average,27,0.934709400000429,['n'],1,right,['0'],6,0.70462950000001,,,,,,,,29,18,Man,Links,2,
,dotcolour,dotcolour,dotcolour,47,2,167,167,main,negativefb,-99,easy,64,1.067408500000056,['c'],1,left,['0'],6,0.4025414000007004,,,,,,,,29,18,Man,Links,2,
,dotcolour,dotcolour,dotcolour,48,2,168,168,main,negativefb,-99,average,27,0.7680063000007067,['n'],1,right,['0'],6,0.12442769999961456,,,,,,,,29,18,Man,Links,2,
,dotcolour,dotcolour,dotcolour,49,2,169,169,main,negativefb,-99,hard,41,0.8495358999998643,['c'],1,left,['9'],5,0.41452399999980116,,,,,,,,29,18,Man,Links,2,
,dotcolour,dotcolour,dotcolour,50,2,170,170,main,negativefb,-99,easy,65,0.7338894999993499,['c'],1,left,['0'],6,0.14540300000044226,,,,,,,,29,18,Man,Links,2,
,dotcolour,dotcolour,dotcolour,51,2,171,171,main,negativefb,-99,average,55,0.668043900000157,['c'],1,left,['0'],6,0.0816568999998708,,,,,,,,29,18,Man,Links,2,
,dotcolour,dotcolour,dotcolour,52,2,172,172,main,negativefb,-99,hard,39,1.0690039999999499,['c'],0,right,['0'],6,0.10033930000008695,,,,,,,,29,18,Man,Links,2,
,dotcolour,dotcolour,dotcolour,53,2,173,173,main,negativefb,-99,easy,15,0.7006498999999167,['n'],1,right,['0'],6,0.13339089999954012,,,,,,,,29,18,Man,Links,2,
,dotcolour,dotcolour,dotcolour,54,2,174,174,main,negativefb,-99,average,51,0.6834608999997727,['c'],1,left,['0'],6,0.15662320000046748,,,,,,,,29,18,Man,Links,2,
,dotcolour,dotcolour,dotcolour,55,2,175,175,main,negativefb,-99,hard,35,0.7169125999998869,['c'],0,right,['0'],6,0.17941499999960797,,,,,,,,29,18,Man,Links,2,
,dotcolour,dotcolour,dotcolour,56,2,176,176,main,negativefb,-99,easy,63,0.5505557000005865,['c'],1,left,['0'],6,0.22308700000030512,,,,,,,,29,18,Man,Links,2,
,dotcolour,dotcolour,dotcolour,57,2,177,177,main,negativefb,-99,hard,41,0.7514652999998361,['c'],1,left,['0'],6,0.11322409999957017,,,,,,,,29,18,Man,Links,2,
,dotcolour,dotcolour,dotcolour,58,2,178,178,main,negativefb,-99,average,25,0.6847678000003725,['n'],1,right,['9'],5,0.14587790000041423,,,,,,,,29,18,Man,Links,2,
,dotcolour,dotcolour,dotcolour,59,2,179,179,main,negativefb,-99,easy,65,0.7682163999998011,['c'],1,left,['0'],6,0.0872973000005004,,,,,,,,29,18,Man,Links,2,
,dotcolour,dotcolour,dotcolour,0,3,180,180,main,negativefb,-99,average,27,0.7180892999995194,['n'],1,right,['9'],5,1.2718868000001748,,,,,,,,29,18,Man,Links,2,
,dotcolour,dotcolour,dotcolour,1,3,181,181,main,negativefb,-99,average,29,0.8517198999998072,['c'],0,right,['9'],5,0.1074681000000055,,,,,,,,29,18,Man,Links,2,
,dotcolour,dotcolour,dotcolour,2,3,182,182,main,negativefb,-99,hard,38,0.7333987000001798,['c'],0,right,['8'],4,0.4278089999997974,,,,,,,,29,18,Man,Links,2,
,dotcolour,dotcolour,dotcolour,3,3,183,183,main,negativefb,-99,average,25,0.816313799999989,['n'],1,right,['0'],6,0.18652299999939714,,,,,,,,29,18,Man,Links,2,
,dotcolour,dotcolour,dotcolour,4,3,184,184,main,negativefb,-99,hard,37,0.9352780999997776,['c'],0,right,['9'],5,0.2554536999996344,,,,,,,,29,18,Man,Links,2,
,dotcolour,dotcolour,dotcolour,5,3,185,185,main,negativefb,-99,average,52,0.7010133999992831,['c'],1,left,['9'],5,0.12162810000063473,,,,,,,,29,18,Man,Links,2,
,dotcolour,dotcolour,dotcolour,6,3,186,186,main,negativefb,-99,easy,63,0.551174500000343,['c'],1,left,"['9', '0']",5,0.21504430000004504,,,,,,,,29,18,Man,Links,2,
,dotcolour,dotcolour,dotcolour,7,3,187,187,main,negativefb,-99,hard,44,0.9499294999995982,['c'],1,left,['8'],4,0.24150830000053247,,,,,,,,29,18,Man,Links,2,
,dotcolour,dotcolour,dotcolour,8,3,188,188,main,negativefb,-99,easy,63,0.68427789999987,['c'],1,left,['0'],6,0.11736349999955564,,,,,,,,29,18,Man,Links,2,
,dotcolour,dotcolour,dotcolour,9,3,189,189,main,negativefb,-99,average,55,0.5852378999998109,['c'],1,left,['0'],6,0.13011959999948886,,,,,,,,29,18,Man,Links,2,
,dotcolour,dotcolour,dotcolour,10,3,190,190,main,negativefb,-99,easy,17,0.6996463999994376,['n'],1,right,['0'],6,0.1052973000005295,,,,,,,,29,18,Man,Links,2,
,dotcolour,dotcolour,dotcolour,11,3,191,191,main,negativefb,-99,easy,18,0.7340899000000718,['n'],1,right,['0'],6,0.14516860000003362,,,,,,,,29,18,Man,Links,2,
,dotcolour,dotcolour,dotcolour,12,3,192,192,main,negativefb,-99,hard,38,0.6997118999997838,['c'],0,right,['9'],5,0.20081990000016958,,,,,,,,29,18,Man,Links,2,
,dotcolour,dotcolour,dotcolour,13,3,193,193,main,negativefb,-99,easy,63,0.6168118000005052,['c'],1,left,['0'],6,0.11292780000076164,,,,,,,,29,18,Man,Links,2,
,dotcolour,dotcolour,dotcolour,14,3,194,194,main,negativefb,-99,hard,39,0.8171884000003047,['n'],1,right,['9'],5,0.0845816000000923,,,,,,,,29,18,Man,Links,2,
,dotcolour,dotcolour,dotcolour,15,3,195,195,main,negativefb,-99,average,53,0.7006524999997055,['c'],1,left,['0'],6,0.10990700000002107,,,,,,,,29,18,Man,Links,2,
,dotcolour,dotcolour,dotcolour,16,3,196,196,main,negativefb,-99,easy,16,0.6344400999996651,['n'],1,right,['0'],6,0.10538249999990512,,,,,,,,29,18,Man,Links,2,
,dotcolour,dotcolour,dotcolour,17,3,197,197,main,negativefb,-99,easy,17,0.700299900000573,['n'],1,right,['0'],6,0.15350750000015978,,,,,,,,29,18,Man,Links,2,
,dotcolour,dotcolour,dotcolour,18,3,198,198,main,negativefb,-99,hard,41,0.7328155999994124,['c'],1,left,['9'],5,0.2869630999994115,,,,,,,,29,18,Man,Links,2,
,dotcolour,dotcolour,dotcolour,19,3,199,199,main,negativefb,-99,hard,35,0.9848181999996086,['c'],0,right,['9'],5,0.0931271999997989,,,,,,,,29,18,Man,Links,2,
,dotcolour,dotcolour,dotcolour,20,3,200,200,main,negativefb,-99,hard,36,1.016412599999967,['c'],0,right,['9'],5,0.04973410000002332,,,,,,,,29,18,Man,Links,2,
,dotcolour,dotcolour,dotcolour,21,3,201,201,main,negativefb,-99,easy,18,1.1004830000001675,['n'],1,right,['0'],6,0.1169145000003482,,,,,,,,29,18,Man,Links,2,
,dotcolour,dotcolour,dotcolour,22,3,202,202,main,negativefb,-99,easy,65,0.8998627999999371,['c'],1,left,['9'],5,0.08517000000028929,,,,,,,,29,18,Man,Links,2,
,dotcolour,dotcolour,dotcolour,23,3,203,203,main,negativefb,-99,hard,41,1.0345906000002287,['c'],1,left,['1'],1,0.040952199999992445,,,,,,,,29,18,Man,Links,2,
,dotcolour,dotcolour,dotcolour,24,3,204,204,main,negativefb,-99,easy,64,0.784149800000705,['c'],1,left,['9'],5,0.3531019000001834,,,,,,,,29,18,Man,Links,2,
,dotcolour,dotcolour,dotcolour,25,3,205,205,main,negativefb,-99,easy,19,0.7330124999998588,['n'],1,right,['0'],6,0.18975680000039574,,,,,,,,29,18,Man,Links,2,
,dotcolour,dotcolour,dotcolour,26,3,206,206,main,negativefb,-99,hard,41,0.8009607999993023,['c'],1,left,['9'],5,0.09518710000065767,,,,,,,,29,18,Man,Links,2,
,dotcolour,dotcolour,dotcolour,27,3,207,207,main,negativefb,-99,easy,64,0.7499847999997655,['c'],1,left,['9'],5,0.1108219999996436,,,,,,,,29,18,Man,Links,2,
,dotcolour,dotcolour,dotcolour,28,3,208,208,main,negativefb,-99,hard,43,0.6330518000004304,['c'],1,left,['0'],6,0.17036100000041188,,,,,,,,29,18,Man,Links,2,
,dotcolour,dotcolour,dotcolour,29,3,209,209,main,negativefb,-99,average,29,0.9177451999994446,['n'],1,right,['9'],5,0.095715299999938,,,,,,,,29,18,Man,Links,2,
,dotcolour,dotcolour,dotcolour,30,3,210,210,main,negativefb,-99,hard,36,1.3506649000000834,['n'],1,right,['2'],2,2.00653869999951,,,,,,,,29,18,Man,Links,2,
,dotcolour,dotcolour,dotcolour,31,3,211,211,main,negativefb,-99,average,54,1.0845165999999153,['c'],1,left,['9'],5,0.7316108000004533,,,,,,,,29,18,Man,Links,2,
,dotcolour,dotcolour,dotcolour,32,3,212,212,main,negativefb,-99,average,25,5.6835596000000805,['n'],1,right,['8'],4,1.4362479000001258,,,,,,,,29,18,Man,Links,2,
,dotcolour,dotcolour,dotcolour,33,3,213,213,main,negativefb,-99,average,26,0.8512612000004083,['n'],1,right,['9'],5,0.06491419999929349,,,,,,,,29,18,Man,Links,2,
,dotcolour,dotcolour,dotcolour,34,3,214,214,main,negativefb,-99,average,54,0.7168443999998999,['c'],1,left,['9'],5,0.15481590000035794,,,,,,,,29,18,Man,Links,2,
,dotcolour,dotcolour,dotcolour,35,3,215,215,main,negativefb,-99,hard,38,2.1854973999998037,['c'],0,right,['8'],4,1.7502684000000954,,,,,,,,29,18,Man,Links,2,
,dotcolour,dotcolour,dotcolour,36,3,216,216,main,negativefb,-99,easy,65,0.7009835999997449,['c'],1,left,['0'],6,0.15667330000087532,,,,,,,,29,18,Man,Links,2,
,dotcolour,dotcolour,dotcolour,37,3,217,217,main,negativefb,-99,hard,39,0.8512394999997923,['c'],0,right,['0'],6,0.0850086000000374,,,,,,,,29,18,Man,Links,2,
,dotcolour,dotcolour,dotcolour,38,3,218,218,main,negativefb,-99,average,52,0.7013492000005499,['c'],1,left,['0'],6,0.21523939999951835,,,,,,,,29,18,Man,Links,2,
,dotcolour,dotcolour,dotcolour,39,3,219,219,main,negativefb,-99,average,25,0.9016236999996181,['n'],1,right,['9'],5,0.07496349999928498,,,,,,,,29,18,Man,Links,2,
,dotcolour,dotcolour,dotcolour,40,3,220,220,main,negativefb,-99,easy,63,0.8504337000003943,['c'],1,left,['0'],6,0.12621520000084274,,,,,,,,29,18,Man,Links,2,
,dotcolour,dotcolour,dotcolour,41,3,221,221,main,negativefb,-99,average,53,0.9846246999995856,['c'],1,left,['9'],5,0.5392292999995334,,,,,,,,29,18,Man,Links,2,
,dotcolour,dotcolour,dotcolour,42,3,222,222,main,negativefb,-99,hard,37,2.2505191999998715,['n'],1,right,['9'],5,0.6370775999994294,,,,,,,,29,18,Man,Links,2,
,dotcolour,dotcolour,dotcolour,43,3,223,223,main,negativefb,-99,hard,45,0.6669853999992483,['c'],1,left,['9'],5,0.16925580000042828,,,,,,,,29,18,Man,Links,2,
,dotcolour,dotcolour,dotcolour,44,3,224,224,main,negativefb,-99,average,52,0.5341778000001796,['c'],1,left,['9'],5,0.21439430000009452,,,,,,,,29,18,Man,Links,2,
,dotcolour,dotcolour,dotcolour,45,3,225,225,main,negativefb,-99,hard,42,0.7001186999996207,['c'],1,left,['0'],6,0.1146271000006891,,,,,,,,29,18,Man,Links,2,
,dotcolour,dotcolour,dotcolour,46,3,226,226,main,negativefb,-99,average,29,0.6506856000005428,['n'],1,right,['0'],6,0.2288113999993584,,,,,,,,29,18,Man,Links,2,
,dotcolour,dotcolour,dotcolour,47,3,227,227,main,negativefb,-99,easy,18,0.7516701000004105,['n'],1,right,['9'],5,0.2466882999997324,,,,,,,,29,18,Man,Links,2,
,dotcolour,dotcolour,dotcolour,48,3,228,228,main,negativefb,-99,easy,16,0.7511052999998356,['n'],1,right,['0'],6,0.10353599999962171,,,,,,,,29,18,Man,Links,2,
,dotcolour,dotcolour,dotcolour,49,3,229,229,main,negativefb,-99,easy,64,0.7329944000002797,['c'],1,left,['9'],5,0.11932640000031824,,,,,,,,29,18,Man,Links,2,
,dotcolour,dotcolour,dotcolour,50,3,230,230,main,negativefb,-99,average,55,0.7172878000001219,['c'],1,left,['0'],6,0.15087550000043848,,,,,,,,29,18,Man,Links,2,
,dotcolour,dotcolour,dotcolour,51,3,231,231,main,negativefb,-99,average,26,0.7004963999997926,['n'],1,right,['9'],5,0.22921790000054898,,,,,,,,29,18,Man,Links,2,
,dotcolour,dotcolour,dotcolour,52,3,232,232,main,negativefb,-99,easy,16,0.7511229000001549,['n'],1,right,['9'],5,0.15124659999946743,,,,,,,,29,18,Man,Links,2,
,dotcolour,dotcolour,dotcolour,53,3,233,233,main,negativefb,-99,easy,17,0.6668900000004214,['n'],1,right,['9'],5,0.21475829999963025,,,,,,,,29,18,Man,Links,2,
,dotcolour,dotcolour,dotcolour,54,3,234,234,main,negativefb,-99,hard,41,0.7348644999992757,['c'],1,left,['9'],5,0.10688049999953364,,,,,,,,29,18,Man,Links,2,
,dotcolour,dotcolour,dotcolour,55,3,235,235,main,negativefb,-99,hard,41,0.7177423999992243,['c'],1,left,['8'],4,0.06570490000012796,,,,,,,,29,18,Man,Links,2,
,dotcolour,dotcolour,dotcolour,56,3,236,236,main,negativefb,-99,easy,65,0.6172726000004332,['c'],1,left,['9'],5,0.15867139999954816,,,,,,,,29,18,Man,Links,2,
,dotcolour,dotcolour,dotcolour,57,3,237,237,main,negativefb,-99,hard,43,0.7353786000003311,['c'],1,left,['0'],6,0.06783550000000105,,,,,,,,29,18,Man,Links,2,
,dotcolour,dotcolour,dotcolour,58,3,238,238,main,negativefb,-99,average,27,0.8344395000003715,['n'],1,right,['9'],5,0.10511359999964043,,,,,,,,29,18,Man,Links,2,
,dotcolour,dotcolour,dotcolour,59,3,239,239,main,negativefb,-99,average,54,1.050866199999291,['c'],1,left,['8'],4,0.07577020000007906,,,,,,,,29,18,Man,Links,2,
,dotcolour,dotcolour,dotcolour,0,4,240,240,main,negativefb,-99,average,55,0.7509622999996282,['c'],1,left,['9'],5,0.13174549999985175,,,,,,,,29,18,Man,Links,2,
,dotcolour,dotcolour,dotcolour,1,4,241,241,main,negativefb,-99,easy,61,0.5680802999995649,['c'],1,left,['0'],6,0.13609550000001036,,,,,,,,29,18,Man,Links,2,
,dotcolour,dotcolour,dotcolour,2,4,242,242,main,negativefb,-99,average,54,0.48422409999966476,['c'],1,left,['0'],6,0.13667130000067118,,,,,,,,29,18,Man,Links,2,
,dotcolour,dotcolour,dotcolour,3,4,243,243,main,negativefb,-99,average,51,0.6674778999995397,['c'],1,left,['0'],6,0.13715270000011515,,,,,,,,29,18,Man,Links,2,
,dotcolour,dotcolour,dotcolour,4,4,244,244,main,negativefb,-99,easy,15,0.6677139000003081,['n'],1,right,['0'],6,0.12128080000002228,,,,,,,,29,18,Man,Links,2,
,dotcolour,dotcolour,dotcolour,5,4,245,245,main,negativefb,-99,easy,19,0.7004206000001432,['n'],1,right,['0'],6,0.1699398000000656,,,,,,,,29,18,Man,Links,2,
,dotcolour,dotcolour,dotcolour,6,4,246,246,main,negativefb,-99,average,54,0.6843759000003047,['c'],1,left,['0'],6,0.4244826000003741,,,,,,,,29,18,Man,Links,2,
,dotcolour,dotcolour,dotcolour,7,4,247,247,main,negativefb,-99,easy,65,0.8171393000002354,['c'],1,left,['0'],6,0.07930690000011964,,,,,,,,29,18,Man,Links,2,
,dotcolour,dotcolour,dotcolour,8,4,248,248,main,negativefb,-99,average,51,0.8004128999991735,['c'],1,left,['0'],6,0.05302229999961128,,,,,,,,29,18,Man,Links,2,
,dotcolour,dotcolour,dotcolour,9,4,249,249,main,negativefb,-99,average,54,0.7666327000006277,['c'],1,left,['0'],6,0.1336793000000398,,,,,,,,29,18,Man,Links,2,
,dotcolour,dotcolour,dotcolour,10,4,250,250,main,negativefb,-99,hard,42,0.817767399999866,['c'],1,left,['0'],6,0.06467949999932898,,,,,,,,29,18,Man,Links,2,
,dotcolour,dotcolour,dotcolour,11,4,251,251,main,negativefb,-99,hard,42,1.0343980000006923,['n'],0,left,['9'],5,0.22853370000029827,,,,,,,,29,18,Man,Links,2,
,dotcolour,dotcolour,dotcolour,12,4,252,252,main,negativefb,-99,hard,38,0.9840487999999823,['n'],1,right,['0'],6,0.11777890000030311,,,,,,,,29,18,Man,Links,2,
,dotcolour,dotcolour,dotcolour,13,4,253,253,main,negativefb,-99,average,28,0.9340242999996917,['n'],1,right,['0'],6,0.1001525000001493,,,,,,,,29,18,Man,Links,2,
,dotcolour,dotcolour,dotcolour,14,4,254,254,main,negativefb,-99,easy,17,0.8341020999996545,['n'],1,right,['0'],6,0.15942719999929977,,,,,,,,29,18,Man,Links,2,
,dotcolour,dotcolour,dotcolour,15,4,255,255,main,negativefb,-99,average,25,0.8339372000000367,['n'],1,right,['0'],6,0.11308219999955327,,,,,,,,29,18,Man,Links,2,
,dotcolour,dotcolour,dotcolour,16,4,256,256,main,negativefb,-99,easy,65,0.7840630999999121,['c'],1,left,['0'],6,0.11045979999926203,,,,,,,,29,18,Man,Links,2,
,dotcolour,dotcolour,dotcolour,17,4,257,257,main,negativefb,-99,hard,43,1.767794800000047,['c'],1,left,['8'],4,0.612850200000139,,,,,,,,29,18,Man,Links,2,
,dotcolour,dotcolour,dotcolour,18,4,258,258,main,negativefb,-99,easy,19,0.7502414000000499,['n'],1,right,['0'],6,0.20740660000046773,,,,,,,,29,18,Man,Links,2,
,dotcolour,dotcolour,dotcolour,19,4,259,259,main,negativefb,-99,hard,41,1.517801099999815,['c'],1,left,['9'],5,0.12312139999994542,,,,,,,,29,18,Man,Links,2,
,dotcolour,dotcolour,dotcolour,20,4,260,260,main,negativefb,-99,hard,44,2.716767599999912,['c'],1,left,['9'],5,0.29026560000056634,,,,,,,,29,18,Man,Links,2,
,dotcolour,dotcolour,dotcolour,21,4,261,261,main,negativefb,-99,hard,41,0.6516154000000824,['n'],0,left,['9'],5,0.5095056000000113,,,,,,,,29,18,Man,Links,2,
,dotcolour,dotcolour,dotcolour,22,4,262,262,main,negativefb,-99,average,26,1.0839498999994248,['n'],1,right,['8'],4,0.18319510000037553,,,,,,,,29,18,Man,Links,2,
,dotcolour,dotcolour,dotcolour,23,4,263,263,main,negativefb,-99,average,29,1.2175915999996505,['n'],1,right,['8'],4,0.14402339999924152,,,,,,,,29,18,Man,Links,2,
,dotcolour,dotcolour,dotcolour,24,4,264,264,main,negativefb,-99,average,29,1.135116399999788,['c'],0,right,['8'],4,0.09357309999995778,,,,,,,,29,18,Man,Links,2,
,dotcolour,dotcolour,dotcolour,25,4,265,265,main,negativefb,-99,hard,39,0.9996506000006775,['c'],0,right,['3'],3,0.1309819999996762,,,,,,,,29,18,Man,Links,2,
,dotcolour,dotcolour,dotcolour,26,4,266,266,main,negativefb,-99,easy,17,1.2165617999999085,['n'],1,right,['0'],6,0.19765740000002552,,,,,,,,29,18,Man,Links,2,
,dotcolour,dotcolour,dotcolour,27,4,267,267,main,negativefb,-99,easy,64,0.8339262999998027,['c'],1,left,['0'],6,0.09283320000031381,,,,,,,,29,18,Man,Links,2,
,dotcolour,dotcolour,dotcolour,28,4,268,268,main,negativefb,-99,easy,19,0.8008826999994199,['n'],1,right,['0'],6,0.0985381000000416,,,,,,,,29,18,Man,Links,2,
,dotcolour,dotcolour,dotcolour,29,4,269,269,main,negativefb,-99,average,28,0.9678767000004882,['c'],0,right,['1'],1,1.8722170000000915,,,,,,,,29,18,Man,Links,2,
,dotcolour,dotcolour,dotcolour,30,4,270,270,main,negativefb,-99,average,55,1.2343175999994855,['c'],1,left,['9'],5,0.7730122999992091,,,,,,,,29,18,Man,Links,2,
,dotcolour,dotcolour,dotcolour,31,4,271,271,main,negativefb,-99,easy,15,0.7501863999996203,['n'],1,right,['9'],5,0.10543940000025032,,,,,,,,29,18,Man,Links,2,
,dotcolour,dotcolour,dotcolour,32,4,272,272,main,negativefb,-99,hard,36,1.1189520999996603,['n'],1,right,['9'],5,0.5766559000003326,,,,,,,,29,18,Man,Links,2,
,dotcolour,dotcolour,dotcolour,33,4,273,273,main,negativefb,-99,hard,35,0.8666615999991336,['c'],0,right,['8'],4,0.37669670000013866,,,,,,,,29,18,Man,Links,2,
,dotcolour,dotcolour,dotcolour,34,4,274,274,main,negativefb,-99,average,27,1.117065100000218,['n'],1,right,['9'],5,0.3500008999999409,,,,,,,,29,18,Man,Links,2,
,dotcolour,dotcolour,dotcolour,35,4,275,275,main,negativefb,-99,easy,63,0.7008703999999852,['c'],1,left,['0'],6,0.5969365000000835,,,,,,,,29,18,Man,Links,2,
,dotcolour,dotcolour,dotcolour,36,4,276,276,main,negativefb,-99,easy,65,0.8000867999999173,['c'],1,left,['0'],6,0.10975570000027801,,,,,,,,29,18,Man,Links,2,
,dotcolour,dotcolour,dotcolour,37,4,277,277,main,negativefb,-99,easy,16,0.8004850999996052,['n'],1,right,['0'],6,0.13035480000053212,,,,,,,,29,18,Man,Links,2,
,dotcolour,dotcolour,dotcolour,38,4,278,278,main,negativefb,-99,average,53,0.8507490000001781,['c'],1,left,['0'],6,0.11706890000004933,,,,,,,,29,18,Man,Links,2,
,dotcolour,dotcolour,dotcolour,39,4,279,279,main,negativefb,-99,hard,38,1.3172410999995918,['c'],0,right,['0'],6,0.09154500000022381,,,,,,,,29,18,Man,Links,2,
,dotcolour,dotcolour,dotcolour,40,4,280,280,main,negativefb,-99,easy,63,0.6172750999994605,['c'],1,left,['9'],5,0.2726924999997209,,,,,,,,29,18,Man,Links,2,
,dotcolour,dotcolour,dotcolour,41,4,281,281,main,negativefb,-99,easy,19,0.7179463000002215,['n'],1,right,['9'],5,0.16186720000041532,,,,,,,,29,18,Man,Links,2,
,dotcolour,dotcolour,dotcolour,42,4,282,282,main,negativefb,-99,hard,36,0.7337930000003325,['c'],0,right,['9'],5,0.12685620000047493,,,,,,,,29,18,Man,Links,2,
,dotcolour,dotcolour,dotcolour,43,4,283,283,main,negativefb,-99,hard,42,0.9674902999995538,['c'],1,left,['9'],5,0.3486236999997345,,,,,,,,29,18,Man,Links,2,
,dotcolour,dotcolour,dotcolour,44,4,284,284,main,negativefb,-99,easy,19,0.9350215000004027,['n'],1,right,['9'],5,0.329774499999985,,,,,,,,29,18,Man,Links,2,
,dotcolour,dotcolour,dotcolour,45,4,285,285,main,negativefb,-99,easy,65,0.700435099999595,['c'],1,left,['0'],6,0.12162409999928059,,,,,,,,29,18,Man,Links,2,
,dotcolour,dotcolour,dotcolour,46,4,286,286,main,negativefb,-99,hard,45,0.8169280000001891,['c'],1,left,['0'],6,0.13322040000002744,,,,,,,,29,18,Man,Links,2,
,dotcolour,dotcolour,dotcolour,47,4,287,287,main,negativefb,-99,hard,41,0.78528869999991,['c'],1,left,['9'],5,0.12891820000004373,,,,,,,,29,18,Man,Links,2,
,dotcolour,dotcolour,dotcolour,48,4,288,288,main,negativefb,-99,easy,65,0.7348652000000584,['c'],1,left,['9'],5,0.11961510000037379,,,,,,,,29,18,Man,Links,2,
,dotcolour,dotcolour,dotcolour,49,4,289,289,main,negativefb,-99,easy,61,0.7012015000000247,['c'],1,left,['9'],5,0.15179530000023078,,,,,,,,29,18,Man,Links,2,
,dotcolour,dotcolour,dotcolour,50,4,290,290,main,negativefb,-99,average,54,0.6674086000002717,['c'],1,left,['9'],5,0.11217650000071444,,,,,,,,29,18,Man,Links,2,
,dotcolour,dotcolour,dotcolour,51,4,291,291,main,negativefb,-99,average,28,0.8343326999993224,['n'],1,right,['0'],6,0.12347959999988234,,,,,,,,29,18,Man,Links,2,
,dotcolour,dotcolour,dotcolour,52,4,292,292,main,negativefb,-99,average,28,0.7505709999995815,['n'],1,right,['0'],6,0.16879299999982322,,,,,,,,29,18,Man,Links,2,
,dotcolour,dotcolour,dotcolour,53,4,293,293,main,negativefb,-99,average,25,0.684113499999512,['n'],1,right,['9'],5,0.24841050000031828,,,,,,,,29,18,Man,Links,2,
,dotcolour,dotcolour,dotcolour,54,4,294,294,main,negativefb,-99,hard,35,0.7851257000002079,['c'],0,right,['9'],5,0.1185817000005045,,,,,,,,29,18,Man,Links,2,
,dotcolour,dotcolour,dotcolour,55,4,295,295,main,negativefb,-99,hard,37,0.7996217999998407,['n'],1,right,['8'],4,0.5869296000000759,,,,,,,,29,18,Man,Links,2,
,dotcolour,dotcolour,dotcolour,56,4,296,296,main,negativefb,-99,hard,39,0.7843680000005406,['c'],0,right,['9'],5,0.11687530000017432,,,,,,,,29,18,Man,Links,2,
,dotcolour,dotcolour,dotcolour,57,4,297,297,main,negativefb,-99,hard,37,0.9182713999998668,['c'],0,right,['8'],4,0.47687239999959274,,,,,,,,29,18,Man,Links,2,
,dotcolour,dotcolour,dotcolour,58,4,298,298,main,negativefb,-99,average,51,0.8345755999998801,['c'],1,left,['9'],5,0.2249286000005668,,,,,,,,29,18,Man,Links,2,
,dotcolour,dotcolour,dotcolour,59,4,299,299,main,negativefb,-99,hard,42,1.0015323999996326,['n'],0,left,['9'],5,0.18595619999996416,,,,,,,,29,18,Man,Links,2,
,dotcolour,dotcolour,dotcolour,0,0,0,300,training,negativefb,21,easy,18,2.0335381999993842,['c'],0,right,['9'],5,0.7807097999993857,,,,,,,,29,18,Man,Links,2,
,dotcolour,dotcolour,dotcolour,1,0,1,301,training,negativefb,47,hard,42,0.7333446000002368,['c'],1,left,['8'],4,0.14489880000019184,,,,,,,,29,18,Man,Links,2,
,dotcolour,dotcolour,dotcolour,2,0,2,302,training,negativefb,69,hard,45,0.7337358999993739,['c'],1,left,['9'],5,0.13364009999986592,,,,,,,,29,18,Man,Links,2,
,dotcolour,dotcolour,dotcolour,3,0,3,303,training,negativefb,75,hard,36,1.316996499999732,['n'],1,right,['9'],5,0.22720180000032997,,,,,,,,29,18,Man,Links,2,
,dotcolour,dotcolour,dotcolour,4,0,4,304,training,negativefb,42,average,52,1.0505781000001662,['c'],1,left,['0'],6,0.14460969999981899,,,,,,,,29,18,Man,Links,2,
,dotcolour,dotcolour,dotcolour,5,0,5,305,training,negativefb,58,hard,41,1.1504662000006647,['n'],0,left,['9'],5,0.1252104999994117,,,,,,,,29,18,Man,Links,2,
,dotcolour,dotcolour,dotcolour,6,0,6,306,training,negativefb,40,average,54,0.7170242000001963,['c'],1,left,['0'],6,0.08427909999954863,,,,,,,,29,18,Man,Links,2,
,dotcolour,dotcolour,dotcolour,7,0,7,307,training,negativefb,56,easy,62,0.6667658999995183,['c'],1,left,['0'],6,0.07819800000015675,,,,,,,,29,18,Man,Links,2,
,dotcolour,dotcolour,dotcolour,8,0,8,308,training,negativefb,82,hard,41,1.067956900000354,['c'],1,left,['9'],5,0.15304629999991448,,,,,,,,29,18,Man,Links,2,
,dotcolour,dotcolour,dotcolour,9,0,9,309,training,negativefb,34,average,52,0.8346289999999499,['c'],1,left,['0'],6,0.08101600000009057,,,,,,,,29,18,Man,Links,2,
,dotcolour,dotcolour,dotcolour,10,0,10,310,training,negativefb,33,average,52,0.8181832000000213,['c'],1,left,['0'],6,0.9338735000001179,,,,,,,,29,18,Man,Links,2,
,dotcolour,dotcolour,dotcolour,11,0,11,311,training,negativefb,73,average,26,1.2668903999992835,['n'],1,right,['0'],6,0.42147790000035457,,,,,,,,29,18,Man,Links,2,
,dotcolour,dotcolour,dotcolour,12,0,12,312,training,negativefb,73,easy,63,0.7828818999996656,['c'],1,left,['9'],5,0.14152830000057293,,,,,,,,29,18,Man,Links,2,
,dotcolour,dotcolour,dotcolour,13,0,13,313,training,negativefb,73,average,26,1.2489826999999423,['n'],1,right,['9'],5,0.09423839999999473,,,,,,,,29,18,Man,Links,2,
,dotcolour,dotcolour,dotcolour,14,0,14,314,training,negativefb,84,average,54,0.9003097000004345,['c'],1,left,['9'],5,0.09520100000008824,,,,,,,,29,18,Man,Links,2,
,dotcolour,dotcolour,dotcolour,15,0,15,315,training,negativefb,58,hard,38,0.9996681000002354,['c'],0,right,['9'],5,0.12403069999982108,,,,,,,,29,18,Man,Links,2,
,dotcolour,dotcolour,dotcolour,16,0,16,316,training,negativefb,55,easy,15,0.7507747999998173,['n'],1,right,['9'],5,0.13702049999938026,,,,,,,,29,18,Man,Links,2,
,dotcolour,dotcolour,dotcolour,17,0,17,317,training,negativefb,31,hard,37,1.0165329000001293,['n'],1,right,['9'],5,0.2353335000007064,,,,,,,,29,18,Man,Links,2,
,dotcolour,dotcolour,dotcolour,18,0,18,318,training,negativefb,58,hard,36,2.7999221000000034,['n'],1,right,['9'],5,0.4256788000002416,,,,,,,,29,18,Man,Links,2,
,dotcolour,dotcolour,dotcolour,19,0,19,319,training,negativefb,40,easy,63,0.6503717999994478,['c'],1,left,['0'],6,0.17451460000029329,,,,,,,,29,18,Man,Links,2,
,dotcolour,dotcolour,dotcolour,20,0,20,320,training,negativefb,71,easy,64,0.6503806999999142,['c'],1,left,['0'],6,0.16626610000002984,,,,,,,,29,18,Man,Links,2,
,dotcolour,dotcolour,dotcolour,21,0,21,321,training,negativefb,35,average,28,0.6828771000000415,['n'],1,right,['0'],6,0.18048300000009476,,,,,,,,29,18,Man,Links,2,
,dotcolour,dotcolour,dotcolour,22,0,22,322,training,negativefb,83,hard,45,0.7677984000001743,['c'],1,left,['0'],6,0.19120590000056836,,,,,,,,29,18,Man,Links,2,
,dotcolour,dotcolour,dotcolour,23,0,23,323,training,negativefb,63,average,55,0.6335153999998511,['c'],1,left,['0'],6,0.11789169999974547,,,,,,,,29,18,Man,Links,2,
,dotcolour,dotcolour,dotcolour,24,0,24,324,training,negativefb,13,hard,37,0.7996489999995902,['n'],1,right,['9'],5,0.24121259999992617,,,,,,,,29,18,Man,Links,2,
,dotcolour,dotcolour,dotcolour,25,0,25,325,training,negativefb,60,hard,37,0.9833669999998165,['c'],0,right,['8'],4,0.23281689999930677,,,,,,,,29,18,Man,Links,2,
,dotcolour,dotcolour,dotcolour,26,0,26,326,training,negativefb,93,average,26,0.8002581000000646,['n'],1,right,['9'],5,0.2641131000000314,,,,,,,,29,18,Man,Links,2,
,dotcolour,dotcolour,dotcolour,27,0,27,327,training,negativefb,60,average,28,0.6334086999995634,['n'],1,right,['9'],5,0.36481889999959094,,,,,,,,29,18,Man,Links,2,
,dotcolour,dotcolour,dotcolour,28,0,28,328,training,negativefb,37,easy,15,0.6505192000004172,['n'],1,right,['0'],6,0.17180999999982305,,,,,,,,29,18,Man,Links,2,
,dotcolour,dotcolour,dotcolour,29,0,29,329,training,negativefb,42,easy,18,0.6503288000003522,['n'],1,right,['0'],6,0.15450550000059593,,,,,,,,29,18,Man,Links,2,
,dotcolour,dotcolour,dotcolour,30,0,30,330,training,negativefb,81,easy,63,0.6508792000004178,['c'],1,left,['9'],5,0.17908319999969535,,,,,,,,29,18,Man,Links,2,
,dotcolour,dotcolour,dotcolour,31,0,31,331,training,negativefb,5,hard,42,0.967335300000741,['n'],0,left,['8'],4,1.0781974999999875,,,,,,,,29,18,Man,Links,2,
,dotcolour,dotcolour,dotcolour,32,0,32,332,training,negativefb,41,hard,36,1.0661134000001766,['c'],0,right,['9'],5,0.3045921000002636,,,,,,,,29,18,Man,Links,2,
,dotcolour,dotcolour,dotcolour,33,0,33,333,training,negativefb,67,average,52,0.8660202999999456,['c'],1,left,['8'],4,0.19382500000028813,,,,,,,,29,18,Man,Links,2,
,dotcolour,dotcolour,dotcolour,34,0,34,334,training,negativefb,80,average,29,0.7671430999998847,['n'],1,right,['9'],5,0.3479032000004736,,,,,,,,29,18,Man,Links,2,
,dotcolour,dotcolour,dotcolour,35,0,35,335,training,negativefb,70,easy,16,0.8004339999997683,['n'],1,right,['0'],6,0.13394909999988158,,,,,,,,29,18,Man,Links,2,
,dotcolour,dotcolour,dotcolour,36,0,36,336,training,negativefb,57,average,25,0.8509973999998692,['n'],1,right,['2'],2,0.022267399999691406,,,,,,,,29,18,Man,Links,2,
,dotcolour,dotcolour,dotcolour,37,0,37,337,training,negativefb,69,easy,62,0.7667762999999468,['c'],1,left,['0'],6,0.05543610000040644,,,,,,,,29,18,Man,Links,2,
,dotcolour,dotcolour,dotcolour,38,0,38,338,training,negativefb,39,hard,41,1.166444099999353,['c'],1,left,['9'],5,0.4866345000000365,,,,,,,,29,18,Man,Links,2,
,dotcolour,dotcolour,dotcolour,39,0,39,339,training,negativefb,61,hard,42,1.1666391999997359,['n'],0,left,['8'],4,0.12459360000048036,,,,,,,,29,18,Man,Links,2,
,dotcolour,dotcolour,dotcolour,40,0,40,340,training,negativefb,63,hard,38,0.7498159000006126,['c'],0,right,['8'],4,0.1619098999999551,,,,,,,,29,18,Man,Links,2,
,dotcolour,dotcolour,dotcolour,41,0,41,341,training,negativefb,85,easy,61,0.7674455000005764,['c'],1,left,['0'],6,0.12508860000070854,,,,,,,,29,18,Man,Links,2,
,dotcolour,dotcolour,dotcolour,42,0,42,342,training,negativefb,79,average,26,0.7166396000002351,['n'],1,right,['9'],5,0.09226130000024568,,,,,,,,29,18,Man,Links,2,
,dotcolour,dotcolour,dotcolour,43,0,43,343,training,negativefb,49,average,29,0.8665449000000081,['n'],1,right,['9'],5,0.12557079999987764,,,,,,,,29,18,Man,Links,2,
,dotcolour,dotcolour,dotcolour,44,0,44,344,training,negativefb,60,easy,15,1.3505130000003192,['c'],0,right,['9'],5,0.3398025000005873,,,,,,,,29,18,Man,Links,2,
,dotcolour,dotcolour,dotcolour,45,0,45,345,training,negativefb,69,hard,44,1.2332840999997643,['n'],0,left,['8'],4,0.22043220000068686,,,,,,,,29,18,Man,Links,2,
,dotcolour,dotcolour,dotcolour,46,0,46,346,training,negativefb,31,hard,35,0.8663676999995005,['c'],0,right,['8'],4,0.09732789999998204,,,,,,,,29,18,Man,Links,2,
,dotcolour,dotcolour,dotcolour,47,0,47,347,training,negativefb,69,easy,63,0.7343531000005896,['c'],1,left,['9'],5,0.13625170000068465,,,,,,,,29,18,Man,Links,2,
,dotcolour,dotcolour,dotcolour,48,0,48,348,training,negativefb,60,average,53,0.6330084999999599,['c'],1,left,['0'],6,0.0899608999998236,,,,,,,,29,18,Man,Links,2,
,dotcolour,dotcolour,dotcolour,49,0,49,349,training,negativefb,39,hard,37,0.9514144000004308,['n'],1,right,['9'],5,0.15249749999929918,,,,,,,,29,18,Man,Links,2,
,dotcolour,dotcolour,dotcolour,50,0,50,350,training,negativefb,47,average,55,0.6347318999996787,['c'],1,left,['0'],6,0.12914830000045185,,,,,,,,29,18,Man,Links,2,
,dotcolour,dotcolour,dotcolour,51,0,51,351,training,negativefb,61,average,55,0.7999726000007286,['c'],1,left,['9'],5,0.10088140000061685,,,,,,,,29,18,Man,Links,2,
,dotcolour,dotcolour,dotcolour,52,0,52,352,training,negativefb,47,average,28,1.3673681000000215,['n'],1,right,['9'],5,0.4101894000004904,,,,,,,,29,18,Man,Links,2,
,dotcolour,dotcolour,dotcolour,53,0,53,353,training,negativefb,65,easy,16,0.700639499999852,['n'],1,right,['8'],4,0.22272410000005038,,,,,,,,29,18,Man,Links,2,
,dotcolour,dotcolour,dotcolour,54,0,54,354,training,negativefb,82,easy,17,0.7836897999995927,['n'],1,right,['0'],6,0.20601239999996324,,,,,,,,29,18,Man,Links,2,
,dotcolour,dotcolour,dotcolour,55,0,55,355,training,negativefb,77,easy,64,0.8165220000000772,['c'],1,left,['9'],5,0.19004810000024008,,,,,,,,29,18,Man,Links,2,
,dotcolour,dotcolour,dotcolour,56,0,56,356,training,negativefb,55,hard,45,1.1174706000001606,['c'],1,left,['1'],1,0.041392199999791046,,,,,,,,29,18,Man,Links,2,
,dotcolour,dotcolour,dotcolour,57,0,57,357,training,negativefb,93,easy,15,0.8011575000000448,['n'],1,right,['0'],6,0.4159417000000758,,,,,,,,29,18,Man,Links,2,
,dotcolour,dotcolour,dotcolour,58,0,58,358,training,negativefb,91,easy,16,0.61632230000032,['n'],1,right,['0'],6,0.1349833000003855,,,,,,,,29,18,Man,Links,2,
,dotcolour,dotcolour,dotcolour,59,0,59,359,training,negativefb,49,easy,61,0.600171600000067,['c'],1,left,['9'],5,0.2894052000001466,,,,,,,,29,18,Man,Links,2,
,dotcolour,dotcolour,dotcolour,0,1,60,360,training,negativefb,42,hard,43,0.8010476999997991,['n'],0,left,['9'],5,0.19257610000022396,,,,,,,,29,18,Man,Links,2,
,dotcolour,dotcolour,dotcolour,1,1,61,361,training,negativefb,47,hard,45,0.6827276000003621,['c'],1,left,['9'],5,0.1341984999999113,,,,,,,,29,18,Man,Links,2,
,dotcolour,dotcolour,dotcolour,2,1,62,362,training,negativefb,67,easy,64,0.7005993000002491,['c'],1,left,['0'],6,0.14855110000007699,,,,,,,,29,18,Man,Links,2,
,dotcolour,dotcolour,dotcolour,3,1,63,363,training,negativefb,61,average,27,0.6679888999997274,['n'],1,right,['9'],5,0.08424930000001041,,,,,,,,29,18,Man,Links,2,
,dotcolour,dotcolour,dotcolour,4,1,64,364,training,negativefb,76,easy,63,0.4830210000000079,['c'],1,left,['9'],5,0.15797459999976127,,,,,,,,29,18,Man,Links,2,
,dotcolour,dotcolour,dotcolour,5,1,65,365,training,negativefb,65,average,25,0.6661141000004136,['n'],1,right,['9'],5,0.18069409999952768,,,,,,,,29,18,Man,Links,2,
,dotcolour,dotcolour,dotcolour,6,1,66,366,training,negativefb,51,average,51,0.6994500000000698,['c'],1,left,['8'],4,0.16147300000011455,,,,,,,,29,18,Man,Links,2,
,dotcolour,dotcolour,dotcolour,7,1,67,367,training,negativefb,70,average,28,0.68342229999962,['n'],1,right,['9'],5,0.08062909999989643,,,,,,,,29,18,Man,Links,2,
,dotcolour,dotcolour,dotcolour,8,1,68,368,training,negativefb,72,easy,64,0.5836817999997947,['c'],1,left,['9'],5,0.1743071000000782,,,,,,,,29,18,Man,Links,2,
,dotcolour,dotcolour,dotcolour,9,1,69,369,training,negativefb,61,easy,17,0.7182818000001134,['n'],1,right,['9'],5,0.21869919999971899,,,,,,,,29,18,Man,Links,2,
,dotcolour,dotcolour,dotcolour,10,1,70,370,training,negativefb,86,easy,15,2.3506907999999385,['n'],1,right,['8'],4,0.6527430000005552,,,,,,,,29,18,Man,Links,2,
,dotcolour,dotcolour,dotcolour,11,1,71,371,training,negativefb,54,hard,38,0.7664823999984947,['n'],1,right,['8'],4,0.28369500000007974,,,,,,,,29,18,Man,Links,2,
,dotcolour,dotcolour,dotcolour,12,1,72,372,training,negativefb,62,hard,45,0.801255599999422,['c'],1,left,['8'],4,0.1286275000002206,,,,,,,,29,18,Man,Links,2,
,dotcolour,dotcolour,dotcolour,13,1,73,373,training,negativefb,69,average,54,1.2498726999983774,['c'],1,left,['9'],5,0.4253701999987243,,,,,,,,29,18,Man,Links,2,
,dotcolour,dotcolour,dotcolour,14,1,74,374,training,negativefb,59,easy,18,0.7661527000000206,['n'],1,right,['0'],6,0.14612599999964004,,,,,,,,29,18,Man,Links,2,
,dotcolour,dotcolour,dotcolour,15,1,75,375,training,negativefb,71,easy,61,0.8667364999982965,['c'],1,left,['9'],5,0.09031839999988733,,,,,,,,29,18,Man,Links,2,
,dotcolour,dotcolour,dotcolour,16,1,76,376,training,negativefb,29,easy,61,0.6993701999999757,['c'],1,left,['9'],5,0.13132819999918866,,,,,,,,29,18,Man,Links,2,
,dotcolour,dotcolour,dotcolour,17,1,77,377,training,negativefb,53,average,26,0.7003595999995014,['n'],1,right,['9'],5,0.09797539999999572,,,,,,,,29,18,Man,Links,2,
,dotcolour,dotcolour,dotcolour,18,1,78,378,training,negativefb,66,easy,17,0.7492844000007608,['n'],1,right,['0'],6,0.07973309999943012,,,,,,,,29,18,Man,Links,2,
,dotcolour,dotcolour,dotcolour,19,1,79,379,training,negativefb,69,hard,45,0.7836471999999048,['c'],1,left,['9'],5,0.12600360000033106,,,,,,,,29,18,Man,Links,2,
,dotcolour,dotcolour,dotcolour,20,1,80,380,training,negativefb,85,easy,17,0.6164129999997385,['n'],1,right,['0'],6,0.37592640000002575,,,,,,,,29,18,Man,Links,2,
,dotcolour,dotcolour,dotcolour,21,1,81,381,training,negativefb,93,average,52,0.6999019000013504,['c'],1,left,['9'],5,1.1658137000013085,,,,,,,,29,18,Man,Links,2,
,dotcolour,dotcolour,dotcolour,22,1,82,382,training,negativefb,60,average,28,0.8504929000009724,['n'],1,right,['9'],5,0.10103479999997944,,,,,,,,29,18,Man,Links,2,
,dotcolour,dotcolour,dotcolour,23,1,83,383,training,negativefb,93,easy,63,0.7165291000001162,['c'],1,left,['9'],5,0.6602726000000985,,,,,,,,29,18,Man,Links,2,
,dotcolour,dotcolour,dotcolour,24,1,84,384,training,negativefb,36,average,27,0.8327122000009695,['n'],1,right,['0'],6,0.12112979999983509,,,,,,,,29,18,Man,Links,2,
,dotcolour,dotcolour,dotcolour,25,1,85,385,training,negativefb,77,easy,61,0.7669189999996888,['c'],1,left,['9'],5,0.12615650000043388,,,,,,,,29,18,Man,Links,2,
,dotcolour,dotcolour,dotcolour,26,1,86,386,training,negativefb,64,hard,35,0.9338736999998218,['n'],1,right,['9'],5,0.1161221000002115,,,,,,,,29,18,Man,Links,2,
,dotcolour,dotcolour,dotcolour,27,1,87,387,training,negativefb,67,average,54,0.7679356999997253,['c'],1,left,['9'],5,0.11261930000000575,,,,,,,,29,18,Man,Links,2,
,dotcolour,dotcolour,dotcolour,28,1,88,388,training,negativefb,85,easy,62,1.3002446000009513,['c'],1,left,['9'],5,0.6329517000012856,,,,,,,,29,18,Man,Links,2,
,dotcolour,dotcolour,dotcolour,29,1,89,389,training,negativefb,59,hard,41,1.0830944999997882,['c'],1,left,['8'],4,0.1795129000001907,,,,,,,,29,18,Man,Links,2,
,dotcolour,dotcolour,dotcolour,30,1,90,390,training,negativefb,62,hard,35,1.1677610000006098,['c'],0,right,['9'],5,0.10238550000030955,,,,,,,,29,18,Man,Links,2,
,dotcolour,dotcolour,dotcolour,31,1,91,391,training,negativefb,41,hard,41,0.9500967000003584,['c'],1,left,['9'],5,0.14112560000103258,,,,,,,,29,18,Man,Links,2,
,dotcolour,dotcolour,dotcolour,32,1,92,392,training,negativefb,72,average,27,1.0172711000013805,['n'],1,right,['9'],5,0.16612050000003364,,,,,,,,29,18,Man,Links,2,
,dotcolour,dotcolour,dotcolour,33,1,93,393,training,negativefb,61,hard,41,0.9500071000002208,['c'],1,left,['9'],5,0.3059183999994275,,,,,,,,29,18,Man,Links,2,
,dotcolour,dotcolour,dotcolour,34,1,94,394,training,negativefb,65,easy,15,0.9334394999987126,['n'],1,right,['9'],5,0.13683499999933701,,,,,,,,29,18,Man,Links,2,
,dotcolour,dotcolour,dotcolour,35,1,95,395,training,negativefb,54,average,52,0.9995476000003691,['c'],1,left,['9'],5,0.6276490000000194,,,,,,,,29,18,Man,Links,2,
,dotcolour,dotcolour,dotcolour,36,1,96,396,training,negativefb,49,average,51,0.8997110999989673,['c'],1,left,['0'],6,0.07913299999927403,,,,,,,,29,18,Man,Links,2,
,dotcolour,dotcolour,dotcolour,37,1,97,397,training,negativefb,71,average,55,1.6991550000002462,['c'],1,left,['0'],6,0.19228089999887743,,,,,,,,29,18,Man,Links,2,
,dotcolour,dotcolour,dotcolour,38,1,98,398,training,negativefb,42,hard,36,0.7670393000007607,['n'],1,right,['9'],5,0.13012010000056762,,,,,,,,29,18,Man,Links,2,
,dotcolour,dotcolour,dotcolour,39,1,99,399,training,negativefb,74,easy,61,0.5836362999998528,['c'],1,left,['9'],5,0.10957360000065819,,,,,,,,29,18,Man,Links,2,
,dotcolour,dotcolour,dotcolour,40,1,100,400,training,negativefb,94,hard,39,0.7840560999993613,['n'],1,right,['8'],4,1.3544878000011522,,,,,,,,29,18,Man,Links,2,
,dotcolour,dotcolour,dotcolour,41,1,101,401,training,negativefb,59,hard,37,2.099404399999912,['n'],1,right,['8'],4,0.633092600000964,,,,,,,,29,18,Man,Links,2,
,dotcolour,dotcolour,dotcolour,42,1,102,402,training,negativefb,83,easy,15,0.7169407000001229,['n'],1,right,['0'],6,0.1465234999996028,,,,,,,,29,18,Man,Links,2,
,dotcolour,dotcolour,dotcolour,43,1,103,403,training,negativefb,34,hard,44,0.7660596999994596,['c'],1,left,['9'],5,0.11078879999877245,,,,,,,,29,18,Man,Links,2,
,dotcolour,dotcolour,dotcolour,44,1,104,404,training,negativefb,63,hard,35,0.8507984000007127,['n'],1,right,['9'],5,0.1452493000015238,,,,,,,,29,18,Man,Links,2,
,dotcolour,dotcolour,dotcolour,45,1,105,405,training,negativefb,83,easy,17,0.7833496000002924,['n'],1,right,['9'],5,0.11553989999993064,,,,,,,,29,18,Man,Links,2,
,dotcolour,dotcolour,dotcolour,46,1,106,406,training,negativefb,65,hard,39,0.7510218999996141,['c'],0,right,['9'],5,0.16913709999971616,,,,,,,,29,18,Man,Links,2,
,dotcolour,dotcolour,dotcolour,47,1,107,407,training,negativefb,46,hard,43,0.8510288999987097,['c'],1,left,['0'],6,0.1045179000011558,,,,,,,,29,18,Man,Links,2,
,dotcolour,dotcolour,dotcolour,48,1,108,408,training,negativefb,74,easy,18,0.9013979000010295,['n'],1,right,['0'],6,0.12067999999999302,,,,,,,,29,18,Man,Links,2,
,dotcolour,dotcolour,dotcolour,49,1,109,409,training,negativefb,56,easy,15,0.9336772000006022,['n'],1,right,['9'],5,0.21512749999965308,,,,,,,,29,18,Man,Links,2,
,dotcolour,dotcolour,dotcolour,50,1,110,410,training,negativefb,50,hard,38,1.1176422999997158,['c'],0,right,['9'],5,0.23384489999989455,,,,,,,,29,18,Man,Links,2,
,dotcolour,dotcolour,dotcolour,51,1,111,411,training,negativefb,62,average,55,0.7158577000009245,['c'],1,left,['9'],5,0.07561390000046231,,,,,,,,29,18,Man,Links,2,
,dotcolour,dotcolour,dotcolour,52,1,112,412,training,negativefb,44,average,51,0.6661497999994026,['c'],1,left,['0'],6,0.05426859999897715,,,,,,,,29,18,Man,Links,2,
,dotcolour,dotcolour,dotcolour,53,1,113,413,training,negativefb,69,average,28,0.7830644000005123,['n'],1,right,['9'],5,0.11658259999967413,,,,,,,,29,18,Man,Links,2,
,dotcolour,dotcolour,dotcolour,54,1,114,414,training,negativefb,31,hard,38,0.8336417000009533,['n'],1,right,['9'],5,0.22312330000022484,,,,,,,,29,18,Man,Links,2,
,dotcolour,dotcolour,dotcolour,55,1,115,415,training,negativefb,65,average,26,1.3839399999997113,['n'],1,right,['9'],5,0.8710336000003736,,,,,,,,29,18,Man,Links,2,
,dotcolour,dotcolour,dotcolour,56,1,116,416,training,negativefb,43,easy,61,0.9014179000005242,['c'],1,left,['0'],6,0.12012109999886889,,,,,,,,29,18,Man,Links,2,
,dotcolour,dotcolour,dotcolour,57,1,117,417,training,negativefb,47,hard,42,1.450794100001076,['n'],0,left,['8'],4,0.1377609000010125,,,,,,,,29,18,Man,Links,2,
,dotcolour,dotcolour,dotcolour,58,1,118,418,training,negativefb,90,average,25,0.8675703999997495,['n'],1,right,['9'],5,0.6413695999999618,,,,,,,,29,18,Man,Links,2,
,dotcolour,dotcolour,dotcolour,59,1,119,419,training,negativefb,60,average,52,0.7509504999998171,['c'],1,left,['9'],5,0.17833249999966938,,,,,,,,29,18,Man,Links,2,
,xotask,dotcolour,dotcolour,0,2,120,420,main,negativefb,-99,average,,2.1011075000005803,['c'],1,left,['9'],5,0.8692685999994865,61,,,,,,,29,18,Man,Links,2,
,xotask,dotcolour,dotcolour,1,2,121,421,main,negativefb,-99,hard,,0.9011535000008735,['n'],1,right,['9'],5,0.18340279999938502,29,,,,,,,29,18,Man,Links,2,
,xotask,dotcolour,dotcolour,2,2,122,422,main,negativefb,-99,average,,0.8175758999987011,['n'],1,right,['9'],5,0.2712025000000722,18,,,,,,,29,18,Man,Links,2,
,xotask,dotcolour,dotcolour,3,2,123,423,main,negativefb,-99,average,,0.7342470999992656,['c'],1,left,['0'],6,0.21612499999901047,62,,,,,,,29,18,Man,Links,2,
,xotask,dotcolour,dotcolour,4,2,124,424,main,negativefb,-99,average,,0.8014278999999078,['c'],1,left,['9'],5,0.11211550000007264,62,,,,,,,29,18,Man,Links,2,
,xotask,dotcolour,dotcolour,5,2,125,425,main,negativefb,-99,average,,0.9848171000012371,['n'],0,left,['9'],5,0.11826509999991686,60,,,,,,,29,18,Man,Links,2,
,xotask,dotcolour,dotcolour,6,2,126,426,main,negativefb,-99,hard,,0.8847275999996782,['c'],1,left,['9'],5,0.10215070000049309,52,,,,,,,29,18,Man,Links,2,
,xotask,dotcolour,dotcolour,7,2,127,427,main,negativefb,-99,hard,,0.7682172999993782,['n'],1,right,['9'],5,0.2520423000005394,25,,,,,,,29,18,Man,Links,2,
,xotask,dotcolour,dotcolour,8,2,128,428,main,negativefb,-99,hard,,1.1180750000003172,['c'],1,left,['0'],6,0.16642209999918123,51,,,,,,,29,18,Man,Links,2,
,xotask,dotcolour,dotcolour,9,2,129,429,main,negativefb,-99,hard,,0.9012658999999985,['c'],1,left,['9'],5,0.1087307999987388,54,,,,,,,29,18,Man,Links,2,
,xotask,dotcolour,dotcolour,10,2,130,430,main,negativefb,-99,easy,,0.700354899998274,['c'],1,left,['9'],5,0.11677229999986594,70,,,,,,,29,18,Man,Links,2,
,xotask,dotcolour,dotcolour,11,2,131,431,main,negativefb,-99,easy,,0.567387700000836,['c'],1,left,['0'],6,0.14629819999936444,70,,,,,,,29,18,Man,Links,2,
,xotask,dotcolour,dotcolour,12,2,132,432,main,negativefb,-99,easy,,0.6179396000006818,['c'],1,left,['9'],5,0.28560269999979937,74,,,,,,,29,18,Man,Links,2,
,xotask,dotcolour,dotcolour,13,2,133,433,main,negativefb,-99,hard,,0.6017148999999336,['n'],1,right,['0'],6,0.17801540000073146,28,,,,,,,29,18,Man,Links,2,
,xotask,dotcolour,dotcolour,14,2,134,434,main,negativefb,-99,average,,0.8501089999990654,['n'],1,right,['0'],6,0.13877599999977974,15,,,,,,,29,18,Man,Links,2,
,xotask,dotcolour,dotcolour,15,2,135,435,main,negativefb,-99,easy,,0.6849233000011736,['c'],1,left,['9'],5,0.08201800000097137,73,,,,,,,29,18,Man,Links,2,
,xotask,dotcolour,dotcolour,16,2,136,436,main,negativefb,-99,easy,,0.668027699999584,['n'],1,right,['9'],5,0.12453740000091784,8,,,,,,,29,18,Man,Links,2,
,xotask,dotcolour,dotcolour,17,2,137,437,main,negativefb,-99,easy,,0.8010033000009571,['n'],1,right,['9'],5,0.1531367000006867,9,,,,,,,29,18,Man,Links,2,
,xotask,dotcolour,dotcolour,18,2,138,438,main,negativefb,-99,hard,,0.6510177000000112,['n'],1,right,['8'],4,0.20213189999958558,26,,,,,,,29,18,Man,Links,2,
,xotask,dotcolour,dotcolour,19,2,139,439,main,negativefb,-99,average,,0.7181534999999712,['c'],1,left,['9'],5,0.09393180000006396,61,,,,,,,29,18,Man,Links,2,
,xotask,dotcolour,dotcolour,20,2,140,440,main,negativefb,-99,hard,,0.8851766999996471,['n'],0,left,['9'],5,0.07998619999852963,50,,,,,,,29,18,Man,Links,2,
,xotask,dotcolour,dotcolour,21,2,141,441,main,negativefb,-99,hard,,0.9175869000009698,['n'],1,right,['9'],5,0.12968120000005,26,,,,,,,29,18,Man,Links,2,
,xotask,dotcolour,dotcolour,22,2,142,442,main,negativefb,-99,easy,,0.8329964999993535,['n'],1,right,['9'],5,0.18786259999978938,7,,,,,,,29,18,Man,Links,2,
,xotask,dotcolour,dotcolour,23,2,143,443,main,negativefb,-99,hard,,0.7663494999997056,['n'],1,right,['0'],6,0.15860029999930703,27,,,,,,,29,18,Man,Links,2,
,xotask,dotcolour,dotcolour,24,2,144,444,main,negativefb,-99,easy,,0.7182431999990513,['n'],1,right,['0'],6,0.14086430000133987,9,,,,,,,29,18,Man,Links,2,
,xotask,dotcolour,dotcolour,25,2,145,445,main,negativefb,-99,average,,0.6342638000005536,['c'],1,left,['9'],5,0.23898670000016864,60,,,,,,,29,18,Man,Links,2,
,xotask,dotcolour,dotcolour,26,2,146,446,main,negativefb,-99,average,,1.2180079000008845,['c'],0,right,['8'],4,0.13325930000064545,15,,,,,,,29,18,Man,Links,2,
,xotask,dotcolour,dotcolour,27,2,147,447,main,negativefb,-99,easy,,1.4512152999996033,['c'],1,left,['9'],5,0.25498440000046685,70,,,,,,,29,18,Man,Links,2,
,xotask,dotcolour,dotcolour,28,2,148,448,main,negativefb,-99,hard,,0.7678230000001349,['c'],0,right,['9'],5,0.11869329999899492,27,,,,,,,29,18,Man,Links,2,
,xotask,dotcolour,dotcolour,29,2,149,449,main,negativefb,-99,easy,,0.5179416999999376,['c'],0,right,['0'],6,0.5105663999984245,8,,,,,,,29,18,Man,Links,2,
,xotask,dotcolour,dotcolour,30,2,150,450,main,negativefb,-99,easy,,0.8845260999987659,['n'],1,right,['8'],4,0.303648000000976,6,,,,,,,29,18,Man,Links,2,
,xotask,dotcolour,dotcolour,31,2,151,451,main,negativefb,-99,hard,,1.1500720999993064,['c'],1,left,['9'],5,0.15008880000095814,53,,,,,,,29,18,Man,Links,2,
,xotask,dotcolour,dotcolour,32,2,152,452,main,negativefb,-99,hard,,1.0831520000010642,['c'],0,right,['8'],4,0.6534069999997882,28,,,,,,,29,18,Man,Links,2,
,xotask,dotcolour,dotcolour,33,2,153,453,main,negativefb,-99,average,,0.7019488999994792,['n'],1,right,['8'],4,0.1120639000000665,17,,,,,,,29,18,Man,Links,2,
,xotask,dotcolour,dotcolour,34,2,154,454,main,negativefb,-99,hard,,0.7677426999998715,['c'],1,left,['9'],5,0.15009660000032454,52,,,,,,,29,18,Man,Links,2,
,xotask,dotcolour,dotcolour,35,2,155,455,main,negativefb,-99,easy,,0.801516100000299,['n'],1,right,['9'],5,0.14478579999922658,8,,,,,,,29,18,Man,Links,2,
,xotask,dotcolour,dotcolour,36,2,156,456,main,negativefb,-99,easy,,0.8340313000007882,['c'],1,left,['9'],5,0.17890149999948335,72,,,,,,,29,18,Man,Links,2,
,xotask,dotcolour,dotcolour,37,2,157,457,main,negativefb,-99,easy,,0.7171970999988844,['n'],0,left,['0'],6,0.20780530000047293,72,,,,,,,29,18,Man,Links,2,
,xotask,dotcolour,dotcolour,38,2,158,458,main,negativefb,-99,easy,,1.0010978000009345,['c'],1,left,['9'],5,0.2806572999998025,73,,,,,,,29,18,Man,Links,2,
,xotask,dotcolour,dotcolour,39,2,159,459,main,negativefb,-99,average,,1.3173564999997325,['c'],0,right,['9'],5,0.7784522999991168,17,,,,,,,29,18,Man,Links,2,
,xotask,dotcolour,dotcolour,40,2,160,460,main,negativefb,-99,average,,0.6840883000004396,['n'],1,right,['9'],5,0.1295114000004105,16,,,,,,,29,18,Man,Links,2,
,xotask,dotcolour,dotcolour,41,2,161,461,main,negativefb,-99,average,,0.7516200999998546,['c'],1,left,['9'],5,0.126779299998816,62,,,,,,,29,18,Man,Links,2,
,xotask,dotcolour,dotcolour,42,2,162,462,main,negativefb,-99,average,,0.984210599999642,['n'],1,right,['9'],5,0.13930549999895447,15,,,,,,,29,18,Man,Links,2,
,xotask,dotcolour,dotcolour,43,2,163,463,main,negativefb,-99,average,,0.8005033999997977,['n'],1,right,['0'],6,0.17539529999885417,15,,,,,,,29,18,Man,Links,2,
,xotask,dotcolour,dotcolour,44,2,164,464,main,negativefb,-99,easy,,0.6518824999984645,['n'],1,right,['0'],6,0.11052840000047581,7,,,,,,,29,18,Man,Links,2,
,xotask,dotcolour,dotcolour,45,2,165,465,main,negativefb,-99,hard,,0.7010418999998365,['n'],0,left,['0'],6,0.07967860000098881,51,,,,,,,29,18,Man,Links,2,
,xotask,dotcolour,dotcolour,46,2,166,466,main,negativefb,-99,average,,0.8002059999998892,['c'],0,right,['9'],5,0.10146230000100331,19,,,,,,,29,18,Man,Links,2,
,xotask,dotcolour,dotcolour,47,2,167,467,main,negativefb,-99,average,,1.2849413999992976,['c'],1,left,['8'],4,0.11061880000124802,60,,,,,,,29,18,Man,Links,2,
,xotask,dotcolour,dotcolour,48,2,168,468,main,negativefb,-99,hard,,1.0008593999991717,['c'],0,right,['8'],4,0.16331290000016452,27,,,,,,,29,18,Man,Links,2,
,xotask,dotcolour,dotcolour,49,2,169,469,main,negativefb,-99,hard,,1.4510405999990326,['c'],1,left,['8'],4,0.5638149999995221,51,,,,,,,29,18,Man,Links,2,
,xotask,dotcolour,dotcolour,50,2,170,470,main,negativefb,-99,average,,0.8341883000011876,['c'],1,left,['9'],5,0.22919250000086322,62,,,,,,,29,18,Man,Links,2,
,xotask,dotcolour,dotcolour,51,2,171,471,main,negativefb,-99,hard,,1.1341170000014245,['c'],1,left,['8'],4,0.15263320000121894,50,,,,,,,29,18,Man,Links,2,
,xotask,dotcolour,dotcolour,52,2,172,472,main,negativefb,-99,hard,,0.9176673000001756,['n'],1,right,['8'],4,0.6541184999987308,26,,,,,,,29,18,Man,Links,2,
,xotask,dotcolour,dotcolour,53,2,173,473,main,negativefb,-99,average,,0.9014190999987477,['n'],1,right,['9'],5,0.11297019999983604,16,,,,,,,29,18,Man,Links,2,
,xotask,dotcolour,dotcolour,54,2,174,474,main,negativefb,-99,easy,,0.851991999999882,['c'],1,left,['9'],5,0.18734539999968547,73,,,,,,,29,18,Man,Links,2,
,xotask,dotcolour,dotcolour,55,2,175,475,main,negativefb,-99,easy,,1.1009911999990436,['c'],1,left,['8'],4,0.4169117000001279,73,,,,,,,29,18,Man,Links,2,
,xotask,dotcolour,dotcolour,56,2,176,476,main,negativefb,-99,easy,,0.9670203999994555,['n'],1,right,['9'],5,0.16183920000003127,6,,,,,,,29,18,Man,Links,2,
,xotask,dotcolour,dotcolour,57,2,177,477,main,negativefb,-99,hard,,0.9843673999985185,['n'],0,left,['8'],4,7.413842500000101,52,,,,,,,29,18,Man,Links,2,
,xotask,dotcolour,dotcolour,58,2,178,478,main,negativefb,-99,average,,3.95137700000123,['c'],1,left,['9'],5,0.8245240000014746,62,,,,,,,29,18,Man,Links,2,
,xotask,dotcolour,dotcolour,59,2,179,479,main,negativefb,-99,easy,,0.7003935000011552,['n'],1,right,['9'],5,0.2522862999994686,9,,,,,,,29,18,Man,Links,2,
,xotask,dotcolour,dotcolour,0,3,180,480,main,negativefb,-99,easy,,0.9180876999998873,['n'],1,right,['9'],5,0.3493675000008807,7,,,,,,,29,18,Man,Links,2,
,xotask,dotcolour,dotcolour,1,3,181,481,main,negativefb,-99,average,,0.7840269999996963,['c'],1,left,['8'],4,0.1693463999999949,61,,,,,,,29,18,Man,Links,2,
,xotask,dotcolour,dotcolour,2,3,182,482,main,negativefb,-99,easy,,0.7839624999996886,['n'],1,right,['9'],5,0.14744179999979679,6,,,,,,,29,18,Man,Links,2,
,xotask,dotcolour,dotcolour,3,3,183,483,main,negativefb,-99,average,,0.6520151999993686,['n'],0,left,['9'],5,0.18053890000010142,64,,,,,,,29,18,Man,Links,2,
,xotask,dotcolour,dotcolour,4,3,184,484,main,negativefb,-99,easy,,0.5843927000005351,['n'],1,right,['0'],6,0.1755271999991237,7,,,,,,,29,18,Man,Links,2,
,xotask,dotcolour,dotcolour,5,3,185,485,main,negativefb,-99,hard,,0.9501897999998619,['n'],1,right,['8'],4,0.38791590000073484,27,,,,,,,29,18,Man,Links,2,
,xotask,dotcolour,dotcolour,6,3,186,486,main,negativefb,-99,average,,0.8344749000007141,['n'],1,right,['0'],6,0.24353359999986424,17,,,,,,,29,18,Man,Links,2,
,xotask,dotcolour,dotcolour,7,3,187,487,main,negativefb,-99,easy,,0.7181896000001871,['c'],1,left,['9'],5,0.294266200000493,74,,,,,,,29,18,Man,Links,2,
,xotask,dotcolour,dotcolour,8,3,188,488,main,negativefb,-99,average,,0.8017259000007471,['n'],1,right,['9'],5,0.20336710000083258,16,,,,,,,29,18,Man,Links,2,
,xotask,dotcolour,dotcolour,9,3,189,489,main,negativefb,-99,average,,0.6849554000000353,['n'],0,left,['8'],4,0.7208676000009291,63,,,,,,,29,18,Man,Links,2,
,xotask,dotcolour,dotcolour,10,3,190,490,main,negativefb,-99,average,,0.7511327000011079,['c'],1,left,['9'],5,0.15882280000005267,62,,,,,,,29,18,Man,Links,2,
,xotask,dotcolour,dotcolour,11,3,191,491,main,negativefb,-99,hard,,0.9179330999995727,['c'],1,left,['0'],6,0.15725489999931597,51,,,,,,,29,18,Man,Links,2,
,xotask,dotcolour,dotcolour,12,3,192,492,main,negativefb,-99,easy,,0.7337715000012395,['n'],1,right,['8'],4,0.40203590000055556,6,,,,,,,29,18,Man,Links,2,
,xotask,dotcolour,dotcolour,13,3,193,493,main,negativefb,-99,average,,0.7334976000001916,['n'],1,right,['9'],5,0.22957399999904737,18,,,,,,,29,18,Man,Links,2,
,xotask,dotcolour,dotcolour,14,3,194,494,main,negativefb,-99,easy,,0.9833061000008456,['c'],1,left,['8'],4,0.27081379999981436,73,,,,,,,29,18,Man,Links,2,
,xotask,dotcolour,dotcolour,15,3,195,495,main,negativefb,-99,easy,,0.7845780000006926,['c'],0,right,['8'],4,0.7568805999999313,5,,,,,,,29,18,Man,Links,2,
,xotask,dotcolour,dotcolour,16,3,196,496,main,negativefb,-99,easy,,0.7511983000003966,['n'],1,right,['9'],5,0.29762140000093495,5,,,,,,,29,18,Man,Links,2,
,xotask,dotcolour,dotcolour,17,3,197,497,main,negativefb,-99,hard,,1.1338236999999936,['n'],1,right,['0'],6,0.36996390000058454,27,,,,,,,29,18,Man,Links,2,
,xotask,dotcolour,dotcolour,18,3,198,498,main,negativefb,-99,easy,,0.7180499999994936,['c'],1,left,['8'],4,0.5828734000006079,73,,,,,,,29,18,Man,Links,2,
,xotask,dotcolour,dotcolour,19,3,199,499,main,negativefb,-99,easy,,1.2512012000006507,['n'],1,right,['9'],5,0.3268487000004825,9,,,,,,,29,18,Man,Links,2,
,xotask,dotcolour,dotcolour,20,3,200,500,main,negativefb,-99,easy,,2.1341774000011355,['c'],1,left,['8'],4,0.1805077999997593,71,,,,,,,29,18,Man,Links,2,
,xotask,dotcolour,dotcolour,21,3,201,501,main,negativefb,-99,hard,,1.3672270000006392,['c'],1,left,['9'],5,0.5525938000009774,50,,,,,,,29,18,Man,Links,2,
,xotask,dotcolour,dotcolour,22,3,202,502,main,negativefb,-99,hard,,1.0517568999985087,['n'],0,left,['9'],5,0.24002159999872674,52,,,,,,,29,18,Man,Links,2,
,xotask,dotcolour,dotcolour,23,3,203,503,main,negativefb,-99,hard,,1.034299299999475,['n'],0,left,['8'],4,0.1188454000002821,52,,,,,,,29,18,Man,Links,2,
,xotask,dotcolour,dotcolour,24,3,204,504,main,negativefb,-99,hard,,0.8839044000014837,['n'],1,right,['0'],6,0.2790214999986347,26,,,,,,,29,18,Man,Links,2,
,xotask,dotcolour,dotcolour,25,3,205,505,main,negativefb,-99,easy,,1.383795600000667,['n'],0,left,['8'],4,0.10175549999985378,73,,,,,,,29,18,Man,Links,2,
,xotask,dotcolour,dotcolour,26,3,206,506,main,negativefb,-99,hard,,0.7996358000000328,['n'],1,right,['8'],4,0.22614679999969667,28,,,,,,,29,18,Man,Links,2,
,xotask,dotcolour,dotcolour,27,3,207,507,main,negativefb,-99,average,,0.8500975999995717,['c'],1,left,['9'],5,0.2805377000004228,60,,,,,,,29,18,Man,Links,2,
,xotask,dotcolour,dotcolour,28,3,208,508,main,negativefb,-99,hard,,0.7843804000003729,['c'],1,left,['9'],5,0.22324579999985872,50,,,,,,,29,18,Man,Links,2,
,xotask,dotcolour,dotcolour,29,3,209,509,main,negativefb,-99,average,,1.266789900000731,['n'],0,left,['9'],5,0.08404730000074778,60,,,,,,,29,18,Man,Links,2,
,xotask,dotcolour,dotcolour,30,3,210,510,main,negativefb,-99,hard,,0.6337447000005341,['n'],1,right,['9'],5,0.26455320000059146,26,,,,,,,29,18,Man,Links,2,
,xotask,dotcolour,dotcolour,31,3,211,511,main,negativefb,-99,easy,,0.7174517999992531,['c'],1,left,['9'],5,0.12937530000090192,73,,,,,,,29,18,Man,Links,2,
,xotask,dotcolour,dotcolour,32,3,212,512,main,negativefb,-99,hard,,0.7178022999996756,['c'],1,left,['8'],4,0.24878759999955946,51,,,,,,,29,18,Man,Links,2,
,xotask,dotcolour,dotcolour,33,3,213,513,main,negativefb,-99,hard,,0.7347822000010638,['n'],0,left,['0'],6,0.17883640000036394,53,,,,,,,29,18,Man,Links,2,
,xotask,dotcolour,dotcolour,34,3,214,514,main,negativefb,-99,average,,0.7518541000008554,['n'],1,right,['9'],5,0.22275870000157738,17,,,,,,,29,18,Man,Links,2,
,xotask,dotcolour,dotcolour,35,3,215,515,main,negativefb,-99,hard,,0.7348204999998416,['n'],1,right,['8'],4,0.20926200000030803,25,,,,,,,29,18,Man,Links,2,
,xotask,dotcolour,dotcolour,36,3,216,516,main,negativefb,-99,hard,,0.9345382000010432,['n'],1,right,['9'],5,0.22085119999974268,27,,,,,,,29,18,Man,Links,2,
,xotask,dotcolour,dotcolour,37,3,217,517,main,negativefb,-99,hard,,0.8184693999992305,['c'],0,right,['0'],6,0.14733410000008007,28,,,,,,,29,18,Man,Links,2,
,xotask,dotcolour,dotcolour,38,3,218,518,main,negativefb,-99,average,,2.249847899998713,['c'],0,right,['8'],4,0.292099700000108,15,,,,,,,29,18,Man,Links,2,
,xotask,dotcolour,dotcolour,39,3,219,519,main,negativefb,-99,easy,,0.7849487000003137,['n'],1,right,['9'],5,0.1626773999996658,7,,,,,,,29,18,Man,Links,2,
,xotask,dotcolour,dotcolour,40,3,220,520,main,negativefb,-99,average,,0.9846295999996073,['n'],1,right,['9'],5,0.16618060000109836,19,,,,,,,29,18,Man,Links,2,
,xotask,dotcolour,dotcolour,41,3,221,521,main,negativefb,-99,easy,,0.9674871999995958,['n'],1,right,['9'],5,0.19319759999962116,7,,,,,,,29,18,Man,Links,2,
,xotask,dotcolour,dotcolour,42,3,222,522,main,negativefb,-99,average,,2.068514200000209,['n'],1,right,['8'],4,0.38388620000114315,18,,,,,,,29,18,Man,Links,2,
,xotask,dotcolour,dotcolour,43,3,223,523,main,negativefb,-99,hard,,0.6515729000002466,['n'],1,right,['8'],4,0.03152050000062445,27,,,,,,,29,18,Man,Links,2,
,xotask,dotcolour,dotcolour,44,3,224,524,main,negativefb,-99,average,,0.6837582999996812,['c'],1,left,['0'],6,0.21135669999966922,64,,,,,,,29,18,Man,Links,2,
,xotask,dotcolour,dotcolour,45,3,225,525,main,negativefb,-99,easy,,0.7174212999998417,['c'],1,left,['0'],6,0.11115140000038082,71,,,,,,,29,18,Man,Links,2,
,xotask,dotcolour,dotcolour,46,3,226,526,main,negativefb,-99,average,,0.7675218999993376,['n'],1,right,['9'],5,0.36525450000044657,16,,,,,,,29,18,Man,Links,2,
,xotask,dotcolour,dotcolour,47,3,227,527,main,negativefb,-99,easy,,0.6683701999991172,['n'],1,right,['8'],4,0.2690722999996069,8,,,,,,,29,18,Man,Links,2,
,xotask,dotcolour,dotcolour,48,3,228,528,main,negativefb,-99,average,,0.8179376999996748,['c'],1,left,['8'],4,0.16132370000013907,61,,,,,,,29,18,Man,Links,2,
,xotask,dotcolour,dotcolour,49,3,229,529,main,negativefb,-99,average,,0.6833265000004758,['n'],1,right,['9'],5,0.2173096999995323,19,,,,,,,29,18,Man,Links,2,
,xotask,dotcolour,dotcolour,50,3,230,530,main,negativefb,-99,easy,,0.7850104999997711,['n'],0,left,['8'],4,0.18546710000009625,70,,,,,,,29,18,Man,Links,2,
,xotask,dotcolour,dotcolour,51,3,231,531,main,negativefb,-99,hard,,0.6843465000001743,['c'],1,left,['9'],5,0.16783740000028047,54,,,,,,,29,18,Man,Links,2,
,xotask,dotcolour,dotcolour,52,3,232,532,main,negativefb,-99,hard,,0.8189449999990757,['c'],0,right,['9'],5,0.3127645000004122,29,,,,,,,29,18,Man,Links,2,
,xotask,dotcolour,dotcolour,53,3,233,533,main,negativefb,-99,hard,,0.7014763000006496,['c'],1,left,['0'],6,0.32176369999979215,50,,,,,,,29,18,Man,Links,2,
,xotask,dotcolour,dotcolour,54,3,234,534,main,negativefb,-99,easy,,0.6341518000008364,['c'],1,left,['0'],6,0.1489514999993844,70,,,,,,,29,18,Man,Links,2,
,xotask,dotcolour,dotcolour,55,3,235,535,main,negativefb,-99,hard,,0.6844192000007752,['n'],0,left,['8'],4,0.11547549999886542,50,,,,,,,29,18,Man,Links,2,
,xotask,dotcolour,dotcolour,56,3,236,536,main,negativefb,-99,average,,0.8507200999993074,['c'],0,right,['1'],1,1.1423092000004544,19,,,,,,,29,18,Man,Links,2,
,xotask,dotcolour,dotcolour,57,3,237,537,main,negativefb,-99,average,,0.8343174999990879,['c'],1,left,['9'],5,0.295604099999764,61,,,,,,,29,18,Man,Links,2,
,xotask,dotcolour,dotcolour,58,3,238,538,main,negativefb,-99,easy,,2.217959999999948,['c'],1,left,['8'],4,0.7006784999994125,73,,,,,,,29,18,Man,Links,2,
,xotask,dotcolour,dotcolour,59,3,239,539,main,negativefb,-99,average,,0.9005183999997826,['c'],1,left,['9'],5,0.12516820000018924,60,,,,,,,29,18,Man,Links,2,
,xotask,dotcolour,dotcolour,0,4,240,540,main,negativefb,-99,easy,,0.7512253999993845,['n'],1,right,['9'],5,0.18403500000022177,8,,,,,,,29,18,Man,Links,2,
,xotask,dotcolour,dotcolour,1,4,241,541,main,negativefb,-99,average,,0.8174586000004638,['c'],0,right,['8'],4,0.37714280000000144,19,,,,,,,29,18,Man,Links,2,
,xotask,dotcolour,dotcolour,2,4,242,542,main,negativefb,-99,hard,,0.7338395999995555,['c'],1,left,['9'],5,0.1890227000003506,53,,,,,,,29,18,Man,Links,2,
,xotask,dotcolour,dotcolour,3,4,243,543,main,negativefb,-99,easy,,0.6182017000010092,['c'],1,left,['0'],6,0.22298269999919285,71,,,,,,,29,18,Man,Links,2,
,xotask,dotcolour,dotcolour,4,4,244,544,main,negativefb,-99,hard,,1.0844023999998171,['n'],1,right,['9'],5,0.18667079999977432,25,,,,,,,29,18,Man,Links,2,
,xotask,dotcolour,dotcolour,5,4,245,545,main,negativefb,-99,easy,,0.700660100001187,['c'],1,left,['8'],4,0.12001870000131021,74,,,,,,,29,18,Man,Links,2,
,xotask,dotcolour,dotcolour,6,4,246,546,main,negativefb,-99,easy,,0.649962500001493,['n'],1,right,['0'],6,0.1462712000011379,6,,,,,,,29,18,Man,Links,2,
,xotask,dotcolour,dotcolour,7,4,247,547,main,negativefb,-99,hard,,0.6342205000000831,['n'],0,left,['8'],4,0.15597840000009455,54,,,,,,,29,18,Man,Links,2,
,xotask,dotcolour,dotcolour,8,4,248,548,main,negativefb,-99,hard,,0.7332379999988916,['n'],0,left,['9'],5,0.13734010000007402,54,,,,,,,29,18,Man,Links,2,
,xotask,dotcolour,dotcolour,9,4,249,549,main,negativefb,-99,average,,0.717719299998862,['c'],1,left,['9'],5,0.10446480000064184,64,,,,,,,29,18,Man,Links,2,
,xotask,dotcolour,dotcolour,10,4,250,550,main,negativefb,-99,hard,,0.6332630000015342,['n'],1,right,['8'],4,0.11562179999964428,27,,,,,,,29,18,Man,Links,2,
,xotask,dotcolour,dotcolour,11,4,251,551,main,negativefb,-99,average,,0.8005984000010358,['c'],1,left,['9'],5,0.10385199999836914,61,,,,,,,29,18,Man,Links,2,
,xotask,dotcolour,dotcolour,12,4,252,552,main,negativefb,-99,hard,,1.2843174999998155,['n'],1,right,['9'],5,0.18521099999998114,27,,,,,,,29,18,Man,Links,2,
,xotask,dotcolour,dotcolour,13,4,253,553,main,negativefb,-99,hard,,0.8842687000014848,['n'],0,left,['8'],4,0.1987422999991395,51,,,,,,,29,18,Man,Links,2,
,xotask,dotcolour,dotcolour,14,4,254,554,main,negativefb,-99,hard,,0.8171053000005486,['c'],0,right,['8'],4,0.21546219999981986,27,,,,,,,29,18,Man,Links,2,
,xotask,dotcolour,dotcolour,15,4,255,555,main,negativefb,-99,average,,0.8177780000005441,['c'],1,left,['9'],5,0.1898579000007885,62,,,,,,,29,18,Man,Links,2,
,xotask,dotcolour,dotcolour,16,4,256,556,main,negativefb,-99,average,,0.968586699998923,['c'],0,right,['9'],5,0.16047409999919182,18,,,,,,,29,18,Man,Links,2,
,xotask,dotcolour,dotcolour,17,4,257,557,main,negativefb,-99,average,,0.7506758000017726,['n'],1,right,['9'],5,0.13351349999902595,15,,,,,,,29,18,Man,Links,2,
,xotask,dotcolour,dotcolour,18,4,258,558,main,negativefb,-99,easy,,0.8339252000005217,['c'],1,left,['8'],4,0.17551889999958803,70,,,,,,,29,18,Man,Links,2,
,xotask,dotcolour,dotcolour,19,4,259,559,main,negativefb,-99,average,,0.7680430000000342,['n'],1,right,['8'],4,0.15553660000114178,18,,,,,,,29,18,Man,Links,2,
,xotask,dotcolour,dotcolour,20,4,260,560,main,negativefb,-99,hard,,0.7672758000007889,['n'],0,left,['8'],4,0.15911419999974896,53,,,,,,,29,18,Man,Links,2,
,xotask,dotcolour,dotcolour,21,4,261,561,main,negativefb,-99,average,,1.0168025000002672,['c'],1,left,['9'],5,0.20883130000038364,63,,,,,,,29,18,Man,Links,2,
,xotask,dotcolour,dotcolour,22,4,262,562,main,negativefb,-99,hard,,1.1846095000000787,['c'],0,right,['9'],5,0.1864610000011453,29,,,,,,,29,18,Man,Links,2,
,xotask,dotcolour,dotcolour,23,4,263,563,main,negativefb,-99,hard,,1.2661098999997193,['n'],0,left,['9'],5,0.14502389999870502,50,,,,,,,29,18,Man,Links,2,
,xotask,dotcolour,dotcolour,24,4,264,564,main,negativefb,-99,average,,0.7512643999998545,['c'],1,left,['9'],5,0.15018469999995432,60,,,,,,,29,18,Man,Links,2,
,xotask,dotcolour,dotcolour,25,4,265,565,main,negativefb,-99,easy,,0.799666700000671,['c'],1,left,['8'],4,0.23309189999963564,73,,,,,,,29,18,Man,Links,2,
,xotask,dotcolour,dotcolour,26,4,266,566,main,negativefb,-99,easy,,0.6846560000012687,['n'],1,right,['9'],5,0.17330379999839352,5,,,,,,,29,18,Man,Links,2,
,xotask,dotcolour,dotcolour,27,4,267,567,main,negativefb,-99,average,,1.0511824999994133,['n'],1,right,['8'],4,0.15704590000132157,16,,,,,,,29,18,Man,Links,2,
,xotask,dotcolour,dotcolour,28,4,268,568,main,negativefb,-99,hard,,0.8017846000002464,['n'],1,right,['0'],6,0.12719990000005055,25,,,,,,,29,18,Man,Links,2,
,xotask,dotcolour,dotcolour,29,4,269,569,main,negativefb,-99,easy,,1.1176838999999745,['n'],0,left,['9'],5,0.4474986999994144,71,,,,,,,29,18,Man,Links,2,
,xotask,dotcolour,dotcolour,30,4,270,570,main,negativefb,-99,easy,,0.6340712000001076,['c'],1,left,['8'],4,0.34829309999986435,71,,,,,,,29,18,Man,Links,2,
,xotask,dotcolour,dotcolour,31,4,271,571,main,negativefb,-99,easy,,0.8009456999989197,['n'],1,right,['9'],5,0.19984570000087842,8,,,,,,,29,18,Man,Links,2,
,xotask,dotcolour,dotcolour,32,4,272,572,main,negativefb,-99,average,,1.1843724000009388,['n'],0,left,['0'],6,0.2808585000002495,62,,,,,,,29,18,Man,Links,2,
,xotask,dotcolour,dotcolour,33,4,273,573,main,negativefb,-99,average,,0.9179922999992414,['c'],1,left,['9'],5,0.0656806000006327,62,,,,,,,29,18,Man,Links,2,
,xotask,dotcolour,dotcolour,34,4,274,574,main,negativefb,-99,easy,,1.1329019000004337,['c'],1,left,['9'],5,0.2104298000012932,71,,,,,,,29,18,Man,Links,2,
,xotask,dotcolour,dotcolour,35,4,275,575,main,negativefb,-99,hard,,1.4007028999985778,['n'],1,right,['9'],5,0.35508719999961613,25,,,,,,,29,18,Man,Links,2,
,xotask,dotcolour,dotcolour,36,4,276,576,main,negativefb,-99,easy,,1.484263500000452,['c'],0,right,['8'],4,0.22667360000014014,9,,,,,,,29,18,Man,Links,2,
,xotask,dotcolour,dotcolour,37,4,277,577,main,negativefb,-99,hard,,0.900728300000992,['n'],0,left,['8'],4,0.12600600000041595,54,,,,,,,29,18,Man,Links,2,
,xotask,dotcolour,dotcolour,38,4,278,578,main,negativefb,-99,easy,,1.0840257999989262,['c'],1,left,['9'],5,0.13555129999986093,70,,,,,,,29,18,Man,Links,2,
,xotask,dotcolour,dotcolour,39,4,279,579,main,negativefb,-99,average,,1.1676306999997905,['n'],1,right,['8'],4,0.1712885000015376,19,,,,,,,29,18,Man,Links,2,
,xotask,dotcolour,dotcolour,40,4,280,580,main,negativefb,-99,hard,,2.7676791999983834,['c'],0,right,['9'],5,1.3114975999997114,28,,,,,,,29,18,Man,Links,2,
,xotask,dotcolour,dotcolour,41,4,281,581,main,negativefb,-99,average,,0.8168980000009469,['n'],1,right,['9'],5,0.21125779999965744,18,,,,,,,29,18,Man,Links,2,
,xotask,dotcolour,dotcolour,42,4,282,582,main,negativefb,-99,average,,0.7851809000003414,['n'],1,right,['0'],6,0.3244106999991345,15,,,,,,,29,18,Man,Links,2,
,xotask,dotcolour,dotcolour,43,4,283,583,main,negativefb,-99,average,,1.0680509000012535,['n'],1,right,['8'],4,0.32533190000140166,19,,,,,,,29,18,Man,Links,2,
,xotask,dotcolour,dotcolour,44,4,284,584,main,negativefb,-99,hard,,0.783667499999865,['n'],1,right,['9'],5,0.2582195999984833,29,,,,,,,29,18,Man,Links,2,
,xotask,dotcolour,dotcolour,45,4,285,585,main,negativefb,-99,hard,,0.7011397999995097,['n'],0,left,['0'],6,0.34922030000052473,53,,,,,,,29,18,Man,Links,2,
,xotask,dotcolour,dotcolour,46,4,286,586,main,negativefb,-99,easy,,0.6516355999992811,['n'],1,right,['0'],6,0.24559129999943252,5,,,,,,,29,18,Man,Links,2,
,xotask,dotcolour,dotcolour,47,4,287,587,main,negativefb,-99,easy,,0.666893199999322,['c'],1,left,['8'],4,0.2825801999988471,70,,,,,,,29,18,Man,Links,2,
,xotask,dotcolour,dotcolour,48,4,288,588,main,negativefb,-99,easy,,0.7008736999996472,['n'],1,right,['9'],5,0.2757024000002275,6,,,,,,,29,18,Man,Links,2,
,xotask,dotcolour,dotcolour,49,4,289,589,main,negativefb,-99,easy,,0.6002812000006088,['c'],1,left,['9'],5,0.2095303000005515,70,,,,,,,29,18,Man,Links,2,
,xotask,dotcolour,dotcolour,50,4,290,590,main,negativefb,-99,easy,,0.885136999999304,['n'],1,right,['0'],6,0.2794998999997915,9,,,,,,,29,18,Man,Links,2,
,xotask,dotcolour,dotcolour,51,4,291,591,main,negativefb,-99,average,,0.6835253000008379,['c'],0,right,['9'],5,0.4016707000009774,18,,,,,,,29,18,Man,Links,2,
,xotask,dotcolour,dotcolour,52,4,292,592,main,negativefb,-99,easy,,0.6345073000011325,['n'],1,right,['9'],5,0.2246820000000298,6,,,,,,,29,18,Man,Links,2,
,xotask,dotcolour,dotcolour,53,4,293,593,main,negativefb,-99,hard,,0.7847374999983003,['n'],0,left,['8'],4,0.40161970000008296,50,,,,,,,29,18,Man,Links,2,
,xotask,dotcolour,dotcolour,54,4,294,594,main,negativefb,-99,average,,0.9519798999990599,['n'],0,left,['9'],5,0.6202504000011686,63,,,,,,,29,18,Man,Links,2,
,xotask,dotcolour,dotcolour,55,4,295,595,main,negativefb,-99,hard,,1.1350344999991648,['n'],1,right,['9'],5,0.44676869999966584,29,,,,,,,29,18,Man,Links,2,
,xotask,dotcolour,dotcolour,56,4,296,596,main,negativefb,-99,average,,0.9171642999990581,['c'],1,left,['0'],6,0.473478800000521,63,,,,,,,29,18,Man,Links,2,
,xotask,dotcolour,dotcolour,57,4,297,597,main,negativefb,-99,average,,0.7009933000008459,['c'],1,left,['9'],5,0.3875797999990027,64,,,,,,,29,18,Man,Links,2,
,xotask,dotcolour,dotcolour,58,4,298,598,main,negativefb,-99,hard,,0.6517557999995915,['c'],1,left,['8'],4,0.23468619999948714,53,,,,,,,29,18,Man,Links,2,
,xotask,dotcolour,dotcolour,59,4,299,599,main,negativefb,-99,easy,,0.6686468000007153,['n'],1,right,['9'],5,0.19220919999861508,5,,,,,,,29,18,Man,Links,2,
,dotcolour,dotcolour,dotcolour,0,0,0,600,training,negativefb,84,average,27,0.8174039000004996,['n'],1,right,['9'],5,0.42629769999985,,,,,,,,29,18,Man,Links,2,
,dotcolour,dotcolour,dotcolour,1,0,1,601,training,negativefb,80,hard,39,0.8999865999994654,['n'],1,right,['8'],4,0.12575920000017504,,,,,,,,29,18,Man,Links,2,
,dotcolour,dotcolour,dotcolour,2,0,2,602,training,negativefb,65,hard,44,0.6664595000002009,['c'],1,left,['8'],4,0.11063979999926232,,,,,,,,29,18,Man,Links,2,
,dotcolour,dotcolour,dotcolour,3,0,3,603,training,negativefb,59,average,25,0.6680340000002616,['n'],1,right,['9'],5,0.10423039999841421,,,,,,,,29,18,Man,Links,2,
,dotcolour,dotcolour,dotcolour,4,0,4,604,training,negativefb,46,easy,61,0.5674322999984724,['c'],1,left,['0'],6,0.1815948000003118,,,,,,,,29,18,Man,Links,2,
,dotcolour,dotcolour,dotcolour,5,0,5,605,training,negativefb,31,hard,45,1.1167662999996537,['c'],1,left,['9'],5,0.2651494999990973,,,,,,,,29,18,Man,Links,2,
,dotcolour,dotcolour,dotcolour,6,0,6,606,training,negativefb,86,easy,15,0.7005427000003692,['n'],1,right,['8'],4,0.2747353999984625,,,,,,,,29,18,Man,Links,2,
,dotcolour,dotcolour,dotcolour,7,0,7,607,training,negativefb,53,average,28,0.7330547000001388,['c'],0,right,['9'],5,0.05867799999941781,,,,,,,,29,18,Man,Links,2,
,dotcolour,dotcolour,dotcolour,8,0,8,608,training,negativefb,89,easy,64,0.49925380000058794,['c'],1,left,['9'],5,0.1971584000002622,,,,,,,,29,18,Man,Links,2,
,dotcolour,dotcolour,dotcolour,9,0,9,609,training,negativefb,80,average,55,0.49953310000091733,['c'],1,left,['0'],6,0.15298390000134532,,,,,,,,29,18,Man,Links,2,
,dotcolour,dotcolour,dotcolour,10,0,10,610,training,negativefb,43,easy,18,0.5828486999998859,['n'],1,right,['9'],5,0.1796329999997397,,,,,,,,29,18,Man,Links,2,
,dotcolour,dotcolour,dotcolour,11,0,11,611,training,negativefb,55,average,51,0.7672308000001067,['c'],1,left,['9'],5,0.2788409999993746,,,,,,,,29,18,Man,Links,2,
,dotcolour,dotcolour,dotcolour,12,0,12,612,training,negativefb,70,hard,42,0.7000122999997984,['c'],1,left,['9'],5,0.18456069999956526,,,,,,,,29,18,Man,Links,2,
,dotcolour,dotcolour,dotcolour,13,0,13,613,training,negativefb,66,hard,43,0.6998997999999119,['c'],1,left,['8'],4,0.08438639999985753,,,,,,,,29,18,Man,Links,2,
,dotcolour,dotcolour,dotcolour,14,0,14,614,training,negativefb,68,average,28,1.0348085000005085,['n'],1,right,['9'],5,0.22448479999911797,,,,,,,,29,18,Man,Links,2,
,dotcolour,dotcolour,dotcolour,15,0,15,615,training,negativefb,70,easy,63,0.666643300000942,['c'],1,left,['9'],5,0.16539750000083586,,,,,,,,29,18,Man,Links,2,
,dotcolour,dotcolour,dotcolour,16,0,16,616,training,negativefb,70,average,28,0.9676109000010911,['n'],1,right,['8'],4,0.11953680000078748,,,,,,,,29,18,Man,Links,2,
,dotcolour,dotcolour,dotcolour,17,0,17,617,training,negativefb,80,easy,16,0.6331582000002527,['n'],1,right,['9'],5,0.1132329000010941,,,,,,,,29,18,Man,Links,2,
,dotcolour,dotcolour,dotcolour,18,0,18,618,training,negativefb,41,average,27,1.1335507999992842,['c'],0,right,['9'],5,0.1998622000010073,,,,,,,,29,18,Man,Links,2,
,dotcolour,dotcolour,dotcolour,19,0,19,619,training,negativefb,54,average,52,0.6663962000002357,['c'],1,left,['9'],5,0.237351599998874,,,,,,,,29,18,Man,Links,2,
,dotcolour,dotcolour,dotcolour,20,0,20,620,training,negativefb,6,hard,37,0.8653608000004169,['n'],1,right,['9'],5,0.6579504999990604,,,,,,,,29,18,Man,Links,2,
,dotcolour,dotcolour,dotcolour,21,0,21,621,training,negativefb,68,hard,38,0.8677220000008674,['c'],0,right,['8'],4,0.2132158000003983,,,,,,,,29,18,Man,Links,2,
,dotcolour,dotcolour,dotcolour,22,0,22,622,training,negativefb,51,easy,18,0.6345797000012681,['n'],1,right,['0'],6,0.25129999999990105,,,,,,,,29,18,Man,Links,2,
,dotcolour,dotcolour,dotcolour,23,0,23,623,training,negativefb,72,hard,42,1.250800199999503,['c'],1,left,['8'],4,0.2960149000009551,,,,,,,,29,18,Man,Links,2,
,dotcolour,dotcolour,dotcolour,24,0,24,624,training,negativefb,68,easy,65,0.8324943999996322,['c'],1,left,['9'],5,0.1311214999986987,,,,,,,,29,18,Man,Links,2,
,dotcolour,dotcolour,dotcolour,25,0,25,625,training,negativefb,40,hard,36,0.6991252999996505,['c'],0,right,['9'],5,0.3950406000003568,,,,,,,,29,18,Man,Links,2,
,dotcolour,dotcolour,dotcolour,26,0,26,626,training,negativefb,57,average,52,0.7842840000012075,['c'],1,left,['0'],6,0.37164409999968484,,,,,,,,29,18,Man,Links,2,
,dotcolour,dotcolour,dotcolour,27,0,27,627,training,negativefb,37,hard,39,0.7497740999988309,['c'],0,right,['8'],4,0.07864950000112003,,,,,,,,29,18,Man,Links,2,
,dotcolour,dotcolour,dotcolour,28,0,28,628,training,negativefb,79,easy,61,0.9184633999993821,['c'],1,left,['9'],5,0.10392379999939294,,,,,,,,29,18,Man,Links,2,
