starttime,task,fbtask,firsttask,withinblocktrial,block,withintasktrial,trial,running,feedback,fbscore,difflevel,n_xes,rt,resp,cor,cresp,conf_press,cj,RTconf,reddots,stoptime,sub,age,gender,handedness,session,
1715070706,xotask,xotask,xotask,0,0,0,0,training,positivefb,98,hard,29,2.8015614999999343,['n'],1,right,['8'],4,2.4223780999998326,,,24,19,Vrouw,Rechts,1,
,xotask,xotask,xotask,1,0,1,1,training,positivefb,98,easy,7,1.6347630000000208,['n'],1,right,['8'],4,0.658874699999842,,,24,19,Vrouw,Rechts,1,
,xotask,xotask,xotask,2,0,2,2,training,positivefb,9,average,19,2.267187599999943,['c'],0,right,['3'],3,1.1982520999999906,,,24,19,Vrouw,Rechts,1,
,xotask,xotask,xotask,3,0,3,3,training,positivefb,94,average,18,2.5833375999998225,['n'],1,right,['8'],4,0.9021155000000363,,,24,19,Vrouw,Rechts,1,
,xotask,xotask,xotask,4,0,4,4,training,positivefb,78,hard,26,1.767186699999911,['n'],1,right,['9'],5,0.6841726000000108,,,24,19,Vrouw,Rechts,1,
,xotask,xotask,xotask,5,0,5,5,training,positivefb,70,easy,73,1.5654945000001135,['n'],0,left,['8'],4,0.8975530999998682,,,24,19,Vrouw,Rechts,1,
,xotask,xotask,xotask,6,0,6,6,training,positivefb,86,hard,53,1.6000063999999838,['n'],0,left,['8'],4,0.7419680000000426,,,24,19,Vrouw,Rechts,1,
,xotask,xotask,xotask,7,0,7,7,training,positivefb,94,average,60,1.8661537999998927,['c'],1,left,['8'],4,0.6858322999999018,,,24,19,Vrouw,Rechts,1,
,xotask,xotask,xotask,8,0,8,8,training,positivefb,92,average,18,2.8496217000001707,['n'],1,right,['8'],4,0.6965066000000206,,,24,19,Vrouw,Rechts,1,
,xotask,xotask,xotask,9,0,9,9,training,positivefb,84,easy,8,1.1679575000000568,['n'],1,right,['9'],5,0.6946771000000354,,,24,19,Vrouw,Rechts,1,
,xotask,xotask,xotask,10,0,10,10,training,positivefb,93,hard,26,1.950079599999981,['n'],1,right,['9'],5,0.5976607999998578,,,24,19,Vrouw,Rechts,1,
,xotask,xotask,xotask,11,0,11,11,training,positivefb,98,average,16,1.3325702999998157,['n'],1,right,['0'],6,0.6083200000000488,,,24,19,Vrouw,Rechts,1,
,xotask,xotask,xotask,12,0,12,12,training,positivefb,98,average,17,1.1671323000000484,['n'],1,right,['0'],6,0.6583781000001636,,,24,19,Vrouw,Rechts,1,
,xotask,xotask,xotask,13,0,13,13,training,positivefb,92,easy,74,1.3494642999999087,['c'],1,left,['9'],5,0.8822984999999335,,,24,19,Vrouw,Rechts,1,
,xotask,xotask,xotask,14,0,14,14,training,positivefb,97,hard,53,1.067511199999899,['c'],1,left,['9'],5,0.49975869999980205,,,24,19,Vrouw,Rechts,1,
,xotask,xotask,xotask,15,0,15,15,training,positivefb,98,easy,7,1.0496618000001945,['n'],1,right,['9'],5,0.6220488999999816,,,24,19,Vrouw,Rechts,1,
,xotask,xotask,xotask,16,0,16,16,training,positivefb,57,hard,28,1.383115699999962,['n'],1,right,['8'],4,0.9105749000000287,,,24,19,Vrouw,Rechts,1,
,xotask,xotask,xotask,17,0,17,17,training,positivefb,45,easy,9,3.516648900000064,['c'],0,right,['8'],4,0.47706719999996494,,,24,19,Vrouw,Rechts,1,
,xotask,xotask,xotask,18,0,18,18,training,positivefb,88,easy,72,1.1496088999999756,['c'],1,left,['9'],5,0.38823710000019673,,,24,19,Vrouw,Rechts,1,
,xotask,xotask,xotask,19,0,19,19,training,positivefb,95,hard,29,1.3672271000000364,['n'],1,right,['9'],5,0.7109692999999879,,,24,19,Vrouw,Rechts,1,
,xotask,xotask,xotask,20,0,20,20,training,positivefb,50,hard,51,1.8496946000000207,['c'],1,left,['8'],4,1.0327283999999963,,,24,19,Vrouw,Rechts,1,
,xotask,xotask,xotask,21,0,21,21,training,positivefb,99,easy,9,1.068813500000033,['n'],1,right,['9'],5,0.6765316999999413,,,24,19,Vrouw,Rechts,1,
,xotask,xotask,xotask,22,0,22,22,training,positivefb,78,average,61,1.1667609999999513,['c'],1,left,['9'],5,0.4753920000000562,,,24,19,Vrouw,Rechts,1,
,xotask,xotask,xotask,23,0,23,23,training,positivefb,88,easy,7,0.9831483000000389,['n'],1,right,['9'],5,0.5128310000000056,,,24,19,Vrouw,Rechts,1,
,xotask,xotask,xotask,24,0,24,24,training,positivefb,98,hard,29,1.2335679000000255,['n'],1,right,['9'],5,0.9161811999999827,,,24,19,Vrouw,Rechts,1,
,xotask,xotask,xotask,25,0,25,25,training,positivefb,82,hard,52,0.8503390999999283,['c'],1,left,['0'],6,0.6853072999999767,,,24,19,Vrouw,Rechts,1,
,xotask,xotask,xotask,26,0,26,26,training,positivefb,83,average,60,1.6004408999999669,['c'],1,left,['8'],4,0.7943367000000308,,,24,19,Vrouw,Rechts,1,
,xotask,xotask,xotask,27,0,27,27,training,positivefb,99,easy,70,0.8822597000000769,['c'],1,left,['0'],6,0.7911291000000347,,,24,19,Vrouw,Rechts,1,
,xotask,xotask,xotask,28,0,28,28,training,positivefb,92,easy,5,1.050585799999908,['n'],1,right,['0'],6,0.6864886000000752,,,24,19,Vrouw,Rechts,1,
,xotask,xotask,xotask,29,0,29,29,training,positivefb,96,average,15,1.1674132000000554,['n'],1,right,['9'],5,1.0035957999998573,,,24,19,Vrouw,Rechts,1,
,xotask,xotask,xotask,30,0,30,30,training,positivefb,74,average,64,1.3825702999999976,['c'],1,left,['9'],5,0.4767115999998168,,,24,19,Vrouw,Rechts,1,
,xotask,xotask,xotask,31,0,31,31,training,positivefb,80,easy,70,1.0842384999998558,['c'],1,left,['0'],6,0.4382634999999482,,,24,19,Vrouw,Rechts,1,
,xotask,xotask,xotask,32,0,32,32,training,positivefb,98,easy,73,0.9340520000000652,['c'],1,left,['0'],6,0.9437464000000091,,,24,19,Vrouw,Rechts,1,
,xotask,xotask,xotask,33,0,33,33,training,positivefb,99,easy,9,1.8163535999999567,['n'],1,right,['9'],5,0.6423420999999507,,,24,19,Vrouw,Rechts,1,
,xotask,xotask,xotask,34,0,34,34,training,positivefb,93,average,17,2.3829573999998956,['n'],1,right,['9'],5,2.577506400000175,,,24,19,Vrouw,Rechts,1,
,xotask,xotask,xotask,35,0,35,35,training,positivefb,94,easy,72,0.9333133000000089,['c'],1,left,['0'],6,0.6133755999999266,,,24,19,Vrouw,Rechts,1,
,xotask,xotask,xotask,36,0,36,36,training,positivefb,69,hard,26,3.5665619999999763,['c'],0,right,['8'],4,0.6146574000001692,,,24,19,Vrouw,Rechts,1,
,xotask,xotask,xotask,37,0,37,37,training,positivefb,95,average,15,1.5823766000000887,['n'],1,right,['9'],5,0.5346039000000928,,,24,19,Vrouw,Rechts,1,
,xotask,xotask,xotask,38,0,38,38,training,positivefb,85,average,64,0.9840030999998817,['c'],1,left,['0'],6,0.6337682000000768,,,24,19,Vrouw,Rechts,1,
,xotask,xotask,xotask,39,0,39,39,training,positivefb,96,easy,71,0.9164077999998881,['c'],1,left,['0'],6,0.7234869000001254,,,24,19,Vrouw,Rechts,1,
,xotask,xotask,xotask,40,0,40,40,training,positivefb,98,easy,74,1.032909600000039,['c'],1,left,['0'],6,0.7180449999998473,,,24,19,Vrouw,Rechts,1,
,xotask,xotask,xotask,41,0,41,41,training,positivefb,99,easy,70,1.1002032999999756,['c'],1,left,['0'],6,0.5726624999999785,,,24,19,Vrouw,Rechts,1,
,xotask,xotask,xotask,42,0,42,42,training,positivefb,95,hard,54,1.0663716000001386,['c'],1,left,['0'],6,0.5394476999999824,,,24,19,Vrouw,Rechts,1,
,xotask,xotask,xotask,43,0,43,43,training,positivefb,96,average,61,1.4001598000004378,['c'],1,left,['9'],5,0.5111321999997926,,,24,19,Vrouw,Rechts,1,
,xotask,xotask,xotask,44,0,44,44,training,positivefb,87,average,17,1.1835092999999688,['n'],1,right,['0'],6,0.5948395999998866,,,24,19,Vrouw,Rechts,1,
,xotask,xotask,xotask,45,0,45,45,training,positivefb,78,hard,27,2.00051940000003,['n'],1,right,['9'],5,0.39571969999997236,,,24,19,Vrouw,Rechts,1,
,xotask,xotask,xotask,46,0,46,46,training,positivefb,70,average,19,1.9005509000003258,['c'],0,right,['9'],5,0.5040906000003815,,,24,19,Vrouw,Rechts,1,
,xotask,xotask,xotask,47,0,47,47,training,positivefb,74,average,63,1.1837115000002996,['c'],1,left,['0'],6,0.4127446000002237,,,24,19,Vrouw,Rechts,1,
,xotask,xotask,xotask,48,0,48,48,training,positivefb,79,hard,54,2.5513952000001154,['c'],1,left,['8'],4,0.8308717999998407,,,24,19,Vrouw,Rechts,1,
,xotask,xotask,xotask,49,0,49,49,training,positivefb,84,hard,50,1.198897599999782,['c'],1,left,['9'],5,0.3414895000000797,,,24,19,Vrouw,Rechts,1,
,xotask,xotask,xotask,50,0,50,50,training,positivefb,93,hard,27,2.216623900000286,['n'],1,right,['9'],5,0.45505199999979595,,,24,19,Vrouw,Rechts,1,
,xotask,xotask,xotask,51,0,51,51,training,positivefb,86,average,61,1.0007256000003508,['c'],1,left,['9'],5,0.43778659999998126,,,24,19,Vrouw,Rechts,1,
,xotask,xotask,xotask,52,0,52,52,training,positivefb,44,easy,7,1.0329751999997825,['c'],0,right,['0'],6,0.5385935999997855,,,24,19,Vrouw,Rechts,1,
,xotask,xotask,xotask,53,0,53,53,training,positivefb,97,hard,51,1.016747199999827,['c'],1,left,['0'],6,0.42100440000012895,,,24,19,Vrouw,Rechts,1,
,xotask,xotask,xotask,54,0,54,54,training,positivefb,94,hard,26,1.1004070999997566,['c'],0,right,['9'],5,0.4168613000001642,,,24,19,Vrouw,Rechts,1,
,xotask,xotask,xotask,55,0,55,55,training,positivefb,84,average,63,0.8833740000000034,['c'],1,left,['0'],6,0.6444125999996686,,,24,19,Vrouw,Rechts,1,
,xotask,xotask,xotask,56,0,56,56,training,positivefb,98,easy,5,1.0346948000001248,['n'],1,right,['0'],6,0.44981430000007094,,,24,19,Vrouw,Rechts,1,
,xotask,xotask,xotask,57,0,57,57,training,positivefb,74,hard,50,1.3995230000000447,['n'],0,left,['9'],5,0.4639447999998083,,,24,19,Vrouw,Rechts,1,
,xotask,xotask,xotask,58,0,58,58,training,positivefb,83,average,60,0.9677228999998988,['c'],1,left,['9'],5,0.44689470000002984,,,24,19,Vrouw,Rechts,1,
,xotask,xotask,xotask,59,0,59,59,training,positivefb,68,hard,52,2.599588500000209,['c'],1,left,['3'],3,2.933940299999904,,,24,19,Vrouw,Rechts,1,
,xotask,xotask,xotask,0,1,60,60,training,positivefb,93,hard,53,1.1346702999999252,['c'],1,left,['9'],5,0.5095069999997577,,,24,19,Vrouw,Rechts,1,
,xotask,xotask,xotask,1,1,61,61,training,positivefb,92,easy,73,1.0665055999998003,['c'],1,left,['0'],6,0.3674206000000595,,,24,19,Vrouw,Rechts,1,
,xotask,xotask,xotask,2,1,62,62,training,positivefb,76,easy,8,0.8164910000000418,['n'],1,right,['0'],6,0.38389219999999113,,,24,19,Vrouw,Rechts,1,
,xotask,xotask,xotask,3,1,63,63,training,positivefb,91,easy,6,0.8509143999999651,['n'],1,right,['0'],6,0.4378953000000365,,,24,19,Vrouw,Rechts,1,
,xotask,xotask,xotask,4,1,64,64,training,positivefb,98,average,61,1.2996046000002934,['c'],1,left,['9'],5,0.8810947000001761,,,24,19,Vrouw,Rechts,1,
,xotask,xotask,xotask,5,1,65,65,training,positivefb,76,average,61,0.7997866000000613,['c'],1,left,['0'],6,0.45387540000001536,,,24,19,Vrouw,Rechts,1,
,xotask,xotask,xotask,6,1,66,66,training,positivefb,95,easy,74,0.9172106000000895,['c'],1,left,['0'],6,0.3113103000000592,,,24,19,Vrouw,Rechts,1,
,xotask,xotask,xotask,7,1,67,67,training,positivefb,96,average,63,0.8334668000002239,['c'],1,left,['0'],6,0.3861696000003576,,,24,19,Vrouw,Rechts,1,
,xotask,xotask,xotask,8,1,68,68,training,positivefb,97,hard,27,0.8841683999999077,['c'],0,right,['0'],6,0.40695729999970354,,,24,19,Vrouw,Rechts,1,
,xotask,xotask,xotask,9,1,69,69,training,positivefb,90,hard,28,1.0833620000003066,['n'],1,right,['9'],5,0.38804899999968256,,,24,19,Vrouw,Rechts,1,
,xotask,xotask,xotask,10,1,70,70,training,positivefb,84,hard,53,3.8836974999999256,['c'],1,left,['9'],5,1.0972756000001027,,,24,19,Vrouw,Rechts,1,
,xotask,xotask,xotask,11,1,71,71,training,positivefb,89,average,17,1.1672450999999455,['n'],1,right,['9'],5,0.27145000000018626,,,24,19,Vrouw,Rechts,1,
,xotask,xotask,xotask,12,1,72,72,training,positivefb,89,easy,74,1.150334599999951,['c'],1,left,['9'],5,0.3822917000002235,,,24,19,Vrouw,Rechts,1,
,xotask,xotask,xotask,13,1,73,73,training,positivefb,93,easy,73,1.350104800000281,['c'],1,left,['0'],6,0.31361900000001697,,,24,19,Vrouw,Rechts,1,
,xotask,xotask,xotask,14,1,74,74,training,positivefb,94,hard,52,0.8499502000004213,['c'],1,left,['9'],5,0.27528129999973316,,,24,19,Vrouw,Rechts,1,
,xotask,xotask,xotask,15,1,75,75,training,positivefb,71,hard,51,1.4500035999999454,['n'],0,left,['9'],5,0.33421009999983653,,,24,19,Vrouw,Rechts,1,
,xotask,xotask,xotask,16,1,76,76,training,positivefb,96,average,16,1.033916500000032,['n'],1,right,['9'],5,0.2955753999999615,,,24,19,Vrouw,Rechts,1,
,xotask,xotask,xotask,17,1,77,77,training,positivefb,59,easy,71,0.8658554000003278,['c'],1,left,['0'],6,0.38514390000000276,,,24,19,Vrouw,Rechts,1,
,xotask,xotask,xotask,18,1,78,78,training,positivefb,75,hard,29,2.816996599999584,['n'],1,right,['8'],4,0.5140777000001435,,,24,19,Vrouw,Rechts,1,
,xotask,xotask,xotask,19,1,79,79,training,positivefb,97,average,19,1.2999735000003056,['n'],1,right,['9'],5,0.33024939999995695,,,24,19,Vrouw,Rechts,1,
,xotask,xotask,xotask,20,1,80,80,training,positivefb,97,average,64,1.133490300000176,['c'],1,left,['9'],5,0.43239149999999427,,,24,19,Vrouw,Rechts,1,
,xotask,xotask,xotask,21,1,81,81,training,positivefb,87,easy,8,1.1333749999998872,['c'],0,right,['0'],6,0.2895818000001782,,,24,19,Vrouw,Rechts,1,
,xotask,xotask,xotask,22,1,82,82,training,positivefb,83,easy,8,0.8005788000000393,['c'],0,right,['0'],6,0.26231989999996586,,,24,19,Vrouw,Rechts,1,
,xotask,xotask,xotask,23,1,83,83,training,positivefb,90,easy,74,1.8157552000002397,['c'],1,left,['0'],6,0.2910242000002654,,,24,19,Vrouw,Rechts,1,
,xotask,xotask,xotask,24,1,84,84,training,positivefb,88,hard,52,1.3332431999997425,['c'],1,left,['9'],5,0.2900730000001204,,,24,19,Vrouw,Rechts,1,
,xotask,xotask,xotask,25,1,85,85,training,positivefb,93,average,61,1.5340164999997796,['c'],1,left,['9'],5,0.29749949999995806,,,24,19,Vrouw,Rechts,1,
,xotask,xotask,xotask,26,1,86,86,training,positivefb,78,hard,54,3.0514045999998416,['c'],1,left,['8'],4,0.3159224999999424,,,24,19,Vrouw,Rechts,1,
,xotask,xotask,xotask,27,1,87,87,training,positivefb,95,easy,5,0.8165417000000161,['n'],1,right,['0'],6,0.8630938000001152,,,24,19,Vrouw,Rechts,1,
,xotask,xotask,xotask,28,1,88,88,training,positivefb,96,easy,6,0.7673514000002797,['n'],1,right,['0'],6,0.4456518000001779,,,24,19,Vrouw,Rechts,1,
,xotask,xotask,xotask,29,1,89,89,training,positivefb,93,average,18,0.7657960000001367,['n'],1,right,['0'],6,0.41381079999973736,,,24,19,Vrouw,Rechts,1,
,xotask,xotask,xotask,30,1,90,90,training,positivefb,90,hard,53,0.7995194999998603,['n'],0,left,['0'],6,0.3253676999997879,,,24,19,Vrouw,Rechts,1,
,xotask,xotask,xotask,31,1,91,91,training,positivefb,68,hard,50,1.4678719000003184,['n'],0,left,['9'],5,0.38234620000002906,,,24,19,Vrouw,Rechts,1,
,xotask,xotask,xotask,32,1,92,92,training,positivefb,92,easy,9,0.716149200000018,['n'],1,right,['0'],6,0.36984690000008413,,,24,19,Vrouw,Rechts,1,
,xotask,xotask,xotask,33,1,93,93,training,positivefb,99,easy,5,1.0504851999999119,['n'],1,right,['0'],6,0.3861314000000675,,,24,19,Vrouw,Rechts,1,
,xotask,xotask,xotask,34,1,94,94,training,positivefb,99,hard,28,0.9002688000000489,['n'],1,right,['9'],5,0.326868199999808,,,24,19,Vrouw,Rechts,1,
,xotask,xotask,xotask,35,1,95,95,training,positivefb,68,easy,71,2.9337992999999187,['c'],1,left,['8'],4,0.7251393000001372,,,24,19,Vrouw,Rechts,1,
,xotask,xotask,xotask,36,1,96,96,training,positivefb,79,hard,52,1.7336599999998725,['c'],1,left,['8'],4,0.2743144000000939,,,24,19,Vrouw,Rechts,1,
,xotask,xotask,xotask,37,1,97,97,training,positivefb,95,average,19,2.300579700000071,['n'],1,right,['9'],5,0.5477974000000359,,,24,19,Vrouw,Rechts,1,
,xotask,xotask,xotask,38,1,98,98,training,positivefb,96,easy,6,0.9341217999999571,['n'],1,right,['0'],6,0.3768681999999899,,,24,19,Vrouw,Rechts,1,
,xotask,xotask,xotask,39,1,99,99,training,positivefb,89,average,18,0.8665359000001445,['n'],1,right,['0'],6,0.47096140000030573,,,24,19,Vrouw,Rechts,1,
,xotask,xotask,xotask,40,1,100,100,training,positivefb,65,easy,71,1.3835368000000017,['n'],0,left,['3'],3,2.2694698000000244,,,24,19,Vrouw,Rechts,1,
,xotask,xotask,xotask,41,1,101,101,training,positivefb,89,average,15,1.4998047999997652,['n'],1,right,['9'],5,0.6220508000001246,,,24,19,Vrouw,Rechts,1,
,xotask,xotask,xotask,42,1,102,102,training,positivefb,83,hard,25,1.2832887999998093,['n'],1,right,['0'],6,0.3298013000003266,,,24,19,Vrouw,Rechts,1,
,xotask,xotask,xotask,43,1,103,103,training,positivefb,99,average,60,0.9008592999998655,['c'],1,left,['9'],5,1.184893000000102,,,24,19,Vrouw,Rechts,1,
,xotask,xotask,xotask,44,1,104,104,training,positivefb,85,average,63,0.816254299999855,['c'],1,left,['0'],6,0.5050725999999486,,,24,19,Vrouw,Rechts,1,
,xotask,xotask,xotask,45,1,105,105,training,positivefb,75,hard,29,0.9826360000001841,['c'],0,right,['0'],6,0.5418197999997574,,,24,19,Vrouw,Rechts,1,
,xotask,xotask,xotask,46,1,106,106,training,positivefb,68,hard,26,1.3002802000000884,['n'],1,right,['9'],5,0.3886117000001832,,,24,19,Vrouw,Rechts,1,
,xotask,xotask,xotask,47,1,107,107,training,positivefb,86,hard,53,1.0340833999998722,['c'],1,left,['0'],6,0.33992669999997815,,,24,19,Vrouw,Rechts,1,
,xotask,xotask,xotask,48,1,108,108,training,positivefb,98,average,62,0.7339670000001206,['c'],1,left,['0'],6,0.4491211999998086,,,24,19,Vrouw,Rechts,1,
,xotask,xotask,xotask,49,1,109,109,training,positivefb,92,average,61,0.6173401000000922,['c'],1,left,['0'],6,0.39862459999994826,,,24,19,Vrouw,Rechts,1,
,xotask,xotask,xotask,50,1,110,110,training,positivefb,87,hard,25,3.317380200000116,['c'],0,right,['8'],4,0.425704499999938,,,24,19,Vrouw,Rechts,1,
,xotask,xotask,xotask,51,1,111,111,training,positivefb,92,average,18,1.5669441000000006,['n'],1,right,['8'],4,0.4186989999998332,,,24,19,Vrouw,Rechts,1,
,xotask,xotask,xotask,52,1,112,112,training,positivefb,84,average,64,0.8506413000000066,['c'],1,left,['0'],6,0.33576419999963036,,,24,19,Vrouw,Rechts,1,
,xotask,xotask,xotask,53,1,113,113,training,positivefb,88,hard,29,1.9667735000002722,['c'],0,right,['9'],5,0.379989999999907,,,24,19,Vrouw,Rechts,1,
,xotask,xotask,xotask,54,1,114,114,training,positivefb,97,hard,25,1.4006915999998455,['n'],1,right,['9'],5,0.3250562999996873,,,24,19,Vrouw,Rechts,1,
,xotask,xotask,xotask,55,1,115,115,training,positivefb,99,easy,72,0.6833811000001333,['c'],1,left,['0'],6,0.3164438000003429,,,24,19,Vrouw,Rechts,1,
,xotask,xotask,xotask,56,1,116,116,training,positivefb,85,easy,7,0.8991154000000279,['n'],1,right,['0'],6,0.2919555000003129,,,24,19,Vrouw,Rechts,1,
,xotask,xotask,xotask,57,1,117,117,training,positivefb,90,average,17,1.4831719999997404,['n'],1,right,['0'],6,0.36499400000002424,,,24,19,Vrouw,Rechts,1,
,xotask,xotask,xotask,58,1,118,118,training,positivefb,80,average,15,6.934176400000069,['c'],0,right,['8'],4,0.7049818000000414,,,24,19,Vrouw,Rechts,1,
,xotask,xotask,xotask,59,1,119,119,training,positivefb,96,easy,73,0.983086700000058,['c'],1,left,['0'],6,0.3255318999999872,,,24,19,Vrouw,Rechts,1,
,xotask,xotask,xotask,0,2,120,120,main,positivefb,-99,average,60,1.1851987999998528,['c'],1,left,['9'],5,1.0748634999999922,,,24,19,Vrouw,Rechts,1,
,xotask,xotask,xotask,1,2,121,121,main,positivefb,-99,average,61,1.2174913999997443,['c'],1,left,['9'],5,0.24102449999963937,,,24,19,Vrouw,Rechts,1,
,xotask,xotask,xotask,2,2,122,122,main,positivefb,-99,hard,25,2.6667231000001266,['c'],0,right,['8'],4,0.4132970999999088,,,24,19,Vrouw,Rechts,1,
,xotask,xotask,xotask,3,2,123,123,main,positivefb,-99,easy,7,1.2167082000000846,['n'],1,right,['8'],4,0.35728919999974096,,,24,19,Vrouw,Rechts,1,
,xotask,xotask,xotask,4,2,124,124,main,positivefb,-99,easy,72,0.7842858999997588,['c'],1,left,['0'],6,0.2486823999997796,,,24,19,Vrouw,Rechts,1,
,xotask,xotask,xotask,5,2,125,125,main,positivefb,-99,average,16,2.7174174000001585,['c'],0,right,['9'],5,0.28323219999992943,,,24,19,Vrouw,Rechts,1,
,xotask,xotask,xotask,6,2,126,126,main,positivefb,-99,easy,5,0.9342200999999477,['n'],1,right,['0'],6,0.2908422000000428,,,24,19,Vrouw,Rechts,1,
,xotask,xotask,xotask,7,2,127,127,main,positivefb,-99,hard,53,1.3013437999998132,['n'],0,left,['8'],4,0.39587170000004335,,,24,19,Vrouw,Rechts,1,
,xotask,xotask,xotask,8,2,128,128,main,positivefb,-99,hard,29,1.3345647999999528,['n'],1,right,['8'],4,0.560055999999804,,,24,19,Vrouw,Rechts,1,
,xotask,xotask,xotask,9,2,129,129,main,positivefb,-99,hard,52,0.9338159999997515,['c'],1,left,['0'],6,0.3578302999999323,,,24,19,Vrouw,Rechts,1,
,xotask,xotask,xotask,10,2,130,130,main,positivefb,-99,average,15,1.0011770999999499,['n'],1,right,['9'],5,0.4080916000002617,,,24,19,Vrouw,Rechts,1,
,xotask,xotask,xotask,11,2,131,131,main,positivefb,-99,hard,29,4.384951799999726,['n'],1,right,['9'],5,0.5529480999998668,,,24,19,Vrouw,Rechts,1,
,xotask,xotask,xotask,12,2,132,132,main,positivefb,-99,average,61,0.9501658999997744,['c'],1,left,['0'],6,0.43057950000002165,,,24,19,Vrouw,Rechts,1,
,xotask,xotask,xotask,13,2,133,133,main,positivefb,-99,easy,71,0.6838605000002644,['c'],1,left,['0'],6,0.3863876000000346,,,24,19,Vrouw,Rechts,1,
,xotask,xotask,xotask,14,2,134,134,main,positivefb,-99,average,19,0.7015187000001788,['n'],1,right,['0'],6,0.4320259999999507,,,24,19,Vrouw,Rechts,1,
,xotask,xotask,xotask,15,2,135,135,main,positivefb,-99,average,61,3.884329799999705,['c'],1,left,['9'],5,0.5880680999998731,,,24,19,Vrouw,Rechts,1,
,xotask,xotask,xotask,16,2,136,136,main,positivefb,-99,average,19,0.7848027999998521,['n'],1,right,['0'],6,1.1336327999997593,,,24,19,Vrouw,Rechts,1,
,xotask,xotask,xotask,17,2,137,137,main,positivefb,-99,hard,27,1.1346807999998418,['n'],1,right,['8'],4,0.5561472999997932,,,24,19,Vrouw,Rechts,1,
,xotask,xotask,xotask,18,2,138,138,main,positivefb,-99,hard,51,1.1849935000000187,['c'],1,left,['8'],4,0.4713633999999729,,,24,19,Vrouw,Rechts,1,
,xotask,xotask,xotask,19,2,139,139,main,positivefb,-99,average,63,0.9847936000001027,['c'],1,left,['0'],6,0.5823967999999695,,,24,19,Vrouw,Rechts,1,
,xotask,xotask,xotask,20,2,140,140,main,positivefb,-99,hard,29,0.8514176000003317,['n'],1,right,['9'],5,0.8534867999997005,,,24,19,Vrouw,Rechts,1,
,xotask,xotask,xotask,21,2,141,141,main,positivefb,-99,average,15,0.9679879000000255,['n'],1,right,['9'],5,0.4690590999998676,,,24,19,Vrouw,Rechts,1,
,xotask,xotask,xotask,22,2,142,142,main,positivefb,-99,average,17,0.9670059000000037,['n'],1,right,['9'],5,0.40454559999989215,,,24,19,Vrouw,Rechts,1,
,xotask,xotask,xotask,23,2,143,143,main,positivefb,-99,easy,7,0.6509309000002759,['n'],1,right,['9'],5,0.4594829999996364,,,24,19,Vrouw,Rechts,1,
,xotask,xotask,xotask,24,2,144,144,main,positivefb,-99,hard,27,2.2852773999998135,['n'],1,right,['9'],5,0.32683670000005804,,,24,19,Vrouw,Rechts,1,
,xotask,xotask,xotask,25,2,145,145,main,positivefb,-99,average,19,0.9684322000002794,['n'],1,right,['9'],5,0.39610320000019783,,,24,19,Vrouw,Rechts,1,
,xotask,xotask,xotask,26,2,146,146,main,positivefb,-99,easy,8,0.8347507999997106,['n'],1,right,['9'],5,0.3080254999999852,,,24,19,Vrouw,Rechts,1,
,xotask,xotask,xotask,27,2,147,147,main,positivefb,-99,easy,9,1.901206000000002,['n'],1,right,['9'],5,0.3484056999996028,,,24,19,Vrouw,Rechts,1,
,xotask,xotask,xotask,28,2,148,148,main,positivefb,-99,average,62,1.9012354999999843,['n'],0,left,['8'],4,0.4274612000003799,,,24,19,Vrouw,Rechts,1,
,xotask,xotask,xotask,29,2,149,149,main,positivefb,-99,average,61,1.3347623999998177,['c'],1,left,['9'],5,1.1819994999996197,,,24,19,Vrouw,Rechts,1,
,xotask,xotask,xotask,30,2,150,150,main,positivefb,-99,hard,26,2.084595199999967,['n'],1,right,['9'],5,0.9321818999997049,,,24,19,Vrouw,Rechts,1,
,xotask,xotask,xotask,31,2,151,151,main,positivefb,-99,average,17,1.4510301000000254,['n'],1,right,['9'],5,0.5257869000001847,,,24,19,Vrouw,Rechts,1,
,xotask,xotask,xotask,32,2,152,152,main,positivefb,-99,hard,54,1.7509734000000208,['n'],0,left,['0'],6,0.6272853000000396,,,24,19,Vrouw,Rechts,1,
,xotask,xotask,xotask,33,2,153,153,main,positivefb,-99,easy,9,0.9011626999999862,['n'],1,right,['0'],6,0.4717018999999709,,,24,19,Vrouw,Rechts,1,
,xotask,xotask,xotask,34,2,154,154,main,positivefb,-99,average,18,0.9856314999997267,['n'],1,right,['0'],6,0.4942292999999154,,,24,19,Vrouw,Rechts,1,
,xotask,xotask,xotask,35,2,155,155,main,positivefb,-99,easy,71,1.334747399999742,['c'],1,left,['0'],6,0.3820992999999362,,,24,19,Vrouw,Rechts,1,
,xotask,xotask,xotask,36,2,156,156,main,positivefb,-99,easy,72,0.6175413999999364,['c'],1,left,['0'],6,0.382995800000117,,,24,19,Vrouw,Rechts,1,
,xotask,xotask,xotask,37,2,157,157,main,positivefb,-99,hard,52,0.7009370999999192,['c'],1,left,['0'],6,0.4927503000003526,,,24,19,Vrouw,Rechts,1,
,xotask,xotask,xotask,38,2,158,158,main,positivefb,-99,average,62,2.334365799999887,['c'],1,left,['8'],4,0.3956827999995767,,,24,19,Vrouw,Rechts,1,
,xotask,xotask,xotask,39,2,159,159,main,positivefb,-99,easy,9,0.9848129000001791,['n'],1,right,['9'],5,0.33405119999997623,,,24,19,Vrouw,Rechts,1,
,xotask,xotask,xotask,40,2,160,160,main,positivefb,-99,easy,74,0.7670308000001569,['c'],1,left,['0'],6,0.34735909999972137,,,24,19,Vrouw,Rechts,1,
,xotask,xotask,xotask,41,2,161,161,main,positivefb,-99,easy,72,0.6344976999998835,['c'],1,left,['0'],6,0.3083815999998478,,,24,19,Vrouw,Rechts,1,
,xotask,xotask,xotask,42,2,162,162,main,positivefb,-99,easy,72,0.5664818000000196,['c'],1,left,['0'],6,0.3470945999997639,,,24,19,Vrouw,Rechts,1,
,xotask,xotask,xotask,43,2,163,163,main,positivefb,-99,hard,54,0.7849476999999752,['c'],1,left,['0'],6,0.3991617000001497,,,24,19,Vrouw,Rechts,1,
,xotask,xotask,xotask,44,2,164,164,main,positivefb,-99,hard,52,0.7501796000001377,['c'],1,left,['0'],6,0.5770017999998345,,,24,19,Vrouw,Rechts,1,
,xotask,xotask,xotask,45,2,165,165,main,positivefb,-99,hard,29,1.0335719999998219,['n'],1,right,['0'],6,0.35372119999965435,,,24,19,Vrouw,Rechts,1,
,xotask,xotask,xotask,46,2,166,166,main,positivefb,-99,average,60,0.9175350999998955,['c'],1,left,['9'],5,0.39227130000017496,,,24,19,Vrouw,Rechts,1,
,xotask,xotask,xotask,47,2,167,167,main,positivefb,-99,easy,74,0.8500721999998859,['c'],1,left,['0'],6,0.3039657000003899,,,24,19,Vrouw,Rechts,1,
,xotask,xotask,xotask,48,2,168,168,main,positivefb,-99,hard,29,2.2830299999995987,['c'],0,right,['9'],5,0.24133849999998347,,,24,19,Vrouw,Rechts,1,
,xotask,xotask,xotask,49,2,169,169,main,positivefb,-99,easy,73,0.7354479999999057,['c'],1,left,['0'],6,0.33864319999975123,,,24,19,Vrouw,Rechts,1,
,xotask,xotask,xotask,50,2,170,170,main,positivefb,-99,average,18,0.9012050999999701,['n'],1,right,['9'],5,0.3618831999997383,,,24,19,Vrouw,Rechts,1,
,xotask,xotask,xotask,51,2,171,171,main,positivefb,-99,easy,7,0.8509910999996464,['n'],1,right,['9'],5,0.36283210000010513,,,24,19,Vrouw,Rechts,1,
,xotask,xotask,xotask,52,2,172,172,main,positivefb,-99,easy,71,0.9850344999999834,['n'],0,left,['0'],6,0.3906989000001886,,,24,19,Vrouw,Rechts,1,
,xotask,xotask,xotask,53,2,173,173,main,positivefb,-99,easy,8,0.7177909000001819,['c'],0,right,['9'],5,0.4512386000001243,,,24,19,Vrouw,Rechts,1,
,xotask,xotask,xotask,54,2,174,174,main,positivefb,-99,average,60,0.8679631999998492,['c'],1,left,['0'],6,0.23057669999980135,,,24,19,Vrouw,Rechts,1,
,xotask,xotask,xotask,55,2,175,175,main,positivefb,-99,hard,26,0.899829999999838,['n'],1,right,['0'],6,0.3858193000000938,,,24,19,Vrouw,Rechts,1,
,xotask,xotask,xotask,56,2,176,176,main,positivefb,-99,hard,51,1.6175167000001238,['c'],1,left,['9'],5,0.40232530000002953,,,24,19,Vrouw,Rechts,1,
,xotask,xotask,xotask,57,2,177,177,main,positivefb,-99,easy,5,1.0509744999999384,['n'],1,right,['0'],6,0.40163959999972576,,,24,19,Vrouw,Rechts,1,
,xotask,xotask,xotask,58,2,178,178,main,positivefb,-99,hard,51,0.7838072999998076,['c'],1,left,['0'],6,0.42675150000013673,,,24,19,Vrouw,Rechts,1,
,xotask,xotask,xotask,59,2,179,179,main,positivefb,-99,hard,50,2.6016405999998824,['c'],1,left,['0'],6,0.2664663999998993,,,24,19,Vrouw,Rechts,1,
,xotask,xotask,xotask,0,3,180,180,main,positivefb,-99,easy,74,1.1836229999998977,['c'],1,left,['0'],6,0.5029595000000882,,,24,19,Vrouw,Rechts,1,
,xotask,xotask,xotask,1,3,181,181,main,positivefb,-99,easy,70,0.6344805000003362,['c'],1,left,['0'],6,0.3219880000001467,,,24,19,Vrouw,Rechts,1,
,xotask,xotask,xotask,2,3,182,182,main,positivefb,-99,easy,9,0.6842900999999983,['n'],1,right,['0'],6,0.3545045000000755,,,24,19,Vrouw,Rechts,1,
,xotask,xotask,xotask,3,3,183,183,main,positivefb,-99,average,60,0.7839841999998498,['c'],1,left,['0'],6,0.33428589999994074,,,24,19,Vrouw,Rechts,1,
,xotask,xotask,xotask,4,3,184,184,main,positivefb,-99,average,17,1.8849013999997624,['n'],1,right,['0'],6,0.8138939000000391,,,24,19,Vrouw,Rechts,1,
,xotask,xotask,xotask,5,3,185,185,main,positivefb,-99,average,63,1.966878899999756,['c'],1,left,['0'],6,0.3275189999999384,,,24,19,Vrouw,Rechts,1,
,xotask,xotask,xotask,6,3,186,186,main,positivefb,-99,hard,27,3.3510488000001715,['c'],0,right,['9'],5,0.6699494999998024,,,24,19,Vrouw,Rechts,1,
,xotask,xotask,xotask,7,3,187,187,main,positivefb,-99,hard,54,0.6678813999997146,['c'],1,left,['9'],5,0.4409660999999687,,,24,19,Vrouw,Rechts,1,
,xotask,xotask,xotask,8,3,188,188,main,positivefb,-99,easy,74,0.7176196000000346,['c'],1,left,['9'],5,0.41956930000014836,,,24,19,Vrouw,Rechts,1,
,xotask,xotask,xotask,9,3,189,189,main,positivefb,-99,average,61,0.9671032000001105,['c'],1,left,['9'],5,0.3889901999996255,,,24,19,Vrouw,Rechts,1,
,xotask,xotask,xotask,10,3,190,190,main,positivefb,-99,hard,27,1.0014822999996795,['c'],0,right,['3'],3,1.4459772000000157,,,24,19,Vrouw,Rechts,1,
,xotask,xotask,xotask,11,3,191,191,main,positivefb,-99,easy,70,6.535690299999715,['c'],1,left,['3'],3,0.384228300000359,,,24,19,Vrouw,Rechts,1,
,xotask,xotask,xotask,12,3,192,192,main,positivefb,-99,average,18,2.917322100000092,['c'],0,right,['9'],5,0.35658609999973123,,,24,19,Vrouw,Rechts,1,
,xotask,xotask,xotask,13,3,193,193,main,positivefb,-99,easy,71,0.7348267000002124,['c'],1,left,['0'],6,0.2667327000003752,,,24,19,Vrouw,Rechts,1,
,xotask,xotask,xotask,14,3,194,194,main,positivefb,-99,easy,7,0.8503903000000719,['n'],1,right,['0'],6,0.31826950000004217,,,24,19,Vrouw,Rechts,1,
,xotask,xotask,xotask,15,3,195,195,main,positivefb,-99,average,62,0.8509122999998908,['c'],1,left,['9'],5,0.3117936000003283,,,24,19,Vrouw,Rechts,1,
,xotask,xotask,xotask,16,3,196,196,main,positivefb,-99,average,16,0.7681429999997818,['n'],1,right,['0'],6,0.3425382999998874,,,24,19,Vrouw,Rechts,1,
,xotask,xotask,xotask,17,3,197,197,main,positivefb,-99,hard,26,2.45034940000005,['c'],0,right,['9'],5,0.2951178000002983,,,24,19,Vrouw,Rechts,1,
,xotask,xotask,xotask,18,3,198,198,main,positivefb,-99,average,61,1.0682771000001594,['n'],0,left,['0'],6,0.442265000000134,,,24,19,Vrouw,Rechts,1,
,xotask,xotask,xotask,19,3,199,199,main,positivefb,-99,average,16,2.467105900000206,['c'],0,right,['9'],5,0.24727260000008755,,,24,19,Vrouw,Rechts,1,
,xotask,xotask,xotask,20,3,200,200,main,positivefb,-99,average,18,0.9837060999998357,['c'],0,right,['0'],6,0.48675309999998717,,,24,19,Vrouw,Rechts,1,
,xotask,xotask,xotask,21,3,201,201,main,positivefb,-99,hard,52,1.2172201999997014,['c'],1,left,['9'],5,0.2997519000000466,,,24,19,Vrouw,Rechts,1,
,xotask,xotask,xotask,22,3,202,202,main,positivefb,-99,easy,71,1.650081499999942,['c'],1,left,['9'],5,0.3022995000001174,,,24,19,Vrouw,Rechts,1,
,xotask,xotask,xotask,23,3,203,203,main,positivefb,-99,easy,7,0.7838763999998264,['n'],1,right,['9'],5,0.7243657999997595,,,24,19,Vrouw,Rechts,1,
,xotask,xotask,xotask,24,3,204,204,main,positivefb,-99,average,18,0.6507369999999355,['n'],1,right,['9'],5,0.38992540000026565,,,24,19,Vrouw,Rechts,1,
,xotask,xotask,xotask,25,3,205,205,main,positivefb,-99,hard,25,1.016740700000355,['n'],1,right,['9'],5,0.3745049999997718,,,24,19,Vrouw,Rechts,1,
,xotask,xotask,xotask,26,3,206,206,main,positivefb,-99,hard,54,1.0176131000002897,['c'],1,left,['9'],5,0.3672830000000431,,,24,19,Vrouw,Rechts,1,
,xotask,xotask,xotask,27,3,207,207,main,positivefb,-99,hard,52,2.285004299999855,['c'],1,left,['8'],4,0.4300349999998616,,,24,19,Vrouw,Rechts,1,
,xotask,xotask,xotask,28,3,208,208,main,positivefb,-99,easy,8,0.8672320000000582,['n'],1,right,['0'],6,0.34713769999962096,,,24,19,Vrouw,Rechts,1,
,xotask,xotask,xotask,29,3,209,209,main,positivefb,-99,easy,7,0.750874400000157,['n'],1,right,['0'],6,0.34483049999971627,,,24,19,Vrouw,Rechts,1,
,xotask,xotask,xotask,30,3,210,210,main,positivefb,-99,average,19,0.7015811000001122,['n'],1,right,['0'],6,0.2958944000001793,,,24,19,Vrouw,Rechts,1,
,xotask,xotask,xotask,31,3,211,211,main,positivefb,-99,average,62,2.133932400000049,['c'],1,left,['9'],5,0.22433809999984078,,,24,19,Vrouw,Rechts,1,
,xotask,xotask,xotask,32,3,212,212,main,positivefb,-99,hard,27,1.550702999999885,['c'],0,right,['9'],5,0.3543957000001683,,,24,19,Vrouw,Rechts,1,
,xotask,xotask,xotask,33,3,213,213,main,positivefb,-99,hard,53,0.8342992999996568,['c'],1,left,['9'],5,0.3718015000004016,,,24,19,Vrouw,Rechts,1,
,xotask,xotask,xotask,34,3,214,214,main,positivefb,-99,hard,52,1.1174172000000908,['c'],1,left,['9'],5,0.28928940000014336,,,24,19,Vrouw,Rechts,1,
,xotask,xotask,xotask,35,3,215,215,main,positivefb,-99,hard,50,2.284459400000287,['c'],1,left,['9'],5,0.41114939999988565,,,24,19,Vrouw,Rechts,1,
,xotask,xotask,xotask,36,3,216,216,main,positivefb,-99,easy,7,0.9840315999999802,['n'],1,right,['0'],6,0.49999049999996714,,,24,19,Vrouw,Rechts,1,
,xotask,xotask,xotask,37,3,217,217,main,positivefb,-99,easy,6,0.6508545000001504,['n'],1,right,['0'],6,0.3508489999999256,,,24,19,Vrouw,Rechts,1,
,xotask,xotask,xotask,38,3,218,218,main,positivefb,-99,average,60,1.3844919000002847,['n'],0,left,['9'],5,0.3540709000003517,,,24,19,Vrouw,Rechts,1,
,xotask,xotask,xotask,39,3,219,219,main,positivefb,-99,average,18,0.850766399999884,['n'],1,right,['9'],5,0.2911215000003722,,,24,19,Vrouw,Rechts,1,
,xotask,xotask,xotask,40,3,220,220,main,positivefb,-99,average,17,1.3010564000001068,['n'],1,right,['9'],5,0.24385800000027302,,,24,19,Vrouw,Rechts,1,
,xotask,xotask,xotask,41,3,221,221,main,positivefb,-99,easy,71,0.8346231000000444,['c'],1,left,['9'],5,0.36986209999986386,,,24,19,Vrouw,Rechts,1,
,xotask,xotask,xotask,42,3,222,222,main,positivefb,-99,hard,54,0.5669002999998156,['c'],1,left,['9'],5,0.3572012000004179,,,24,19,Vrouw,Rechts,1,
,xotask,xotask,xotask,43,3,223,223,main,positivefb,-99,hard,27,0.8837978999999905,['c'],0,right,['9'],5,0.22120780000022933,,,24,19,Vrouw,Rechts,1,
,xotask,xotask,xotask,44,3,224,224,main,positivefb,-99,hard,53,1.2346192999998493,['c'],1,left,['9'],5,0.31547690000024886,,,24,19,Vrouw,Rechts,1,
,xotask,xotask,xotask,45,3,225,225,main,positivefb,-99,hard,29,1.350808799999868,['c'],0,right,['8'],4,1.2250617999998212,,,24,19,Vrouw,Rechts,1,
,xotask,xotask,xotask,46,3,226,226,main,positivefb,-99,average,19,1.0173650000001544,['n'],1,right,['9'],5,0.42494159999978365,,,24,19,Vrouw,Rechts,1,
,xotask,xotask,xotask,47,3,227,227,main,positivefb,-99,easy,6,0.8999324000001252,['n'],1,right,['9'],5,0.372453399999813,,,24,19,Vrouw,Rechts,1,
,xotask,xotask,xotask,48,3,228,228,main,positivefb,-99,easy,6,1.0833529999999882,['n'],1,right,['9'],5,0.7642839000000095,,,24,19,Vrouw,Rechts,1,
,xotask,xotask,xotask,49,3,229,229,main,positivefb,-99,easy,70,0.784463500000129,['c'],1,left,['0'],6,0.5511765999999625,,,24,19,Vrouw,Rechts,1,
,xotask,xotask,xotask,50,3,230,230,main,positivefb,-99,average,61,0.8183822999999393,['c'],1,left,['0'],6,0.4970531999997547,,,24,19,Vrouw,Rechts,1,
,xotask,xotask,xotask,51,3,231,231,main,positivefb,-99,hard,25,1.1346780000003491,['c'],0,right,['9'],5,0.30527950000032433,,,24,19,Vrouw,Rechts,1,
,xotask,xotask,xotask,52,3,232,232,main,positivefb,-99,easy,74,0.9836184999999205,['c'],1,left,['9'],5,0.27903150000020105,,,24,19,Vrouw,Rechts,1,
,xotask,xotask,xotask,53,3,233,233,main,positivefb,-99,average,60,0.7337598999997681,['c'],1,left,['9'],5,0.4151230999996187,,,24,19,Vrouw,Rechts,1,
,xotask,xotask,xotask,54,3,234,234,main,positivefb,-99,hard,51,1.6351073999999244,['n'],0,left,['8'],4,0.8693882999996276,,,24,19,Vrouw,Rechts,1,
,xotask,xotask,xotask,55,3,235,235,main,positivefb,-99,hard,25,1.2846190000000206,['c'],0,right,['9'],5,0.32060120000005554,,,24,19,Vrouw,Rechts,1,
,xotask,xotask,xotask,56,3,236,236,main,positivefb,-99,hard,28,0.7182247999999163,['c'],0,right,['3'],3,1.1197889999998552,,,24,19,Vrouw,Rechts,1,
,xotask,xotask,xotask,57,3,237,237,main,positivefb,-99,easy,73,1.0673999999999069,['c'],1,left,['0'],6,0.3766886000003069,,,24,19,Vrouw,Rechts,1,
,xotask,xotask,xotask,58,3,238,238,main,positivefb,-99,average,61,0.7015946999999869,['c'],1,left,['9'],5,0.42268689999991693,,,24,19,Vrouw,Rechts,1,
,xotask,xotask,xotask,59,3,239,239,main,positivefb,-99,easy,5,0.8341970000001311,['n'],1,right,['0'],6,0.349507999999787,,,24,19,Vrouw,Rechts,1,
,xotask,xotask,xotask,0,4,240,240,main,positivefb,-99,easy,70,0.868612100000064,['c'],1,left,['0'],6,0.6726422000001548,,,24,19,Vrouw,Rechts,1,
,xotask,xotask,xotask,1,4,241,241,main,positivefb,-99,average,19,0.7178135999997721,['n'],1,right,['0'],6,0.37062429999969027,,,24,19,Vrouw,Rechts,1,
,xotask,xotask,xotask,2,4,242,242,main,positivefb,-99,easy,6,0.9500173999999788,['n'],1,right,['0'],6,0.3266069000001153,,,24,19,Vrouw,Rechts,1,
,xotask,xotask,xotask,3,4,243,243,main,positivefb,-99,easy,71,0.6678804999996828,['c'],1,left,['0'],6,0.35979830000042057,,,24,19,Vrouw,Rechts,1,
,xotask,xotask,xotask,4,4,244,244,main,positivefb,-99,hard,26,0.6178334999999606,['n'],1,right,['0'],6,0.41778290000002016,,,24,19,Vrouw,Rechts,1,
,xotask,xotask,xotask,5,4,245,245,main,positivefb,-99,average,62,1.3016106999998556,['c'],1,left,['0'],6,0.3334359999998924,,,24,19,Vrouw,Rechts,1,
,xotask,xotask,xotask,6,4,246,246,main,positivefb,-99,average,15,0.7684907000002568,['n'],1,right,['0'],6,0.2904023999999481,,,24,19,Vrouw,Rechts,1,
,xotask,xotask,xotask,7,4,247,247,main,positivefb,-99,hard,51,0.584212899999784,['c'],1,left,['0'],6,0.32020490000013524,,,24,19,Vrouw,Rechts,1,
,xotask,xotask,xotask,8,4,248,248,main,positivefb,-99,average,16,1.4337730000002011,['n'],1,right,['9'],5,0.21145030000025145,,,24,19,Vrouw,Rechts,1,
,xotask,xotask,xotask,9,4,249,249,main,positivefb,-99,average,60,0.9669007000002239,['c'],1,left,['9'],5,0.1889925000000403,,,24,19,Vrouw,Rechts,1,
,xotask,xotask,xotask,10,4,250,250,main,positivefb,-99,average,62,0.684925099999873,['c'],1,left,['9'],5,0.2753797000000304,,,24,19,Vrouw,Rechts,1,
,xotask,xotask,xotask,11,4,251,251,main,positivefb,-99,hard,27,0.9353252000000793,['n'],1,right,['9'],5,0.22742680000010296,,,24,19,Vrouw,Rechts,1,
,xotask,xotask,xotask,12,4,252,252,main,positivefb,-99,average,62,1.000593199999912,['c'],1,left,['9'],5,0.2840621000000283,,,24,19,Vrouw,Rechts,1,
,xotask,xotask,xotask,13,4,253,253,main,positivefb,-99,average,17,1.8337799999999334,['c'],0,right,['3'],3,1.2155940999996346,,,24,19,Vrouw,Rechts,1,
,xotask,xotask,xotask,14,4,254,254,main,positivefb,-99,average,64,0.851256899999953,['c'],1,left,['0'],6,0.6780022999996618,,,24,19,Vrouw,Rechts,1,
,xotask,xotask,xotask,15,4,255,255,main,positivefb,-99,average,16,0.9179613999999674,['c'],0,right,['3'],3,0.7514783999999963,,,24,19,Vrouw,Rechts,1,
,xotask,xotask,xotask,16,4,256,256,main,positivefb,-99,easy,9,1.083886099999745,['n'],1,right,['0'],6,0.3344569999999294,,,24,19,Vrouw,Rechts,1,
,xotask,xotask,xotask,17,4,257,257,main,positivefb,-99,easy,73,0.8008706999999049,['c'],1,left,['0'],6,0.3614226999998209,,,24,19,Vrouw,Rechts,1,
,xotask,xotask,xotask,18,4,258,258,main,positivefb,-99,hard,52,1.9674904999997125,['c'],1,left,['9'],5,0.3341298000000279,,,24,19,Vrouw,Rechts,1,
,xotask,xotask,xotask,19,4,259,259,main,positivefb,-99,hard,52,1.4839924999996583,['c'],1,left,['8'],4,0.2931514000001698,,,24,19,Vrouw,Rechts,1,
,xotask,xotask,xotask,20,4,260,260,main,positivefb,-99,hard,27,0.8681687999996939,['n'],1,right,['9'],5,0.5443614999999227,,,24,19,Vrouw,Rechts,1,
,xotask,xotask,xotask,21,4,261,261,main,positivefb,-99,hard,51,1.0014618000000155,['c'],1,left,['9'],5,0.3961575999996967,,,24,19,Vrouw,Rechts,1,
,xotask,xotask,xotask,22,4,262,262,main,positivefb,-99,easy,71,0.7183084000002964,['c'],1,left,['9'],5,0.40869789999987916,,,24,19,Vrouw,Rechts,1,
,xotask,xotask,xotask,23,4,263,263,main,positivefb,-99,hard,54,0.8341740000000755,['c'],1,left,['9'],5,0.30323449999968943,,,24,19,Vrouw,Rechts,1,
,xotask,xotask,xotask,24,4,264,264,main,positivefb,-99,hard,52,1.3671469999999317,['c'],1,left,['8'],4,0.5901343000000452,,,24,19,Vrouw,Rechts,1,
,xotask,xotask,xotask,25,4,265,265,main,positivefb,-99,average,16,0.9171317000000272,['n'],1,right,['9'],5,0.45827950000011697,,,24,19,Vrouw,Rechts,1,
,xotask,xotask,xotask,26,4,266,266,main,positivefb,-99,average,61,1.0339161000001695,['c'],1,left,['0'],6,0.5518126000001757,,,24,19,Vrouw,Rechts,1,
,xotask,xotask,xotask,27,4,267,267,main,positivefb,-99,easy,74,0.6679049999997915,['c'],1,left,['0'],6,0.3358759999996437,,,24,19,Vrouw,Rechts,1,
,xotask,xotask,xotask,28,4,268,268,main,positivefb,-99,average,18,0.8013981999997668,['n'],1,right,['0'],6,0.7787211999998362,,,24,19,Vrouw,Rechts,1,
,xotask,xotask,xotask,29,4,269,269,main,positivefb,-99,hard,25,4.0516514000000825,['n'],1,right,['9'],5,0.43485229999987496,,,24,19,Vrouw,Rechts,1,
,xotask,xotask,xotask,30,4,270,270,main,positivefb,-99,hard,52,6.9330479999998715,['c'],1,left,['8'],4,0.5257237999999234,,,24,19,Vrouw,Rechts,1,
,xotask,xotask,xotask,31,4,271,271,main,positivefb,-99,average,64,0.8171618000001217,['c'],1,left,['8'],4,0.7852468999999473,,,24,19,Vrouw,Rechts,1,
,xotask,xotask,xotask,32,4,272,272,main,positivefb,-99,hard,27,1.0682185000000572,['c'],0,right,['9'],5,0.31908659999999145,,,24,19,Vrouw,Rechts,1,
,xotask,xotask,xotask,33,4,273,273,main,positivefb,-99,average,18,1.3171778999999333,['n'],1,right,['9'],5,0.44709770000008575,,,24,19,Vrouw,Rechts,1,
,xotask,xotask,xotask,34,4,274,274,main,positivefb,-99,easy,73,2.3503208999995877,['c'],1,left,['9'],5,0.32727740000018457,,,24,19,Vrouw,Rechts,1,
,xotask,xotask,xotask,35,4,275,275,main,positivefb,-99,average,61,0.767328599999928,['c'],1,left,['9'],5,0.3178382999999485,,,24,19,Vrouw,Rechts,1,
,xotask,xotask,xotask,36,4,276,276,main,positivefb,-99,average,17,0.9175601000001734,['n'],1,right,['9'],5,0.2843063999998776,,,24,19,Vrouw,Rechts,1,
,xotask,xotask,xotask,37,4,277,277,main,positivefb,-99,hard,50,1.732966099999885,['c'],1,left,['8'],4,0.8848073000003751,,,24,19,Vrouw,Rechts,1,
,xotask,xotask,xotask,38,4,278,278,main,positivefb,-99,easy,74,1.0999711000004027,['c'],1,left,['0'],6,0.5504359000001386,,,24,19,Vrouw,Rechts,1,
,xotask,xotask,xotask,39,4,279,279,main,positivefb,-99,easy,7,0.8498574999998709,['n'],1,right,['0'],6,0.5581403000001046,,,24,19,Vrouw,Rechts,1,
,xotask,xotask,xotask,40,4,280,280,main,positivefb,-99,average,62,0.6837669999999889,['c'],1,left,['9'],5,0.3339215000000877,,,24,19,Vrouw,Rechts,1,
,xotask,xotask,xotask,41,4,281,281,main,positivefb,-99,hard,29,1.0011273000000074,['n'],1,right,['9'],5,0.5617599000001974,,,24,19,Vrouw,Rechts,1,
,xotask,xotask,xotask,42,4,282,282,main,positivefb,-99,average,60,1.3501694000001407,['c'],1,left,['0'],6,0.37477409999974043,,,24,19,Vrouw,Rechts,1,
,xotask,xotask,xotask,43,4,283,283,main,positivefb,-99,easy,8,1.0333340999995926,['n'],1,right,['0'],6,0.42312559999982113,,,24,19,Vrouw,Rechts,1,
,xotask,xotask,xotask,44,4,284,284,main,positivefb,-99,easy,5,0.8004759999998896,['n'],1,right,['0'],6,0.4871688000002905,,,24,19,Vrouw,Rechts,1,
,xotask,xotask,xotask,45,4,285,285,main,positivefb,-99,easy,74,1.0506649999997535,['c'],1,left,['0'],6,0.6985822999999982,,,24,19,Vrouw,Rechts,1,
,xotask,xotask,xotask,46,4,286,286,main,positivefb,-99,hard,54,1.300644899999952,['c'],1,left,['9'],5,0.45109169999977894,,,24,19,Vrouw,Rechts,1,
,xotask,xotask,xotask,47,4,287,287,main,positivefb,-99,hard,53,0.9517195000003085,['c'],1,left,['9'],5,0.6915414999998575,,,24,19,Vrouw,Rechts,1,
,xotask,xotask,xotask,48,4,288,288,main,positivefb,-99,hard,27,1.8008406999997533,['c'],0,right,['9'],5,0.32101280000006227,,,24,19,Vrouw,Rechts,1,
,xotask,xotask,xotask,49,4,289,289,main,positivefb,-99,hard,27,1.466833299999962,['c'],0,right,['8'],4,0.26658150000002934,,,24,19,Vrouw,Rechts,1,
,xotask,xotask,xotask,50,4,290,290,main,positivefb,-99,hard,26,1.45055259999981,['n'],1,right,['9'],5,0.3178742999998576,,,24,19,Vrouw,Rechts,1,
,xotask,xotask,xotask,51,4,291,291,main,positivefb,-99,easy,5,0.8840871000002153,['n'],1,right,['0'],6,0.5906617000000551,,,24,19,Vrouw,Rechts,1,
,xotask,xotask,xotask,52,4,292,292,main,positivefb,-99,easy,9,0.683787299999949,['n'],1,right,['0'],6,0.5086083999999573,,,24,19,Vrouw,Rechts,1,
,xotask,xotask,xotask,53,4,293,293,main,positivefb,-99,easy,9,0.6341049999996358,['n'],1,right,['0'],6,0.4638609999997243,,,24,19,Vrouw,Rechts,1,
,xotask,xotask,xotask,54,4,294,294,main,positivefb,-99,hard,27,0.8674882999998772,['n'],1,right,['0'],6,0.6513468000002831,,,24,19,Vrouw,Rechts,1,
,xotask,xotask,xotask,55,4,295,295,main,positivefb,-99,easy,73,0.8175344999999652,['c'],1,left,['0'],6,0.40168039999980465,,,24,19,Vrouw,Rechts,1,
,xotask,xotask,xotask,56,4,296,296,main,positivefb,-99,easy,9,0.784133699999984,['n'],1,right,['0'],6,0.45181529999990744,,,24,19,Vrouw,Rechts,1,
,xotask,xotask,xotask,57,4,297,297,main,positivefb,-99,average,19,1.20086289999972,['c'],0,right,['9'],5,0.3378668000000289,,,24,19,Vrouw,Rechts,1,
,xotask,xotask,xotask,58,4,298,298,main,positivefb,-99,easy,7,2.351217599999927,['n'],1,right,['9'],5,0.423497999999654,,,24,19,Vrouw,Rechts,1,
,xotask,xotask,xotask,59,4,299,299,main,positivefb,-99,easy,73,0.7850029000001086,['c'],1,left,['9'],5,0.320309200000338,,,24,19,Vrouw,Rechts,1,
,xotask,xotask,xotask,0,0,0,300,training,positivefb,92,hard,53,2.568155200000092,['c'],1,left,['8'],4,0.6762843999999859,,,24,19,Vrouw,Rechts,1,
,xotask,xotask,xotask,1,0,1,301,training,positivefb,99,hard,50,0.8487647000001743,['c'],1,left,['9'],5,0.3829642999999123,,,24,19,Vrouw,Rechts,1,
,xotask,xotask,xotask,2,0,2,302,training,positivefb,74,hard,28,0.8166363999998794,['c'],0,right,['9'],5,0.3907864999996491,,,24,19,Vrouw,Rechts,1,
,xotask,xotask,xotask,3,0,3,303,training,positivefb,73,hard,28,1.8337114000000838,['n'],1,right,['8'],4,0.35885319999988496,,,24,19,Vrouw,Rechts,1,
,xotask,xotask,xotask,4,0,4,304,training,positivefb,86,hard,53,0.6999617999999828,['c'],1,left,['9'],5,0.2600091999997858,,,24,19,Vrouw,Rechts,1,
,xotask,xotask,xotask,5,0,5,305,training,positivefb,69,hard,50,1.7666761999998926,['n'],0,left,['8'],4,0.48413759999994,,,24,19,Vrouw,Rechts,1,
,xotask,xotask,xotask,6,0,6,306,training,positivefb,92,easy,73,0.6007313000000067,['c'],1,left,['9'],5,0.48876049999989846,,,24,19,Vrouw,Rechts,1,
,xotask,xotask,xotask,7,0,7,307,training,positivefb,97,average,17,1.5834133999996993,['n'],1,right,['9'],5,0.4622807000000648,,,24,19,Vrouw,Rechts,1,
,xotask,xotask,xotask,8,0,8,308,training,positivefb,99,easy,5,0.6827050000001691,['n'],1,right,['0'],6,0.3367052999997213,,,24,19,Vrouw,Rechts,1,
,xotask,xotask,xotask,9,0,9,309,training,positivefb,96,easy,70,0.851337600000079,['c'],1,left,['9'],5,0.4413460999999188,,,24,19,Vrouw,Rechts,1,
,xotask,xotask,xotask,10,0,10,310,training,positivefb,97,easy,9,0.8507486000003155,['n'],1,right,['0'],6,0.4297059000000445,,,24,19,Vrouw,Rechts,1,
,xotask,xotask,xotask,11,0,11,311,training,positivefb,50,average,64,0.7674787000000833,['n'],0,left,['1'],1,1.4706176999998206,,,24,19,Vrouw,Rechts,1,
,xotask,xotask,xotask,12,0,12,312,training,positivefb,87,easy,8,0.8172437999996873,['n'],1,right,['0'],6,0.4669595999998819,,,24,19,Vrouw,Rechts,1,
,xotask,xotask,xotask,13,0,13,313,training,positivefb,87,hard,26,1.449271200000112,['n'],1,right,['9'],5,0.31039460000010877,,,24,19,Vrouw,Rechts,1,
,xotask,xotask,xotask,14,0,14,314,training,positivefb,92,average,19,0.8667352999996183,['n'],1,right,['9'],5,0.3674700000001394,,,24,19,Vrouw,Rechts,1,
,xotask,xotask,xotask,15,0,15,315,training,positivefb,97,hard,52,1.300447399999939,['c'],1,left,['8'],4,0.709363100000246,,,24,19,Vrouw,Rechts,1,
,xotask,xotask,xotask,16,0,16,316,training,positivefb,90,easy,74,0.7834810999997899,['c'],1,left,['0'],6,0.37787600000001476,,,24,19,Vrouw,Rechts,1,
,xotask,xotask,xotask,17,0,17,317,training,positivefb,98,average,15,1.1008632999996735,['n'],1,right,['9'],5,0.3993929999996908,,,24,19,Vrouw,Rechts,1,
,xotask,xotask,xotask,18,0,18,318,training,positivefb,96,average,18,0.6834051000000727,['n'],1,right,['9'],5,0.3319658000000345,,,24,19,Vrouw,Rechts,1,
,xotask,xotask,xotask,19,0,19,319,training,positivefb,96,hard,28,1.3503551999997399,['n'],1,right,['9'],5,0.4006342000002405,,,24,19,Vrouw,Rechts,1,
,xotask,xotask,xotask,20,0,20,320,training,positivefb,100,easy,7,0.534266099999968,['n'],1,right,['0'],6,0.7793234999999186,,,24,19,Vrouw,Rechts,1,
,xotask,xotask,xotask,21,0,21,321,training,positivefb,98,easy,5,0.7504355999999461,['n'],1,right,['0'],6,0.36659670000017286,,,24,19,Vrouw,Rechts,1,
,xotask,xotask,xotask,22,0,22,322,training,positivefb,95,hard,52,0.9839465999998538,['c'],1,left,['0'],6,0.4086772000000565,,,24,19,Vrouw,Rechts,1,
,xotask,xotask,xotask,23,0,23,323,training,positivefb,90,average,19,0.6510846999999558,['n'],1,right,['0'],6,0.3745979999998781,,,24,19,Vrouw,Rechts,1,
,xotask,xotask,xotask,24,0,24,324,training,positivefb,95,easy,9,0.8006350999999086,['n'],1,right,['0'],6,0.40738229999988107,,,24,19,Vrouw,Rechts,1,
,xotask,xotask,xotask,25,0,25,325,training,positivefb,97,easy,5,0.683745799999997,['n'],1,right,['0'],6,0.5158106999997472,,,24,19,Vrouw,Rechts,1,
,xotask,xotask,xotask,26,0,26,326,training,positivefb,99,easy,70,1.2154503000001569,['c'],1,left,['0'],6,3.503156900000249,,,24,19,Vrouw,Rechts,1,
,xotask,xotask,xotask,27,0,27,327,training,positivefb,95,average,18,0.7673337000001084,['n'],1,right,['9'],5,0.6267189999998664,,,24,19,Vrouw,Rechts,1,
,xotask,xotask,xotask,28,0,28,328,training,positivefb,89,average,62,0.6845955999997386,['c'],1,left,['9'],5,0.3834034999999858,,,24,19,Vrouw,Rechts,1,
,xotask,xotask,xotask,29,0,29,329,training,positivefb,85,hard,26,0.7332304999999906,['c'],0,right,['9'],5,0.35441499999978987,,,24,19,Vrouw,Rechts,1,
,xotask,xotask,xotask,30,0,30,330,training,positivefb,97,easy,71,0.5830498000000262,['c'],1,left,['9'],5,0.31679469999971843,,,24,19,Vrouw,Rechts,1,
,xotask,xotask,xotask,31,0,31,331,training,positivefb,92,hard,53,0.7832929999999578,['c'],1,left,['9'],5,0.2643861999999899,,,24,19,Vrouw,Rechts,1,
,xotask,xotask,xotask,32,0,32,332,training,positivefb,87,hard,50,0.7676673000000847,['c'],1,left,['9'],5,0.26388360000009925,,,24,19,Vrouw,Rechts,1,
,xotask,xotask,xotask,33,0,33,333,training,positivefb,78,hard,26,1.9835861000001387,['n'],1,right,['8'],4,0.6305007999999361,,,24,19,Vrouw,Rechts,1,
,xotask,xotask,xotask,34,0,34,334,training,positivefb,96,hard,51,1.400626099999954,['c'],1,left,['9'],5,0.7808196999999382,,,24,19,Vrouw,Rechts,1,
,xotask,xotask,xotask,35,0,35,335,training,positivefb,92,average,15,1.3502978000001349,['n'],1,right,['9'],5,0.30349900000010166,,,24,19,Vrouw,Rechts,1,
,xotask,xotask,xotask,36,0,36,336,training,positivefb,94,average,63,0.6670220999999401,['c'],1,left,['0'],6,0.3615370000002258,,,24,19,Vrouw,Rechts,1,
,xotask,xotask,xotask,37,0,37,337,training,positivefb,99,easy,71,0.6658732999999302,['c'],1,left,['0'],6,0.4807194999998501,,,24,19,Vrouw,Rechts,1,
,xotask,xotask,xotask,38,0,38,338,training,positivefb,85,easy,8,0.8822415999998157,['n'],1,right,['9'],5,0.5949071999998523,,,24,19,Vrouw,Rechts,1,
,xotask,xotask,xotask,39,0,39,339,training,positivefb,93,hard,26,0.9340563000000657,['n'],1,right,['9'],5,0.502179999999953,,,24,19,Vrouw,Rechts,1,
,xotask,xotask,xotask,40,0,40,340,training,positivefb,91,average,64,0.8171474999999191,['c'],1,left,['9'],5,0.7215146000003188,,,24,19,Vrouw,Rechts,1,
,xotask,xotask,xotask,41,0,41,341,training,positivefb,81,average,17,0.8002465000004122,['n'],1,right,['9'],5,0.5250120999999126,,,24,19,Vrouw,Rechts,1,
,xotask,xotask,xotask,42,0,42,342,training,positivefb,71,average,63,0.7998223999998118,['c'],1,left,['0'],6,0.3046785000001364,,,24,19,Vrouw,Rechts,1,
,xotask,xotask,xotask,43,0,43,343,training,positivefb,98,easy,6,0.6843180000000757,['n'],1,right,['0'],6,0.4971596000000318,,,24,19,Vrouw,Rechts,1,
,xotask,xotask,xotask,44,0,44,344,training,positivefb,75,average,15,0.9990877000000182,['n'],1,right,['9'],5,0.4060370000001967,,,24,19,Vrouw,Rechts,1,
,xotask,xotask,xotask,45,0,45,345,training,positivefb,85,easy,9,0.9351262999998653,['n'],1,right,['0'],6,0.3841573999998218,,,24,19,Vrouw,Rechts,1,
,xotask,xotask,xotask,46,0,46,346,training,positivefb,98,hard,26,0.8339788000002955,['n'],1,right,['9'],5,0.31185009999990143,,,24,19,Vrouw,Rechts,1,
,xotask,xotask,xotask,47,0,47,347,training,positivefb,93,hard,29,1.882721599999968,['n'],1,right,['9'],5,0.6799478999996609,,,24,19,Vrouw,Rechts,1,
,xotask,xotask,xotask,48,0,48,348,training,positivefb,90,easy,70,1.2680335999998533,['c'],1,left,['9'],5,0.3144962999999734,,,24,19,Vrouw,Rechts,1,
,xotask,xotask,xotask,49,0,49,349,training,positivefb,37,average,19,1.1826921000001676,['c'],0,right,['9'],5,0.7194429999999556,,,24,19,Vrouw,Rechts,1,
,xotask,xotask,xotask,50,0,50,350,training,positivefb,98,easy,71,0.8671595999999226,['c'],1,left,['0'],6,0.6479285000000345,,,24,19,Vrouw,Rechts,1,
,xotask,xotask,xotask,51,0,51,351,training,positivefb,87,average,61,0.6831686999998965,['c'],1,left,['8'],4,0.4982033000001138,,,24,19,Vrouw,Rechts,1,
,xotask,xotask,xotask,52,0,52,352,training,positivefb,94,hard,50,1.0335434999997233,['c'],1,left,['9'],5,0.3653097000001253,,,24,19,Vrouw,Rechts,1,
,xotask,xotask,xotask,53,0,53,353,training,positivefb,99,easy,72,0.6669369999999617,['c'],1,left,['9'],5,0.3398826000002373,,,24,19,Vrouw,Rechts,1,
,xotask,xotask,xotask,54,0,54,354,training,positivefb,77,hard,28,1.5498446999999942,['c'],0,right,['9'],5,0.40854330000001937,,,24,19,Vrouw,Rechts,1,
,xotask,xotask,xotask,55,0,55,355,training,positivefb,98,easy,73,0.9335244999997485,['c'],1,left,['0'],6,0.32301379999989877,,,24,19,Vrouw,Rechts,1,
,xotask,xotask,xotask,56,0,56,356,training,positivefb,97,average,60,0.6005706999999347,['c'],1,left,['0'],6,0.910461199999645,,,24,19,Vrouw,Rechts,1,
,xotask,xotask,xotask,57,0,57,357,training,positivefb,82,average,60,0.8998537999996188,['c'],1,left,['0'],6,0.34980069999983243,,,24,19,Vrouw,Rechts,1,
,xotask,xotask,xotask,58,0,58,358,training,positivefb,97,average,61,0.9335056999998415,['c'],1,left,['9'],5,0.5789505000002464,,,24,19,Vrouw,Rechts,1,
,xotask,xotask,xotask,59,0,59,359,training,positivefb,85,average,63,0.8823696999997992,['c'],1,left,['9'],5,0.25723089999974036,,,24,19,Vrouw,Rechts,1,
,xotask,xotask,xotask,0,1,60,360,training,positivefb,83,easy,70,2.318128500000057,['c'],1,left,['8'],4,0.3818565999999919,,,24,19,Vrouw,Rechts,1,
,xotask,xotask,xotask,1,1,61,361,training,positivefb,89,hard,51,1.867882500000178,['c'],1,left,['8'],4,0.43665409999994154,,,24,19,Vrouw,Rechts,1,
,xotask,xotask,xotask,2,1,62,362,training,positivefb,87,hard,28,0.9166623999999501,['n'],1,right,['9'],5,0.39806689999977607,,,24,19,Vrouw,Rechts,1,
,xotask,xotask,xotask,3,1,63,363,training,positivefb,95,average,60,0.6522938999996768,['c'],1,left,['9'],5,0.3166395000002922,,,24,19,Vrouw,Rechts,1,
,xotask,xotask,xotask,4,1,64,364,training,positivefb,98,easy,5,0.6339093999999932,['n'],1,right,['9'],5,0.342250900000181,,,24,19,Vrouw,Rechts,1,
,xotask,xotask,xotask,5,1,65,365,training,positivefb,95,easy,6,0.8008032000002459,['n'],1,right,['9'],5,0.24079859999983455,,,24,19,Vrouw,Rechts,1,
,xotask,xotask,xotask,6,1,66,366,training,positivefb,94,hard,53,0.6335137999999461,['c'],1,left,['9'],5,0.21433099999967453,,,24,19,Vrouw,Rechts,1,
,xotask,xotask,xotask,7,1,67,367,training,positivefb,96,average,16,0.6003382999997484,['n'],1,right,['9'],5,0.22910660000025018,,,24,19,Vrouw,Rechts,1,
,xotask,xotask,xotask,8,1,68,368,training,positivefb,97,hard,53,0.8494331000001694,['c'],1,left,['3'],3,1.4984810999999354,,,24,19,Vrouw,Rechts,1,
,xotask,xotask,xotask,9,1,69,369,training,positivefb,99,easy,5,0.8162759999995615,['n'],1,right,['9'],5,0.6133026000002246,,,24,19,Vrouw,Rechts,1,
,xotask,xotask,xotask,10,1,70,370,training,positivefb,97,easy,73,0.7823675999998159,['c'],1,left,['0'],6,0.5031581000002916,,,24,19,Vrouw,Rechts,1,
,xotask,xotask,xotask,11,1,71,371,training,positivefb,94,easy,9,0.7999567000001662,['n'],1,right,['0'],6,0.28228519999993296,,,24,19,Vrouw,Rechts,1,
,xotask,xotask,xotask,12,1,72,372,training,positivefb,95,average,15,1.4997840000000906,['n'],1,right,['9'],5,0.370922900000096,,,24,19,Vrouw,Rechts,1,
,xotask,xotask,xotask,13,1,73,373,training,positivefb,94,average,15,0.666881800000283,['n'],1,right,['0'],6,0.3530151999998452,,,24,19,Vrouw,Rechts,1,
,xotask,xotask,xotask,14,1,74,374,training,positivefb,95,easy,8,0.6335065000002942,['n'],1,right,['0'],6,0.34662570000000414,,,24,19,Vrouw,Rechts,1,
,xotask,xotask,xotask,15,1,75,375,training,positivefb,81,hard,52,4.549474299999929,['c'],1,left,['8'],4,1.4384565999998813,,,24,19,Vrouw,Rechts,1,
,xotask,xotask,xotask,16,1,76,376,training,positivefb,92,easy,70,0.7502110000000357,['c'],1,left,['0'],6,0.4062373000001571,,,24,19,Vrouw,Rechts,1,
,xotask,xotask,xotask,17,1,77,377,training,positivefb,96,average,63,0.7662391999997453,['c'],1,left,['9'],5,0.9608566000001701,,,24,19,Vrouw,Rechts,1,
,xotask,xotask,xotask,18,1,78,378,training,positivefb,94,hard,27,0.7345698999997694,['n'],1,right,['9'],5,0.3248763000001418,,,24,19,Vrouw,Rechts,1,
,xotask,xotask,xotask,19,1,79,379,training,positivefb,70,hard,28,3.6993846999998823,['c'],0,right,['8'],4,0.3318865999999616,,,24,19,Vrouw,Rechts,1,
,xotask,xotask,xotask,20,1,80,380,training,positivefb,97,hard,27,0.8667224000000715,['n'],1,right,['9'],5,0.2842881000001398,,,24,19,Vrouw,Rechts,1,
,xotask,xotask,xotask,21,1,81,381,training,positivefb,67,average,62,0.6991044000001239,['c'],1,left,['0'],6,0.26066080000009606,,,24,19,Vrouw,Rechts,1,
,xotask,xotask,xotask,22,1,82,382,training,positivefb,92,easy,9,0.7012331000000813,['c'],0,right,['0'],6,0.24726820000023508,,,24,19,Vrouw,Rechts,1,
,xotask,xotask,xotask,23,1,83,383,training,positivefb,92,average,15,0.6172056000000339,['c'],0,right,['0'],6,0.27736600000025646,,,24,19,Vrouw,Rechts,1,
,xotask,xotask,xotask,24,1,84,384,training,positivefb,79,hard,25,1.149764299999788,['n'],1,right,['0'],6,0.33240559999967445,,,24,19,Vrouw,Rechts,1,
,xotask,xotask,xotask,25,1,85,385,training,positivefb,85,average,15,0.6176987000003464,['n'],1,right,['0'],6,0.31827240000029633,,,24,19,Vrouw,Rechts,1,
,xotask,xotask,xotask,26,1,86,386,training,positivefb,83,easy,5,1.9842607999999018,['n'],1,right,['0'],6,0.6351383999999598,,,24,19,Vrouw,Rechts,1,
,xotask,xotask,xotask,27,1,87,387,training,positivefb,93,hard,54,1.032751400000052,['c'],1,left,['9'],5,0.47197049999977025,,,24,19,Vrouw,Rechts,1,
,xotask,xotask,xotask,28,1,88,388,training,positivefb,97,average,60,0.7504040999997414,['c'],1,left,['9'],5,0.27863499999966734,,,24,19,Vrouw,Rechts,1,
,xotask,xotask,xotask,29,1,89,389,training,positivefb,96,average,17,0.8510411000002023,['n'],1,right,['9'],5,0.29874530000006416,,,24,19,Vrouw,Rechts,1,
,xotask,xotask,xotask,30,1,90,390,training,positivefb,94,hard,52,1.2829526999998961,['c'],1,left,['8'],4,0.6905264000001807,,,24,19,Vrouw,Rechts,1,
,xotask,xotask,xotask,31,1,91,391,training,positivefb,87,average,62,0.950817399999778,['c'],1,left,['9'],5,0.28944649999994,,,24,19,Vrouw,Rechts,1,
,xotask,xotask,xotask,32,1,92,392,training,positivefb,94,easy,8,0.6015591000000313,['n'],1,right,['9'],5,0.3107574000000568,,,24,19,Vrouw,Rechts,1,
,xotask,xotask,xotask,33,1,93,393,training,positivefb,62,average,18,1.116545600000336,['c'],0,right,['9'],5,0.4299586000001909,,,24,19,Vrouw,Rechts,1,
,xotask,xotask,xotask,34,1,94,394,training,positivefb,98,hard,50,1.0831347000003007,['c'],1,left,['8'],4,0.4658061000000089,,,24,19,Vrouw,Rechts,1,
,xotask,xotask,xotask,35,1,95,395,training,positivefb,98,average,63,0.6332744000001185,['c'],1,left,['0'],6,0.38236860000006345,,,24,19,Vrouw,Rechts,1,
,xotask,xotask,xotask,36,1,96,396,training,positivefb,96,easy,71,0.6333660999998756,['c'],1,left,['0'],6,0.3247231999998803,,,24,19,Vrouw,Rechts,1,
,xotask,xotask,xotask,37,1,97,397,training,positivefb,84,hard,25,1.2163888000000043,['n'],1,right,['9'],5,0.30329759999995076,,,24,19,Vrouw,Rechts,1,
,xotask,xotask,xotask,38,1,98,398,training,positivefb,67,easy,70,0.783360299999913,['c'],1,left,['0'],6,0.29216719999976704,,,24,19,Vrouw,Rechts,1,
,xotask,xotask,xotask,39,1,99,399,training,positivefb,98,average,60,0.6339349999998376,['c'],1,left,['0'],6,0.32763969999996334,,,24,19,Vrouw,Rechts,1,
,xotask,xotask,xotask,40,1,100,400,training,positivefb,96,average,18,0.9005536999998185,['n'],1,right,['0'],6,0.6148459999999432,,,24,19,Vrouw,Rechts,1,
,xotask,xotask,xotask,41,1,101,401,training,positivefb,95,hard,25,0.7508018000003176,['n'],1,right,['0'],6,0.296621899999991,,,24,19,Vrouw,Rechts,1,
,xotask,xotask,xotask,42,1,102,402,training,positivefb,98,average,16,0.6165762000000541,['n'],1,right,['0'],6,0.381030500000179,,,24,19,Vrouw,Rechts,1,
,xotask,xotask,xotask,43,1,103,403,training,positivefb,68,average,64,0.7334295000000566,['c'],1,left,['9'],5,0.31245060000037483,,,24,19,Vrouw,Rechts,1,
,xotask,xotask,xotask,44,1,104,404,training,positivefb,99,easy,70,0.7010049000000436,['c'],1,left,['9'],5,0.2727160000004005,,,24,19,Vrouw,Rechts,1,
,xotask,xotask,xotask,45,1,105,405,training,positivefb,81,average,15,0.8678651000000173,['n'],1,right,['0'],6,0.6914699999997538,,,24,19,Vrouw,Rechts,1,
,xotask,xotask,xotask,46,1,106,406,training,positivefb,76,easy,9,0.6831655999999384,['n'],1,right,['0'],6,0.2606114999998681,,,24,19,Vrouw,Rechts,1,
,xotask,xotask,xotask,47,1,107,407,training,positivefb,80,hard,27,1.7334372999998777,['n'],1,right,['9'],5,0.3566774999999325,,,24,19,Vrouw,Rechts,1,
,xotask,xotask,xotask,48,1,108,408,training,positivefb,90,hard,50,1.5666215999999622,['n'],0,left,['8'],4,0.4960385000003953,,,24,19,Vrouw,Rechts,1,
,xotask,xotask,xotask,49,1,109,409,training,positivefb,76,hard,25,1.5837763000004088,['n'],1,right,['8'],4,0.3576429999998254,,,24,19,Vrouw,Rechts,1,
,xotask,xotask,xotask,50,1,110,410,training,positivefb,90,hard,29,1.38410709999971,['n'],1,right,['9'],5,0.32861629999979414,,,24,19,Vrouw,Rechts,1,
,xotask,xotask,xotask,51,1,111,411,training,positivefb,95,average,63,0.5843912999998793,['c'],1,left,['0'],6,0.37208349999991697,,,24,19,Vrouw,Rechts,1,
,xotask,xotask,xotask,52,1,112,412,training,positivefb,99,easy,71,0.6006944999999178,['c'],1,left,['0'],6,0.2694802000000891,,,24,19,Vrouw,Rechts,1,
,xotask,xotask,xotask,53,1,113,413,training,positivefb,93,hard,54,0.8670960999997988,['c'],1,left,['0'],6,0.3120859000000564,,,24,19,Vrouw,Rechts,1,
,xotask,xotask,xotask,54,1,114,414,training,positivefb,99,easy,72,0.6170624999999745,['c'],1,left,['0'],6,0.5237841000002845,,,24,19,Vrouw,Rechts,1,
,xotask,xotask,xotask,55,1,115,415,training,positivefb,94,easy,71,0.6179892999998629,['c'],1,left,['0'],6,0.2783752000000277,,,24,19,Vrouw,Rechts,1,
,xotask,xotask,xotask,56,1,116,416,training,positivefb,95,easy,74,0.6506238000001758,['c'],1,left,['0'],6,0.3057311999996273,,,24,19,Vrouw,Rechts,1,
,xotask,xotask,xotask,57,1,117,417,training,positivefb,93,average,61,0.6828435000002173,['c'],1,left,['0'],6,0.3942502999998396,,,24,19,Vrouw,Rechts,1,
,xotask,xotask,xotask,58,1,118,418,training,positivefb,96,easy,7,0.8508105999999316,['n'],1,right,['0'],6,0.3929420999998001,,,24,19,Vrouw,Rechts,1,
,xotask,xotask,xotask,59,1,119,419,training,positivefb,57,hard,51,1.1831428000000415,['n'],0,left,['0'],6,0.418239099999937,,,24,19,Vrouw,Rechts,1,
,dotcolour,xotask,xotask,0,2,120,420,main,positivefb,-99,easy,,0.8021238999999696,['c'],1,left,['9'],5,1.6065444000000753,65,,24,19,Vrouw,Rechts,1,
,dotcolour,xotask,xotask,1,2,121,421,main,positivefb,-99,hard,,0.8338372999996864,['c'],1,left,['9'],5,0.29436779999969076,45,,24,19,Vrouw,Rechts,1,
,dotcolour,xotask,xotask,2,2,122,422,main,positivefb,-99,easy,,0.5338572000000568,['c'],1,left,['9'],5,0.34220619999996416,64,,24,19,Vrouw,Rechts,1,
,dotcolour,xotask,xotask,3,2,123,423,main,positivefb,-99,average,,0.568177900000137,['n'],1,right,['9'],5,0.3063073000002987,25,,24,19,Vrouw,Rechts,1,
,dotcolour,xotask,xotask,4,2,124,424,main,positivefb,-99,average,,1.5351871000002575,['n'],1,right,['9'],5,0.5213273000003937,26,,24,19,Vrouw,Rechts,1,
,dotcolour,xotask,xotask,5,2,125,425,main,positivefb,-99,hard,,1.45083139999997,['n'],1,right,['9'],5,0.38024940000013885,36,,24,19,Vrouw,Rechts,1,
,dotcolour,xotask,xotask,6,2,126,426,main,positivefb,-99,easy,,0.8168499999997039,['c'],1,left,['0'],6,0.38891629999989163,61,,24,19,Vrouw,Rechts,1,
,dotcolour,xotask,xotask,7,2,127,427,main,positivefb,-99,easy,,0.7169754999999896,['c'],1,left,['0'],6,0.24207960000012463,65,,24,19,Vrouw,Rechts,1,
,dotcolour,xotask,xotask,8,2,128,428,main,positivefb,-99,average,,1.4329751000000215,['c'],1,left,['8'],4,0.47986939999964306,53,,24,19,Vrouw,Rechts,1,
,dotcolour,xotask,xotask,9,2,129,429,main,positivefb,-99,easy,,0.7848720999995749,['n'],1,right,['9'],5,0.3905909000000065,19,,24,19,Vrouw,Rechts,1,
,dotcolour,xotask,xotask,10,2,130,430,main,positivefb,-99,hard,,1.050918399999773,['c'],0,right,['9'],5,0.23041599999987739,36,,24,19,Vrouw,Rechts,1,
,dotcolour,xotask,xotask,11,2,131,431,main,positivefb,-99,hard,,3.2348578000001,['n'],1,right,['8'],4,0.5327357999999549,38,,24,19,Vrouw,Rechts,1,
,dotcolour,xotask,xotask,12,2,132,432,main,positivefb,-99,average,,1.7503678000002765,['c'],1,left,['9'],5,0.7859198000001015,53,,24,19,Vrouw,Rechts,1,
,dotcolour,xotask,xotask,13,2,133,433,main,positivefb,-99,easy,,0.7010831000002327,['n'],1,right,['0'],6,0.28747919999977967,15,,24,19,Vrouw,Rechts,1,
,dotcolour,xotask,xotask,14,2,134,434,main,positivefb,-99,hard,,0.6676144999996723,['c'],1,left,['9'],5,0.5783434999998462,44,,24,19,Vrouw,Rechts,1,
,dotcolour,xotask,xotask,15,2,135,435,main,positivefb,-99,average,,0.6345191000000341,['c'],1,left,['9'],5,0.35457399999995687,54,,24,19,Vrouw,Rechts,1,
,dotcolour,xotask,xotask,16,2,136,436,main,positivefb,-99,easy,,0.7501670999999988,['n'],1,right,['0'],6,0.30324800000016694,17,,24,19,Vrouw,Rechts,1,
,dotcolour,xotask,xotask,17,2,137,437,main,positivefb,-99,average,,0.7349989999997888,['c'],1,left,['9'],5,0.24653810000017984,51,,24,19,Vrouw,Rechts,1,
,dotcolour,xotask,xotask,18,2,138,438,main,positivefb,-99,easy,,0.6341081999999005,['n'],1,right,['0'],6,0.3000560000000405,18,,24,19,Vrouw,Rechts,1,
,dotcolour,xotask,xotask,19,2,139,439,main,positivefb,-99,hard,,0.7677834000000985,['c'],1,left,['0'],6,0.29071680000015476,41,,24,19,Vrouw,Rechts,1,
,dotcolour,xotask,xotask,20,2,140,440,main,positivefb,-99,easy,,0.617946700000175,['c'],1,left,['0'],6,0.2714304000000993,61,,24,19,Vrouw,Rechts,1,
,dotcolour,xotask,xotask,21,2,141,441,main,positivefb,-99,average,,0.5838155000001279,['n'],1,right,['9'],5,0.3101315000003524,28,,24,19,Vrouw,Rechts,1,
,dotcolour,xotask,xotask,22,2,142,442,main,positivefb,-99,average,,0.8669537000000673,['c'],1,left,['9'],5,0.4236986999999317,53,,24,19,Vrouw,Rechts,1,
,dotcolour,xotask,xotask,23,2,143,443,main,positivefb,-99,hard,,2.5510487000001376,['c'],0,right,['8'],4,0.5139790000002904,38,,24,19,Vrouw,Rechts,1,
,dotcolour,xotask,xotask,24,2,144,444,main,positivefb,-99,hard,,0.7349816000000828,['c'],1,left,['8'],4,0.23278250000021217,45,,24,19,Vrouw,Rechts,1,
,dotcolour,xotask,xotask,25,2,145,445,main,positivefb,-99,hard,,0.9184216999997261,['n'],1,right,['9'],5,0.37990270000000237,39,,24,19,Vrouw,Rechts,1,
,dotcolour,xotask,xotask,26,2,146,446,main,positivefb,-99,average,,1.5851631000000452,['c'],1,left,['8'],4,0.27814500000022235,54,,24,19,Vrouw,Rechts,1,
,dotcolour,xotask,xotask,27,2,147,447,main,positivefb,-99,easy,,0.6839734999998655,['n'],1,right,['0'],6,0.4332749000000149,17,,24,19,Vrouw,Rechts,1,
,dotcolour,xotask,xotask,28,2,148,448,main,positivefb,-99,easy,,0.7844061999999212,['c'],1,left,['0'],6,0.25807540000005247,61,,24,19,Vrouw,Rechts,1,
,dotcolour,xotask,xotask,29,2,149,449,main,positivefb,-99,average,,0.783941700000014,['c'],0,right,['2'],2,2.040908599999966,27,,24,19,Vrouw,Rechts,1,
,dotcolour,xotask,xotask,30,2,150,450,main,positivefb,-99,hard,,3.267603400000098,['c'],0,right,['8'],4,0.5092042999999649,37,,24,19,Vrouw,Rechts,1,
,dotcolour,xotask,xotask,31,2,151,451,main,positivefb,-99,average,,0.9681712999999945,['c'],1,left,['9'],5,0.3473311000002468,54,,24,19,Vrouw,Rechts,1,
,dotcolour,xotask,xotask,32,2,152,452,main,positivefb,-99,hard,,1.9509733999998389,['c'],0,right,['9'],5,0.192525200000091,35,,24,19,Vrouw,Rechts,1,
,dotcolour,xotask,xotask,33,2,153,453,main,positivefb,-99,easy,,0.5680101000002651,['c'],1,left,['0'],6,0.36331049999989773,63,,24,19,Vrouw,Rechts,1,
,dotcolour,xotask,xotask,34,2,154,454,main,positivefb,-99,hard,,1.1176838000001226,['c'],0,right,['9'],5,0.24154719999978624,39,,24,19,Vrouw,Rechts,1,
,dotcolour,xotask,xotask,35,2,155,455,main,positivefb,-99,easy,,0.7346131999997851,['n'],1,right,['0'],6,0.31531559999984893,18,,24,19,Vrouw,Rechts,1,
,dotcolour,xotask,xotask,36,2,156,456,main,positivefb,-99,average,,0.7674643999998807,['c'],1,left,['9'],5,0.2005153000000064,52,,24,19,Vrouw,Rechts,1,
,dotcolour,xotask,xotask,37,2,157,457,main,positivefb,-99,hard,,0.6510466999998243,['c'],1,left,['9'],5,0.2627176999999392,45,,24,19,Vrouw,Rechts,1,
,dotcolour,xotask,xotask,38,2,158,458,main,positivefb,-99,average,,0.7004691000001912,['n'],1,right,['9'],5,0.18558470000016314,27,,24,19,Vrouw,Rechts,1,
,dotcolour,xotask,xotask,39,2,159,459,main,positivefb,-99,easy,,0.5344135999998798,['n'],1,right,['0'],6,0.23815659999991112,16,,24,19,Vrouw,Rechts,1,
,dotcolour,xotask,xotask,40,2,160,460,main,positivefb,-99,average,,0.5506873999997879,['n'],1,right,['9'],5,0.21559549999983574,27,,24,19,Vrouw,Rechts,1,
,dotcolour,xotask,xotask,41,2,161,461,main,positivefb,-99,average,,0.6177451000003202,['n'],1,right,['9'],5,0.23032640000019455,25,,24,19,Vrouw,Rechts,1,
,dotcolour,xotask,xotask,42,2,162,462,main,positivefb,-99,easy,,0.6012501000000157,['c'],1,left,['9'],5,0.2788066999996772,64,,24,19,Vrouw,Rechts,1,
,dotcolour,xotask,xotask,43,2,163,463,main,positivefb,-99,average,,0.4340783000002375,['c'],1,left,['9'],5,0.251539700000194,55,,24,19,Vrouw,Rechts,1,
,dotcolour,xotask,xotask,44,2,164,464,main,positivefb,-99,hard,,1.7666927999998734,['c'],1,left,['8'],4,0.2518099999997503,43,,24,19,Vrouw,Rechts,1,
,dotcolour,xotask,xotask,45,2,165,465,main,positivefb,-99,hard,,1.150961499999994,['c'],0,right,['8'],4,1.7724856999998337,36,,24,19,Vrouw,Rechts,1,
,dotcolour,xotask,xotask,46,2,166,466,main,positivefb,-99,easy,,0.7670765000002575,['n'],1,right,['0'],6,0.3747958000003564,16,,24,19,Vrouw,Rechts,1,
,dotcolour,xotask,xotask,47,2,167,467,main,positivefb,-99,average,,0.8507653000001483,['n'],1,right,['9'],5,0.19933559999981298,27,,24,19,Vrouw,Rechts,1,
,dotcolour,xotask,xotask,48,2,168,468,main,positivefb,-99,average,,0.5849465999999666,['c'],1,left,['8'],4,0.26492759999973714,53,,24,19,Vrouw,Rechts,1,
,dotcolour,xotask,xotask,49,2,169,469,main,positivefb,-99,easy,,0.7338279000000512,['n'],1,right,['9'],5,0.22517980000020543,19,,24,19,Vrouw,Rechts,1,
,dotcolour,xotask,xotask,50,2,170,470,main,positivefb,-99,average,,1.4504797000004146,['n'],1,right,['8'],4,0.21523459999980332,28,,24,19,Vrouw,Rechts,1,
,dotcolour,xotask,xotask,51,2,171,471,main,positivefb,-99,easy,,0.9342646000000059,['c'],1,left,['9'],5,0.22619810000014695,65,,24,19,Vrouw,Rechts,1,
,dotcolour,xotask,xotask,52,2,172,472,main,positivefb,-99,hard,,0.833078199999818,['c'],1,left,['9'],5,0.280953099999806,45,,24,19,Vrouw,Rechts,1,
,dotcolour,xotask,xotask,53,2,173,473,main,positivefb,-99,hard,,0.7845277000001261,['c'],1,left,['9'],5,0.2234465999999884,41,,24,19,Vrouw,Rechts,1,
,dotcolour,xotask,xotask,54,2,174,474,main,positivefb,-99,average,,0.6172193000002153,['c'],0,right,['9'],5,0.6471685000001344,25,,24,19,Vrouw,Rechts,1,
,dotcolour,xotask,xotask,55,2,175,475,main,positivefb,-99,hard,,1.4511253999999099,['c'],1,left,['9'],5,0.5964418000003207,44,,24,19,Vrouw,Rechts,1,
,dotcolour,xotask,xotask,56,2,176,476,main,positivefb,-99,easy,,0.6343948000003365,['n'],1,right,['9'],5,0.299707699999999,16,,24,19,Vrouw,Rechts,1,
,dotcolour,xotask,xotask,57,2,177,477,main,positivefb,-99,easy,,0.5178203000000394,['c'],1,left,['9'],5,0.26749489999974685,63,,24,19,Vrouw,Rechts,1,
,dotcolour,xotask,xotask,58,2,178,478,main,positivefb,-99,hard,,1.6843456000001424,['n'],0,left,['9'],5,0.286863600000288,42,,24,19,Vrouw,Rechts,1,
,dotcolour,xotask,xotask,59,2,179,479,main,positivefb,-99,hard,,1.4172283000002608,['c'],0,right,['9'],5,0.29891170000018974,36,,24,19,Vrouw,Rechts,1,
,dotcolour,xotask,xotask,0,3,180,480,main,positivefb,-99,hard,,2.050949799999671,['n'],1,right,['9'],5,0.24353750000000218,37,,24,19,Vrouw,Rechts,1,
,dotcolour,xotask,xotask,1,3,181,481,main,positivefb,-99,average,,0.6838649000001169,['c'],1,left,['9'],5,0.23919720000003508,52,,24,19,Vrouw,Rechts,1,
,dotcolour,xotask,xotask,2,3,182,482,main,positivefb,-99,hard,,0.9506946999999855,['c'],0,right,['2'],2,1.0966730999998617,39,,24,19,Vrouw,Rechts,1,
,dotcolour,xotask,xotask,3,3,183,483,main,positivefb,-99,average,,1.0008183999998437,['c'],1,left,['9'],5,0.5023787000000084,51,,24,19,Vrouw,Rechts,1,
,dotcolour,xotask,xotask,4,3,184,484,main,positivefb,-99,average,,0.7169748999999683,['c'],1,left,['9'],5,0.2294051999997464,54,,24,19,Vrouw,Rechts,1,
,dotcolour,xotask,xotask,5,3,185,485,main,positivefb,-99,hard,,0.6675067999999555,['c'],1,left,['9'],5,0.2598444999998719,44,,24,19,Vrouw,Rechts,1,
,dotcolour,xotask,xotask,6,3,186,486,main,positivefb,-99,hard,,0.5011451999998826,['c'],0,right,['9'],5,0.7976146999999401,38,,24,19,Vrouw,Rechts,1,
,dotcolour,xotask,xotask,7,3,187,487,main,positivefb,-99,easy,,0.53406380000024,['c'],1,left,['9'],5,0.3375304999999571,61,,24,19,Vrouw,Rechts,1,
,dotcolour,xotask,xotask,8,3,188,488,main,positivefb,-99,average,,0.6669843999998193,['c'],1,left,['9'],5,0.31365590000041266,52,,24,19,Vrouw,Rechts,1,
,dotcolour,xotask,xotask,9,3,189,489,main,positivefb,-99,easy,,0.5179926000000705,['n'],1,right,['9'],5,0.3220200000000659,18,,24,19,Vrouw,Rechts,1,
,dotcolour,xotask,xotask,10,3,190,490,main,positivefb,-99,easy,,0.45105800000010277,['n'],1,right,['9'],5,0.29962849999992613,18,,24,19,Vrouw,Rechts,1,
,dotcolour,xotask,xotask,11,3,191,491,main,positivefb,-99,hard,,1.0678155000000515,['c'],0,right,['9'],5,0.4539790999997422,37,,24,19,Vrouw,Rechts,1,
,dotcolour,xotask,xotask,12,3,192,492,main,positivefb,-99,easy,,0.4019938000001275,['n'],1,right,['0'],6,0.404975899999954,18,,24,19,Vrouw,Rechts,1,
,dotcolour,xotask,xotask,13,3,193,493,main,positivefb,-99,easy,,0.4002547999998569,['c'],0,right,['2'],2,1.3335902999997415,16,,24,19,Vrouw,Rechts,1,
,dotcolour,xotask,xotask,14,3,194,494,main,positivefb,-99,easy,,0.7010943000000225,['c'],1,left,['0'],6,0.5327752000002874,65,,24,19,Vrouw,Rechts,1,
,dotcolour,xotask,xotask,15,3,195,495,main,positivefb,-99,easy,,0.4672873999998046,['c'],1,left,['0'],6,0.2932205000001886,64,,24,19,Vrouw,Rechts,1,
,dotcolour,xotask,xotask,16,3,196,496,main,positivefb,-99,hard,,0.9171713999999156,['c'],1,left,['9'],5,0.422107600000345,44,,24,19,Vrouw,Rechts,1,
,dotcolour,xotask,xotask,17,3,197,497,main,positivefb,-99,easy,,0.6014548000002833,['c'],1,left,['0'],6,0.3421361999999135,65,,24,19,Vrouw,Rechts,1,
,dotcolour,xotask,xotask,18,3,198,498,main,positivefb,-99,average,,0.5176317000000381,['n'],1,right,['0'],6,0.3888764000002993,28,,24,19,Vrouw,Rechts,1,
,dotcolour,xotask,xotask,19,3,199,499,main,positivefb,-99,easy,,0.5174018000002434,['n'],1,right,['0'],6,0.4816273999999794,18,,24,19,Vrouw,Rechts,1,
,dotcolour,xotask,xotask,20,3,200,500,main,positivefb,-99,hard,,1.5509956999999304,['c'],0,right,['9'],5,0.3209400000000642,38,,24,19,Vrouw,Rechts,1,
,dotcolour,xotask,xotask,21,3,201,501,main,positivefb,-99,easy,,0.634172099999887,['n'],1,right,['0'],6,0.3869459999996252,19,,24,19,Vrouw,Rechts,1,
,dotcolour,xotask,xotask,22,3,202,502,main,positivefb,-99,hard,,1.8182480999998916,['c'],1,left,['9'],5,0.3315866999996615,43,,24,19,Vrouw,Rechts,1,
,dotcolour,xotask,xotask,23,3,203,503,main,positivefb,-99,easy,,0.8177056999998058,['c'],1,left,['0'],6,0.279094299999997,61,,24,19,Vrouw,Rechts,1,
,dotcolour,xotask,xotask,24,3,204,504,main,positivefb,-99,hard,,5.417744700000185,['c'],1,left,['8'],4,0.3885881999999583,42,,24,19,Vrouw,Rechts,1,
,dotcolour,xotask,xotask,25,3,205,505,main,positivefb,-99,hard,,0.7008512000002156,['c'],1,left,['9'],5,0.47289109999974244,44,,24,19,Vrouw,Rechts,1,
,dotcolour,xotask,xotask,26,3,206,506,main,positivefb,-99,hard,,0.6336941000004117,['c'],0,right,['8'],4,1.3017979999999625,36,,24,19,Vrouw,Rechts,1,
,dotcolour,xotask,xotask,27,3,207,507,main,positivefb,-99,average,,0.7177470000001449,['c'],1,left,['9'],5,0.2943916999997782,54,,24,19,Vrouw,Rechts,1,
,dotcolour,xotask,xotask,28,3,208,508,main,positivefb,-99,average,,0.585223600000063,['c'],0,right,['2'],2,1.2276667000000998,29,,24,19,Vrouw,Rechts,1,
,dotcolour,xotask,xotask,29,3,209,509,main,positivefb,-99,average,,0.8178726999999526,['n'],1,right,['9'],5,1.259119400000145,28,,24,19,Vrouw,Rechts,1,
,dotcolour,xotask,xotask,30,3,210,510,main,positivefb,-99,hard,,1.068326099999922,['n'],1,right,['9'],5,0.3030679000003147,38,,24,19,Vrouw,Rechts,1,
,dotcolour,xotask,xotask,31,3,211,511,main,positivefb,-99,easy,,0.7340969000001678,['n'],1,right,['0'],6,0.5827108999997108,18,,24,19,Vrouw,Rechts,1,
,dotcolour,xotask,xotask,32,3,212,512,main,positivefb,-99,easy,,0.5849492000002101,['c'],1,left,['9'],5,0.393005599999924,63,,24,19,Vrouw,Rechts,1,
,dotcolour,xotask,xotask,33,3,213,513,main,positivefb,-99,average,,0.41837660000010146,['n'],1,right,['0'],6,0.4251523999996607,26,,24,19,Vrouw,Rechts,1,
,dotcolour,xotask,xotask,34,3,214,514,main,positivefb,-99,hard,,0.9003912999996828,['c'],1,left,['9'],5,0.22959790000004432,44,,24,19,Vrouw,Rechts,1,
,dotcolour,xotask,xotask,35,3,215,515,main,positivefb,-99,easy,,0.9005832000002556,['c'],1,left,['0'],6,0.32906269999966753,61,,24,19,Vrouw,Rechts,1,
,dotcolour,xotask,xotask,36,3,216,516,main,positivefb,-99,average,,0.8176637999999912,['n'],1,right,['9'],5,0.2842559999999139,25,,24,19,Vrouw,Rechts,1,
,dotcolour,xotask,xotask,37,3,217,517,main,positivefb,-99,average,,1.9184006999998928,['n'],1,right,['8'],4,0.1810058000000936,29,,24,19,Vrouw,Rechts,1,
,dotcolour,xotask,xotask,38,3,218,518,main,positivefb,-99,average,,0.7509110999999393,['c'],1,left,['9'],5,0.24840279999989434,52,,24,19,Vrouw,Rechts,1,
,dotcolour,xotask,xotask,39,3,219,519,main,positivefb,-99,hard,,1.2678003999999419,['n'],0,left,['9'],5,0.1809875000003558,45,,24,19,Vrouw,Rechts,1,
,dotcolour,xotask,xotask,40,3,220,520,main,positivefb,-99,hard,,0.6174998999999843,['n'],1,right,['9'],5,0.24632559999963632,39,,24,19,Vrouw,Rechts,1,
,dotcolour,xotask,xotask,41,3,221,521,main,positivefb,-99,hard,,1.6844140999996853,['n'],1,right,['9'],5,0.2423506999998608,36,,24,19,Vrouw,Rechts,1,
,dotcolour,xotask,xotask,42,3,222,522,main,positivefb,-99,average,,0.5179313000003276,['c'],1,left,['9'],5,0.2926195000000007,55,,24,19,Vrouw,Rechts,1,
,dotcolour,xotask,xotask,43,3,223,523,main,positivefb,-99,easy,,0.5340174999996634,['c'],0,right,['1'],1,1.3569736999997986,15,,24,19,Vrouw,Rechts,1,
,dotcolour,xotask,xotask,44,3,224,524,main,positivefb,-99,average,,1.834019399999761,['n'],1,right,['9'],5,0.35841709999976956,28,,24,19,Vrouw,Rechts,1,
,dotcolour,xotask,xotask,45,3,225,525,main,positivefb,-99,easy,,0.7179028999998991,['n'],1,right,['0'],6,0.3408599999997932,19,,24,19,Vrouw,Rechts,1,
,dotcolour,xotask,xotask,46,3,226,526,main,positivefb,-99,hard,,1.0343017000000145,['c'],1,left,['8'],4,0.39834509999991496,44,,24,19,Vrouw,Rechts,1,
,dotcolour,xotask,xotask,47,3,227,527,main,positivefb,-99,easy,,0.6511629000001449,['c'],1,left,['9'],5,0.252379000000019,62,,24,19,Vrouw,Rechts,1,
,dotcolour,xotask,xotask,48,3,228,528,main,positivefb,-99,easy,,0.46801349999986996,['c'],1,left,['9'],5,0.30525340000031065,61,,24,19,Vrouw,Rechts,1,
,dotcolour,xotask,xotask,49,3,229,529,main,positivefb,-99,hard,,0.7678875999999946,['n'],1,right,['9'],5,0.2706833000002007,38,,24,19,Vrouw,Rechts,1,
,dotcolour,xotask,xotask,50,3,230,530,main,positivefb,-99,average,,0.5677926000003026,['n'],1,right,['9'],5,0.2539694000001873,26,,24,19,Vrouw,Rechts,1,
,dotcolour,xotask,xotask,51,3,231,531,main,positivefb,-99,easy,,0.6671157999999195,['c'],1,left,['9'],5,0.24228560000028665,62,,24,19,Vrouw,Rechts,1,
,dotcolour,xotask,xotask,52,3,232,532,main,positivefb,-99,hard,,0.6509985000002416,['c'],1,left,['9'],5,0.26291059999994104,41,,24,19,Vrouw,Rechts,1,
,dotcolour,xotask,xotask,53,3,233,533,main,positivefb,-99,average,,0.8343942999999854,['c'],1,left,['9'],5,0.22103280000010272,51,,24,19,Vrouw,Rechts,1,
,dotcolour,xotask,xotask,54,3,234,534,main,positivefb,-99,average,,0.7351662999999462,['c'],1,left,['9'],5,0.2636984000000666,53,,24,19,Vrouw,Rechts,1,
,dotcolour,xotask,xotask,55,3,235,535,main,positivefb,-99,average,,0.5500263000003542,['n'],1,right,['9'],5,0.27189389999966806,28,,24,19,Vrouw,Rechts,1,
,dotcolour,xotask,xotask,56,3,236,536,main,positivefb,-99,average,,0.5176382999998168,['n'],1,right,['9'],5,0.3374047000002065,28,,24,19,Vrouw,Rechts,1,
,dotcolour,xotask,xotask,57,3,237,537,main,positivefb,-99,average,,0.8010084999996252,['c'],1,left,['8'],4,0.7410617000000457,52,,24,19,Vrouw,Rechts,1,
,dotcolour,xotask,xotask,58,3,238,538,main,positivefb,-99,easy,,0.6840116999997008,['n'],1,right,['9'],5,0.2447320999999647,19,,24,19,Vrouw,Rechts,1,
,dotcolour,xotask,xotask,59,3,239,539,main,positivefb,-99,hard,,1.000719300000128,['c'],1,left,['9'],5,0.6117475000000923,42,,24,19,Vrouw,Rechts,1,
,dotcolour,xotask,xotask,0,4,240,540,main,positivefb,-99,easy,,0.6675083999998606,['c'],1,left,['9'],5,0.2706840999999258,63,,24,19,Vrouw,Rechts,1,
,dotcolour,xotask,xotask,1,4,241,541,main,positivefb,-99,hard,,3.934067900000173,['c'],1,left,['8'],4,0.34394979999979114,44,,24,19,Vrouw,Rechts,1,
,dotcolour,xotask,xotask,2,4,242,542,main,positivefb,-99,hard,,0.683948600000349,['c'],0,right,['9'],5,0.5281221999998706,38,,24,19,Vrouw,Rechts,1,
,dotcolour,xotask,xotask,3,4,243,543,main,positivefb,-99,easy,,0.6339246000002277,['c'],1,left,['9'],5,0.19410310000012032,65,,24,19,Vrouw,Rechts,1,
,dotcolour,xotask,xotask,4,4,244,544,main,positivefb,-99,hard,,0.6005199000001085,['n'],1,right,['9'],5,0.20325210000009974,35,,24,19,Vrouw,Rechts,1,
,dotcolour,xotask,xotask,5,4,245,545,main,positivefb,-99,average,,0.6012144999999691,['n'],1,right,['9'],5,0.22037689999979193,28,,24,19,Vrouw,Rechts,1,
,dotcolour,xotask,xotask,6,4,246,546,main,positivefb,-99,hard,,2.2341057000003275,['c'],1,left,['8'],4,0.19480920000023616,44,,24,19,Vrouw,Rechts,1,
,dotcolour,xotask,xotask,7,4,247,547,main,positivefb,-99,hard,,0.8845182000000023,['n'],1,right,['9'],5,0.18515309999975216,37,,24,19,Vrouw,Rechts,1,
,dotcolour,xotask,xotask,8,4,248,548,main,positivefb,-99,easy,,0.8514310000000478,['c'],1,left,['9'],5,1.0402157999997144,63,,24,19,Vrouw,Rechts,1,
,dotcolour,xotask,xotask,9,4,249,549,main,positivefb,-99,hard,,0.583242600000176,['c'],0,right,['9'],5,0.4483838000001015,39,,24,19,Vrouw,Rechts,1,
,dotcolour,xotask,xotask,10,4,250,550,main,positivefb,-99,hard,,0.38350040000023,['c'],0,right,['8'],4,0.5913674000003084,39,,24,19,Vrouw,Rechts,1,
,dotcolour,xotask,xotask,11,4,251,551,main,positivefb,-99,average,,0.700896300000295,['n'],1,right,['9'],5,0.2850631000001158,26,,24,19,Vrouw,Rechts,1,
,dotcolour,xotask,xotask,12,4,252,552,main,positivefb,-99,average,,0.734774600000037,['c'],1,left,['9'],5,0.5564825999999812,52,,24,19,Vrouw,Rechts,1,
,dotcolour,xotask,xotask,13,4,253,553,main,positivefb,-99,average,,1.4509158999999272,['n'],0,left,['8'],4,0.38946990000022197,51,,24,19,Vrouw,Rechts,1,
,dotcolour,xotask,xotask,14,4,254,554,main,positivefb,-99,easy,,0.5162599000000228,['c'],0,right,['2'],2,1.1301158999999643,18,,24,19,Vrouw,Rechts,1,
,dotcolour,xotask,xotask,15,4,255,555,main,positivefb,-99,average,,0.9009908999996696,['n'],1,right,['9'],5,0.36270699999977296,29,,24,19,Vrouw,Rechts,1,
,dotcolour,xotask,xotask,16,4,256,556,main,positivefb,-99,easy,,0.6340746999999283,['c'],1,left,['8'],4,0.3155357999999069,61,,24,19,Vrouw,Rechts,1,
,dotcolour,xotask,xotask,17,4,257,557,main,positivefb,-99,easy,,0.616018200000326,['n'],1,right,['0'],6,0.2953632999997353,15,,24,19,Vrouw,Rechts,1,
,dotcolour,xotask,xotask,18,4,258,558,main,positivefb,-99,hard,,0.9174971000002188,['n'],0,left,['9'],5,0.14327419999972335,44,,24,19,Vrouw,Rechts,1,
,dotcolour,xotask,xotask,19,4,259,559,main,positivefb,-99,easy,,0.6013400000001639,['c'],1,left,['9'],5,0.23432750000029046,64,,24,19,Vrouw,Rechts,1,
,dotcolour,xotask,xotask,20,4,260,560,main,positivefb,-99,easy,,0.5498867999999675,['c'],1,left,['9'],5,0.29229110000005676,61,,24,19,Vrouw,Rechts,1,
,dotcolour,xotask,xotask,21,4,261,561,main,positivefb,-99,hard,,0.6674984999999651,['n'],1,right,['9'],5,0.2307103000002826,35,,24,19,Vrouw,Rechts,1,
,dotcolour,xotask,xotask,22,4,262,562,main,positivefb,-99,average,,0.8171759000001657,['n'],1,right,['9'],5,0.229484500000126,29,,24,19,Vrouw,Rechts,1,
,dotcolour,xotask,xotask,23,4,263,563,main,positivefb,-99,easy,,0.550593100000242,['n'],1,right,['9'],5,0.3514820000000327,15,,24,19,Vrouw,Rechts,1,
,dotcolour,xotask,xotask,24,4,264,564,main,positivefb,-99,average,,0.7185306999999739,['n'],1,right,['0'],6,0.517116999999871,29,,24,19,Vrouw,Rechts,1,
,dotcolour,xotask,xotask,25,4,265,565,main,positivefb,-99,easy,,0.7011922000001505,['n'],1,right,['0'],6,0.3254722000001493,19,,24,19,Vrouw,Rechts,1,
,dotcolour,xotask,xotask,26,4,266,566,main,positivefb,-99,average,,1.0852467999998225,['n'],0,left,['3'],3,1.7580798000003597,53,,24,19,Vrouw,Rechts,1,
,dotcolour,xotask,xotask,27,4,267,567,main,positivefb,-99,hard,,1.6673894000000473,['c'],1,left,['8'],4,0.5341282999997929,42,,24,19,Vrouw,Rechts,1,
,dotcolour,xotask,xotask,28,4,268,568,main,positivefb,-99,average,,0.7336375999998381,['c'],0,right,['9'],5,0.387977200000023,29,,24,19,Vrouw,Rechts,1,
,dotcolour,xotask,xotask,29,4,269,569,main,positivefb,-99,average,,2.934752000000117,['c'],1,left,['8'],4,0.9846552999997584,52,,24,19,Vrouw,Rechts,1,
,dotcolour,xotask,xotask,30,4,270,570,main,positivefb,-99,hard,,0.6503043000002435,['c'],0,right,['3'],3,1.8952644999999393,38,,24,19,Vrouw,Rechts,1,
,dotcolour,xotask,xotask,31,4,271,571,main,positivefb,-99,easy,,0.6513679999998203,['c'],0,right,['1'],1,1.3468179000001328,16,,24,19,Vrouw,Rechts,1,
,dotcolour,xotask,xotask,32,4,272,572,main,positivefb,-99,hard,,1.2680163999998513,['n'],0,left,['9'],5,0.467728900000111,43,,24,19,Vrouw,Rechts,1,
,dotcolour,xotask,xotask,33,4,273,573,main,positivefb,-99,easy,,0.6169788000001972,['c'],1,left,['8'],4,0.21628340000006574,62,,24,19,Vrouw,Rechts,1,
,dotcolour,xotask,xotask,34,4,274,574,main,positivefb,-99,easy,,0.6014792999999372,['n'],1,right,['9'],5,0.2492395999997825,16,,24,19,Vrouw,Rechts,1,
,dotcolour,xotask,xotask,35,4,275,575,main,positivefb,-99,hard,,0.8000250000000051,['c'],1,left,['8'],4,0.5192404999997962,43,,24,19,Vrouw,Rechts,1,
,dotcolour,xotask,xotask,36,4,276,576,main,positivefb,-99,easy,,0.5681022999997367,['c'],1,left,['9'],5,0.276496799999677,61,,24,19,Vrouw,Rechts,1,
,dotcolour,xotask,xotask,37,4,277,577,main,positivefb,-99,hard,,1.1172559999999976,['n'],1,right,['9'],5,0.2862331000001177,37,,24,19,Vrouw,Rechts,1,
,dotcolour,xotask,xotask,38,4,278,578,main,positivefb,-99,average,,0.8835905999999341,['c'],1,left,['8'],4,0.21623629999976401,55,,24,19,Vrouw,Rechts,1,
,dotcolour,xotask,xotask,39,4,279,579,main,positivefb,-99,average,,0.6838545000000522,['n'],1,right,['9'],5,0.39703529999997045,25,,24,19,Vrouw,Rechts,1,
,dotcolour,xotask,xotask,40,4,280,580,main,positivefb,-99,easy,,6.667494300000271,['n'],1,right,['8'],4,0.38764820000005784,17,,24,19,Vrouw,Rechts,1,
,dotcolour,xotask,xotask,41,4,281,581,main,positivefb,-99,hard,,0.8679407999998148,['c'],1,left,['9'],5,0.30604760000005626,42,,24,19,Vrouw,Rechts,1,
,dotcolour,xotask,xotask,42,4,282,582,main,positivefb,-99,hard,,1.233983900000112,['n'],0,left,['9'],5,0.2374362000000474,45,,24,19,Vrouw,Rechts,1,
,dotcolour,xotask,xotask,43,4,283,583,main,positivefb,-99,average,,5.167449099999885,['c'],1,left,['9'],5,0.31030890000010913,53,,24,19,Vrouw,Rechts,1,
,dotcolour,xotask,xotask,44,4,284,584,main,positivefb,-99,average,,0.7515976999998202,['c'],0,right,['9'],5,0.16451050000023315,28,,24,19,Vrouw,Rechts,1,
,dotcolour,xotask,xotask,45,4,285,585,main,positivefb,-99,easy,,0.6511626999999862,['n'],0,left,['9'],5,0.23638389999996434,62,,24,19,Vrouw,Rechts,1,
,dotcolour,xotask,xotask,46,4,286,586,main,positivefb,-99,easy,,0.5166356999998243,['c'],0,right,['2'],2,1.1189724000000751,19,,24,19,Vrouw,Rechts,1,
,dotcolour,xotask,xotask,47,4,287,587,main,positivefb,-99,average,,0.9010927999997875,['c'],1,left,['9'],5,0.278829300000325,52,,24,19,Vrouw,Rechts,1,
,dotcolour,xotask,xotask,48,4,288,588,main,positivefb,-99,hard,,1.0676831000000675,['c'],0,right,['8'],4,0.15496110000003682,38,,24,19,Vrouw,Rechts,1,
,dotcolour,xotask,xotask,49,4,289,589,main,positivefb,-99,average,,0.6500673000000461,['n'],1,right,['9'],5,0.32379649999984395,29,,24,19,Vrouw,Rechts,1,
,dotcolour,xotask,xotask,50,4,290,590,main,positivefb,-99,easy,,0.45092579999982263,['n'],1,right,['0'],6,0.40523460000031264,18,,24,19,Vrouw,Rechts,1,
,dotcolour,xotask,xotask,51,4,291,591,main,positivefb,-99,hard,,0.7346121999999013,['n'],0,left,['9'],5,1.001496099999713,42,,24,19,Vrouw,Rechts,1,
,dotcolour,xotask,xotask,52,4,292,592,main,positivefb,-99,average,,0.6678560999998808,['n'],1,right,['9'],5,0.8388111999997818,25,,24,19,Vrouw,Rechts,1,
,dotcolour,xotask,xotask,53,4,293,593,main,positivefb,-99,hard,,0.8522360000001754,['c'],1,left,['9'],5,0.36480859999983295,41,,24,19,Vrouw,Rechts,1,
,dotcolour,xotask,xotask,54,4,294,594,main,positivefb,-99,average,,0.585375699999986,['c'],1,left,['9'],5,0.359032699999716,54,,24,19,Vrouw,Rechts,1,
,dotcolour,xotask,xotask,55,4,295,595,main,positivefb,-99,hard,,1.6690057999999226,['n'],1,right,['9'],5,0.39924229999996896,38,,24,19,Vrouw,Rechts,1,
,dotcolour,xotask,xotask,56,4,296,596,main,positivefb,-99,easy,,1.1006815000000643,['n'],1,right,['8'],4,0.26780049999979383,16,,24,19,Vrouw,Rechts,1,
,dotcolour,xotask,xotask,57,4,297,597,main,positivefb,-99,average,,0.8186231999998199,['c'],1,left,['9'],5,0.33652729999994335,54,,24,19,Vrouw,Rechts,1,
,dotcolour,xotask,xotask,58,4,298,598,main,positivefb,-99,easy,,0.6342548000002353,['c'],1,left,['0'],6,0.6105773999997837,64,,24,19,Vrouw,Rechts,1,
,dotcolour,xotask,xotask,59,4,299,599,main,positivefb,-99,average,,0.38456389999964813,['c'],1,left,['0'],6,0.37188719999994646,52,,24,19,Vrouw,Rechts,1,
,xotask,xotask,xotask,0,0,0,600,training,positivefb,64,hard,26,1.250083800000084,['c'],0,right,['9'],5,1.3061735999999655,,,24,19,Vrouw,Rechts,1,
,xotask,xotask,xotask,1,0,1,601,training,positivefb,60,easy,5,0.7992522999998073,['n'],1,right,['0'],6,0.4055313999997452,,,24,19,Vrouw,Rechts,1,
,xotask,xotask,xotask,2,0,2,602,training,positivefb,95,average,18,0.7342914999999266,['n'],1,right,['9'],5,0.3351981999999225,,,24,19,Vrouw,Rechts,1,
,xotask,xotask,xotask,3,0,3,603,training,positivefb,99,easy,7,0.567225100000087,['n'],1,right,['9'],5,0.34714930000018285,,,24,19,Vrouw,Rechts,1,
,xotask,xotask,xotask,4,0,4,604,training,positivefb,99,easy,8,0.48302090000015596,['n'],1,right,['9'],5,0.40984679999974105,,,24,19,Vrouw,Rechts,1,
,xotask,xotask,xotask,5,0,5,605,training,positivefb,86,easy,70,0.5506360999997923,['c'],1,left,['9'],5,0.30837249999967753,,,24,19,Vrouw,Rechts,1,
,xotask,xotask,xotask,6,0,6,606,training,positivefb,95,hard,52,0.700817299999926,['c'],1,left,['9'],5,0.2764241999998376,,,24,19,Vrouw,Rechts,1,
,xotask,xotask,xotask,7,0,7,607,training,positivefb,91,average,64,0.6842280999999275,['c'],1,left,['9'],5,0.31050679999998465,,,24,19,Vrouw,Rechts,1,
,xotask,xotask,xotask,8,0,8,608,training,positivefb,99,easy,5,0.4835592999997971,['n'],1,right,['0'],6,0.31893040000022665,,,24,19,Vrouw,Rechts,1,
,xotask,xotask,xotask,9,0,9,609,training,positivefb,100,easy,73,0.5509855999998763,['c'],1,left,['0'],6,0.3083443000000443,,,24,19,Vrouw,Rechts,1,
,xotask,xotask,xotask,10,0,10,610,training,positivefb,86,average,18,0.783534800000325,['n'],1,right,['9'],5,0.30503630000021076,,,24,19,Vrouw,Rechts,1,
,xotask,xotask,xotask,11,0,11,611,training,positivefb,97,average,61,0.7002243000001727,['c'],1,left,['9'],5,0.17718039999999746,,,24,19,Vrouw,Rechts,1,
,xotask,xotask,xotask,12,0,12,612,training,positivefb,8,hard,27,0.566746299999977,['c'],0,right,['8'],4,0.8993849000003138,,,24,19,Vrouw,Rechts,1,
,xotask,xotask,xotask,13,0,13,613,training,positivefb,32,average,60,0.7832987000001594,['n'],0,left,['2'],2,1.2003810000001067,,,24,19,Vrouw,Rechts,1,
,xotask,xotask,xotask,14,0,14,614,training,positivefb,99,hard,50,0.7004587000001266,['c'],1,left,['9'],5,0.3081901000000471,,,24,19,Vrouw,Rechts,1,
,xotask,xotask,xotask,15,0,15,615,training,positivefb,98,easy,70,0.5673870999999053,['c'],1,left,['0'],6,0.24114090000011856,,,24,19,Vrouw,Rechts,1,
,xotask,xotask,xotask,16,0,16,616,training,positivefb,91,easy,8,0.8161753999997927,['n'],1,right,['0'],6,0.3752542000001995,,,24,19,Vrouw,Rechts,1,
,xotask,xotask,xotask,17,0,17,617,training,positivefb,75,hard,53,0.866074000000026,['n'],0,left,['9'],5,0.3742832000002636,,,24,19,Vrouw,Rechts,1,
,xotask,xotask,xotask,18,0,18,618,training,positivefb,93,average,62,0.7834702999998626,['c'],1,left,['9'],5,0.2873608999998396,,,24,19,Vrouw,Rechts,1,
,xotask,xotask,xotask,19,0,19,619,training,positivefb,93,average,15,0.9328540999999859,['n'],1,right,['9'],5,0.3672234999999091,,,24,19,Vrouw,Rechts,1,
,xotask,xotask,xotask,20,0,20,620,training,positivefb,96,easy,74,0.6337051999998948,['c'],1,left,['9'],5,0.27910220000012487,,,24,19,Vrouw,Rechts,1,
,xotask,xotask,xotask,21,0,21,621,training,positivefb,75,easy,73,4.367071000000124,['c'],1,left,['0'],6,0.44526730000006864,,,24,19,Vrouw,Rechts,1,
,xotask,xotask,xotask,22,0,22,622,training,positivefb,98,easy,71,0.5335857999998552,['c'],1,left,['0'],6,0.1989518999998836,,,24,19,Vrouw,Rechts,1,
,xotask,xotask,xotask,23,0,23,623,training,positivefb,76,hard,26,0.5159736000000521,['c'],0,right,['8'],4,0.7378618000002461,,,24,19,Vrouw,Rechts,1,
,xotask,xotask,xotask,24,0,24,624,training,positivefb,97,average,63,0.5514663999997538,['c'],1,left,['9'],5,0.3192157999997107,,,24,19,Vrouw,Rechts,1,
,xotask,xotask,xotask,25,0,25,625,training,positivefb,100,hard,29,0.5496361000000434,['n'],1,right,['9'],5,0.3405420000003687,,,24,19,Vrouw,Rechts,1,
,xotask,xotask,xotask,26,0,26,626,training,positivefb,85,easy,9,0.684863999999834,['n'],1,right,['9'],5,0.20419489999994767,,,24,19,Vrouw,Rechts,1,
,xotask,xotask,xotask,27,0,27,627,training,positivefb,98,easy,6,0.3838246000000254,['n'],1,right,['9'],5,0.13169440000001487,,,24,19,Vrouw,Rechts,1,
,xotask,xotask,xotask,28,0,28,628,training,positivefb,99,hard,54,0.4828690999997889,['n'],0,left,['8'],4,0.5078385000001617,,,24,19,Vrouw,Rechts,1,
,xotask,xotask,xotask,29,0,29,629,training,positivefb,95,average,18,0.4664492000001701,['n'],1,right,['8'],4,0.22907859999986613,,,24,19,Vrouw,Rechts,1,
,xotask,xotask,xotask,30,0,30,630,training,positivefb,95,hard,28,0.599116999999751,['n'],1,right,['8'],4,0.1880580000001828,,,24,19,Vrouw,Rechts,1,
,xotask,xotask,xotask,31,0,31,631,training,positivefb,94,easy,73,0.5675615000000107,['c'],1,left,['9'],5,0.14185550000001967,,,24,19,Vrouw,Rechts,1,
,xotask,xotask,xotask,32,0,32,632,training,positivefb,87,average,19,0.8830841999997574,['n'],1,right,['9'],5,0.2693395999999666,,,24,19,Vrouw,Rechts,1,
,xotask,xotask,xotask,33,0,33,633,training,positivefb,74,average,15,1.1168444999998428,['n'],1,right,['8'],4,0.1981844000001729,,,24,19,Vrouw,Rechts,1,
,xotask,xotask,xotask,34,0,34,634,training,positivefb,97,average,16,0.5831417999997939,['n'],1,right,['8'],4,0.2231712000002517,,,24,19,Vrouw,Rechts,1,
,xotask,xotask,xotask,35,0,35,635,training,positivefb,99,easy,7,0.48276609999993525,['n'],1,right,['9'],5,0.23508010000023205,,,24,19,Vrouw,Rechts,1,
,xotask,xotask,xotask,36,0,36,636,training,positivefb,94,average,15,0.7001247999996849,['n'],1,right,['0'],6,0.2613827999998648,,,24,19,Vrouw,Rechts,1,
,xotask,xotask,xotask,37,0,37,637,training,positivefb,87,average,63,0.7330074999999852,['c'],1,left,['0'],6,0.2065428000000793,,,24,19,Vrouw,Rechts,1,
,xotask,xotask,xotask,38,0,38,638,training,positivefb,94,hard,29,1.1998404999999366,['n'],1,right,['9'],5,0.29466809999985344,,,24,19,Vrouw,Rechts,1,
,xotask,xotask,xotask,39,0,39,639,training,positivefb,97,easy,73,0.5502480999998625,['c'],1,left,['0'],6,0.30126700000027995,,,24,19,Vrouw,Rechts,1,
,xotask,xotask,xotask,40,0,40,640,training,positivefb,24,average,17,0.6835734000001139,['c'],0,right,['3'],3,0.853681300000062,,,24,19,Vrouw,Rechts,1,
,xotask,xotask,xotask,41,0,41,641,training,positivefb,100,easy,72,0.6498612999998841,['c'],1,left,['0'],6,0.6013468000001012,,,24,19,Vrouw,Rechts,1,
,xotask,xotask,xotask,42,0,42,642,training,positivefb,63,hard,25,1.1842827000000398,['c'],0,right,['8'],4,0.5466917999997349,,,24,19,Vrouw,Rechts,1,
,xotask,xotask,xotask,43,0,43,643,training,positivefb,82,average,61,0.7165435000001708,['c'],1,left,['9'],5,0.32847860000038054,,,24,19,Vrouw,Rechts,1,
,xotask,xotask,xotask,44,0,44,644,training,positivefb,83,average,17,0.8665458000000399,['n'],1,right,['9'],5,0.32964959999981147,,,24,19,Vrouw,Rechts,1,
,xotask,xotask,xotask,45,0,45,645,training,positivefb,100,easy,74,0.7998585000000276,['c'],1,left,['9'],5,2.8764039000002413,,,24,19,Vrouw,Rechts,1,
,xotask,xotask,xotask,46,0,46,646,training,positivefb,97,easy,5,0.7332509999996546,['n'],1,right,['9'],5,0.16359950000014578,,,24,19,Vrouw,Rechts,1,
,xotask,xotask,xotask,47,0,47,647,training,positivefb,92,hard,54,0.716986899999938,['c'],1,left,['9'],5,0.21761719999994966,,,24,19,Vrouw,Rechts,1,
,xotask,xotask,xotask,48,0,48,648,training,positivefb,92,hard,26,1.0497128000001794,['n'],1,right,['9'],5,0.23052340000003824,,,24,19,Vrouw,Rechts,1,
,xotask,xotask,xotask,49,0,49,649,training,positivefb,93,hard,27,1.1171457999998893,['c'],0,right,['9'],5,0.2573896999997487,,,24,19,Vrouw,Rechts,1,
,xotask,xotask,xotask,50,0,50,650,training,positivefb,78,hard,27,2.1844505999997637,['c'],0,right,['8'],4,0.27944179999985863,,,24,19,Vrouw,Rechts,1,
,xotask,xotask,xotask,51,0,51,651,training,positivefb,95,hard,51,0.6002371999998104,['c'],1,left,['8'],4,0.19670750000022963,,,24,19,Vrouw,Rechts,1,
,xotask,xotask,xotask,52,0,52,652,training,positivefb,88,average,64,0.6678468000000066,['c'],1,left,['8'],4,0.2036576000000423,,,24,19,Vrouw,Rechts,1,
,xotask,xotask,xotask,53,0,53,653,training,positivefb,77,hard,51,1.651391699999749,['n'],0,left,['9'],5,0.2898968000004061,,,24,19,Vrouw,Rechts,1,
,xotask,xotask,xotask,54,0,54,654,training,positivefb,85,average,62,0.7002772999999252,['c'],1,left,['9'],5,0.2020564999997987,,,24,19,Vrouw,Rechts,1,
,xotask,xotask,xotask,55,0,55,655,training,positivefb,94,hard,54,0.48307660000000396,['c'],1,left,['9'],5,0.24675799999977244,,,24,19,Vrouw,Rechts,1,
,xotask,xotask,xotask,56,0,56,656,training,positivefb,97,hard,51,0.9339196000000811,['c'],1,left,['9'],5,0.3759287000002587,,,24,19,Vrouw,Rechts,1,
,xotask,xotask,xotask,57,0,57,657,training,positivefb,96,hard,51,2.0503637000001618,['c'],1,left,['8'],4,1.014780200000132,,,24,19,Vrouw,Rechts,1,
,xotask,xotask,xotask,58,0,58,658,training,positivefb,69,easy,9,0.867496299999857,['c'],0,right,['3'],3,1.3471936000000824,,,24,19,Vrouw,Rechts,1,
,xotask,xotask,xotask,59,0,59,659,training,positivefb,96,average,63,0.7329177999999956,['c'],1,left,['9'],5,0.21585330000016256,,,24,19,Vrouw,Rechts,1,
,xotask,xotask,xotask,0,1,60,660,training,positivefb,88,hard,50,1.8511206000002858,['c'],1,left,['8'],4,0.48673939999980576,,,24,19,Vrouw,Rechts,1,
,xotask,xotask,xotask,1,1,61,661,training,positivefb,98,average,61,0.667820600000141,['c'],1,left,['9'],5,0.30539660000022195,,,24,19,Vrouw,Rechts,1,
,xotask,xotask,xotask,2,1,62,662,training,positivefb,93,easy,9,0.7331216000002314,['n'],1,right,['9'],5,0.32001260000015463,,,24,19,Vrouw,Rechts,1,
,xotask,xotask,xotask,3,1,63,663,training,positivefb,93,easy,8,0.3990246999996998,['n'],1,right,['9'],5,0.2267693000003419,,,24,19,Vrouw,Rechts,1,
,xotask,xotask,xotask,4,1,64,664,training,positivefb,100,hard,25,0.45027319999962856,['n'],1,right,['9'],5,0.24067409999997835,,,24,19,Vrouw,Rechts,1,
,xotask,xotask,xotask,5,1,65,665,training,positivefb,86,average,64,0.6832382000002326,['n'],0,left,['8'],4,0.9719361000002209,,,24,19,Vrouw,Rechts,1,
,xotask,xotask,xotask,6,1,66,666,training,positivefb,92,average,18,0.5676002999998673,['n'],1,right,['9'],5,0.38263929999993707,,,24,19,Vrouw,Rechts,1,
,xotask,xotask,xotask,7,1,67,667,training,positivefb,99,average,15,0.5999455000001035,['n'],1,right,['0'],6,0.23096329999998488,,,24,19,Vrouw,Rechts,1,
,xotask,xotask,xotask,8,1,68,668,training,positivefb,99,average,19,0.5330701999996563,['n'],1,right,['0'],6,0.3531625000000531,,,24,19,Vrouw,Rechts,1,
,xotask,xotask,xotask,9,1,69,669,training,positivefb,93,average,17,2.6170399999996334,['n'],1,right,['9'],5,0.45778969999992114,,,24,19,Vrouw,Rechts,1,
