starttime,task,fbtask,firsttask,withinblocktrial,block,withintasktrial,trial,running,feedback,fbscore,difflevel,n_xes,rt,resp,cor,cresp,conf_press,cj,RTconf,reddots,post1,post2,post3,post4,post5,stoptime,sub,age,gender,handedness,session,
1715675568,xotask,xotask,dotcolour,0,0,0,0,training,negativefb,34,hard,52,1.8834901000000173,['n'],0,left,['3'],4,1.7298461999998835,,,,,,,,17,20,Man,Rechts,2,
,xotask,xotask,dotcolour,1,0,1,1,training,negativefb,52,average,62,1.565984899999421,['c'],1,left,['2'],5,1.0302354000004925,,,,,,,,17,20,Man,Rechts,2,
,xotask,xotask,dotcolour,2,0,2,2,training,negativefb,23,hard,29,1.6332143999998152,['c'],0,right,['3'],4,0.2360540999998193,,,,,,,,17,20,Man,Rechts,2,
,xotask,xotask,dotcolour,3,0,3,3,training,negativefb,96,easy,72,0.9173464000004969,['c'],1,left,['1'],6,0.7015608000001521,,,,,,,,17,20,Man,Rechts,2,
,xotask,xotask,dotcolour,4,0,4,4,training,negativefb,88,hard,28,2.6509470999999394,['n'],1,right,['3'],4,0.9995086999997511,,,,,,,,17,20,Man,Rechts,2,
,xotask,xotask,dotcolour,5,0,5,5,training,negativefb,65,easy,72,0.8498992999993789,['c'],1,left,['1'],6,0.3735194999999294,,,,,,,,17,20,Man,Rechts,2,
,xotask,xotask,dotcolour,6,0,6,6,training,negativefb,81,easy,5,1.1170468999998775,['n'],1,right,['1'],6,0.29922390000047017,,,,,,,,17,20,Man,Rechts,2,
,xotask,xotask,dotcolour,7,0,7,7,training,negativefb,36,hard,26,1.0840125000004264,['n'],1,right,['3'],4,0.5795798999997714,,,,,,,,17,20,Man,Rechts,2,
,xotask,xotask,dotcolour,8,0,8,8,training,negativefb,42,easy,73,1.0496442000003299,['c'],1,left,['2'],5,0.40212719999999536,,,,,,,,17,20,Man,Rechts,2,
,xotask,xotask,dotcolour,9,0,9,9,training,negativefb,89,average,60,1.7656283000005715,['c'],1,left,['2'],5,0.9323504000003595,,,,,,,,17,20,Man,Rechts,2,
,xotask,xotask,dotcolour,10,0,10,10,training,negativefb,70,average,19,1.2836020999993707,['n'],1,right,['2'],5,0.3719580999995742,,,,,,,,17,20,Man,Rechts,2,
,xotask,xotask,dotcolour,11,0,11,11,training,negativefb,70,average,64,1.1674822000004497,['c'],1,left,['3'],4,0.365859300000011,,,,,,,,17,20,Man,Rechts,2,
,xotask,xotask,dotcolour,12,0,12,12,training,negativefb,97,easy,7,0.8496969000007084,['n'],1,right,['1'],6,0.9582512999995743,,,,,,,,17,20,Man,Rechts,2,
,xotask,xotask,dotcolour,13,0,13,13,training,negativefb,71,average,16,0.9172422000001461,['n'],1,right,['1'],6,0.5634331999999631,,,,,,,,17,20,Man,Rechts,2,
,xotask,xotask,dotcolour,14,0,14,14,training,negativefb,58,hard,50,1.7000041999999667,['n'],0,left,['3'],4,0.20132730000023003,,,,,,,,17,20,Man,Rechts,2,
,xotask,xotask,dotcolour,15,0,15,15,training,negativefb,68,easy,74,1.0503060999999434,['c'],1,left,['1'],6,0.24693890000071406,,,,,,,,17,20,Man,Rechts,2,
,xotask,xotask,dotcolour,16,0,16,16,training,negativefb,73,average,18,1.1178759999993417,['n'],1,right,['2'],5,0.2886716000002707,,,,,,,,17,20,Man,Rechts,2,
,xotask,xotask,dotcolour,17,0,17,17,training,negativefb,59,easy,6,0.9994530000003579,['n'],1,right,['2'],5,0.3098372999993444,,,,,,,,17,20,Man,Rechts,2,
,xotask,xotask,dotcolour,18,0,18,18,training,negativefb,57,easy,7,0.7004604000003383,['n'],1,right,['1'],6,0.2694870000004812,,,,,,,,17,20,Man,Rechts,2,
,xotask,xotask,dotcolour,19,0,19,19,training,negativefb,69,average,16,0.9326876000004631,['n'],1,right,['3'],4,0.33356430000003456,,,,,,,,17,20,Man,Rechts,2,
,xotask,xotask,dotcolour,20,0,20,20,training,negativefb,91,easy,71,0.8506452999999965,['c'],1,left,['1'],6,0.29435879999982717,,,,,,,,17,20,Man,Rechts,2,
,xotask,xotask,dotcolour,21,0,21,21,training,negativefb,44,hard,53,1.0684201000003668,['c'],1,left,['2'],5,0.2086632999998983,,,,,,,,17,20,Man,Rechts,2,
,xotask,xotask,dotcolour,22,0,22,22,training,negativefb,59,hard,29,1.2010941999997158,['n'],1,right,['2'],5,0.27245179999954416,,,,,,,,17,20,Man,Rechts,2,
,xotask,xotask,dotcolour,23,0,23,23,training,negativefb,60,easy,7,0.9828111000006174,['n'],1,right,['1'],6,0.2864738000007492,,,,,,,,17,20,Man,Rechts,2,
,xotask,xotask,dotcolour,24,0,24,24,training,negativefb,74,average,60,1.1834687999999005,['c'],1,left,['1'],6,0.1875094999995781,,,,,,,,17,20,Man,Rechts,2,
,xotask,xotask,dotcolour,25,0,25,25,training,negativefb,76,average,16,1.0334150999997291,['n'],1,right,['1'],6,0.2193812000004982,,,,,,,,17,20,Man,Rechts,2,
,xotask,xotask,dotcolour,26,0,26,26,training,negativefb,87,hard,51,1.1167110999995202,['c'],1,left,['2'],5,0.27039719999993395,,,,,,,,17,20,Man,Rechts,2,
,xotask,xotask,dotcolour,27,0,27,27,training,negativefb,91,easy,74,0.8163875000000189,['c'],1,left,['2'],5,0.28297740000016347,,,,,,,,17,20,Man,Rechts,2,
,xotask,xotask,dotcolour,28,0,28,28,training,negativefb,53,hard,53,0.9509902999998303,['c'],1,left,['2'],5,0.27362649999940913,,,,,,,,17,20,Man,Rechts,2,
,xotask,xotask,dotcolour,29,0,29,29,training,negativefb,86,average,60,0.8011675999996442,['c'],1,left,['2'],5,0.2301551999998992,,,,,,,,17,20,Man,Rechts,2,
,xotask,xotask,dotcolour,30,0,30,30,training,negativefb,76,hard,54,1.482802399999855,['c'],1,left,['3'],4,0.25043879999975616,,,,,,,,17,20,Man,Rechts,2,
,xotask,xotask,dotcolour,31,0,31,31,training,negativefb,50,average,17,1.5509090999994442,['n'],1,right,['2'],5,0.17911240000012185,,,,,,,,17,20,Man,Rechts,2,
,xotask,xotask,dotcolour,32,0,32,32,training,negativefb,73,hard,29,1.1993268000005628,['n'],1,right,['3'],4,0.18866499999967346,,,,,,,,17,20,Man,Rechts,2,
,xotask,xotask,dotcolour,33,0,33,33,training,negativefb,74,average,15,1.418490699999893,['n'],1,right,['3'],4,0.19582070000069507,,,,,,,,17,20,Man,Rechts,2,
,xotask,xotask,dotcolour,34,0,34,34,training,negativefb,59,average,19,0.9681814999994458,['c'],0,right,['3'],4,0.22164119999979448,,,,,,,,17,20,Man,Rechts,2,
,xotask,xotask,dotcolour,35,0,35,35,training,negativefb,76,average,60,0.9499235999992379,['c'],1,left,['3'],4,0.4719442000005074,,,,,,,,17,20,Man,Rechts,2,
,xotask,xotask,dotcolour,36,0,36,36,training,negativefb,31,hard,52,1.3674174999996467,['n'],0,left,['3'],4,0.2377716999999393,,,,,,,,17,20,Man,Rechts,2,
,xotask,xotask,dotcolour,37,0,37,37,training,negativefb,60,hard,28,3.4004871999995885,['n'],1,right,['3'],4,0.2923722999994425,,,,,,,,17,20,Man,Rechts,2,
,xotask,xotask,dotcolour,38,0,38,38,training,negativefb,87,hard,51,1.1009179000002405,['c'],1,left,['3'],4,0.2057505000002493,,,,,,,,17,20,Man,Rechts,2,
,xotask,xotask,dotcolour,39,0,39,39,training,negativefb,42,hard,29,0.9010264999997162,['n'],1,right,['3'],4,0.14590489999955025,,,,,,,,17,20,Man,Rechts,2,
,xotask,xotask,dotcolour,40,0,40,40,training,negativefb,64,easy,73,0.884379799999806,['c'],1,left,['1'],6,0.25684430000001157,,,,,,,,17,20,Man,Rechts,2,
,xotask,xotask,dotcolour,41,0,41,41,training,negativefb,81,hard,26,1.0000703999994585,['n'],1,right,['3'],4,0.1750541000001249,,,,,,,,17,20,Man,Rechts,2,
,xotask,xotask,dotcolour,42,0,42,42,training,negativefb,76,hard,52,1.4497235999997429,['n'],0,left,['3'],4,0.15780459999950835,,,,,,,,17,20,Man,Rechts,2,
,xotask,xotask,dotcolour,43,0,43,43,training,negativefb,53,average,63,1.2501148999999714,['c'],1,left,['2'],5,0.11045749999993859,,,,,,,,17,20,Man,Rechts,2,
,xotask,xotask,dotcolour,44,0,44,44,training,negativefb,14,hard,54,0.7675826000004236,['c'],1,left,['2'],5,0.16313520000039716,,,,,,,,17,20,Man,Rechts,2,
,xotask,xotask,dotcolour,45,0,45,45,training,negativefb,89,hard,25,1.9668443999999,['n'],1,right,['2'],5,0.7994380999998612,,,,,,,,17,20,Man,Rechts,2,
,xotask,xotask,dotcolour,46,0,46,46,training,negativefb,53,easy,72,0.9332012000004397,['c'],1,left,['2'],5,0.20928579999963404,,,,,,,,17,20,Man,Rechts,2,
,xotask,xotask,dotcolour,47,0,47,47,training,negativefb,86,average,64,0.7008416000007855,['c'],1,left,['1'],6,0.1735913000002256,,,,,,,,17,20,Man,Rechts,2,
,xotask,xotask,dotcolour,48,0,48,48,training,negativefb,70,average,19,0.999087000000145,['n'],1,right,['1'],6,0.12660979999964184,,,,,,,,17,20,Man,Rechts,2,
,xotask,xotask,dotcolour,49,0,49,49,training,negativefb,74,easy,8,2.86641999999938,['n'],1,right,['2'],5,0.5036909000000378,,,,,,,,17,20,Man,Rechts,2,
,xotask,xotask,dotcolour,50,0,50,50,training,negativefb,89,easy,72,0.8166864000004352,['c'],1,left,['2'],5,0.2673536000002059,,,,,,,,17,20,Man,Rechts,2,
,xotask,xotask,dotcolour,51,0,51,51,training,negativefb,45,hard,25,1.1169818999997005,['n'],1,right,['1'],6,0.24386200000026292,,,,,,,,17,20,Man,Rechts,2,
,xotask,xotask,dotcolour,52,0,52,52,training,negativefb,62,easy,6,0.8664604000005056,['n'],1,right,['2'],5,0.23968500000046333,,,,,,,,17,20,Man,Rechts,2,
,xotask,xotask,dotcolour,53,0,53,53,training,negativefb,79,easy,74,1.0002099000003,['c'],1,left,['2'],5,0.2544097999998485,,,,,,,,17,20,Man,Rechts,2,
,xotask,xotask,dotcolour,54,0,54,54,training,negativefb,48,average,62,1.35123029999977,['n'],0,left,['3'],4,0.2628279999998995,,,,,,,,17,20,Man,Rechts,2,
,xotask,xotask,dotcolour,55,0,55,55,training,negativefb,70,easy,9,1.1678020999997898,['n'],1,right,['1'],6,0.21343479999995907,,,,,,,,17,20,Man,Rechts,2,
,xotask,xotask,dotcolour,56,0,56,56,training,negativefb,86,easy,9,0.683060000000296,['n'],1,right,['2'],5,0.38684939999984636,,,,,,,,17,20,Man,Rechts,2,
,xotask,xotask,dotcolour,57,0,57,57,training,negativefb,72,average,19,1.416285400000561,['n'],1,right,['3'],4,0.20212439999977505,,,,,,,,17,20,Man,Rechts,2,
,xotask,xotask,dotcolour,58,0,58,58,training,negativefb,63,average,61,0.8668298000002324,['c'],1,left,['2'],5,0.263915999999881,,,,,,,,17,20,Man,Rechts,2,
,xotask,xotask,dotcolour,59,0,59,59,training,negativefb,90,easy,5,0.8008492999997543,['n'],1,right,['2'],5,0.2533204999999725,,,,,,,,17,20,Man,Rechts,2,
,xotask,xotask,dotcolour,0,1,60,60,training,negativefb,45,average,62,1.534153000000515,['c'],1,left,['3'],4,0.35634509999999864,,,,,,,,17,20,Man,Rechts,2,
,xotask,xotask,dotcolour,1,1,61,61,training,negativefb,37,average,61,2.000646499999675,['n'],0,left,['3'],4,0.150206999999682,,,,,,,,17,20,Man,Rechts,2,
,xotask,xotask,dotcolour,2,1,62,62,training,negativefb,59,hard,51,0.7173439999996845,['c'],1,left,['3'],4,1.0836014999995314,,,,,,,,17,20,Man,Rechts,2,
,xotask,xotask,dotcolour,3,1,63,63,training,negativefb,71,easy,72,0.7160044000002017,['c'],1,left,['2'],5,0.22823050000079093,,,,,,,,17,20,Man,Rechts,2,
,xotask,xotask,dotcolour,4,1,64,64,training,negativefb,39,hard,52,1.3007659000004423,['c'],1,left,['3'],4,0.16731919999983802,,,,,,,,17,20,Man,Rechts,2,
,xotask,xotask,dotcolour,5,1,65,65,training,negativefb,70,easy,6,1.2512444000003597,['n'],1,right,['3'],4,0.3112202000002071,,,,,,,,17,20,Man,Rechts,2,
,xotask,xotask,dotcolour,6,1,66,66,training,negativefb,28,easy,9,0.8500762000003306,['n'],1,right,['3'],4,0.17749220000041532,,,,,,,,17,20,Man,Rechts,2,
,xotask,xotask,dotcolour,7,1,67,67,training,negativefb,69,easy,7,0.7838191999999253,['n'],1,right,['2'],5,0.1794412999997803,,,,,,,,17,20,Man,Rechts,2,
,xotask,xotask,dotcolour,8,1,68,68,training,negativefb,87,easy,70,0.9004069000002346,['c'],1,left,['2'],5,0.1843791000001147,,,,,,,,17,20,Man,Rechts,2,
,xotask,xotask,dotcolour,9,1,69,69,training,negativefb,49,average,64,1.3665446000004522,['c'],1,left,['3'],4,0.2018447999998898,,,,,,,,17,20,Man,Rechts,2,
,xotask,xotask,dotcolour,10,1,70,70,training,negativefb,42,hard,27,1.0825924000000668,['n'],1,right,['3'],4,0.11933279999993829,,,,,,,,17,20,Man,Rechts,2,
,xotask,xotask,dotcolour,11,1,71,71,training,negativefb,82,average,60,0.6994174999999814,['c'],1,left,['3'],4,0.1659153000000515,,,,,,,,17,20,Man,Rechts,2,
,xotask,xotask,dotcolour,12,1,72,72,training,negativefb,66,easy,5,0.8341502000002947,['n'],1,right,['2'],5,0.1822517999999036,,,,,,,,17,20,Man,Rechts,2,
,xotask,xotask,dotcolour,13,1,73,73,training,negativefb,71,easy,6,0.650692700000036,['n'],1,right,['1'],6,0.10196350000023813,,,,,,,,17,20,Man,Rechts,2,
,xotask,xotask,dotcolour,14,1,74,74,training,negativefb,69,average,16,0.9342782000003353,['n'],1,right,['3'],4,0.1720089000000371,,,,,,,,17,20,Man,Rechts,2,
,xotask,xotask,dotcolour,15,1,75,75,training,negativefb,68,easy,7,0.8338525999997728,['n'],1,right,['3'],4,0.132241399999657,,,,,,,,17,20,Man,Rechts,2,
,xotask,xotask,dotcolour,16,1,76,76,training,negativefb,55,hard,25,1.801346399999602,['c'],0,right,['3'],4,0.2140015000004496,,,,,,,,17,20,Man,Rechts,2,
,xotask,xotask,dotcolour,17,1,77,77,training,negativefb,55,hard,29,1.7838033999996696,['n'],1,right,['3'],4,0.1587061000000176,,,,,,,,17,20,Man,Rechts,2,
,xotask,xotask,dotcolour,18,1,78,78,training,negativefb,75,easy,5,0.8843655000000581,['n'],1,right,['1'],6,0.11705340000025899,,,,,,,,17,20,Man,Rechts,2,
,xotask,xotask,dotcolour,19,1,79,79,training,negativefb,45,easy,72,1.1997573999997257,['c'],1,left,['2'],5,0.16006410000045435,,,,,,,,17,20,Man,Rechts,2,
,xotask,xotask,dotcolour,20,1,80,80,training,negativefb,14,average,18,1.1675188999997772,['n'],1,right,['3'],4,0.188077599999815,,,,,,,,17,20,Man,Rechts,2,
,xotask,xotask,dotcolour,21,1,81,81,training,negativefb,93,easy,71,1.8168212000000494,['c'],1,left,['1'],6,0.4595438999995167,,,,,,,,17,20,Man,Rechts,2,
,xotask,xotask,dotcolour,22,1,82,82,training,negativefb,73,easy,8,1.1671559999995225,['n'],1,right,['1'],6,0.23481900000024325,,,,,,,,17,20,Man,Rechts,2,
,xotask,xotask,dotcolour,23,1,83,83,training,negativefb,77,hard,51,1.6849607000003743,['c'],1,left,['3'],4,0.22273390000009385,,,,,,,,17,20,Man,Rechts,2,
,xotask,xotask,dotcolour,24,1,84,84,training,negativefb,63,average,18,0.916309999999612,['n'],1,right,['3'],4,0.1851876999999149,,,,,,,,17,20,Man,Rechts,2,
,xotask,xotask,dotcolour,25,1,85,85,training,negativefb,64,hard,53,0.8835573999995177,['c'],1,left,['3'],4,0.21429260000059003,,,,,,,,17,20,Man,Rechts,2,
,xotask,xotask,dotcolour,26,1,86,86,training,negativefb,56,hard,26,1.4337758000001486,['c'],0,right,['3'],4,0.18846969999958674,,,,,,,,17,20,Man,Rechts,2,
,xotask,xotask,dotcolour,27,1,87,87,training,negativefb,81,average,18,0.8672972000003938,['n'],1,right,['3'],4,0.5224549000004117,,,,,,,,17,20,Man,Rechts,2,
,xotask,xotask,dotcolour,28,1,88,88,training,negativefb,84,hard,28,0.7662204999996902,['n'],1,right,['3'],4,0.16688729999987117,,,,,,,,17,20,Man,Rechts,2,
,xotask,xotask,dotcolour,29,1,89,89,training,negativefb,78,average,19,0.7994551000001593,['n'],1,right,['3'],4,0.168916800000261,,,,,,,,17,20,Man,Rechts,2,
,xotask,xotask,dotcolour,30,1,90,90,training,negativefb,67,easy,70,0.7842748000002757,['c'],1,left,['2'],5,0.20226780000029976,,,,,,,,17,20,Man,Rechts,2,
,xotask,xotask,dotcolour,31,1,91,91,training,negativefb,47,average,63,1.0339148000002751,['c'],1,left,['2'],5,0.21754729999975098,,,,,,,,17,20,Man,Rechts,2,
,xotask,xotask,dotcolour,32,1,92,92,training,negativefb,80,easy,74,1.0827591000006578,['c'],1,left,['1'],6,0.23791140000048472,,,,,,,,17,20,Man,Rechts,2,
,xotask,xotask,dotcolour,33,1,93,93,training,negativefb,55,average,61,0.7492119999997158,['c'],1,left,['1'],6,0.19816609999998036,,,,,,,,17,20,Man,Rechts,2,
,xotask,xotask,dotcolour,34,1,94,94,training,negativefb,76,easy,7,0.7834918999997171,['n'],1,right,['1'],6,0.19088790000023437,,,,,,,,17,20,Man,Rechts,2,
,xotask,xotask,dotcolour,35,1,95,95,training,negativefb,30,hard,25,1.234190099999978,['n'],1,right,['3'],4,0.19840250000015658,,,,,,,,17,20,Man,Rechts,2,
,xotask,xotask,dotcolour,36,1,96,96,training,negativefb,61,average,15,0.7836827000000994,['n'],1,right,['2'],5,0.25450009999985923,,,,,,,,17,20,Man,Rechts,2,
,xotask,xotask,dotcolour,37,1,97,97,training,negativefb,75,average,63,1.066413300000022,['c'],1,left,['1'],6,0.4257704999999987,,,,,,,,17,20,Man,Rechts,2,
,xotask,xotask,dotcolour,38,1,98,98,training,negativefb,70,hard,53,0.7997408999999607,['c'],1,left,['1'],6,0.1855331999995542,,,,,,,,17,20,Man,Rechts,2,
,xotask,xotask,dotcolour,39,1,99,99,training,negativefb,62,hard,52,0.8842491999994309,['c'],1,left,['2'],5,0.22325219999947876,,,,,,,,17,20,Man,Rechts,2,
,xotask,xotask,dotcolour,40,1,100,100,training,negativefb,88,average,61,0.75090739999996,['c'],1,left,['2'],5,0.2079726000001756,,,,,,,,17,20,Man,Rechts,2,
,xotask,xotask,dotcolour,41,1,101,101,training,negativefb,56,easy,71,0.667466400000194,['c'],1,left,['2'],5,0.09386890000041603,,,,,,,,17,20,Man,Rechts,2,
,xotask,xotask,dotcolour,42,1,102,102,training,negativefb,73,easy,70,0.7837361000001692,['c'],1,left,['1'],6,0.17067819999920175,,,,,,,,17,20,Man,Rechts,2,
,xotask,xotask,dotcolour,43,1,103,103,training,negativefb,77,easy,70,0.6498731000001499,['c'],1,left,['1'],6,0.13840470000013738,,,,,,,,17,20,Man,Rechts,2,
,xotask,xotask,dotcolour,44,1,104,104,training,negativefb,42,hard,28,0.7000778999999966,['n'],1,right,['2'],5,0.10566790000029869,,,,,,,,17,20,Man,Rechts,2,
,xotask,xotask,dotcolour,45,1,105,105,training,negativefb,60,hard,50,1.083952899999531,['c'],1,left,['3'],4,0.12946710000051098,,,,,,,,17,20,Man,Rechts,2,
,xotask,xotask,dotcolour,46,1,106,106,training,negativefb,54,average,17,0.9500678000003973,['n'],1,right,['2'],5,0.11131380000006175,,,,,,,,17,20,Man,Rechts,2,
,xotask,xotask,dotcolour,47,1,107,107,training,negativefb,69,hard,54,0.7829550999995263,['c'],1,left,['2'],5,0.09926129999985278,,,,,,,,17,20,Man,Rechts,2,
,xotask,xotask,dotcolour,48,1,108,108,training,negativefb,37,hard,51,0.7675005000000965,['c'],1,left,['2'],5,0.16950679999990825,,,,,,,,17,20,Man,Rechts,2,
,xotask,xotask,dotcolour,49,1,109,109,training,negativefb,60,easy,5,0.8334796999997707,['n'],1,right,['2'],5,0.1925162999996246,,,,,,,,17,20,Man,Rechts,2,
,xotask,xotask,dotcolour,50,1,110,110,training,negativefb,69,easy,71,0.9505706999998438,['c'],1,left,['1'],6,0.13177689999974973,,,,,,,,17,20,Man,Rechts,2,
,xotask,xotask,dotcolour,51,1,111,111,training,negativefb,45,hard,27,1.2012586999999257,['n'],1,right,['2'],5,0.11066240000036487,,,,,,,,17,20,Man,Rechts,2,
,xotask,xotask,dotcolour,52,1,112,112,training,negativefb,44,average,61,1.1331552999999985,['c'],1,left,['1'],6,0.12525209999967046,,,,,,,,17,20,Man,Rechts,2,
,xotask,xotask,dotcolour,53,1,113,113,training,negativefb,48,average,18,0.7499959000006129,['c'],0,right,['2'],5,0.10641450000002806,,,,,,,,17,20,Man,Rechts,2,
,xotask,xotask,dotcolour,54,1,114,114,training,negativefb,63,hard,28,1.7158669000000373,['c'],0,right,['3'],4,0.22662649999983842,,,,,,,,17,20,Man,Rechts,2,
,xotask,xotask,dotcolour,55,1,115,115,training,negativefb,35,average,16,0.7672015999996802,['n'],1,right,['3'],4,0.20336680000036722,,,,,,,,17,20,Man,Rechts,2,
,xotask,xotask,dotcolour,56,1,116,116,training,negativefb,70,average,60,0.9329588999999032,['c'],1,left,['3'],4,0.1491169999999329,,,,,,,,17,20,Man,Rechts,2,
,xotask,xotask,dotcolour,57,1,117,117,training,negativefb,38,hard,29,1.1161160000001473,['c'],0,right,['3'],4,0.17925970000032976,,,,,,,,17,20,Man,Rechts,2,
,xotask,xotask,dotcolour,58,1,118,118,training,negativefb,72,average,16,0.8671549000000596,['n'],1,right,['3'],4,0.31398019999960525,,,,,,,,17,20,Man,Rechts,2,
,xotask,xotask,dotcolour,59,1,119,119,training,negativefb,47,hard,53,1.0675778999993781,['c'],1,left,['3'],4,0.23435169999993377,,,,,,,,17,20,Man,Rechts,2,
,dotcolour,xotask,dotcolour,0,2,120,120,main,negativefb,-99,average,,1.3510873000004722,['n'],1,right,['2'],5,2.205041700000038,28,,,,,,,17,20,Man,Rechts,2,
,dotcolour,xotask,dotcolour,1,2,121,121,main,negativefb,-99,average,,1.033868500000608,['c'],1,left,['2'],5,0.17180460000054154,51,,,,,,,17,20,Man,Rechts,2,
,dotcolour,xotask,dotcolour,2,2,122,122,main,negativefb,-99,easy,,0.6672277000006943,['c'],1,left,['2'],5,0.10768670000015845,65,,,,,,,17,20,Man,Rechts,2,
,dotcolour,xotask,dotcolour,3,2,123,123,main,negativefb,-99,easy,,0.8177354999997988,['n'],1,right,['2'],5,0.12738600000011502,18,,,,,,,17,20,Man,Rechts,2,
,dotcolour,xotask,dotcolour,4,2,124,124,main,negativefb,-99,easy,,0.817849600000045,['n'],1,right,['2'],5,0.13065110000025015,16,,,,,,,17,20,Man,Rechts,2,
,dotcolour,xotask,dotcolour,5,2,125,125,main,negativefb,-99,easy,,0.8178576999998768,['c'],1,left,['1'],6,0.6146829999997863,62,,,,,,,17,20,Man,Rechts,2,
,dotcolour,xotask,dotcolour,6,2,126,126,main,negativefb,-99,hard,,2.585144499999842,['n'],0,left,['3'],4,0.15847459999986313,43,,,,,,,17,20,Man,Rechts,2,
,dotcolour,xotask,dotcolour,7,2,127,127,main,negativefb,-99,average,,1.884618600000067,['n'],1,right,['3'],4,0.15793050000047515,28,,,,,,,17,20,Man,Rechts,2,
,dotcolour,xotask,dotcolour,8,2,128,128,main,negativefb,-99,easy,,1.0671449000001303,['n'],1,right,['2'],5,0.14196029999948223,16,,,,,,,17,20,Man,Rechts,2,
,dotcolour,xotask,dotcolour,9,2,129,129,main,negativefb,-99,easy,,0.7511549999999261,['c'],1,left,['2'],5,0.13161899999977322,61,,,,,,,17,20,Man,Rechts,2,
,dotcolour,xotask,dotcolour,10,2,130,130,main,negativefb,-99,hard,,1.3346933000002537,['c'],0,right,['3'],4,0.18509410000024218,36,,,,,,,17,20,Man,Rechts,2,
,dotcolour,xotask,dotcolour,11,2,131,131,main,negativefb,-99,hard,,1.0680179000000862,['c'],0,right,['3'],4,0.1596947000007276,38,,,,,,,17,20,Man,Rechts,2,
,dotcolour,xotask,dotcolour,12,2,132,132,main,negativefb,-99,average,,1.6015352000003986,['c'],1,left,['3'],4,1.259353600000395,52,,,,,,,17,20,Man,Rechts,2,
,dotcolour,xotask,dotcolour,13,2,133,133,main,negativefb,-99,easy,,0.8337347999995472,['c'],1,left,['2'],5,0.1042832000002818,64,,,,,,,17,20,Man,Rechts,2,
,dotcolour,xotask,dotcolour,14,2,134,134,main,negativefb,-99,average,,0.816490000000158,['n'],1,right,['2'],5,0.11665009999978793,26,,,,,,,17,20,Man,Rechts,2,
,dotcolour,xotask,dotcolour,15,2,135,135,main,negativefb,-99,easy,,0.7178496999995332,['n'],1,right,['2'],5,0.2277179000002434,16,,,,,,,17,20,Man,Rechts,2,
,dotcolour,xotask,dotcolour,16,2,136,136,main,negativefb,-99,easy,,0.7170947000004162,['n'],1,right,['1'],6,0.0792291000007026,15,,,,,,,17,20,Man,Rechts,2,
,dotcolour,xotask,dotcolour,17,2,137,137,main,negativefb,-99,hard,,1.2673963999995976,['c'],0,right,['2'],5,0.13090730000021722,35,,,,,,,17,20,Man,Rechts,2,
,dotcolour,xotask,dotcolour,18,2,138,138,main,negativefb,-99,easy,,0.9345863000007739,['n'],1,right,['1'],6,0.10494390000076237,19,,,,,,,17,20,Man,Rechts,2,
,dotcolour,xotask,dotcolour,19,2,139,139,main,negativefb,-99,hard,,1.1840635999997176,['n'],0,left,['3'],4,0.0545683000000281,41,,,,,,,17,20,Man,Rechts,2,
,dotcolour,xotask,dotcolour,20,2,140,140,main,negativefb,-99,hard,,1.1181506000002628,['n'],1,right,['3'],4,0.10446940000019822,39,,,,,,,17,20,Man,Rechts,2,
,dotcolour,xotask,dotcolour,21,2,141,141,main,negativefb,-99,hard,,0.9689475000004677,['c'],1,left,['3'],4,0.18255169999974896,43,,,,,,,17,20,Man,Rechts,2,
,dotcolour,xotask,dotcolour,22,2,142,142,main,negativefb,-99,average,,0.9676563000002716,['c'],0,right,['3'],4,0.11366840000027878,26,,,,,,,17,20,Man,Rechts,2,
,dotcolour,xotask,dotcolour,23,2,143,143,main,negativefb,-99,easy,,1.0499106999996002,['n'],1,right,['2'],5,0.09937110000009852,18,,,,,,,17,20,Man,Rechts,2,
,dotcolour,xotask,dotcolour,24,2,144,144,main,negativefb,-99,hard,,2.067442300000039,['c'],1,left,['2'],5,0.09405770000012126,42,,,,,,,17,20,Man,Rechts,2,
,dotcolour,xotask,dotcolour,25,2,145,145,main,negativefb,-99,hard,,1.751572500000293,['n'],0,left,['3'],4,0.3412820000003194,45,,,,,,,17,20,Man,Rechts,2,
,dotcolour,xotask,dotcolour,26,2,146,146,main,negativefb,-99,easy,,1.1838847999997597,['c'],1,left,['2'],5,0.4733255000001009,64,,,,,,,17,20,Man,Rechts,2,
,dotcolour,xotask,dotcolour,27,2,147,147,main,negativefb,-99,hard,,0.8664588000001459,['c'],1,left,['3'],4,0.17211780000070576,43,,,,,,,17,20,Man,Rechts,2,
,dotcolour,xotask,dotcolour,28,2,148,148,main,negativefb,-99,average,,1.2172695999997813,['c'],1,left,['3'],4,0.16613569999935862,53,,,,,,,17,20,Man,Rechts,2,
,dotcolour,xotask,dotcolour,29,2,149,149,main,negativefb,-99,hard,,1.3007846999998947,['n'],1,right,['3'],4,0.09203090000028169,39,,,,,,,17,20,Man,Rechts,2,
,dotcolour,xotask,dotcolour,30,2,150,150,main,negativefb,-99,average,,0.8831022000003941,['c'],1,left,['3'],4,0.15785950000008597,52,,,,,,,17,20,Man,Rechts,2,
,dotcolour,xotask,dotcolour,31,2,151,151,main,negativefb,-99,average,,0.9843039000006684,['n'],1,right,['2'],5,0.14569639999990613,25,,,,,,,17,20,Man,Rechts,2,
,dotcolour,xotask,dotcolour,32,2,152,152,main,negativefb,-99,average,,1.401140299999497,['n'],1,right,['2'],5,0.07617910000044503,26,,,,,,,17,20,Man,Rechts,2,
,dotcolour,xotask,dotcolour,33,2,153,153,main,negativefb,-99,easy,,0.7672146000004432,['c'],1,left,['2'],5,0.1474035000001095,63,,,,,,,17,20,Man,Rechts,2,
,dotcolour,xotask,dotcolour,34,2,154,154,main,negativefb,-99,hard,,2.500963700000284,['c'],1,left,['3'],4,0.14692229999945994,45,,,,,,,17,20,Man,Rechts,2,
,dotcolour,xotask,dotcolour,35,2,155,155,main,negativefb,-99,hard,,2.033032800000001,['n'],1,right,['3'],4,0.12430859999949462,39,,,,,,,17,20,Man,Rechts,2,
,dotcolour,xotask,dotcolour,36,2,156,156,main,negativefb,-99,average,,0.8497599000002083,['c'],1,left,['2'],5,0.0948233999997683,53,,,,,,,17,20,Man,Rechts,2,
,dotcolour,xotask,dotcolour,37,2,157,157,main,negativefb,-99,easy,,0.9009599999999409,['c'],1,left,['2'],5,0.11963949999972101,61,,,,,,,17,20,Man,Rechts,2,
,dotcolour,xotask,dotcolour,38,2,158,158,main,negativefb,-99,average,,0.917699900000116,['n'],1,right,['2'],5,0.0878192999998646,29,,,,,,,17,20,Man,Rechts,2,
,dotcolour,xotask,dotcolour,39,2,159,159,main,negativefb,-99,hard,,0.9827247000002899,['n'],1,right,['3'],4,0.16523309999956837,36,,,,,,,17,20,Man,Rechts,2,
,dotcolour,xotask,dotcolour,40,2,160,160,main,negativefb,-99,hard,,1.033920500000022,['n'],0,left,['3'],4,0.17467089999991003,41,,,,,,,17,20,Man,Rechts,2,
,dotcolour,xotask,dotcolour,41,2,161,161,main,negativefb,-99,easy,,0.7831636999999319,['n'],1,right,['2'],5,0.07270160000007309,15,,,,,,,17,20,Man,Rechts,2,
,dotcolour,xotask,dotcolour,42,2,162,162,main,negativefb,-99,easy,,0.6682805999998891,['n'],1,right,['1'],6,0.1006266999993386,19,,,,,,,17,20,Man,Rechts,2,
,dotcolour,xotask,dotcolour,43,2,163,163,main,negativefb,-99,easy,,0.8179988000001686,['c'],1,left,['1'],6,0.22404219999953057,62,,,,,,,17,20,Man,Rechts,2,
,dotcolour,xotask,dotcolour,44,2,164,164,main,negativefb,-99,hard,,2.1675319999994827,['c'],0,right,['3'],4,0.20932549999997718,36,,,,,,,17,20,Man,Rechts,2,
,dotcolour,xotask,dotcolour,45,2,165,165,main,negativefb,-99,average,,0.7507331000006161,['n'],1,right,['3'],4,0.11654579999958514,27,,,,,,,17,20,Man,Rechts,2,
,dotcolour,xotask,dotcolour,46,2,166,166,main,negativefb,-99,hard,,1.9170327000001635,['c'],1,left,['3'],4,0.09117980000064563,42,,,,,,,17,20,Man,Rechts,2,
,dotcolour,xotask,dotcolour,47,2,167,167,main,negativefb,-99,easy,,0.850243899999441,['c'],1,left,['2'],5,0.10252479999962816,63,,,,,,,17,20,Man,Rechts,2,
,dotcolour,xotask,dotcolour,48,2,168,168,main,negativefb,-99,easy,,0.7670175000002928,['n'],1,right,['2'],5,0.10862439999982598,15,,,,,,,17,20,Man,Rechts,2,
,dotcolour,xotask,dotcolour,49,2,169,169,main,negativefb,-99,average,,0.9513872999996238,['c'],1,left,['2'],5,0.11582009999983711,52,,,,,,,17,20,Man,Rechts,2,
,dotcolour,xotask,dotcolour,50,2,170,170,main,negativefb,-99,average,,0.9019526000001861,['c'],1,left,['2'],5,0.027715700000044308,53,,,,,,,17,20,Man,Rechts,2,
,dotcolour,xotask,dotcolour,51,2,171,171,main,negativefb,-99,average,,0.9340745999998035,['c'],1,left,['3'],4,0.1337346999998772,51,,,,,,,17,20,Man,Rechts,2,
,dotcolour,xotask,dotcolour,52,2,172,172,main,negativefb,-99,hard,,1.101318099999844,['n'],1,right,['3'],4,0.1180621000003157,36,,,,,,,17,20,Man,Rechts,2,
,dotcolour,xotask,dotcolour,53,2,173,173,main,negativefb,-99,average,,0.9013029000007009,['n'],1,right,['2'],5,0.1810485999994853,27,,,,,,,17,20,Man,Rechts,2,
,dotcolour,xotask,dotcolour,54,2,174,174,main,negativefb,-99,average,,0.8512054000002536,['c'],1,left,['2'],5,0.14100200000029872,54,,,,,,,17,20,Man,Rechts,2,
,dotcolour,xotask,dotcolour,55,2,175,175,main,negativefb,-99,hard,,0.8516934999997829,['c'],0,right,['3'],4,0.3028957000005903,39,,,,,,,17,20,Man,Rechts,2,
,dotcolour,xotask,dotcolour,56,2,176,176,main,negativefb,-99,average,,0.767743800000062,['n'],1,right,['3'],4,0.15592879999985598,27,,,,,,,17,20,Man,Rechts,2,
,dotcolour,xotask,dotcolour,57,2,177,177,main,negativefb,-99,hard,,1.166971900000135,['c'],1,left,['3'],4,0.1679653999999573,45,,,,,,,17,20,Man,Rechts,2,
,dotcolour,xotask,dotcolour,58,2,178,178,main,negativefb,-99,average,,0.816942100000233,['c'],1,left,['2'],5,0.22592429999986052,52,,,,,,,17,20,Man,Rechts,2,
,dotcolour,xotask,dotcolour,59,2,179,179,main,negativefb,-99,easy,,0.9009908000007272,['c'],1,left,['1'],6,0.1898790999994162,65,,,,,,,17,20,Man,Rechts,2,
,dotcolour,xotask,dotcolour,0,3,180,180,main,negativefb,-99,hard,,1.4518740000003163,['c'],0,right,['3'],4,0.11425690000032773,39,,,,,,,17,20,Man,Rechts,2,
,dotcolour,xotask,dotcolour,1,3,181,181,main,negativefb,-99,average,,0.7502997000001415,['n'],1,right,['3'],4,0.09655170000041835,28,,,,,,,17,20,Man,Rechts,2,
,dotcolour,xotask,dotcolour,2,3,182,182,main,negativefb,-99,easy,,1.5336724999997386,['n'],1,right,['3'],4,0.11201619999974355,19,,,,,,,17,20,Man,Rechts,2,
,dotcolour,xotask,dotcolour,3,3,183,183,main,negativefb,-99,average,,1.085021500000039,['c'],1,left,['2'],5,0.16146299999945768,55,,,,,,,17,20,Man,Rechts,2,
,dotcolour,xotask,dotcolour,4,3,184,184,main,negativefb,-99,easy,,0.8340785999998843,['n'],1,right,['2'],5,0.1153468000002249,18,,,,,,,17,20,Man,Rechts,2,
,dotcolour,xotask,dotcolour,5,3,185,185,main,negativefb,-99,hard,,0.8995457000000897,['n'],1,right,['3'],4,0.08347950000006676,35,,,,,,,17,20,Man,Rechts,2,
,dotcolour,xotask,dotcolour,6,3,186,186,main,negativefb,-99,easy,,0.8511545999999726,['c'],1,left,['2'],5,0.09434950000013487,65,,,,,,,17,20,Man,Rechts,2,
,dotcolour,xotask,dotcolour,7,3,187,187,main,negativefb,-99,hard,,1.033878499999446,['c'],1,left,['3'],4,0.08256030000029568,41,,,,,,,17,20,Man,Rechts,2,
,dotcolour,xotask,dotcolour,8,3,188,188,main,negativefb,-99,easy,,0.7682600999996794,['c'],1,left,['2'],5,0.15296980000039184,63,,,,,,,17,20,Man,Rechts,2,
,dotcolour,xotask,dotcolour,9,3,189,189,main,negativefb,-99,average,,0.8848465000000942,['c'],1,left,['1'],6,0.216631100000086,53,,,,,,,17,20,Man,Rechts,2,
,dotcolour,xotask,dotcolour,10,3,190,190,main,negativefb,-99,easy,,1.001826699999583,['n'],1,right,['2'],5,0.12892529999953695,18,,,,,,,17,20,Man,Rechts,2,
,dotcolour,xotask,dotcolour,11,3,191,191,main,negativefb,-99,average,,1.4840639999993073,['c'],1,left,['3'],4,0.20093400000041584,52,,,,,,,17,20,Man,Rechts,2,
,dotcolour,xotask,dotcolour,12,3,192,192,main,negativefb,-99,average,,0.6344345999996222,['n'],0,left,['3'],4,0.2962489000001369,52,,,,,,,17,20,Man,Rechts,2,
,dotcolour,xotask,dotcolour,13,3,193,193,main,negativefb,-99,average,,1.0174683999994159,['c'],1,left,['2'],5,0.20579619999989518,51,,,,,,,17,20,Man,Rechts,2,
,dotcolour,xotask,dotcolour,14,3,194,194,main,negativefb,-99,average,,1.4004198000002361,['n'],1,right,['3'],4,0.07774040000003879,29,,,,,,,17,20,Man,Rechts,2,
,dotcolour,xotask,dotcolour,15,3,195,195,main,negativefb,-99,hard,,1.2673635999999533,['c'],0,right,['3'],4,0.2015916999998808,36,,,,,,,17,20,Man,Rechts,2,
,dotcolour,xotask,dotcolour,16,3,196,196,main,negativefb,-99,average,,0.6839885999997932,['n'],1,right,['2'],5,0.14274600000044302,25,,,,,,,17,20,Man,Rechts,2,
,dotcolour,xotask,dotcolour,17,3,197,197,main,negativefb,-99,average,,1.0337145000003147,['c'],1,left,['2'],5,0.1369198000002143,54,,,,,,,17,20,Man,Rechts,2,
,dotcolour,xotask,dotcolour,18,3,198,198,main,negativefb,-99,hard,,0.8679274000005535,['n'],0,left,['3'],4,0.1293822999996337,45,,,,,,,17,20,Man,Rechts,2,
,dotcolour,xotask,dotcolour,19,3,199,199,main,negativefb,-99,hard,,0.8997522999998182,['c'],0,right,['3'],4,0.2012482000000091,39,,,,,,,17,20,Man,Rechts,2,
,dotcolour,xotask,dotcolour,20,3,200,200,main,negativefb,-99,easy,,0.9014013999994859,['c'],1,left,['2'],5,0.14197390000026644,64,,,,,,,17,20,Man,Rechts,2,
,dotcolour,xotask,dotcolour,21,3,201,201,main,negativefb,-99,average,,0.9503094000001511,['n'],1,right,['3'],4,0.16365380000024743,27,,,,,,,17,20,Man,Rechts,2,
,dotcolour,xotask,dotcolour,22,3,202,202,main,negativefb,-99,average,,2.1187645999998495,['n'],1,right,['3'],4,0.13714340000024094,25,,,,,,,17,20,Man,Rechts,2,
,dotcolour,xotask,dotcolour,23,3,203,203,main,negativefb,-99,easy,,0.8170361999991655,['n'],1,right,['2'],5,0.12431809999998222,18,,,,,,,17,20,Man,Rechts,2,
,dotcolour,xotask,dotcolour,24,3,204,204,main,negativefb,-99,hard,,1.3516594000002442,['c'],1,left,['3'],4,0.0980730000001131,44,,,,,,,17,20,Man,Rechts,2,
,dotcolour,xotask,dotcolour,25,3,205,205,main,negativefb,-99,hard,,0.733347400000639,['c'],0,right,['3'],4,0.1374390000000858,39,,,,,,,17,20,Man,Rechts,2,
,dotcolour,xotask,dotcolour,26,3,206,206,main,negativefb,-99,average,,0.9681981000003361,['n'],1,right,['3'],4,0.09428370000023278,26,,,,,,,17,20,Man,Rechts,2,
,dotcolour,xotask,dotcolour,27,3,207,207,main,negativefb,-99,easy,,0.7845468000004985,['c'],1,left,['2'],5,0.10852089999934833,62,,,,,,,17,20,Man,Rechts,2,
,dotcolour,xotask,dotcolour,28,3,208,208,main,negativefb,-99,average,,0.7685975000003964,['c'],1,left,['2'],5,0.08276129999921977,53,,,,,,,17,20,Man,Rechts,2,
,dotcolour,xotask,dotcolour,29,3,209,209,main,negativefb,-99,easy,,0.7169883000005939,['c'],1,left,['2'],5,0.10680099999990489,65,,,,,,,17,20,Man,Rechts,2,
,dotcolour,xotask,dotcolour,30,3,210,210,main,negativefb,-99,hard,,1.0015360000006694,['n'],1,right,['3'],4,0.1356975999997303,35,,,,,,,17,20,Man,Rechts,2,
,dotcolour,xotask,dotcolour,31,3,211,211,main,negativefb,-99,easy,,0.6672434000001886,['c'],1,left,['2'],5,0.10392990000036662,63,,,,,,,17,20,Man,Rechts,2,
,dotcolour,xotask,dotcolour,32,3,212,212,main,negativefb,-99,hard,,0.9678207000006296,['c'],1,left,['3'],4,0.20570839999982127,43,,,,,,,17,20,Man,Rechts,2,
,dotcolour,xotask,dotcolour,33,3,213,213,main,negativefb,-99,hard,,1.6507222999998703,['n'],1,right,['3'],4,0.10109379999994417,37,,,,,,,17,20,Man,Rechts,2,
,dotcolour,xotask,dotcolour,34,3,214,214,main,negativefb,-99,easy,,0.6337347999997291,['c'],1,left,['2'],5,0.12086189999990893,62,,,,,,,17,20,Man,Rechts,2,
,dotcolour,xotask,dotcolour,35,3,215,215,main,negativefb,-99,easy,,0.751173600000584,['c'],1,left,['2'],5,0.10218390000045474,62,,,,,,,17,20,Man,Rechts,2,
,dotcolour,xotask,dotcolour,36,3,216,216,main,negativefb,-99,easy,,0.7684712000000218,['n'],1,right,['2'],5,0.12411270000029617,16,,,,,,,17,20,Man,Rechts,2,
,dotcolour,xotask,dotcolour,37,3,217,217,main,negativefb,-99,easy,,0.5677871999996569,['n'],1,right,['2'],5,0.09780309999950987,15,,,,,,,17,20,Man,Rechts,2,
,dotcolour,xotask,dotcolour,38,3,218,218,main,negativefb,-99,easy,,0.7179759999999078,['c'],1,left,['2'],5,0.12233060000016849,64,,,,,,,17,20,Man,Rechts,2,
,dotcolour,xotask,dotcolour,39,3,219,219,main,negativefb,-99,average,,1.1674040999996578,['n'],1,right,['3'],4,0.20796299999983603,28,,,,,,,17,20,Man,Rechts,2,
,dotcolour,xotask,dotcolour,40,3,220,220,main,negativefb,-99,hard,,1.0347828000003574,['c'],0,right,['3'],4,0.11109069999929488,37,,,,,,,17,20,Man,Rechts,2,
,dotcolour,xotask,dotcolour,41,3,221,221,main,negativefb,-99,hard,,1.7007425000001604,['c'],1,left,['3'],4,0.1359058999996705,44,,,,,,,17,20,Man,Rechts,2,
,dotcolour,xotask,dotcolour,42,3,222,222,main,negativefb,-99,easy,,0.8003774999997404,['n'],1,right,['3'],4,0.09865450000052078,17,,,,,,,17,20,Man,Rechts,2,
,dotcolour,xotask,dotcolour,43,3,223,223,main,negativefb,-99,hard,,1.6665947000001324,['c'],1,left,['3'],4,0.14065179999943211,44,,,,,,,17,20,Man,Rechts,2,
,dotcolour,xotask,dotcolour,44,3,224,224,main,negativefb,-99,easy,,0.8020676000005551,['n'],1,right,['2'],5,0.2722905000000537,18,,,,,,,17,20,Man,Rechts,2,
,dotcolour,xotask,dotcolour,45,3,225,225,main,negativefb,-99,hard,,2.7173407999998744,['c'],1,left,['3'],4,0.16180549999990035,41,,,,,,,17,20,Man,Rechts,2,
,dotcolour,xotask,dotcolour,46,3,226,226,main,negativefb,-99,hard,,0.8351304999996501,['n'],1,right,['3'],4,0.09121159999995143,39,,,,,,,17,20,Man,Rechts,2,
,dotcolour,xotask,dotcolour,47,3,227,227,main,negativefb,-99,hard,,0.7176956000002974,['n'],0,left,['3'],4,0.09140339999976277,42,,,,,,,17,20,Man,Rechts,2,
,dotcolour,xotask,dotcolour,48,3,228,228,main,negativefb,-99,hard,,1.584241600000496,['c'],1,left,['3'],4,0.12978560000010475,41,,,,,,,17,20,Man,Rechts,2,
,dotcolour,xotask,dotcolour,49,3,229,229,main,negativefb,-99,easy,,0.834896000000299,['n'],1,right,['2'],5,0.11601760000030481,16,,,,,,,17,20,Man,Rechts,2,
,dotcolour,xotask,dotcolour,50,3,230,230,main,negativefb,-99,average,,1.2833184999999503,['n'],1,right,['3'],4,0.05284760000085953,25,,,,,,,17,20,Man,Rechts,2,
,dotcolour,xotask,dotcolour,51,3,231,231,main,negativefb,-99,hard,,1.4171802000000753,['n'],1,right,['3'],4,0.11520689999997558,37,,,,,,,17,20,Man,Rechts,2,
,dotcolour,xotask,dotcolour,52,3,232,232,main,negativefb,-99,average,,2.4675624000001335,['n'],1,right,['3'],4,0.08480190000045695,28,,,,,,,17,20,Man,Rechts,2,
,dotcolour,xotask,dotcolour,53,3,233,233,main,negativefb,-99,average,,0.75068359999932,['c'],1,left,['2'],5,0.1152364999998099,51,,,,,,,17,20,Man,Rechts,2,
,dotcolour,xotask,dotcolour,54,3,234,234,main,negativefb,-99,easy,,0.5833939000003738,['c'],1,left,['2'],5,0.1120801000006395,65,,,,,,,17,20,Man,Rechts,2,
,dotcolour,xotask,dotcolour,55,3,235,235,main,negativefb,-99,hard,,0.9181449999996403,['c'],1,left,['2'],5,0.13616519999959564,41,,,,,,,17,20,Man,Rechts,2,
,dotcolour,xotask,dotcolour,56,3,236,236,main,negativefb,-99,average,,0.7682574999998906,['c'],1,left,['2'],5,0.14065260000006674,53,,,,,,,17,20,Man,Rechts,2,
,dotcolour,xotask,dotcolour,57,3,237,237,main,negativefb,-99,average,,0.8178993999999875,['n'],1,right,['2'],5,0.1039132999994763,29,,,,,,,17,20,Man,Rechts,2,
,dotcolour,xotask,dotcolour,58,3,238,238,main,negativefb,-99,average,,0.8178084999999555,['c'],1,left,['2'],5,0.08378720000018802,51,,,,,,,17,20,Man,Rechts,2,
,dotcolour,xotask,dotcolour,59,3,239,239,main,negativefb,-99,easy,,0.8513379000005443,['n'],1,right,['2'],5,0.09576370000013412,15,,,,,,,17,20,Man,Rechts,2,
,dotcolour,xotask,dotcolour,0,4,240,240,main,negativefb,-99,average,,5.834523499999705,['n'],1,right,['3'],4,0.16036290000010922,29,,,,,,,17,20,Man,Rechts,2,
,dotcolour,xotask,dotcolour,1,4,241,241,main,negativefb,-99,average,,0.8179336000002877,['n'],1,right,['3'],4,0.13783069999954023,25,,,,,,,17,20,Man,Rechts,2,
,dotcolour,xotask,dotcolour,2,4,242,242,main,negativefb,-99,hard,,0.11071580000043468,['n'],1,right,['9'],2,3.8623797999998715,35,,,,,,,17,20,Man,Rechts,2,
,dotcolour,xotask,dotcolour,3,4,243,243,main,negativefb,-99,easy,,2.051043899999968,['c'],1,left,['2'],5,0.1385548000007475,61,,,,,,,17,20,Man,Rechts,2,
,dotcolour,xotask,dotcolour,4,4,244,244,main,negativefb,-99,average,,1.4345172999992428,['c'],1,left,['3'],4,0.4281087999997908,51,,,,,,,17,20,Man,Rechts,2,
,dotcolour,xotask,dotcolour,5,4,245,245,main,negativefb,-99,easy,,0.7834695000001375,['n'],1,right,['2'],5,0.24448320000010426,18,,,,,,,17,20,Man,Rechts,2,
,dotcolour,xotask,dotcolour,6,4,246,246,main,negativefb,-99,easy,,1.7506417999993573,['c'],1,left,['2'],5,0.3183360000002722,64,,,,,,,17,20,Man,Rechts,2,
,dotcolour,xotask,dotcolour,7,4,247,247,main,negativefb,-99,hard,,0.9016334000007191,['c'],0,right,['3'],4,0.22222450000026583,38,,,,,,,17,20,Man,Rechts,2,
,dotcolour,xotask,dotcolour,8,4,248,248,main,negativefb,-99,hard,,0.9172386000000188,['c'],1,left,['3'],4,0.20121610000023793,41,,,,,,,17,20,Man,Rechts,2,
,dotcolour,xotask,dotcolour,9,4,249,249,main,negativefb,-99,easy,,0.7512781000004907,['c'],1,left,['2'],5,0.195858699999917,61,,,,,,,17,20,Man,Rechts,2,
,dotcolour,xotask,dotcolour,10,4,250,250,main,negativefb,-99,easy,,0.734644400000434,['n'],1,right,['2'],5,0.15236370000002353,16,,,,,,,17,20,Man,Rechts,2,
,dotcolour,xotask,dotcolour,11,4,251,251,main,negativefb,-99,hard,,1.8678465000002689,['c'],0,right,['3'],4,0.2962307999996483,37,,,,,,,17,20,Man,Rechts,2,
,dotcolour,xotask,dotcolour,12,4,252,252,main,negativefb,-99,hard,,1.0341416000001118,['c'],1,left,['3'],4,0.17203879999942728,44,,,,,,,17,20,Man,Rechts,2,
,dotcolour,xotask,dotcolour,13,4,253,253,main,negativefb,-99,easy,,0.6346785000005184,['n'],1,right,['2'],5,0.18108750000010332,16,,,,,,,17,20,Man,Rechts,2,
,dotcolour,xotask,dotcolour,14,4,254,254,main,negativefb,-99,hard,,2.00096239999948,['c'],1,left,['3'],4,0.11813679999977467,43,,,,,,,17,20,Man,Rechts,2,
,dotcolour,xotask,dotcolour,15,4,255,255,main,negativefb,-99,average,,1.0004753000002893,['n'],1,right,['3'],4,0.12215309999919555,28,,,,,,,17,20,Man,Rechts,2,
,dotcolour,xotask,dotcolour,16,4,256,256,main,negativefb,-99,hard,,1.1001259999993636,['c'],1,left,['3'],4,0.1230918000001111,43,,,,,,,17,20,Man,Rechts,2,
,dotcolour,xotask,dotcolour,17,4,257,257,main,negativefb,-99,average,,0.7672789000007469,['n'],1,right,['3'],4,0.08804779999991297,27,,,,,,,17,20,Man,Rechts,2,
,dotcolour,xotask,dotcolour,18,4,258,258,main,negativefb,-99,hard,,0.9518991000004462,['c'],1,left,['3'],4,0.1350451999996949,45,,,,,,,17,20,Man,Rechts,2,
,dotcolour,xotask,dotcolour,19,4,259,259,main,negativefb,-99,hard,,0.6339313999997103,['c'],1,left,['3'],4,0.11327189999974507,42,,,,,,,17,20,Man,Rechts,2,
,dotcolour,xotask,dotcolour,20,4,260,260,main,negativefb,-99,average,,0.6499721000000136,['c'],1,left,['2'],5,0.09222589999990305,54,,,,,,,17,20,Man,Rechts,2,
,dotcolour,xotask,dotcolour,21,4,261,261,main,negativefb,-99,easy,,0.8514584999993531,['c'],1,left,['2'],5,0.1426300999992236,63,,,,,,,17,20,Man,Rechts,2,
,dotcolour,xotask,dotcolour,22,4,262,262,main,negativefb,-99,average,,0.8677354999999807,['c'],1,left,['2'],5,0.07174849999955768,51,,,,,,,17,20,Man,Rechts,2,
,dotcolour,xotask,dotcolour,23,4,263,263,main,negativefb,-99,easy,,0.7504280999992261,['n'],1,right,['2'],5,0.0879783000000316,16,,,,,,,17,20,Man,Rechts,2,
,dotcolour,xotask,dotcolour,24,4,264,264,main,negativefb,-99,hard,,2.034211099999993,['c'],1,left,['3'],4,0.11624949999986711,44,,,,,,,17,20,Man,Rechts,2,
,dotcolour,xotask,dotcolour,25,4,265,265,main,negativefb,-99,easy,,0.8351702999998452,['n'],1,right,['3'],4,0.054316300000209594,16,,,,,,,17,20,Man,Rechts,2,
,dotcolour,xotask,dotcolour,26,4,266,266,main,negativefb,-99,average,,0.9839481000008163,['n'],1,right,['3'],4,0.04630329999963578,27,,,,,,,17,20,Man,Rechts,2,
,dotcolour,xotask,dotcolour,27,4,267,267,main,negativefb,-99,average,,0.9671948999994129,['c'],1,left,['3'],4,0.09436549999918498,53,,,,,,,17,20,Man,Rechts,2,
,dotcolour,xotask,dotcolour,28,4,268,268,main,negativefb,-99,hard,,0.7505271999998513,['c'],1,left,['3'],4,0.09374260000004142,45,,,,,,,17,20,Man,Rechts,2,
,dotcolour,xotask,dotcolour,29,4,269,269,main,negativefb,-99,average,,0.6346903999992719,['c'],1,left,['3'],4,0.0897476000000097,55,,,,,,,17,20,Man,Rechts,2,
,dotcolour,xotask,dotcolour,30,4,270,270,main,negativefb,-99,average,,0.8175752999995893,['n'],1,right,['2'],5,0.0704939999995986,25,,,,,,,17,20,Man,Rechts,2,
,dotcolour,xotask,dotcolour,31,4,271,271,main,negativefb,-99,easy,,0.6849616999998034,['c'],1,left,['2'],5,0.10538499999984197,62,,,,,,,17,20,Man,Rechts,2,
,dotcolour,xotask,dotcolour,32,4,272,272,main,negativefb,-99,hard,,1.667714100000012,['n'],1,right,['3'],4,0.17099080000025424,35,,,,,,,17,20,Man,Rechts,2,
,dotcolour,xotask,dotcolour,33,4,273,273,main,negativefb,-99,average,,1.6006662999998298,['n'],1,right,['3'],4,0.06148449999909644,28,,,,,,,17,20,Man,Rechts,2,
,dotcolour,xotask,dotcolour,34,4,274,274,main,negativefb,-99,hard,,0.7335413000000699,['n'],1,right,['3'],4,0.09437660000003234,37,,,,,,,17,20,Man,Rechts,2,
,dotcolour,xotask,dotcolour,35,4,275,275,main,negativefb,-99,average,,1.0160107000001517,['c'],1,left,['3'],4,0.154773600000226,52,,,,,,,17,20,Man,Rechts,2,
,dotcolour,xotask,dotcolour,36,4,276,276,main,negativefb,-99,easy,,1.0354982999997446,['c'],1,left,['2'],5,0.06829460000062682,64,,,,,,,17,20,Man,Rechts,2,
,dotcolour,xotask,dotcolour,37,4,277,277,main,negativefb,-99,easy,,1.0019311999994898,['n'],1,right,['2'],5,0.08285109999997076,18,,,,,,,17,20,Man,Rechts,2,
,dotcolour,xotask,dotcolour,38,4,278,278,main,negativefb,-99,average,,2.050798800000848,['c'],1,left,['3'],4,0.24617180000041117,52,,,,,,,17,20,Man,Rechts,2,
,dotcolour,xotask,dotcolour,39,4,279,279,main,negativefb,-99,easy,,0.7510912999996435,['c'],1,left,['3'],4,0.15161749999970198,63,,,,,,,17,20,Man,Rechts,2,
,dotcolour,xotask,dotcolour,40,4,280,280,main,negativefb,-99,average,,0.7853583000005528,['n'],1,right,['3'],4,0.09877229999983683,29,,,,,,,17,20,Man,Rechts,2,
,dotcolour,xotask,dotcolour,41,4,281,281,main,negativefb,-99,easy,,0.7847750999999334,['n'],1,right,['3'],4,0.10429099999964819,19,,,,,,,17,20,Man,Rechts,2,
,dotcolour,xotask,dotcolour,42,4,282,282,main,negativefb,-99,average,,0.7672356999992189,['c'],1,left,['2'],5,0.15795789999992849,54,,,,,,,17,20,Man,Rechts,2,
,dotcolour,xotask,dotcolour,43,4,283,283,main,negativefb,-99,easy,,0.8172537000000375,['n'],1,right,['3'],4,0.15183710000019346,19,,,,,,,17,20,Man,Rechts,2,
,dotcolour,xotask,dotcolour,44,4,284,284,main,negativefb,-99,hard,,0.7507269999996424,['c'],0,right,['3'],4,0.08432929999980843,39,,,,,,,17,20,Man,Rechts,2,
,dotcolour,xotask,dotcolour,45,4,285,285,main,negativefb,-99,hard,,0.9328371999999945,['c'],1,left,['3'],4,0.19639740000002348,44,,,,,,,17,20,Man,Rechts,2,
,dotcolour,xotask,dotcolour,46,4,286,286,main,negativefb,-99,easy,,0.6340004000003319,['n'],1,right,['3'],4,0.06823739999981626,17,,,,,,,17,20,Man,Rechts,2,
,dotcolour,xotask,dotcolour,47,4,287,287,main,negativefb,-99,easy,,0.701162899999872,['c'],1,left,['2'],5,0.1268566999997347,65,,,,,,,17,20,Man,Rechts,2,
,dotcolour,xotask,dotcolour,48,4,288,288,main,negativefb,-99,hard,,1.6669902000003276,['c'],0,right,['3'],4,0.10383490000003803,37,,,,,,,17,20,Man,Rechts,2,
,dotcolour,xotask,dotcolour,49,4,289,289,main,negativefb,-99,hard,,1.4848566000000574,['n'],1,right,['3'],4,0.05737010000029841,36,,,,,,,17,20,Man,Rechts,2,
,dotcolour,xotask,dotcolour,50,4,290,290,main,negativefb,-99,easy,,0.950702199999796,['n'],1,right,['2'],5,0.06677700000000186,15,,,,,,,17,20,Man,Rechts,2,
,dotcolour,xotask,dotcolour,51,4,291,291,main,negativefb,-99,average,,2.017016999999214,['n'],1,right,['2'],5,0.07177000000046974,27,,,,,,,17,20,Man,Rechts,2,
,dotcolour,xotask,dotcolour,52,4,292,292,main,negativefb,-99,easy,,0.7497460000004139,['c'],1,left,['2'],5,0.14369729999998526,65,,,,,,,17,20,Man,Rechts,2,
,dotcolour,xotask,dotcolour,53,4,293,293,main,negativefb,-99,hard,,2.167358400000012,['c'],0,right,['3'],4,0.17221599999993487,39,,,,,,,17,20,Man,Rechts,2,
,dotcolour,xotask,dotcolour,54,4,294,294,main,negativefb,-99,hard,,0.8347917999999481,['c'],1,left,['3'],4,0.15752249999968626,43,,,,,,,17,20,Man,Rechts,2,
,dotcolour,xotask,dotcolour,55,4,295,295,main,negativefb,-99,easy,,0.9172382999995534,['c'],1,left,['2'],5,0.13092669999969075,63,,,,,,,17,20,Man,Rechts,2,
,dotcolour,xotask,dotcolour,56,4,296,296,main,negativefb,-99,average,,0.5996957999996084,['c'],1,left,['2'],5,0.14254429999982676,55,,,,,,,17,20,Man,Rechts,2,
,dotcolour,xotask,dotcolour,57,4,297,297,main,negativefb,-99,average,,0.5671773000003668,['c'],1,left,['2'],5,0.14730689999942115,51,,,,,,,17,20,Man,Rechts,2,
,dotcolour,xotask,dotcolour,58,4,298,298,main,negativefb,-99,average,,0.8678176000003077,['n'],1,right,['2'],5,0.14826190000076167,26,,,,,,,17,20,Man,Rechts,2,
,dotcolour,xotask,dotcolour,59,4,299,299,main,negativefb,-99,hard,,1.4013690000001588,['c'],0,right,['3'],4,0.15092689999983122,39,,,,,,,17,20,Man,Rechts,2,
,xotask,xotask,dotcolour,0,0,0,300,training,negativefb,55,average,15,1.967994099999487,['n'],1,right,['3'],4,0.05211220000001049,,,,,,,,17,20,Man,Rechts,2,
,xotask,xotask,dotcolour,1,0,1,301,training,negativefb,56,easy,8,0.8999314000002414,['n'],1,right,['3'],4,0.06188599999950384,,,,,,,,17,20,Man,Rechts,2,
,xotask,xotask,dotcolour,2,0,2,302,training,negativefb,64,easy,71,0.8009211999997206,['c'],1,left,['2'],5,0.09174789999997301,,,,,,,,17,20,Man,Rechts,2,
,xotask,xotask,dotcolour,3,0,3,303,training,negativefb,72,average,60,0.8328585999997813,['c'],1,left,['3'],4,0.15177669999957288,,,,,,,,17,20,Man,Rechts,2,
,xotask,xotask,dotcolour,4,0,4,304,training,negativefb,80,hard,29,0.7329862999995385,['n'],1,right,['3'],4,0.12416899999971065,,,,,,,,17,20,Man,Rechts,2,
,xotask,xotask,dotcolour,5,0,5,305,training,negativefb,89,average,64,0.7003911000001608,['c'],1,left,['2'],5,0.11583229999996547,,,,,,,,17,20,Man,Rechts,2,
,xotask,xotask,dotcolour,6,0,6,306,training,negativefb,61,hard,53,0.9842942000004768,['c'],1,left,['2'],5,0.19184020000011515,,,,,,,,17,20,Man,Rechts,2,
,xotask,xotask,dotcolour,7,0,7,307,training,negativefb,62,hard,29,0.6335171000000628,['n'],1,right,['2'],5,0.12740429999939806,,,,,,,,17,20,Man,Rechts,2,
,xotask,xotask,dotcolour,8,0,8,308,training,negativefb,82,easy,7,0.9846347000002424,['n'],1,right,['2'],5,0.09149770000021817,,,,,,,,17,20,Man,Rechts,2,
,xotask,xotask,dotcolour,9,0,9,309,training,negativefb,37,easy,71,0.7508035000000746,['c'],1,left,['2'],5,0.1380329999992682,,,,,,,,17,20,Man,Rechts,2,
,xotask,xotask,dotcolour,10,0,10,310,training,negativefb,75,average,62,0.8834925999999541,['c'],1,left,['3'],4,0.20101620000059484,,,,,,,,17,20,Man,Rechts,2,
,xotask,xotask,dotcolour,11,0,11,311,training,negativefb,42,average,15,1.0500996000000669,['n'],1,right,['3'],4,0.09545930000058434,,,,,,,,17,20,Man,Rechts,2,
,xotask,xotask,dotcolour,12,0,12,312,training,negativefb,70,hard,29,0.8004192000007606,['c'],0,right,['3'],4,0.19596309999997175,,,,,,,,17,20,Man,Rechts,2,
,xotask,xotask,dotcolour,13,0,13,313,training,negativefb,75,average,19,0.8008661000003485,['n'],1,right,['2'],5,0.14806659999976546,,,,,,,,17,20,Man,Rechts,2,
,xotask,xotask,dotcolour,14,0,14,314,training,negativefb,60,average,60,0.8998762999999599,['c'],1,left,['3'],4,0.12257099999987986,,,,,,,,17,20,Man,Rechts,2,
,xotask,xotask,dotcolour,15,0,15,315,training,negativefb,29,average,17,0.7669675999995889,['n'],1,right,['2'],5,0.11160850000032951,,,,,,,,17,20,Man,Rechts,2,
,xotask,xotask,dotcolour,16,0,16,316,training,negativefb,81,hard,50,0.9332169999997859,['c'],1,left,['3'],4,0.14215659999990748,,,,,,,,17,20,Man,Rechts,2,
,xotask,xotask,dotcolour,17,0,17,317,training,negativefb,77,easy,7,0.9503286000008302,['n'],1,right,['2'],5,0.09832599999936065,,,,,,,,17,20,Man,Rechts,2,
,xotask,xotask,dotcolour,18,0,18,318,training,negativefb,70,hard,54,1.4336048000004666,['c'],1,left,['2'],5,0.0777327999994668,,,,,,,,17,20,Man,Rechts,2,
,xotask,xotask,dotcolour,19,0,19,319,training,negativefb,60,hard,26,1.4503545999996277,['n'],1,right,['3'],4,0.08102100000087376,,,,,,,,17,20,Man,Rechts,2,
,xotask,xotask,dotcolour,20,0,20,320,training,negativefb,76,hard,52,0.8672659000003478,['c'],1,left,['3'],4,0.15544599999975617,,,,,,,,17,20,Man,Rechts,2,
,xotask,xotask,dotcolour,21,0,21,321,training,negativefb,38,hard,28,0.91763390000051,['c'],0,right,['3'],4,0.13674879999962286,,,,,,,,17,20,Man,Rechts,2,
,xotask,xotask,dotcolour,22,0,22,322,training,negativefb,47,easy,6,0.7162263000000166,['n'],1,right,['2'],5,0.11912420000044222,,,,,,,,17,20,Man,Rechts,2,
,xotask,xotask,dotcolour,23,0,23,323,training,negativefb,44,average,61,0.8173280999999406,['c'],1,left,['3'],4,0.16120999999930063,,,,,,,,17,20,Man,Rechts,2,
,xotask,xotask,dotcolour,24,0,24,324,training,negativefb,91,easy,71,0.8492732000004253,['c'],1,left,['2'],5,0.18571710000014718,,,,,,,,17,20,Man,Rechts,2,
,xotask,xotask,dotcolour,25,0,25,325,training,negativefb,44,hard,53,0.8010400000002846,['c'],1,left,['2'],5,0.13078419999965263,,,,,,,,17,20,Man,Rechts,2,
,xotask,xotask,dotcolour,26,0,26,326,training,negativefb,77,average,17,0.784208199999739,['n'],1,right,['2'],5,0.04614069999934145,,,,,,,,17,20,Man,Rechts,2,
,xotask,xotask,dotcolour,27,0,27,327,training,negativefb,47,average,63,0.9010263000000123,['c'],1,left,['2'],5,0.0888703999999052,,,,,,,,17,20,Man,Rechts,2,
,xotask,xotask,dotcolour,28,0,28,328,training,negativefb,73,hard,54,0.8170350000000326,['c'],1,left,['3'],4,0.23735109999961423,,,,,,,,17,20,Man,Rechts,2,
,xotask,xotask,dotcolour,29,0,29,329,training,negativefb,83,easy,73,0.6996862999994846,['c'],1,left,['2'],5,0.1755618000006507,,,,,,,,17,20,Man,Rechts,2,
,xotask,xotask,dotcolour,30,0,30,330,training,negativefb,55,hard,52,1.833571899999697,['n'],0,left,['3'],4,0.08007530000031693,,,,,,,,17,20,Man,Rechts,2,
,xotask,xotask,dotcolour,31,0,31,331,training,negativefb,32,hard,27,1.2671400000008362,['n'],1,right,['3'],4,0.05822679999982938,,,,,,,,17,20,Man,Rechts,2,
,xotask,xotask,dotcolour,32,0,32,332,training,negativefb,51,easy,71,1.3826460999998744,['c'],1,left,['2'],5,0.0966839999991862,,,,,,,,17,20,Man,Rechts,2,
,xotask,xotask,dotcolour,33,0,33,333,training,negativefb,63,hard,50,1.033169899999848,['c'],1,left,['3'],4,0.20475709999936953,,,,,,,,17,20,Man,Rechts,2,
,xotask,xotask,dotcolour,34,0,34,334,training,negativefb,84,easy,71,0.8667182999997749,['c'],1,left,['3'],4,0.10568330000023707,,,,,,,,17,20,Man,Rechts,2,
,xotask,xotask,dotcolour,35,0,35,335,training,negativefb,80,hard,25,0.8498306999999841,['n'],1,right,['3'],4,0.108104099999764,,,,,,,,17,20,Man,Rechts,2,
,xotask,xotask,dotcolour,36,0,36,336,training,negativefb,57,easy,5,1.0171170000003258,['n'],1,right,['2'],5,0.07900770000014745,,,,,,,,17,20,Man,Rechts,2,
,xotask,xotask,dotcolour,37,0,37,337,training,negativefb,56,hard,27,0.8835091999999349,['n'],1,right,['3'],4,0.07317170000078477,,,,,,,,17,20,Man,Rechts,2,
,xotask,xotask,dotcolour,38,0,38,338,training,negativefb,67,easy,6,0.7501358999998047,['n'],1,right,['3'],4,0.10423799999989569,,,,,,,,17,20,Man,Rechts,2,
,xotask,xotask,dotcolour,39,0,39,339,training,negativefb,71,average,15,0.8504304999996748,['n'],1,right,['1'],6,0.13824680000016087,,,,,,,,17,20,Man,Rechts,2,
,xotask,xotask,dotcolour,40,0,40,340,training,negativefb,45,average,15,1.2490852999999333,['n'],1,right,['3'],4,0.1393253000005643,,,,,,,,17,20,Man,Rechts,2,
,xotask,xotask,dotcolour,41,0,41,341,training,negativefb,16,average,17,2.5175216999996337,['c'],0,right,['3'],4,1.2648164000001998,,,,,,,,17,20,Man,Rechts,2,
,xotask,xotask,dotcolour,42,0,42,342,training,negativefb,86,easy,74,1.0163912999996683,['c'],1,left,['1'],6,0.14194190000034723,,,,,,,,17,20,Man,Rechts,2,
,xotask,xotask,dotcolour,43,0,43,343,training,negativefb,83,easy,8,0.799426499999754,['n'],1,right,['1'],6,0.07213250000040716,,,,,,,,17,20,Man,Rechts,2,
,xotask,xotask,dotcolour,44,0,44,344,training,negativefb,79,easy,72,1.301021899999796,['c'],1,left,['2'],5,0.13789080000060494,,,,,,,,17,20,Man,Rechts,2,
,xotask,xotask,dotcolour,45,0,45,345,training,negativefb,64,average,18,0.7335331000003862,['n'],1,right,['2'],5,0.1032258000004731,,,,,,,,17,20,Man,Rechts,2,
,xotask,xotask,dotcolour,46,0,46,346,training,negativefb,66,average,62,0.7167643000002499,['c'],1,left,['2'],5,0.05440980000003037,,,,,,,,17,20,Man,Rechts,2,
,xotask,xotask,dotcolour,47,0,47,347,training,negativefb,68,hard,26,0.8673300000000381,['n'],1,right,['3'],4,0.3143036999999822,,,,,,,,17,20,Man,Rechts,2,
,xotask,xotask,dotcolour,48,0,48,348,training,negativefb,44,easy,73,0.7343769999997676,['c'],1,left,['2'],5,0.07231230000070354,,,,,,,,17,20,Man,Rechts,2,
,xotask,xotask,dotcolour,49,0,49,349,training,negativefb,60,average,16,0.7843431000001146,['n'],1,right,['2'],5,0.12660090000008495,,,,,,,,17,20,Man,Rechts,2,
,xotask,xotask,dotcolour,50,0,50,350,training,negativefb,54,hard,50,0.9328063000002658,['c'],1,left,['3'],4,0.10835799999949813,,,,,,,,17,20,Man,Rechts,2,
,xotask,xotask,dotcolour,51,0,51,351,training,negativefb,86,average,64,0.7327899000001707,['c'],1,left,['3'],4,0.11570579999988695,,,,,,,,17,20,Man,Rechts,2,
,xotask,xotask,dotcolour,52,0,52,352,training,negativefb,70,easy,8,0.7833518999996159,['n'],1,right,['3'],4,0.09516039999925852,,,,,,,,17,20,Man,Rechts,2,
,xotask,xotask,dotcolour,53,0,53,353,training,negativefb,62,easy,74,0.9171885999994629,['c'],1,left,['2'],5,0.09589200000027631,,,,,,,,17,20,Man,Rechts,2,
,xotask,xotask,dotcolour,54,0,54,354,training,negativefb,40,easy,5,0.8166857999995045,['n'],1,right,['1'],6,0.07574410000052012,,,,,,,,17,20,Man,Rechts,2,
,xotask,xotask,dotcolour,55,0,55,355,training,negativefb,63,hard,25,1.0516760000000431,['n'],1,right,['3'],4,0.07118780000018887,,,,,,,,17,20,Man,Rechts,2,
,xotask,xotask,dotcolour,56,0,56,356,training,negativefb,65,average,61,1.1510402999992948,['c'],1,left,['3'],4,0.15824739999970916,,,,,,,,17,20,Man,Rechts,2,
,xotask,xotask,dotcolour,57,0,57,357,training,negativefb,58,hard,52,0.8661756999999852,['c'],1,left,['3'],4,0.17396280000048137,,,,,,,,17,20,Man,Rechts,2,
,xotask,xotask,dotcolour,58,0,58,358,training,negativefb,57,average,64,0.716179099999863,['c'],1,left,['2'],5,0.12228390000018408,,,,,,,,17,20,Man,Rechts,2,
,xotask,xotask,dotcolour,59,0,59,359,training,negativefb,57,easy,5,1.3327233999998498,['n'],1,right,['2'],5,0.04005570000026637,,,,,,,,17,20,Man,Rechts,2,
,xotask,xotask,dotcolour,0,1,60,360,training,negativefb,53,average,18,2.2168455000000904,['n'],1,right,['3'],4,0.015993400000297697,,,,,,,,17,20,Man,Rechts,2,
,xotask,xotask,dotcolour,1,1,61,361,training,negativefb,72,easy,6,0.9840616999999838,['n'],1,right,['1'],6,0.016110399999888614,,,,,,,,17,20,Man,Rechts,2,
,xotask,xotask,dotcolour,2,1,62,362,training,negativefb,74,easy,72,0.8001560999991852,['c'],1,left,['1'],6,0.1185990000003585,,,,,,,,17,20,Man,Rechts,2,
,xotask,xotask,dotcolour,3,1,63,363,training,negativefb,82,hard,54,0.8505734999998822,['c'],1,left,['2'],5,0.10463640000034502,,,,,,,,17,20,Man,Rechts,2,
,xotask,xotask,dotcolour,4,1,64,364,training,negativefb,48,easy,70,1.1665735999995377,['c'],1,left,['3'],4,0.11734949999936362,,,,,,,,17,20,Man,Rechts,2,
,xotask,xotask,dotcolour,5,1,65,365,training,negativefb,53,easy,5,1.0331757000003563,['n'],1,right,['2'],5,0.04054500000074768,,,,,,,,17,20,Man,Rechts,2,
,xotask,xotask,dotcolour,6,1,66,366,training,negativefb,70,easy,70,0.9993754000006447,['c'],1,left,['2'],5,0.0944153999998889,,,,,,,,17,20,Man,Rechts,2,
,xotask,xotask,dotcolour,7,1,67,367,training,negativefb,75,easy,8,0.8499569000005067,['n'],1,right,['1'],6,0.05719509999926231,,,,,,,,17,20,Man,Rechts,2,
,xotask,xotask,dotcolour,8,1,68,368,training,negativefb,75,hard,54,0.8998637999993662,['c'],1,left,['2'],5,0.08321200000045792,,,,,,,,17,20,Man,Rechts,2,
,xotask,xotask,dotcolour,9,1,69,369,training,negativefb,48,hard,54,1.3346663999991506,['c'],1,left,['2'],5,0.12269980000019132,,,,,,,,17,20,Man,Rechts,2,
,xotask,xotask,dotcolour,10,1,70,370,training,negativefb,68,hard,26,1.5498146999998426,['n'],1,right,['3'],4,0.040249499999845284,,,,,,,,17,20,Man,Rechts,2,
,xotask,xotask,dotcolour,11,1,71,371,training,negativefb,66,hard,25,0.7323246999994808,['n'],1,right,['2'],5,0.06537720000051195,,,,,,,,17,20,Man,Rechts,2,
,xotask,xotask,dotcolour,12,1,72,372,training,negativefb,62,hard,27,1.0840277000006608,['n'],1,right,['3'],4,0.06700959999943734,,,,,,,,17,20,Man,Rechts,2,
,xotask,xotask,dotcolour,13,1,73,373,training,negativefb,58,easy,5,0.6828058000000965,['n'],1,right,['2'],5,0.10171519999948941,,,,,,,,17,20,Man,Rechts,2,
,xotask,xotask,dotcolour,14,1,74,374,training,negativefb,62,average,18,1.3012768999997206,['n'],1,right,['3'],4,0.1013437999999951,,,,,,,,17,20,Man,Rechts,2,
,xotask,xotask,dotcolour,15,1,75,375,training,negativefb,70,easy,8,0.7502891000003729,['n'],1,right,['3'],4,0.059171799999603536,,,,,,,,17,20,Man,Rechts,2,
,xotask,xotask,dotcolour,16,1,76,376,training,negativefb,67,easy,73,0.7341781999994055,['c'],1,left,['2'],5,0.11650149999968562,,,,,,,,17,20,Man,Rechts,2,
,xotask,xotask,dotcolour,17,1,77,377,training,negativefb,54,average,16,0.8168293999997331,['n'],1,right,['3'],4,0.07852510000066104,,,,,,,,17,20,Man,Rechts,2,
,xotask,xotask,dotcolour,18,1,78,378,training,negativefb,75,average,60,1.1662643999998181,['c'],1,left,['3'],4,0.12558160000025964,,,,,,,,17,20,Man,Rechts,2,
,xotask,xotask,dotcolour,19,1,79,379,training,negativefb,68,hard,53,0.8165263999999297,['c'],1,left,['2'],5,0.09610150000025897,,,,,,,,17,20,Man,Rechts,2,
,xotask,xotask,dotcolour,20,1,80,380,training,negativefb,54,easy,9,0.9163897999997062,['n'],1,right,['2'],5,0.0402604999999312,,,,,,,,17,20,Man,Rechts,2,
,xotask,xotask,dotcolour,21,1,81,381,training,negativefb,38,average,19,0.8830885000006674,['n'],1,right,['3'],4,0.06741750000037428,,,,,,,,17,20,Man,Rechts,2,
,xotask,xotask,dotcolour,22,1,82,382,training,negativefb,61,hard,52,0.8518029000006209,['c'],1,left,['3'],4,0.11881420000008802,,,,,,,,17,20,Man,Rechts,2,
,xotask,xotask,dotcolour,23,1,83,383,training,negativefb,28,easy,74,0.8339716999998927,['c'],1,left,['1'],6,0.13656970000010915,,,,,,,,17,20,Man,Rechts,2,
,xotask,xotask,dotcolour,24,1,84,384,training,negativefb,48,hard,51,1.166030100000171,['c'],1,left,['3'],4,0.07651099999930011,,,,,,,,17,20,Man,Rechts,2,
,xotask,xotask,dotcolour,25,1,85,385,training,negativefb,41,average,61,1.1665019000001848,['c'],1,left,['3'],4,0.09185530000013387,,,,,,,,17,20,Man,Rechts,2,
,xotask,xotask,dotcolour,26,1,86,386,training,negativefb,66,hard,26,0.8166852000003928,['n'],1,right,['3'],4,0.1037399999995614,,,,,,,,17,20,Man,Rechts,2,
,xotask,xotask,dotcolour,27,1,87,387,training,negativefb,21,average,18,0.6345513999995092,['n'],1,right,['3'],4,0.09834709999995539,,,,,,,,17,20,Man,Rechts,2,
,xotask,xotask,dotcolour,28,1,88,388,training,negativefb,71,easy,70,0.98376399999961,['c'],1,left,['3'],4,0.11969979999958014,,,,,,,,17,20,Man,Rechts,2,
,xotask,xotask,dotcolour,29,1,89,389,training,negativefb,40,average,15,1.4665421999998216,['n'],1,right,['3'],4,0.08721389999936946,,,,,,,,17,20,Man,Rechts,2,
,xotask,xotask,dotcolour,30,1,90,390,training,negativefb,59,hard,53,1.6340288000001237,['c'],1,left,['3'],4,0.07524199999988923,,,,,,,,17,20,Man,Rechts,2,
,xotask,xotask,dotcolour,31,1,91,391,training,negativefb,54,hard,26,1.1334163999999873,['n'],1,right,['3'],4,0.13912679999975808,,,,,,,,17,20,Man,Rechts,2,
,xotask,xotask,dotcolour,32,1,92,392,training,negativefb,52,average,15,0.8990876999996544,['n'],1,right,['3'],4,0.09768220000023575,,,,,,,,17,20,Man,Rechts,2,
,xotask,xotask,dotcolour,33,1,93,393,training,negativefb,64,hard,25,1.5005587000005107,['n'],1,right,['3'],4,0.05011899999954039,,,,,,,,17,20,Man,Rechts,2,
,xotask,xotask,dotcolour,34,1,94,394,training,negativefb,87,average,62,0.8004391000004034,['c'],1,left,['3'],4,0.12787010000010923,,,,,,,,17,20,Man,Rechts,2,
,xotask,xotask,dotcolour,35,1,95,395,training,negativefb,75,average,18,0.8163716000008208,['n'],1,right,['3'],4,0.09846999999990658,,,,,,,,17,20,Man,Rechts,2,
,xotask,xotask,dotcolour,36,1,96,396,training,negativefb,84,easy,70,0.9505935999995927,['c'],1,left,['2'],5,0.16025880000051984,,,,,,,,17,20,Man,Rechts,2,
,xotask,xotask,dotcolour,37,1,97,397,training,negativefb,57,easy,9,0.8661974999995437,['n'],1,right,['2'],5,0.07981410000047617,,,,,,,,17,20,Man,Rechts,2,
,xotask,xotask,dotcolour,38,1,98,398,training,negativefb,77,average,18,0.7332699999997203,['n'],1,right,['2'],5,0.1281888000003164,,,,,,,,17,20,Man,Rechts,2,
,xotask,xotask,dotcolour,39,1,99,399,training,negativefb,58,average,16,0.6167804000006072,['n'],1,right,['2'],5,0.08245380000062141,,,,,,,,17,20,Man,Rechts,2,
,xotask,xotask,dotcolour,40,1,100,400,training,negativefb,49,average,62,0.6173738999996203,['c'],1,left,['2'],5,0.07057889999941835,,,,,,,,17,20,Man,Rechts,2,
,xotask,xotask,dotcolour,41,1,101,401,training,negativefb,44,hard,26,0.9662370999994891,['n'],1,right,['3'],4,0.05328330000065762,,,,,,,,17,20,Man,Rechts,2,
,xotask,xotask,dotcolour,42,1,102,402,training,negativefb,56,average,63,0.6665642999996635,['c'],1,left,['2'],5,0.0645887999999104,,,,,,,,17,20,Man,Rechts,2,
,xotask,xotask,dotcolour,43,1,103,403,training,negativefb,63,hard,25,0.9997820000007778,['n'],1,right,['2'],5,0.09422060000088095,,,,,,,,17,20,Man,Rechts,2,
,xotask,xotask,dotcolour,44,1,104,404,training,negativefb,38,hard,53,0.7503441000008024,['c'],1,left,['2'],5,0.10799899999983609,,,,,,,,17,20,Man,Rechts,2,
,xotask,xotask,dotcolour,45,1,105,405,training,negativefb,70,average,62,1.5840559999996913,['c'],1,left,['3'],4,0.09671270000035292,,,,,,,,17,20,Man,Rechts,2,
,xotask,xotask,dotcolour,46,1,106,406,training,negativefb,67,average,60,0.6675422999996954,['c'],1,left,['3'],4,0.07545430000027409,,,,,,,,17,20,Man,Rechts,2,
,xotask,xotask,dotcolour,47,1,107,407,training,negativefb,61,hard,27,1.8501455999994505,['n'],1,right,['3'],4,0.06269890000112355,,,,,,,,17,20,Man,Rechts,2,
,xotask,xotask,dotcolour,48,1,108,408,training,negativefb,69,easy,74,0.8172797999995964,['c'],1,left,['2'],5,0.15634099999988393,,,,,,,,17,20,Man,Rechts,2,
,xotask,xotask,dotcolour,49,1,109,409,training,negativefb,41,hard,54,0.6498647999997047,['c'],1,left,['2'],5,0.09182440000040515,,,,,,,,17,20,Man,Rechts,2,
,xotask,xotask,dotcolour,50,1,110,410,training,negativefb,48,average,63,0.7339069999998173,['c'],1,left,['2'],5,0.07591119999960938,,,,,,,,17,20,Man,Rechts,2,
,xotask,xotask,dotcolour,51,1,111,411,training,negativefb,70,easy,73,0.9662680000001274,['c'],1,left,['2'],5,0.13854689999971015,,,,,,,,17,20,Man,Rechts,2,
,xotask,xotask,dotcolour,52,1,112,412,training,negativefb,45,average,60,0.7505406000000221,['c'],1,left,['2'],5,0.10225489999902493,,,,,,,,17,20,Man,Rechts,2,
,xotask,xotask,dotcolour,53,1,113,413,training,negativefb,53,average,62,0.9002282000001287,['c'],1,left,['3'],4,0.07840360000045621,,,,,,,,17,20,Man,Rechts,2,
,xotask,xotask,dotcolour,54,1,114,414,training,negativefb,53,easy,5,0.6840403999995033,['n'],1,right,['2'],5,0.06453999999939697,,,,,,,,17,20,Man,Rechts,2,
,xotask,xotask,dotcolour,55,1,115,415,training,negativefb,69,easy,8,1.450257700000293,['n'],1,right,['1'],6,0.172652699999162,,,,,,,,17,20,Man,Rechts,2,
,xotask,xotask,dotcolour,56,1,116,416,training,negativefb,97,easy,74,1.1997080000001006,['c'],1,left,['1'],6,0.7337172000006831,,,,,,,,17,20,Man,Rechts,2,
,xotask,xotask,dotcolour,57,1,117,417,training,negativefb,64,hard,29,2.11756079999941,['n'],1,right,['3'],4,0.1316850000002887,,,,,,,,17,20,Man,Rechts,2,
,xotask,xotask,dotcolour,58,1,118,418,training,negativefb,77,easy,6,1.2332649999989371,['n'],1,right,['2'],5,0.08465760000035516,,,,,,,,17,20,Man,Rechts,2,
,xotask,xotask,dotcolour,59,1,119,419,training,negativefb,58,hard,51,0.8000601999992796,['c'],1,left,['2'],5,0.05781149999893387,,,,,,,,17,20,Man,Rechts,2,
,xotask,xotask,dotcolour,0,2,120,420,main,negativefb,-99,easy,73,0.9178457999987586,['c'],1,left,['2'],5,0.08610359999875072,,,,,,,,17,20,Man,Rechts,2,
,xotask,xotask,dotcolour,1,2,121,421,main,negativefb,-99,average,17,0.8671240000003309,['n'],1,right,['2'],5,0.024890900000173133,,,,,,,,17,20,Man,Rechts,2,
,xotask,xotask,dotcolour,2,2,122,422,main,negativefb,-99,easy,73,0.8665403000013612,['c'],1,left,['3'],4,0.06180049999966286,,,,,,,,17,20,Man,Rechts,2,
,xotask,xotask,dotcolour,3,2,123,423,main,negativefb,-99,average,18,0.6683620999992854,['c'],0,right,['2'],5,0.05781849999948463,,,,,,,,17,20,Man,Rechts,2,
,xotask,xotask,dotcolour,4,2,124,424,main,negativefb,-99,average,15,0.6844770999996399,['n'],1,right,['2'],5,0.1735515000000305,,,,,,,,17,20,Man,Rechts,2,
,xotask,xotask,dotcolour,5,2,125,425,main,negativefb,-99,average,62,1.0168379000006098,['c'],1,left,['3'],4,0.1267277999995713,,,,,,,,17,20,Man,Rechts,2,
,xotask,xotask,dotcolour,6,2,126,426,main,negativefb,-99,average,64,0.8180382999998983,['c'],1,left,['1'],6,0.8582447999997385,,,,,,,,17,20,Man,Rechts,2,
,xotask,xotask,dotcolour,7,2,127,427,main,negativefb,-99,easy,70,1.3671056000002864,['c'],1,left,['2'],5,0.10527619999993476,,,,,,,,17,20,Man,Rechts,2,
,xotask,xotask,dotcolour,8,2,128,428,main,negativefb,-99,average,64,4.03415270000005,['c'],1,left,['3'],4,0.14873980000083975,,,,,,,,17,20,Man,Rechts,2,
,xotask,xotask,dotcolour,9,2,129,429,main,negativefb,-99,average,61,0.7333522000008088,['c'],1,left,['3'],4,0.09040420000019367,,,,,,,,17,20,Man,Rechts,2,
,xotask,xotask,dotcolour,10,2,130,430,main,negativefb,-99,hard,27,0.9345338000002812,['n'],1,right,['3'],4,0.10648949999995239,,,,,,,,17,20,Man,Rechts,2,
,xotask,xotask,dotcolour,11,2,131,431,main,negativefb,-99,average,16,0.7674727000012354,['n'],1,right,['3'],4,0.09613600000011502,,,,,,,,17,20,Man,Rechts,2,
,xotask,xotask,dotcolour,12,2,132,432,main,negativefb,-99,easy,9,0.8004301000000851,['n'],1,right,['2'],5,0.0621326999989833,,,,,,,,17,20,Man,Rechts,2,
,xotask,xotask,dotcolour,13,2,133,433,main,negativefb,-99,hard,28,1.1005624000008538,['c'],0,right,['3'],4,0.0640860999992583,,,,,,,,17,20,Man,Rechts,2,
,xotask,xotask,dotcolour,14,2,134,434,main,negativefb,-99,hard,54,0.8346629000006942,['c'],1,left,['3'],4,0.12507339999865508,,,,,,,,17,20,Man,Rechts,2,
,xotask,xotask,dotcolour,15,2,135,435,main,negativefb,-99,hard,26,0.8002834999988409,['n'],1,right,['3'],4,0.1536404999988008,,,,,,,,17,20,Man,Rechts,2,
,xotask,xotask,dotcolour,16,2,136,436,main,negativefb,-99,hard,25,0.7347766999992018,['c'],0,right,['2'],5,0.11100169999917853,,,,,,,,17,20,Man,Rechts,2,
,xotask,xotask,dotcolour,17,2,137,437,main,negativefb,-99,hard,52,0.7503089000001637,['n'],0,left,['2'],5,0.23758409999936703,,,,,,,,17,20,Man,Rechts,2,
,xotask,xotask,dotcolour,18,2,138,438,main,negativefb,-99,easy,9,0.9348946000009164,['n'],1,right,['2'],5,0.135590100000627,,,,,,,,17,20,Man,Rechts,2,
,xotask,xotask,dotcolour,19,2,139,439,main,negativefb,-99,hard,54,0.9848532000014529,['n'],0,left,['3'],4,0.03549670000029437,,,,,,,,17,20,Man,Rechts,2,
,xotask,xotask,dotcolour,20,2,140,440,main,negativefb,-99,hard,50,0.7012644999995246,['c'],1,left,['3'],4,0.07109800000034738,,,,,,,,17,20,Man,Rechts,2,
,xotask,xotask,dotcolour,21,2,141,441,main,negativefb,-99,easy,74,0.6350142000010237,['c'],1,left,['3'],4,0.06731050000053074,,,,,,,,17,20,Man,Rechts,2,
,xotask,xotask,dotcolour,22,2,142,442,main,negativefb,-99,average,17,1.5001165000012406,['n'],1,right,['3'],4,0.03687299999910465,,,,,,,,17,20,Man,Rechts,2,
,xotask,xotask,dotcolour,23,2,143,443,main,negativefb,-99,average,17,1.2848231999996642,['n'],1,right,['3'],4,0.08095219999995606,,,,,,,,17,20,Man,Rechts,2,
,xotask,xotask,dotcolour,24,2,144,444,main,negativefb,-99,easy,9,0.985086799999408,['n'],1,right,['2'],5,0.05572089999986929,,,,,,,,17,20,Man,Rechts,2,
,xotask,xotask,dotcolour,25,2,145,445,main,negativefb,-99,easy,73,0.6838423000008333,['c'],1,left,['2'],5,0.0183154000005743,,,,,,,,17,20,Man,Rechts,2,
,xotask,xotask,dotcolour,26,2,146,446,main,negativefb,-99,hard,27,0.8495660999997199,['c'],0,right,['3'],4,0.08078179999938584,,,,,,,,17,20,Man,Rechts,2,
,xotask,xotask,dotcolour,27,2,147,447,main,negativefb,-99,hard,25,1.0332901000001584,['n'],1,right,['3'],4,0.020562099998642225,,,,,,,,17,20,Man,Rechts,2,
,xotask,xotask,dotcolour,28,2,148,448,main,negativefb,-99,average,17,0.9823475000011967,['n'],1,right,['3'],4,0.021291999999448308,,,,,,,,17,20,Man,Rechts,2,
,xotask,xotask,dotcolour,29,2,149,449,main,negativefb,-99,average,61,0.7345061999985774,['c'],1,left,['3'],4,0.04874580000068818,,,,,,,,17,20,Man,Rechts,2,
,xotask,xotask,dotcolour,30,2,150,450,main,negativefb,-99,hard,52,0.6671905999992305,['c'],1,left,['3'],4,0.06798280000111845,,,,,,,,17,20,Man,Rechts,2,
,xotask,xotask,dotcolour,31,2,151,451,main,negativefb,-99,easy,74,0.8849955999994563,['c'],1,left,['2'],5,0.07062409999889496,,,,,,,,17,20,Man,Rechts,2,
,xotask,xotask,dotcolour,32,2,152,452,main,negativefb,-99,average,61,1.134284799998568,['c'],1,left,['1'],6,0.03946380000161298,,,,,,,,17,20,Man,Rechts,2,
,xotask,xotask,dotcolour,33,2,153,453,main,negativefb,-99,average,15,1.2172444999996515,['n'],1,right,['1'],6,0.8463396999995894,,,,,,,,17,20,Man,Rechts,2,
,xotask,xotask,dotcolour,34,2,154,454,main,negativefb,-99,easy,5,0.9850889999997889,['n'],1,right,['2'],5,0.014305499998954474,,,,,,,,17,20,Man,Rechts,2,
,xotask,xotask,dotcolour,35,2,155,455,main,negativefb,-99,hard,52,1.93328289999954,['c'],1,left,['2'],5,0.02532699999937904,,,,,,,,17,20,Man,Rechts,2,
,xotask,xotask,dotcolour,36,2,156,456,main,negativefb,-99,average,16,1.4334868999994796,['n'],1,right,['1'],6,0.024619700001494493,,,,,,,,17,20,Man,Rechts,2,
,xotask,xotask,dotcolour,37,2,157,457,main,negativefb,-99,easy,6,0.6845362000003661,['n'],1,right,['1'],6,0.03656630000114092,,,,,,,,17,20,Man,Rechts,2,
,xotask,xotask,dotcolour,38,2,158,458,main,negativefb,-99,hard,28,0.7497877000005246,['n'],1,right,['1'],6,0.02248909999980242,,,,,,,,17,20,Man,Rechts,2,
,xotask,xotask,dotcolour,39,2,159,459,main,negativefb,-99,average,63,0.9834552000011172,['c'],1,left,['1'],6,0.0792449000000488,,,,,,,,17,20,Man,Rechts,2,
,xotask,xotask,dotcolour,40,2,160,460,main,negativefb,-99,easy,5,1.0838734999997541,['n'],1,right,['1'],6,0.041289599999799975,,,,,,,,17,20,Man,Rechts,2,
,xotask,xotask,dotcolour,41,2,161,461,main,negativefb,-99,average,63,0.7840938000008464,['c'],1,left,['2'],5,0.08973650000007183,,,,,,,,17,20,Man,Rechts,2,
,xotask,xotask,dotcolour,42,2,162,462,main,negativefb,-99,hard,26,0.9176178999987314,['n'],1,right,['2'],5,0.02601449999929173,,,,,,,,17,20,Man,Rechts,2,
,xotask,xotask,dotcolour,43,2,163,463,main,negativefb,-99,hard,51,0.6508272999999463,['c'],1,left,['2'],5,0.06461990000025253,,,,,,,,17,20,Man,Rechts,2,
,xotask,xotask,dotcolour,44,2,164,464,main,negativefb,-99,hard,53,0.8010892000002059,['c'],1,left,['2'],5,0.09493769999971846,,,,,,,,17,20,Man,Rechts,2,
,xotask,xotask,dotcolour,45,2,165,465,main,negativefb,-99,hard,26,1.7852036999993288,['n'],1,right,['3'],4,0.6688147999993816,,,,,,,,17,20,Man,Rechts,2,
,xotask,xotask,dotcolour,46,2,166,466,main,negativefb,-99,easy,72,0.8349944000001415,['c'],1,left,['2'],5,0.12102869999944232,,,,,,,,17,20,Man,Rechts,2,
,xotask,xotask,dotcolour,47,2,167,467,main,negativefb,-99,easy,5,0.8672992000010709,['n'],1,right,['2'],5,0.09045829999922717,,,,,,,,17,20,Man,Rechts,2,
,xotask,xotask,dotcolour,48,2,168,468,main,negativefb,-99,easy,70,0.6340691999994306,['c'],1,left,['2'],5,0.08638330000030692,,,,,,,,17,20,Man,Rechts,2,
,xotask,xotask,dotcolour,49,2,169,469,main,negativefb,-99,easy,74,0.8503880999996909,['c'],1,left,['1'],6,0.1536075999993045,,,,,,,,17,20,Man,Rechts,2,
,xotask,xotask,dotcolour,50,2,170,470,main,negativefb,-99,average,61,0.6510223000004771,['c'],1,left,['2'],5,0.2265382999994472,,,,,,,,17,20,Man,Rechts,2,
,xotask,xotask,dotcolour,51,2,171,471,main,negativefb,-99,average,19,0.6175277000002097,['n'],1,right,['2'],5,0.17013719999886234,,,,,,,,17,20,Man,Rechts,2,
,xotask,xotask,dotcolour,52,2,172,472,main,negativefb,-99,easy,6,0.5835425000004761,['n'],1,right,['2'],5,0.18849690000024566,,,,,,,,17,20,Man,Rechts,2,
,xotask,xotask,dotcolour,53,2,173,473,main,negativefb,-99,hard,25,1.1333565000004455,['n'],1,right,['3'],4,0.05682359999991604,,,,,,,,17,20,Man,Rechts,2,
,xotask,xotask,dotcolour,54,2,174,474,main,negativefb,-99,easy,71,0.7501506000007794,['c'],1,left,['3'],4,0.07310030000007828,,,,,,,,17,20,Man,Rechts,2,
,xotask,xotask,dotcolour,55,2,175,475,main,negativefb,-99,hard,54,1.134283499999583,['c'],1,left,['2'],5,0.018181700001150602,,,,,,,,17,20,Man,Rechts,2,
,xotask,xotask,dotcolour,56,2,176,476,main,negativefb,-99,average,60,0.8005141000012372,['c'],1,left,['3'],4,0.39427140000043437,,,,,,,,17,20,Man,Rechts,2,
,xotask,xotask,dotcolour,57,2,177,477,main,negativefb,-99,hard,52,0.7011911000008695,['c'],1,left,['3'],4,0.07891179999933229,,,,,,,,17,20,Man,Rechts,2,
,xotask,xotask,dotcolour,58,2,178,478,main,negativefb,-99,easy,8,0.7334052999995038,['n'],1,right,['2'],5,0.11996439999893482,,,,,,,,17,20,Man,Rechts,2,
,xotask,xotask,dotcolour,59,2,179,479,main,negativefb,-99,easy,6,0.5844692000009672,['n'],1,right,['2'],5,0.07707719999962137,,,,,,,,17,20,Man,Rechts,2,
,xotask,xotask,dotcolour,0,3,180,480,main,negativefb,-99,average,63,1.2015864999993937,['c'],1,left,['2'],5,0.49899489999916113,,,,,,,,17,20,Man,Rechts,2,
,xotask,xotask,dotcolour,1,3,181,481,main,negativefb,-99,average,60,0.8512840000003052,['c'],1,left,['3'],4,0.022396300000764313,,,,,,,,17,20,Man,Rechts,2,
,xotask,xotask,dotcolour,2,3,182,482,main,negativefb,-99,easy,7,0.9677042000002984,['n'],1,right,['3'],4,0.015441800000189687,,,,,,,,17,20,Man,Rechts,2,
,xotask,xotask,dotcolour,3,3,183,483,main,negativefb,-99,hard,25,0.7340313999993668,['n'],1,right,['3'],4,0.6580903000012768,,,,,,,,17,20,Man,Rechts,2,
,xotask,xotask,dotcolour,4,3,184,484,main,negativefb,-99,hard,52,1.5341742000000522,['c'],1,left,['3'],4,0.08336340000096243,,,,,,,,17,20,Man,Rechts,2,
,xotask,xotask,dotcolour,5,3,185,485,main,negativefb,-99,easy,73,0.7677022000007128,['c'],1,left,['2'],5,0.04231830000026093,,,,,,,,17,20,Man,Rechts,2,
,xotask,xotask,dotcolour,6,3,186,486,main,negativefb,-99,average,19,1.500593700000536,['n'],1,right,['3'],4,0.0132634000001417,,,,,,,,17,20,Man,Rechts,2,
,xotask,xotask,dotcolour,7,3,187,487,main,negativefb,-99,hard,52,0.9334110999989207,['c'],1,left,['3'],4,0.06499219999932393,,,,,,,,17,20,Man,Rechts,2,
,xotask,xotask,dotcolour,8,3,188,488,main,negativefb,-99,hard,51,0.8170388000016828,['c'],1,left,['2'],5,0.07017260000066017,,,,,,,,17,20,Man,Rechts,2,
,xotask,xotask,dotcolour,9,3,189,489,main,negativefb,-99,hard,28,1.2501268999985768,['n'],1,right,['3'],4,0.05025670000031823,,,,,,,,17,20,Man,Rechts,2,
,xotask,xotask,dotcolour,10,3,190,490,main,negativefb,-99,average,15,0.7338868999995611,['c'],0,right,['3'],4,0.16339619999962451,,,,,,,,17,20,Man,Rechts,2,
,xotask,xotask,dotcolour,11,3,191,491,main,negativefb,-99,easy,70,0.7999885999997787,['c'],1,left,['1'],6,0.10174510000069859,,,,,,,,17,20,Man,Rechts,2,
,xotask,xotask,dotcolour,12,3,192,492,main,negativefb,-99,average,17,1.0006276000003709,['n'],1,right,['2'],5,0.14665559999957622,,,,,,,,17,20,Man,Rechts,2,
,xotask,xotask,dotcolour,13,3,193,493,main,negativefb,-99,average,61,0.7336068999993586,['c'],1,left,['2'],5,0.12823179999941203,,,,,,,,17,20,Man,Rechts,2,
,xotask,xotask,dotcolour,14,3,194,494,main,negativefb,-99,easy,74,0.7834877999994205,['c'],1,left,['1'],6,0.053571200000078534,,,,,,,,17,20,Man,Rechts,2,
,xotask,xotask,dotcolour,15,3,195,495,main,negativefb,-99,hard,51,1.7505506000015885,['c'],1,left,['3'],4,0.10252890000083426,,,,,,,,17,20,Man,Rechts,2,
,xotask,xotask,dotcolour,16,3,196,496,main,negativefb,-99,hard,27,0.8509661000007327,['n'],1,right,['3'],4,0.1531261000000086,,,,,,,,17,20,Man,Rechts,2,
,xotask,xotask,dotcolour,17,3,197,497,main,negativefb,-99,easy,8,0.8340170000010403,['n'],1,right,['2'],5,0.09858829999939189,,,,,,,,17,20,Man,Rechts,2,
,xotask,xotask,dotcolour,18,3,198,498,main,negativefb,-99,hard,26,0.6842815999989398,['n'],1,right,['2'],5,0.05144010000003618,,,,,,,,17,20,Man,Rechts,2,
,xotask,xotask,dotcolour,19,3,199,499,main,negativefb,-99,easy,8,0.8510332999994716,['n'],1,right,['2'],5,0.07208150000042224,,,,,,,,17,20,Man,Rechts,2,
,xotask,xotask,dotcolour,20,3,200,500,main,negativefb,-99,hard,28,0.8007715000003373,['n'],1,right,['2'],5,0.03856649999943329,,,,,,,,17,20,Man,Rechts,2,
,xotask,xotask,dotcolour,21,3,201,501,main,negativefb,-99,hard,53,0.901023599999462,['c'],1,left,['2'],5,0.06600590000016382,,,,,,,,17,20,Man,Rechts,2,
,xotask,xotask,dotcolour,22,3,202,502,main,negativefb,-99,easy,8,0.9004054999986693,['n'],1,right,['2'],5,0.0357932000006258,,,,,,,,17,20,Man,Rechts,2,
,xotask,xotask,dotcolour,23,3,203,503,main,negativefb,-99,easy,73,0.9171468000004097,['c'],1,left,['1'],6,0.07035689999975148,,,,,,,,17,20,Man,Rechts,2,
,xotask,xotask,dotcolour,24,3,204,504,main,negativefb,-99,hard,28,1.7347601000001305,['c'],0,right,['3'],4,0.10250340000129654,,,,,,,,17,20,Man,Rechts,2,
,xotask,xotask,dotcolour,25,3,205,505,main,negativefb,-99,easy,9,0.8679958000011538,['n'],1,right,['3'],4,0.048693099999582046,,,,,,,,17,20,Man,Rechts,2,
,xotask,xotask,dotcolour,26,3,206,506,main,negativefb,-99,average,19,0.8676488000000973,['n'],1,right,['3'],4,0.06068500000037602,,,,,,,,17,20,Man,Rechts,2,
,xotask,xotask,dotcolour,27,3,207,507,main,negativefb,-99,hard,29,1.5842529000001377,['n'],1,right,['3'],4,0.555884800000058,,,,,,,,17,20,Man,Rechts,2,
,xotask,xotask,dotcolour,28,3,208,508,main,negativefb,-99,average,61,0.8337676000010106,['c'],1,left,['2'],5,0.14116760000069917,,,,,,,,17,20,Man,Rechts,2,
,xotask,xotask,dotcolour,29,3,209,509,main,negativefb,-99,average,63,0.6838833000001614,['c'],1,left,['2'],5,0.06933560000106809,,,,,,,,17,20,Man,Rechts,2,
,xotask,xotask,dotcolour,30,3,210,510,main,negativefb,-99,hard,28,1.117198500000086,['n'],1,right,['3'],4,0.046684900000400376,,,,,,,,17,20,Man,Rechts,2,
,xotask,xotask,dotcolour,31,3,211,511,main,negativefb,-99,easy,7,0.8673040000012406,['n'],1,right,['3'],4,0.08369990000028338,,,,,,,,17,20,Man,Rechts,2,
,xotask,xotask,dotcolour,32,3,212,512,main,negativefb,-99,average,17,1.8018767000012303,['n'],1,right,['3'],4,0.07370799999989686,,,,,,,,17,20,Man,Rechts,2,
,xotask,xotask,dotcolour,33,3,213,513,main,negativefb,-99,hard,50,0.8854962999994314,['n'],0,left,['3'],4,0.003800700000283541,,,,,,,,17,20,Man,Rechts,2,
,xotask,xotask,dotcolour,34,3,214,514,main,negativefb,-99,average,64,1.633673700000145,['c'],1,left,['3'],4,0.07513250000010885,,,,,,,,17,20,Man,Rechts,2,
,xotask,xotask,dotcolour,35,3,215,515,main,negativefb,-99,average,18,0.8848313000016788,['n'],1,right,['3'],4,0.01381530000071507,,,,,,,,17,20,Man,Rechts,2,
,xotask,xotask,dotcolour,36,3,216,516,main,negativefb,-99,hard,53,0.7173421999996208,['n'],0,left,['3'],4,0.04981269999916549,,,,,,,,17,20,Man,Rechts,2,
,xotask,xotask,dotcolour,37,3,217,517,main,negativefb,-99,easy,8,1.2328388999994786,['n'],1,right,['3'],4,0.030934700000216253,,,,,,,,17,20,Man,Rechts,2,
,xotask,xotask,dotcolour,38,3,218,518,main,negativefb,-99,easy,73,0.8836059999994177,['c'],1,left,['1'],6,0.0835189999997965,,,,,,,,17,20,Man,Rechts,2,
,xotask,xotask,dotcolour,39,3,219,519,main,negativefb,-99,average,64,0.9179653999999573,['c'],1,left,['2'],5,0.027697299999999814,,,,,,,,17,20,Man,Rechts,2,
,xotask,xotask,dotcolour,40,3,220,520,main,negativefb,-99,easy,5,0.917156999999861,['n'],1,right,['2'],5,0.05466850000084378,,,,,,,,17,20,Man,Rechts,2,
,xotask,xotask,dotcolour,41,3,221,521,main,negativefb,-99,easy,72,0.7334184999999707,['c'],1,left,['2'],5,0.08096500000101514,,,,,,,,17,20,Man,Rechts,2,
,xotask,xotask,dotcolour,42,3,222,522,main,negativefb,-99,average,62,0.8847802999989653,['c'],1,left,['2'],5,0.059322299999621464,,,,,,,,17,20,Man,Rechts,2,
,xotask,xotask,dotcolour,43,3,223,523,main,negativefb,-99,hard,27,0.8844768999988446,['n'],1,right,['3'],4,0.09462859999985085,,,,,,,,17,20,Man,Rechts,2,
,xotask,xotask,dotcolour,44,3,224,524,main,negativefb,-99,hard,52,0.700494600001548,['n'],0,left,['3'],4,0.024126000000251224,,,,,,,,17,20,Man,Rechts,2,
,xotask,xotask,dotcolour,45,3,225,525,main,negativefb,-99,easy,70,0.7493727999990369,['c'],1,left,['3'],4,0.042136400001254515,,,,,,,,17,20,Man,Rechts,2,
,xotask,xotask,dotcolour,46,3,226,526,main,negativefb,-99,average,18,0.9672927999999956,['n'],1,right,['2'],5,0.05832680000094115,,,,,,,,17,20,Man,Rechts,2,
,xotask,xotask,dotcolour,47,3,227,527,main,negativefb,-99,average,17,0.8678361000002042,['c'],0,right,['2'],5,0.5350528999988455,,,,,,,,17,20,Man,Rechts,2,
,xotask,xotask,dotcolour,48,3,228,528,main,negativefb,-99,hard,51,0.5832766000003176,['c'],1,left,['2'],5,0.059094599999298225,,,,,,,,17,20,Man,Rechts,2,
,xotask,xotask,dotcolour,49,3,229,529,main,negativefb,-99,hard,53,0.6348073999997723,['c'],1,left,['2'],5,0.08799339999859512,,,,,,,,17,20,Man,Rechts,2,
,xotask,xotask,dotcolour,50,3,230,530,main,negativefb,-99,hard,27,1.4848920999993425,['c'],0,right,['3'],4,0.058385799999086885,,,,,,,,17,20,Man,Rechts,2,
,xotask,xotask,dotcolour,51,3,231,531,main,negativefb,-99,easy,71,0.867206900000383,['c'],1,left,['2'],5,0.1099858999987191,,,,,,,,17,20,Man,Rechts,2,
,xotask,xotask,dotcolour,52,3,232,532,main,negativefb,-99,easy,8,1.501623300000574,['n'],1,right,['1'],6,0.47867220000080124,,,,,,,,17,20,Man,Rechts,2,
,xotask,xotask,dotcolour,53,3,233,533,main,negativefb,-99,easy,9,0.7667094000007637,['n'],1,right,['2'],5,0.013961799999378854,,,,,,,,17,20,Man,Rechts,2,
,xotask,xotask,dotcolour,54,3,234,534,main,negativefb,-99,easy,70,0.9995192999995197,['c'],1,left,['1'],6,0.03787290000036592,,,,,,,,17,20,Man,Rechts,2,
,xotask,xotask,dotcolour,55,3,235,535,main,negativefb,-99,easy,73,0.6011657999988529,['c'],1,left,['1'],6,0.23759550000067975,,,,,,,,17,20,Man,Rechts,2,
,xotask,xotask,dotcolour,56,3,236,536,main,negativefb,-99,average,64,0.6184377999998105,['c'],1,left,['2'],5,0.10065850000137289,,,,,,,,17,20,Man,Rechts,2,
,xotask,xotask,dotcolour,57,3,237,537,main,negativefb,-99,average,18,1.0678849999985687,['n'],1,right,['2'],5,0.0625222999988182,,,,,,,,17,20,Man,Rechts,2,
,xotask,xotask,dotcolour,58,3,238,538,main,negativefb,-99,average,62,1.0837700000010955,['c'],1,left,['2'],5,0.08169850000012957,,,,,,,,17,20,Man,Rechts,2,
,xotask,xotask,dotcolour,59,3,239,539,main,negativefb,-99,average,16,0.8843555000003107,['n'],1,right,['2'],5,0.043120800000906456,,,,,,,,17,20,Man,Rechts,2,
,xotask,xotask,dotcolour,0,4,240,540,main,negativefb,-99,easy,71,0.9175488000000769,['c'],1,left,['3'],4,0.04289419999986421,,,,,,,,17,20,Man,Rechts,2,
,xotask,xotask,dotcolour,1,4,241,541,main,negativefb,-99,average,63,0.5846101000006456,['c'],1,left,['3'],4,0.05054220000056375,,,,,,,,17,20,Man,Rechts,2,
,xotask,xotask,dotcolour,2,4,242,542,main,negativefb,-99,easy,71,0.5176797999993141,['c'],1,left,['3'],4,0.10079880000012054,,,,,,,,17,20,Man,Rechts,2,
,xotask,xotask,dotcolour,3,4,243,543,main,negativefb,-99,easy,8,0.8508770999997068,['n'],1,right,['1'],6,0.09563250000064727,,,,,,,,17,20,Man,Rechts,2,
,xotask,xotask,dotcolour,4,4,244,544,main,negativefb,-99,average,17,1.1339189000009355,['n'],1,right,['2'],5,0.08781830000043556,,,,,,,,17,20,Man,Rechts,2,
,xotask,xotask,dotcolour,5,4,245,545,main,negativefb,-99,hard,51,0.8013496000003215,['c'],1,left,['2'],5,0.05320900000151596,,,,,,,,17,20,Man,Rechts,2,
,xotask,xotask,dotcolour,6,4,246,546,main,negativefb,-99,average,18,0.9176906000011513,['n'],1,right,['2'],5,0.046583600000303704,,,,,,,,17,20,Man,Rechts,2,
,xotask,xotask,dotcolour,7,4,247,547,main,negativefb,-99,average,60,0.5839415999998891,['c'],1,left,['2'],5,0.11897330000101647,,,,,,,,17,20,Man,Rechts,2,
,xotask,xotask,dotcolour,8,4,248,548,main,negativefb,-99,easy,73,0.5006889999986015,['c'],1,left,['2'],5,0.15088120000109484,,,,,,,,17,20,Man,Rechts,2,
,xotask,xotask,dotcolour,9,4,249,549,main,negativefb,-99,average,18,0.8675410999985615,['n'],1,right,['2'],5,0.08703389999936917,,,,,,,,17,20,Man,Rechts,2,
,xotask,xotask,dotcolour,10,4,250,550,main,negativefb,-99,hard,28,1.6508037999992666,['n'],1,right,['3'],4,0.010311300000466872,,,,,,,,17,20,Man,Rechts,2,
,xotask,xotask,dotcolour,11,4,251,551,main,negativefb,-99,hard,28,0.8334082000001217,['n'],1,right,['3'],4,0.025023599999258295,,,,,,,,17,20,Man,Rechts,2,
,xotask,xotask,dotcolour,12,4,252,552,main,negativefb,-99,average,16,0.8171103000004223,['n'],1,right,['3'],4,0.04092300000047544,,,,,,,,17,20,Man,Rechts,2,
,xotask,xotask,dotcolour,13,4,253,553,main,negativefb,-99,hard,51,1.233830900000612,['c'],1,left,['3'],4,0.0625344000000041,,,,,,,,17,20,Man,Rechts,2,
,xotask,xotask,dotcolour,14,4,254,554,main,negativefb,-99,easy,8,0.8012060000000929,['n'],1,right,['3'],4,0.022167899998748908,,,,,,,,17,20,Man,Rechts,2,
,xotask,xotask,dotcolour,15,4,255,555,main,negativefb,-99,easy,8,1.3169563000010385,['n'],1,right,['2'],5,0.008631099999547587,,,,,,,,17,20,Man,Rechts,2,
,xotask,xotask,dotcolour,16,4,256,556,main,negativefb,-99,easy,70,0.7499105999995663,['c'],1,left,['2'],5,0.07532690000152797,,,,,,,,17,20,Man,Rechts,2,
,xotask,xotask,dotcolour,17,4,257,557,main,negativefb,-99,hard,53,0.8853364000005968,['c'],1,left,['2'],5,0.07073099999979604,,,,,,,,17,20,Man,Rechts,2,
,xotask,xotask,dotcolour,18,4,258,558,main,negativefb,-99,average,62,0.7680096999993111,['c'],1,left,['3'],4,0.09429459999955725,,,,,,,,17,20,Man,Rechts,2,
,xotask,xotask,dotcolour,19,4,259,559,main,negativefb,-99,average,15,0.7171775000006164,['n'],1,right,['3'],4,0.11782020000100601,,,,,,,,17,20,Man,Rechts,2,
,xotask,xotask,dotcolour,20,4,260,560,main,negativefb,-99,easy,71,0.9180092999995395,['c'],1,left,['2'],5,0.14158899999893038,,,,,,,,17,20,Man,Rechts,2,
,xotask,xotask,dotcolour,21,4,261,561,main,negativefb,-99,average,17,0.9010233999997581,['n'],1,right,['2'],5,0.15718289999858825,,,,,,,,17,20,Man,Rechts,2,
,xotask,xotask,dotcolour,22,4,262,562,main,negativefb,-99,hard,29,0.851673799999844,['c'],0,right,['3'],4,0.43790509999962524,,,,,,,,17,20,Man,Rechts,2,
,xotask,xotask,dotcolour,23,4,263,563,main,negativefb,-99,easy,71,0.9848538000005647,['c'],1,left,['1'],6,0.550317699999141,,,,,,,,17,20,Man,Rechts,2,
,xotask,xotask,dotcolour,24,4,264,564,main,negativefb,-99,hard,26,0.8184076000015921,['n'],1,right,['2'],5,0.10367129999940516,,,,,,,,17,20,Man,Rechts,2,
,xotask,xotask,dotcolour,25,4,265,565,main,negativefb,-99,hard,53,0.8340355999989697,['c'],1,left,['2'],5,0.10735399999975925,,,,,,,,17,20,Man,Rechts,2,
,xotask,xotask,dotcolour,26,4,266,566,main,negativefb,-99,easy,8,0.8019537000000128,['n'],1,right,['2'],5,0.7763756000003923,,,,,,,,17,20,Man,Rechts,2,
,xotask,xotask,dotcolour,27,4,267,567,main,negativefb,-99,hard,50,0.851535399999193,['c'],1,left,['2'],5,0.08830519999901298,,,,,,,,17,20,Man,Rechts,2,
,xotask,xotask,dotcolour,28,4,268,568,main,negativefb,-99,easy,9,0.7844643000007636,['n'],1,right,['2'],5,0.08584979999977804,,,,,,,,17,20,Man,Rechts,2,
,xotask,xotask,dotcolour,29,4,269,569,main,negativefb,-99,hard,26,0.8341483000003791,['n'],1,right,['3'],4,0.642407600000297,,,,,,,,17,20,Man,Rechts,2,
,xotask,xotask,dotcolour,30,4,270,570,main,negativefb,-99,average,60,0.7502035999987129,['c'],1,left,['3'],4,0.1148140000004787,,,,,,,,17,20,Man,Rechts,2,
,xotask,xotask,dotcolour,31,4,271,571,main,negativefb,-99,hard,26,1.0496334999988903,['c'],0,right,['3'],4,0.14126109999961045,,,,,,,,17,20,Man,Rechts,2,
,xotask,xotask,dotcolour,32,4,272,572,main,negativefb,-99,average,19,0.8506783000011637,['n'],1,right,['3'],4,0.08621360000142886,,,,,,,,17,20,Man,Rechts,2,
,xotask,xotask,dotcolour,33,4,273,573,main,negativefb,-99,easy,73,1.2849946999995154,['c'],1,left,['3'],4,0.0884474999984377,,,,,,,,17,20,Man,Rechts,2,
,xotask,xotask,dotcolour,34,4,274,574,main,negativefb,-99,average,63,1.0011869999998453,['c'],1,left,['3'],4,0.06996120000076189,,,,,,,,17,20,Man,Rechts,2,
,xotask,xotask,dotcolour,35,4,275,575,main,negativefb,-99,hard,50,1.084517200000846,['c'],1,left,['3'],4,0.7207194000002346,,,,,,,,17,20,Man,Rechts,2,
,xotask,xotask,dotcolour,36,4,276,576,main,negativefb,-99,easy,6,0.8172804000005272,['n'],1,right,['2'],5,0.04366840000147931,,,,,,,,17,20,Man,Rechts,2,
,xotask,xotask,dotcolour,37,4,277,577,main,negativefb,-99,hard,51,1.283663299998807,['c'],1,left,['3'],4,0.0873102999994444,,,,,,,,17,20,Man,Rechts,2,
,xotask,xotask,dotcolour,38,4,278,578,main,negativefb,-99,easy,70,0.901192400000582,['c'],1,left,['2'],5,0.10513519999949494,,,,,,,,17,20,Man,Rechts,2,
,xotask,xotask,dotcolour,39,4,279,579,main,negativefb,-99,average,17,0.933969599998818,['n'],1,right,['2'],5,0.08805610000126762,,,,,,,,17,20,Man,Rechts,2,
,xotask,xotask,dotcolour,40,4,280,580,main,negativefb,-99,hard,52,1.1496361999998044,['c'],1,left,['2'],5,0.07216850000077102,,,,,,,,17,20,Man,Rechts,2,
,xotask,xotask,dotcolour,41,4,281,581,main,negativefb,-99,average,17,0.6842211000002862,['n'],1,right,['2'],5,0.04303230000004987,,,,,,,,17,20,Man,Rechts,2,
,xotask,xotask,dotcolour,42,4,282,582,main,negativefb,-99,average,60,0.9166628000002675,['n'],0,left,['3'],4,0.09352430000035383,,,,,,,,17,20,Man,Rechts,2,
,xotask,xotask,dotcolour,43,4,283,583,main,negativefb,-99,hard,28,1.317241599999761,['c'],0,right,['3'],4,0.037730500000179745,,,,,,,,17,20,Man,Rechts,2,
,xotask,xotask,dotcolour,44,4,284,584,main,negativefb,-99,hard,28,0.8341499999987718,['c'],0,right,['3'],4,0.08415280000008352,,,,,,,,17,20,Man,Rechts,2,
,xotask,xotask,dotcolour,45,4,285,585,main,negativefb,-99,easy,70,0.7506969999994908,['c'],1,left,['2'],5,0.16297969999868656,,,,,,,,17,20,Man,Rechts,2,
,xotask,xotask,dotcolour,46,4,286,586,main,negativefb,-99,average,63,1.5842586000017036,['c'],1,left,['2'],5,0.14239350000025297,,,,,,,,17,20,Man,Rechts,2,
,xotask,xotask,dotcolour,47,4,287,587,main,negativefb,-99,average,16,1.0349697999990894,['n'],1,right,['2'],5,0.17694740000115416,,,,,,,,17,20,Man,Rechts,2,
,xotask,xotask,dotcolour,48,4,288,588,main,negativefb,-99,hard,51,0.8173222999994323,['c'],1,left,['2'],5,0.14612850000048638,,,,,,,,17,20,Man,Rechts,2,
,xotask,xotask,dotcolour,49,4,289,589,main,negativefb,-99,average,62,0.7016906000008021,['c'],1,left,['2'],5,0.12930770000093617,,,,,,,,17,20,Man,Rechts,2,
,xotask,xotask,dotcolour,50,4,290,590,main,negativefb,-99,hard,28,1.4177516999989166,['n'],1,right,['3'],4,0.1805103999995481,,,,,,,,17,20,Man,Rechts,2,
,xotask,xotask,dotcolour,51,4,291,591,main,negativefb,-99,easy,6,2.25053459999981,['n'],1,right,['1'],6,0.15642330000082438,,,,,,,,17,20,Man,Rechts,2,
,xotask,xotask,dotcolour,52,4,292,592,main,negativefb,-99,hard,27,0.9340150999996695,['n'],1,right,['2'],5,0.12226949999967474,,,,,,,,17,20,Man,Rechts,2,
,xotask,xotask,dotcolour,53,4,293,593,main,negativefb,-99,easy,9,1.0007253000003402,['n'],1,right,['2'],5,0.054168200000276556,,,,,,,,17,20,Man,Rechts,2,
,xotask,xotask,dotcolour,54,4,294,594,main,negativefb,-99,average,63,0.7335036999993463,['c'],1,left,['2'],5,0.08778119999988121,,,,,,,,17,20,Man,Rechts,2,
,xotask,xotask,dotcolour,55,4,295,595,main,negativefb,-99,easy,7,0.734859599999254,['n'],1,right,['2'],5,0.07948140000007697,,,,,,,,17,20,Man,Rechts,2,
,xotask,xotask,dotcolour,56,4,296,596,main,negativefb,-99,easy,8,0.701166299999386,['n'],1,right,['1'],6,0.08196779999889259,,,,,,,,17,20,Man,Rechts,2,
,xotask,xotask,dotcolour,57,4,297,597,main,negativefb,-99,easy,72,0.6841237000007823,['c'],1,left,['2'],5,0.1478344000006473,,,,,,,,17,20,Man,Rechts,2,
,xotask,xotask,dotcolour,58,4,298,598,main,negativefb,-99,hard,52,0.6516972000008536,['c'],1,left,['2'],5,0.108597300000838,,,,,,,,17,20,Man,Rechts,2,
,xotask,xotask,dotcolour,59,4,299,599,main,negativefb,-99,average,64,0.53456179999921,['c'],1,left,['2'],5,0.14029739999932644,,,,,,,,17,20,Man,Rechts,2,
,xotask,xotask,dotcolour,0,0,0,600,training,negativefb,53,average,16,3.0179650999998557,['n'],1,right,['3'],4,0.05268459999933839,,,,,,,,17,20,Man,Rechts,2,
,xotask,xotask,dotcolour,1,0,1,601,training,negativefb,64,hard,28,1.249759800000902,['n'],1,right,['3'],4,0.05654049999975541,,,,,,,,17,20,Man,Rechts,2,
,xotask,xotask,dotcolour,2,0,2,602,training,negativefb,75,hard,52,1.1332609000000957,['c'],1,left,['3'],4,0.05777649999981804,,,,,,,,17,20,Man,Rechts,2,
,xotask,xotask,dotcolour,3,0,3,603,training,negativefb,66,easy,71,0.666511299999911,['c'],1,left,['3'],4,0.1648453999987396,,,,,,,,17,20,Man,Rechts,2,
,xotask,xotask,dotcolour,4,0,4,604,training,negativefb,71,easy,73,0.6828913999997894,['c'],1,left,['2'],5,0.14671930000076827,,,,,,,,17,20,Man,Rechts,2,
,xotask,xotask,dotcolour,5,0,5,605,training,negativefb,45,average,15,0.8508796000005532,['n'],1,right,['2'],5,0.08286330000009912,,,,,,,,17,20,Man,Rechts,2,
,xotask,xotask,dotcolour,6,0,6,606,training,negativefb,62,hard,25,0.7001963999991858,['n'],1,right,['2'],5,0.05166530000133207,,,,,,,,17,20,Man,Rechts,2,
,xotask,xotask,dotcolour,7,0,7,607,training,negativefb,55,easy,74,0.8000014999997802,['c'],1,left,['2'],5,0.058281900001020404,,,,,,,,17,20,Man,Rechts,2,
,xotask,xotask,dotcolour,8,0,8,608,training,negativefb,79,average,19,0.7000514999999723,['n'],1,right,['3'],4,0.09949349999988044,,,,,,,,17,20,Man,Rechts,2,
,xotask,xotask,dotcolour,9,0,9,609,training,negativefb,56,hard,26,0.7995413999997254,['n'],1,right,['3'],4,0.04755019999902288,,,,,,,,17,20,Man,Rechts,2,
,xotask,xotask,dotcolour,10,0,10,610,training,negativefb,92,easy,6,0.7007568999997602,['n'],1,right,['3'],4,0.6260557000005065,,,,,,,,17,20,Man,Rechts,2,
,xotask,xotask,dotcolour,11,0,11,611,training,negativefb,70,average,62,0.8833716999997705,['c'],1,left,['1'],6,0.1265019000002212,,,,,,,,17,20,Man,Rechts,2,
,xotask,xotask,dotcolour,12,0,12,612,training,negativefb,32,hard,26,1.2667787999998836,['n'],1,right,['3'],4,0.2789088999998057,,,,,,,,17,20,Man,Rechts,2,
,xotask,xotask,dotcolour,13,0,13,613,training,negativefb,75,average,60,0.6847838000012416,['c'],1,left,['3'],4,0.0730699999985518,,,,,,,,17,20,Man,Rechts,2,
,xotask,xotask,dotcolour,14,0,14,614,training,negativefb,74,hard,26,0.7677622999999585,['c'],0,right,['3'],4,0.8874770000002172,,,,,,,,17,20,Man,Rechts,2,
,xotask,xotask,dotcolour,15,0,15,615,training,negativefb,46,hard,50,0.7999383000005764,['c'],1,left,['2'],5,0.10007609999956912,,,,,,,,17,20,Man,Rechts,2,
,xotask,xotask,dotcolour,16,0,16,616,training,negativefb,60,easy,72,0.733652599999914,['c'],1,left,['2'],5,0.09029600000030769,,,,,,,,17,20,Man,Rechts,2,
,xotask,xotask,dotcolour,17,0,17,617,training,negativefb,71,easy,70,0.7517600000010134,['c'],1,left,['1'],6,0.06567569999970146,,,,,,,,17,20,Man,Rechts,2,
,xotask,xotask,dotcolour,18,0,18,618,training,negativefb,65,average,63,0.6327290000008361,['c'],1,left,['1'],6,0.12598500000058266,,,,,,,,17,20,Man,Rechts,2,
,xotask,xotask,dotcolour,19,0,19,619,training,negativefb,73,average,64,0.8009003999995912,['c'],1,left,['1'],6,0.08924490000026708,,,,,,,,17,20,Man,Rechts,2,
,xotask,xotask,dotcolour,20,0,20,620,training,negativefb,73,easy,7,0.6502712000001338,['n'],1,right,['1'],6,0.07585619999917981,,,,,,,,17,20,Man,Rechts,2,
,xotask,xotask,dotcolour,21,0,21,621,training,negativefb,52,hard,25,0.8840932000002795,['n'],1,right,['2'],5,0.06143580000025395,,,,,,,,17,20,Man,Rechts,2,
,xotask,xotask,dotcolour,22,0,22,622,training,negativefb,64,hard,51,1.9001050000006217,['c'],1,left,['2'],5,0.11941509999996924,,,,,,,,17,20,Man,Rechts,2,
,xotask,xotask,dotcolour,23,0,23,623,training,negativefb,70,hard,29,2.0665435000009893,['n'],1,right,['3'],4,0.10485759999937727,,,,,,,,17,20,Man,Rechts,2,
,xotask,xotask,dotcolour,24,0,24,624,training,negativefb,58,average,16,1.1680139000000054,['n'],1,right,['3'],4,0.09375870000076247,,,,,,,,17,20,Man,Rechts,2,
,xotask,xotask,dotcolour,25,0,25,625,training,negativefb,80,hard,54,0.7666658999987703,['c'],1,left,['3'],4,0.10799279999991995,,,,,,,,17,20,Man,Rechts,2,
,xotask,xotask,dotcolour,26,0,26,626,training,negativefb,56,hard,51,1.1174191999998584,['c'],1,left,['3'],4,0.04370259999996051,,,,,,,,17,20,Man,Rechts,2,
,xotask,xotask,dotcolour,27,0,27,627,training,negativefb,68,easy,6,0.767350099999021,['n'],1,right,['1'],6,0.05873950000022887,,,,,,,,17,20,Man,Rechts,2,
,xotask,xotask,dotcolour,28,0,28,628,training,negativefb,86,average,16,0.8329859999994369,['n'],1,right,['2'],5,0.15169799999966926,,,,,,,,17,20,Man,Rechts,2,
,xotask,xotask,dotcolour,29,0,29,629,training,negativefb,53,easy,71,0.6834642000012536,['c'],1,left,['2'],5,0.07841279999956896,,,,,,,,17,20,Man,Rechts,2,
,xotask,xotask,dotcolour,30,0,30,630,training,negativefb,47,easy,6,0.7327370000002702,['n'],1,right,['2'],5,0.07078640000145242,,,,,,,,17,20,Man,Rechts,2,
,xotask,xotask,dotcolour,31,0,31,631,training,negativefb,54,average,18,0.9504090000009455,['n'],1,right,['3'],4,0.07735680000041611,,,,,,,,17,20,Man,Rechts,2,
,xotask,xotask,dotcolour,32,0,32,632,training,negativefb,61,easy,9,0.9332587999997486,['n'],1,right,['1'],6,0.06241950000003271,,,,,,,,17,20,Man,Rechts,2,
,xotask,xotask,dotcolour,33,0,33,633,training,negativefb,47,hard,52,0.8159776000011334,['c'],1,left,['2'],5,0.11480110000047716,,,,,,,,17,20,Man,Rechts,2,
,xotask,xotask,dotcolour,34,0,34,634,training,negativefb,67,average,62,1.0003187999991496,['c'],1,left,['2'],5,0.0780174999999872,,,,,,,,17,20,Man,Rechts,2,
,xotask,xotask,dotcolour,35,0,35,635,training,negativefb,51,easy,7,0.667622000000847,['n'],1,right,['2'],5,0.06521489999977348,,,,,,,,17,20,Man,Rechts,2,
,xotask,xotask,dotcolour,36,0,36,636,training,negativefb,75,easy,5,0.6673951999982819,['n'],1,right,['2'],5,0.21258010000019567,,,,,,,,17,20,Man,Rechts,2,
,xotask,xotask,dotcolour,37,0,37,637,training,negativefb,66,easy,70,0.6013347999996768,['c'],1,left,['2'],5,0.12347500000032596,,,,,,,,17,20,Man,Rechts,2,
,xotask,xotask,dotcolour,38,0,38,638,training,negativefb,48,average,60,0.6500525999999809,['c'],1,left,['2'],5,0.06929870000021765,,,,,,,,17,20,Man,Rechts,2,
,xotask,xotask,dotcolour,39,0,39,639,training,negativefb,63,average,61,0.6668389000005845,['c'],1,left,['2'],5,0.07181149999996705,,,,,,,,17,20,Man,Rechts,2,
,xotask,xotask,dotcolour,40,0,40,640,training,negativefb,64,average,60,0.6665851999987353,['c'],1,left,['3'],4,0.18667469999854802,,,,,,,,17,20,Man,Rechts,2,
,xotask,xotask,dotcolour,41,0,41,641,training,negativefb,70,average,15,0.6164589999989403,['n'],1,right,['3'],4,0.058731799999804934,,,,,,,,17,20,Man,Rechts,2,
