starttime,task,fbtask,firsttask,withinblocktrial,block,withintasktrial,trial,running,feedback,fbscore,difflevel,reddots,rt,resp,cor,cresp,conf_press,cj,RTconf,n_xes,post1,post2,post3,post4,post5,stoptime,sub,age,gender,handedness,session,
1716966160,dotcolour,dotcolour,xotask,0,0,0,0,training,positivefb,94,average,27,1.2509482999998909,['n'],1,right,['2'],5,0.5703960999999254,,,,,,,,38,24,Vrouw,Rechts,2,
,dotcolour,dotcolour,xotask,1,0,1,1,training,positivefb,92,hard,45,1.5165442999998504,['c'],1,left,['3'],4,0.5672686999998859,,,,,,,,38,24,Vrouw,Rechts,2,
,dotcolour,dotcolour,xotask,2,0,2,2,training,positivefb,96,easy,65,0.8659093000001121,['c'],1,left,['1'],6,0.3414963000000171,,,,,,,,38,24,Vrouw,Rechts,2,
,dotcolour,dotcolour,xotask,3,0,3,3,training,positivefb,96,easy,64,0.6160605999998552,['c'],1,left,['1'],6,0.3514903000000231,,,,,,,,38,24,Vrouw,Rechts,2,
,dotcolour,dotcolour,xotask,4,0,4,4,training,positivefb,86,hard,42,1.384554900000012,['c'],1,left,['2'],5,0.36221180000006825,,,,,,,,38,24,Vrouw,Rechts,2,
,dotcolour,dotcolour,xotask,5,0,5,5,training,positivefb,0,easy,61,0.6338819999998577,['n'],0,left,['0'],1,2.051229899999953,,,,,,,,38,24,Vrouw,Rechts,2,
,dotcolour,dotcolour,xotask,6,0,6,6,training,positivefb,90,average,25,1.483223500000122,['n'],1,right,['2'],5,0.6846570000000156,,,,,,,,38,24,Vrouw,Rechts,2,
,dotcolour,dotcolour,xotask,7,0,7,7,training,positivefb,89,average,54,1.2827402000000347,['c'],1,left,['2'],5,0.287121599999864,,,,,,,,38,24,Vrouw,Rechts,2,
,dotcolour,dotcolour,xotask,8,0,8,8,training,positivefb,84,easy,17,1.1839426000001367,['n'],1,right,['1'],6,0.7001155000000381,,,,,,,,38,24,Vrouw,Rechts,2,
,dotcolour,dotcolour,xotask,9,0,9,9,training,positivefb,87,hard,43,1.5830500999998094,['c'],1,left,['2'],5,0.4646330000000489,,,,,,,,38,24,Vrouw,Rechts,2,
,dotcolour,dotcolour,xotask,10,0,10,10,training,positivefb,94,hard,44,0.9004884000000857,['c'],1,left,['2'],5,0.45791959999996834,,,,,,,,38,24,Vrouw,Rechts,2,
,dotcolour,dotcolour,xotask,11,0,11,11,training,positivefb,98,average,51,0.6503248000001349,['c'],1,left,['1'],6,0.630203000000165,,,,,,,,38,24,Vrouw,Rechts,2,
,dotcolour,dotcolour,xotask,12,0,12,12,training,positivefb,84,hard,37,1.450889300000199,['c'],0,right,['2'],5,0.2836872999998832,,,,,,,,38,24,Vrouw,Rechts,2,
,dotcolour,dotcolour,xotask,13,0,13,13,training,positivefb,90,easy,64,0.7672121000000516,['c'],1,left,['1'],6,0.22539849999998296,,,,,,,,38,24,Vrouw,Rechts,2,
,dotcolour,dotcolour,xotask,14,0,14,14,training,positivefb,91,hard,45,1.03409529999999,['c'],1,left,['2'],5,0.5518518999999742,,,,,,,,38,24,Vrouw,Rechts,2,
,dotcolour,dotcolour,xotask,15,0,15,15,training,positivefb,96,average,55,0.7827806999998757,['c'],1,left,['1'],6,0.2336648000000423,,,,,,,,38,24,Vrouw,Rechts,2,
,dotcolour,dotcolour,xotask,16,0,16,16,training,positivefb,68,average,29,0.8336116999998922,['n'],1,right,['3'],4,0.863810100000137,,,,,,,,38,24,Vrouw,Rechts,2,
,dotcolour,dotcolour,xotask,17,0,17,17,training,positivefb,96,hard,36,1.4675869000000148,['c'],0,right,['2'],5,0.2905768000000535,,,,,,,,38,24,Vrouw,Rechts,2,
,dotcolour,dotcolour,xotask,18,0,18,18,training,positivefb,91,easy,18,0.7993911000000935,['n'],1,right,['1'],6,0.21492979999993622,,,,,,,,38,24,Vrouw,Rechts,2,
,dotcolour,dotcolour,xotask,19,0,19,19,training,positivefb,89,average,51,0.7829230999998344,['c'],1,left,['1'],6,0.26350139999999556,,,,,,,,38,24,Vrouw,Rechts,2,
,dotcolour,dotcolour,xotask,20,0,20,20,training,positivefb,86,average,52,0.6837651000000733,['c'],1,left,['1'],6,0.47453489999998055,,,,,,,,38,24,Vrouw,Rechts,2,
,dotcolour,dotcolour,xotask,21,0,21,21,training,positivefb,86,hard,36,1.3853361000001314,['c'],0,right,['2'],5,0.21600850000004357,,,,,,,,38,24,Vrouw,Rechts,2,
,dotcolour,dotcolour,xotask,22,0,22,22,training,positivefb,66,hard,44,1.0163884999999482,['c'],1,left,['2'],5,0.27032599999984086,,,,,,,,38,24,Vrouw,Rechts,2,
,dotcolour,dotcolour,xotask,23,0,23,23,training,positivefb,88,easy,64,0.8835255999999845,['c'],1,left,['1'],6,0.4487778000000162,,,,,,,,38,24,Vrouw,Rechts,2,
,dotcolour,dotcolour,xotask,24,0,24,24,training,positivefb,92,hard,39,1.450096300000041,['n'],1,right,['2'],5,0.6125769000000219,,,,,,,,38,24,Vrouw,Rechts,2,
,dotcolour,dotcolour,xotask,25,0,25,25,training,positivefb,96,easy,19,0.785437100000081,['n'],1,right,['1'],6,0.21340490000011414,,,,,,,,38,24,Vrouw,Rechts,2,
,dotcolour,dotcolour,xotask,26,0,26,26,training,positivefb,99,easy,19,0.5499518999999964,['n'],1,right,['1'],6,0.1758586999999352,,,,,,,,38,24,Vrouw,Rechts,2,
,dotcolour,dotcolour,xotask,27,0,27,27,training,positivefb,87,average,51,1.0333972000000813,['c'],1,left,['1'],6,0.14362499999992906,,,,,,,,38,24,Vrouw,Rechts,2,
,dotcolour,dotcolour,xotask,28,0,28,28,training,positivefb,81,hard,37,1.6836770999998407,['c'],0,right,['2'],5,0.17510809999998855,,,,,,,,38,24,Vrouw,Rechts,2,
,dotcolour,dotcolour,xotask,29,0,29,29,training,positivefb,92,average,28,0.6663977000000614,['n'],1,right,['1'],6,0.165247700000009,,,,,,,,38,24,Vrouw,Rechts,2,
,dotcolour,dotcolour,xotask,30,0,30,30,training,positivefb,98,average,52,0.8167686000001595,['c'],1,left,['1'],6,0.333677200000011,,,,,,,,38,24,Vrouw,Rechts,2,
,dotcolour,dotcolour,xotask,31,0,31,31,training,positivefb,99,easy,17,0.65128279999999,['n'],1,right,['1'],6,0.19893439999987095,,,,,,,,38,24,Vrouw,Rechts,2,
,dotcolour,dotcolour,xotask,32,0,32,32,training,positivefb,99,easy,18,0.6674551999999494,['n'],1,right,['1'],6,0.18742210000004889,,,,,,,,38,24,Vrouw,Rechts,2,
,dotcolour,dotcolour,xotask,33,0,33,33,training,positivefb,97,easy,63,0.6835608999999749,['c'],1,left,['1'],6,0.153467800000044,,,,,,,,38,24,Vrouw,Rechts,2,
,dotcolour,dotcolour,xotask,34,0,34,34,training,positivefb,97,hard,35,0.6336072999999942,['n'],1,right,['1'],6,0.2176652999999078,,,,,,,,38,24,Vrouw,Rechts,2,
,dotcolour,dotcolour,xotask,35,0,35,35,training,positivefb,98,average,26,0.6175072999999429,['n'],1,right,['1'],6,0.6886641999999483,,,,,,,,38,24,Vrouw,Rechts,2,
,dotcolour,dotcolour,xotask,36,0,36,36,training,positivefb,98,average,29,0.6165376999999808,['n'],1,right,['1'],6,0.26021209999998973,,,,,,,,38,24,Vrouw,Rechts,2,
,dotcolour,dotcolour,xotask,37,0,37,37,training,positivefb,92,easy,18,0.5680773999999928,['n'],1,right,['1'],6,0.18052709999983563,,,,,,,,38,24,Vrouw,Rechts,2,
,dotcolour,dotcolour,xotask,38,0,38,38,training,positivefb,88,hard,42,1.4838036000001011,['c'],1,left,['2'],5,0.4420385000000806,,,,,,,,38,24,Vrouw,Rechts,2,
,dotcolour,dotcolour,xotask,39,0,39,39,training,positivefb,87,easy,65,0.8503977000000305,['c'],1,left,['1'],6,0.16619040000000496,,,,,,,,38,24,Vrouw,Rechts,2,
,dotcolour,dotcolour,xotask,40,0,40,40,training,positivefb,97,average,54,0.6827327999999397,['c'],1,left,['1'],6,0.17282550000004449,,,,,,,,38,24,Vrouw,Rechts,2,
,dotcolour,dotcolour,xotask,41,0,41,41,training,positivefb,100,easy,61,0.5169919999998456,['c'],1,left,['1'],6,0.21726889999990817,,,,,,,,38,24,Vrouw,Rechts,2,
,dotcolour,dotcolour,xotask,42,0,42,42,training,positivefb,79,easy,18,0.6166249999998854,['n'],1,right,['1'],6,0.23977819999981875,,,,,,,,38,24,Vrouw,Rechts,2,
,dotcolour,dotcolour,xotask,43,0,43,43,training,positivefb,70,hard,44,1.2175704000001133,['c'],1,left,['2'],5,0.2456512000001112,,,,,,,,38,24,Vrouw,Rechts,2,
,dotcolour,dotcolour,xotask,44,0,44,44,training,positivefb,96,average,52,0.7670183999998699,['c'],1,left,['2'],5,0.21373699999981,,,,,,,,38,24,Vrouw,Rechts,2,
,dotcolour,dotcolour,xotask,45,0,45,45,training,positivefb,91,average,27,0.5827219999998761,['n'],1,right,['1'],6,0.1910864000001311,,,,,,,,38,24,Vrouw,Rechts,2,
,dotcolour,dotcolour,xotask,46,0,46,46,training,positivefb,80,hard,42,1.3331176000001506,['c'],1,left,['2'],5,0.6820890999999847,,,,,,,,38,24,Vrouw,Rechts,2,
,dotcolour,dotcolour,xotask,47,0,47,47,training,positivefb,85,easy,61,0.8497118000000228,['c'],1,left,['1'],6,0.1494058999999197,,,,,,,,38,24,Vrouw,Rechts,2,
,dotcolour,dotcolour,xotask,48,0,48,48,training,positivefb,92,easy,61,0.7343874999999116,['c'],1,left,['1'],6,0.14578209999990577,,,,,,,,38,24,Vrouw,Rechts,2,
,dotcolour,dotcolour,xotask,49,0,49,49,training,positivefb,97,easy,16,0.7502362000000176,['n'],1,right,['1'],6,0.1816732999998294,,,,,,,,38,24,Vrouw,Rechts,2,
,dotcolour,dotcolour,xotask,50,0,50,50,training,positivefb,85,hard,36,2.6172655000000304,['c'],0,right,['3'],4,0.2615897999999106,,,,,,,,38,24,Vrouw,Rechts,2,
,dotcolour,dotcolour,xotask,51,0,51,51,training,positivefb,91,hard,39,1.234063800000058,['c'],0,right,['2'],5,0.2830613999999514,,,,,,,,38,24,Vrouw,Rechts,2,
,dotcolour,dotcolour,xotask,52,0,52,52,training,positivefb,98,average,26,0.6345790999998826,['n'],1,right,['1'],6,0.1582255000000714,,,,,,,,38,24,Vrouw,Rechts,2,
,dotcolour,dotcolour,xotask,53,0,53,53,training,positivefb,85,hard,36,1.2009476000000632,['n'],1,right,['2'],5,0.3037549000000581,,,,,,,,38,24,Vrouw,Rechts,2,
,dotcolour,dotcolour,xotask,54,0,54,54,training,positivefb,77,hard,45,1.2676283000000694,['c'],1,left,['2'],5,0.19346820000009757,,,,,,,,38,24,Vrouw,Rechts,2,
,dotcolour,dotcolour,xotask,55,0,55,55,training,positivefb,98,average,25,0.7335798999999952,['n'],1,right,['1'],6,0.2283980000001975,,,,,,,,38,24,Vrouw,Rechts,2,
,dotcolour,dotcolour,xotask,56,0,56,56,training,positivefb,91,hard,39,1.4008722000000944,['n'],1,right,['2'],5,0.4285654999998769,,,,,,,,38,24,Vrouw,Rechts,2,
,dotcolour,dotcolour,xotask,57,0,57,57,training,positivefb,87,average,25,1.6505114999999932,['n'],1,right,['2'],5,0.20113540000011199,,,,,,,,38,24,Vrouw,Rechts,2,
,dotcolour,dotcolour,xotask,58,0,58,58,training,positivefb,94,average,51,0.9993067999998857,['c'],1,left,['1'],6,0.2578243000000384,,,,,,,,38,24,Vrouw,Rechts,2,
,dotcolour,dotcolour,xotask,59,0,59,59,training,positivefb,97,easy,19,0.5492385000000013,['n'],1,right,['1'],6,0.13738869999997405,,,,,,,,38,24,Vrouw,Rechts,2,
,dotcolour,dotcolour,xotask,0,1,60,60,training,positivefb,83,hard,45,1.1352073000000473,['c'],1,left,['1'],6,0.1580888999999388,,,,,,,,38,24,Vrouw,Rechts,2,
,dotcolour,dotcolour,xotask,1,1,61,61,training,positivefb,97,average,55,0.6163079999998899,['c'],1,left,['1'],6,0.19910400000003392,,,,,,,,38,24,Vrouw,Rechts,2,
,dotcolour,dotcolour,xotask,2,1,62,62,training,positivefb,96,average,52,0.6006522999998651,['c'],1,left,['1'],6,0.16701269999998658,,,,,,,,38,24,Vrouw,Rechts,2,
,dotcolour,dotcolour,xotask,3,1,63,63,training,positivefb,93,average,26,0.6002559999999448,['n'],1,right,['1'],6,0.17694310000001678,,,,,,,,38,24,Vrouw,Rechts,2,
,dotcolour,dotcolour,xotask,4,1,64,64,training,positivefb,99,average,52,0.8500523000000157,['c'],1,left,['2'],5,0.447867499999802,,,,,,,,38,24,Vrouw,Rechts,2,
,dotcolour,dotcolour,xotask,5,1,65,65,training,positivefb,80,easy,17,0.7179312000000664,['n'],1,right,['1'],6,0.2097934000000805,,,,,,,,38,24,Vrouw,Rechts,2,
,dotcolour,dotcolour,xotask,6,1,66,66,training,positivefb,99,average,52,0.5669953999999962,['c'],1,left,['1'],6,0.21909260000006725,,,,,,,,38,24,Vrouw,Rechts,2,
,dotcolour,dotcolour,xotask,7,1,67,67,training,positivefb,89,hard,37,1.4824576000000889,['c'],0,right,['2'],5,0.19108159999996133,,,,,,,,38,24,Vrouw,Rechts,2,
,dotcolour,dotcolour,xotask,8,1,68,68,training,positivefb,55,hard,42,1.0490657000000283,['n'],0,left,['2'],5,0.3812328000001344,,,,,,,,38,24,Vrouw,Rechts,2,
,dotcolour,dotcolour,xotask,9,1,69,69,training,positivefb,95,hard,43,1.1665674999999283,['c'],1,left,['2'],5,0.5834955000000264,,,,,,,,38,24,Vrouw,Rechts,2,
,dotcolour,dotcolour,xotask,10,1,70,70,training,positivefb,93,average,29,0.7339905000001181,['n'],1,right,['1'],6,0.20229940000012903,,,,,,,,38,24,Vrouw,Rechts,2,
,dotcolour,dotcolour,xotask,11,1,71,71,training,positivefb,88,hard,45,1.599457799999982,['c'],1,left,['2'],5,0.2595306000000619,,,,,,,,38,24,Vrouw,Rechts,2,
,dotcolour,dotcolour,xotask,12,1,72,72,training,positivefb,99,easy,62,0.683778600000096,['c'],1,left,['1'],6,0.18948260000001937,,,,,,,,38,24,Vrouw,Rechts,2,
,dotcolour,dotcolour,xotask,13,1,73,73,training,positivefb,75,average,27,0.9326177000000371,['n'],1,right,['3'],4,1.481105399999933,,,,,,,,38,24,Vrouw,Rechts,2,
,dotcolour,dotcolour,xotask,14,1,74,74,training,positivefb,98,average,51,1.0000890999999683,['c'],1,left,['2'],5,0.3248183999999128,,,,,,,,38,24,Vrouw,Rechts,2,
,dotcolour,dotcolour,xotask,15,1,75,75,training,positivefb,90,hard,36,1.499609400000054,['c'],0,right,['2'],5,0.24379629999998542,,,,,,,,38,24,Vrouw,Rechts,2,
,dotcolour,dotcolour,xotask,16,1,76,76,training,positivefb,93,easy,16,0.5995955999999296,['n'],1,right,['1'],6,0.21109950000004574,,,,,,,,38,24,Vrouw,Rechts,2,
,dotcolour,dotcolour,xotask,17,1,77,77,training,positivefb,94,easy,16,0.5331266000000596,['n'],1,right,['1'],6,0.15717799999993076,,,,,,,,38,24,Vrouw,Rechts,2,
,dotcolour,dotcolour,xotask,18,1,78,78,training,positivefb,95,easy,63,0.6670583000000079,['c'],1,left,['1'],6,0.16503160000002026,,,,,,,,38,24,Vrouw,Rechts,2,
,dotcolour,dotcolour,xotask,19,1,79,79,training,positivefb,98,average,54,0.5832545999999184,['c'],1,left,['1'],6,0.14295510000010836,,,,,,,,38,24,Vrouw,Rechts,2,
,dotcolour,dotcolour,xotask,20,1,80,80,training,positivefb,90,average,53,0.6011762000000545,['c'],1,left,['1'],6,0.16174369999998817,,,,,,,,38,24,Vrouw,Rechts,2,
,dotcolour,dotcolour,xotask,21,1,81,81,training,positivefb,97,easy,17,0.6166745000000446,['n'],1,right,['1'],6,0.16282989999990605,,,,,,,,38,24,Vrouw,Rechts,2,
,dotcolour,dotcolour,xotask,22,1,82,82,training,positivefb,93,hard,37,1.0512719999999263,['c'],0,right,['2'],5,0.20327690000021903,,,,,,,,38,24,Vrouw,Rechts,2,
,dotcolour,dotcolour,xotask,23,1,83,83,training,positivefb,89,hard,42,1.349562399999968,['c'],1,left,['2'],5,0.13323429999991276,,,,,,,,38,24,Vrouw,Rechts,2,
,dotcolour,dotcolour,xotask,24,1,84,84,training,positivefb,87,easy,15,0.6502760000000762,['n'],1,right,['1'],6,0.1416746999998395,,,,,,,,38,24,Vrouw,Rechts,2,
,dotcolour,dotcolour,xotask,25,1,85,85,training,positivefb,96,hard,44,0.8667995000000701,['c'],1,left,['1'],6,0.15765889999988758,,,,,,,,38,24,Vrouw,Rechts,2,
,dotcolour,dotcolour,xotask,26,1,86,86,training,positivefb,98,average,29,0.8331993999997849,['n'],1,right,['2'],5,0.8143439000000399,,,,,,,,38,24,Vrouw,Rechts,2,
,dotcolour,dotcolour,xotask,27,1,87,87,training,positivefb,89,hard,39,1.5505467999998928,['n'],1,right,['2'],5,0.2002273000000514,,,,,,,,38,24,Vrouw,Rechts,2,
,dotcolour,dotcolour,xotask,28,1,88,88,training,positivefb,95,easy,65,0.6669772000000194,['c'],1,left,['1'],6,0.1498272999999699,,,,,,,,38,24,Vrouw,Rechts,2,
,dotcolour,dotcolour,xotask,29,1,89,89,training,positivefb,91,easy,19,0.6164192999999614,['n'],1,right,['1'],6,0.1668521999999939,,,,,,,,38,24,Vrouw,Rechts,2,
,dotcolour,dotcolour,xotask,30,1,90,90,training,positivefb,94,easy,63,0.7832694000001084,['c'],1,left,['1'],6,0.1365051999998741,,,,,,,,38,24,Vrouw,Rechts,2,
,dotcolour,dotcolour,xotask,31,1,91,91,training,positivefb,55,hard,35,1.6167070000001331,['c'],0,right,['2'],5,0.34648059999994985,,,,,,,,38,24,Vrouw,Rechts,2,
,dotcolour,dotcolour,xotask,32,1,92,92,training,positivefb,93,easy,64,0.6667763999998897,['c'],1,left,['1'],6,0.11538390000009713,,,,,,,,38,24,Vrouw,Rechts,2,
,dotcolour,dotcolour,xotask,33,1,93,93,training,positivefb,92,easy,63,0.5333485999999539,['c'],1,left,['1'],6,0.12114440000004834,,,,,,,,38,24,Vrouw,Rechts,2,
,dotcolour,dotcolour,xotask,34,1,94,94,training,positivefb,75,hard,38,1.2666974999999638,['c'],0,right,['2'],5,0.18584379999992962,,,,,,,,38,24,Vrouw,Rechts,2,
,dotcolour,dotcolour,xotask,35,1,95,95,training,positivefb,99,easy,18,0.8168840000000728,['n'],1,right,['1'],6,0.19318579999981011,,,,,,,,38,24,Vrouw,Rechts,2,
,dotcolour,dotcolour,xotask,36,1,96,96,training,positivefb,92,easy,63,0.700697400000081,['c'],1,left,['1'],6,0.6461374999998952,,,,,,,,38,24,Vrouw,Rechts,2,
,dotcolour,dotcolour,xotask,37,1,97,97,training,positivefb,79,hard,37,1.068057700000054,['c'],0,right,['2'],5,0.18668129999991834,,,,,,,,38,24,Vrouw,Rechts,2,
,dotcolour,dotcolour,xotask,38,1,98,98,training,positivefb,91,average,54,0.7170423000000028,['c'],1,left,['2'],5,0.22205060000010235,,,,,,,,38,24,Vrouw,Rechts,2,
,dotcolour,dotcolour,xotask,39,1,99,99,training,positivefb,98,easy,15,0.6487752000000455,['n'],1,right,['1'],6,0.16428700000005847,,,,,,,,38,24,Vrouw,Rechts,2,
,dotcolour,dotcolour,xotask,40,1,100,100,training,positivefb,89,average,25,0.5998174999999719,['n'],1,right,['1'],6,0.1732019000000946,,,,,,,,38,24,Vrouw,Rechts,2,
,dotcolour,dotcolour,xotask,41,1,101,101,training,positivefb,86,easy,16,0.5326035999999021,['n'],1,right,['1'],6,0.14577510000003713,,,,,,,,38,24,Vrouw,Rechts,2,
,dotcolour,dotcolour,xotask,42,1,102,102,training,positivefb,85,hard,37,1.6006115999998656,['c'],0,right,['2'],5,0.2125803999999789,,,,,,,,38,24,Vrouw,Rechts,2,
,dotcolour,dotcolour,xotask,43,1,103,103,training,positivefb,98,easy,65,0.7831120000000737,['c'],1,left,['1'],6,0.1732356999998501,,,,,,,,38,24,Vrouw,Rechts,2,
,dotcolour,dotcolour,xotask,44,1,104,104,training,positivefb,94,easy,19,0.7000764000001709,['n'],1,right,['1'],6,0.13852190000011433,,,,,,,,38,24,Vrouw,Rechts,2,
,dotcolour,dotcolour,xotask,45,1,105,105,training,positivefb,96,average,55,0.6165350999999646,['c'],1,left,['1'],6,0.17243879999978162,,,,,,,,38,24,Vrouw,Rechts,2,
,dotcolour,dotcolour,xotask,46,1,106,106,training,positivefb,92,hard,43,0.9164917999999034,['c'],1,left,['1'],6,0.11342209999997976,,,,,,,,38,24,Vrouw,Rechts,2,
,dotcolour,dotcolour,xotask,47,1,107,107,training,positivefb,86,easy,63,0.900641799999903,['c'],1,left,['1'],6,0.5052215999999135,,,,,,,,38,24,Vrouw,Rechts,2,
,dotcolour,dotcolour,xotask,48,1,108,108,training,positivefb,82,average,29,0.9831434999998692,['n'],1,right,['2'],5,0.40622540000003937,,,,,,,,38,24,Vrouw,Rechts,2,
,dotcolour,dotcolour,xotask,49,1,109,109,training,positivefb,89,hard,44,1.1156902000000173,['c'],1,left,['2'],5,0.20959340000013071,,,,,,,,38,24,Vrouw,Rechts,2,
,dotcolour,dotcolour,xotask,50,1,110,110,training,positivefb,94,average,28,1.2508810000001631,['n'],1,right,['2'],5,0.47862430000009226,,,,,,,,38,24,Vrouw,Rechts,2,
,dotcolour,dotcolour,xotask,51,1,111,111,training,positivefb,79,hard,43,1.2999704000001202,['c'],1,left,['2'],5,0.22387589999993907,,,,,,,,38,24,Vrouw,Rechts,2,
,dotcolour,dotcolour,xotask,52,1,112,112,training,positivefb,95,average,27,0.7164427999998679,['n'],1,right,['1'],6,0.1948531999998977,,,,,,,,38,24,Vrouw,Rechts,2,
,dotcolour,dotcolour,xotask,53,1,113,113,training,positivefb,80,average,55,0.6994823999998516,['c'],1,left,['1'],6,0.136011900000085,,,,,,,,38,24,Vrouw,Rechts,2,
,dotcolour,dotcolour,xotask,54,1,114,114,training,positivefb,90,average,28,1.4170116000000235,['n'],1,right,['2'],5,0.19360299999993913,,,,,,,,38,24,Vrouw,Rechts,2,
,dotcolour,dotcolour,xotask,55,1,115,115,training,positivefb,89,hard,36,1.7665731999998115,['c'],0,right,['2'],5,0.22712539999997716,,,,,,,,38,24,Vrouw,Rechts,2,
,dotcolour,dotcolour,xotask,56,1,116,116,training,positivefb,97,easy,63,0.8173971999999594,['c'],1,left,['1'],6,0.14605470000014975,,,,,,,,38,24,Vrouw,Rechts,2,
,dotcolour,dotcolour,xotask,57,1,117,117,training,positivefb,94,average,29,1.1008391999998821,['n'],1,right,['1'],6,0.393089400000008,,,,,,,,38,24,Vrouw,Rechts,2,
,dotcolour,dotcolour,xotask,58,1,118,118,training,positivefb,79,hard,45,0.9165846999999303,['n'],0,left,['2'],5,0.16502460000015162,,,,,,,,38,24,Vrouw,Rechts,2,
,dotcolour,dotcolour,xotask,59,1,119,119,training,positivefb,91,hard,39,0.882987299999968,['c'],0,right,['2'],5,0.2747946999998021,,,,,,,,38,24,Vrouw,Rechts,2,
,xotask,dotcolour,xotask,0,2,120,120,main,positivefb,-99,average,,1.3335406000001058,['n'],1,right,['1'],6,1.0482756000001245,19,,,,,,,38,24,Vrouw,Rechts,2,
,xotask,dotcolour,xotask,1,2,121,121,main,positivefb,-99,easy,,1.084693199999947,['c'],1,left,['1'],6,0.2838896000000659,70,,,,,,,38,24,Vrouw,Rechts,2,
,xotask,dotcolour,xotask,2,2,122,122,main,positivefb,-99,average,,0.7004140000001371,['c'],1,left,['1'],6,0.18929609999986496,63,,,,,,,38,24,Vrouw,Rechts,2,
,xotask,dotcolour,xotask,3,2,123,123,main,positivefb,-99,average,,0.5510527999999795,['c'],1,left,['1'],6,0.16818549999993593,62,,,,,,,38,24,Vrouw,Rechts,2,
,xotask,dotcolour,xotask,4,2,124,124,main,positivefb,-99,easy,,0.5675533000000996,['n'],1,right,['1'],6,0.17194749999998749,9,,,,,,,38,24,Vrouw,Rechts,2,
,xotask,dotcolour,xotask,5,2,125,125,main,positivefb,-99,hard,,0.734268499999871,['n'],1,right,['1'],6,0.16784549999988485,26,,,,,,,38,24,Vrouw,Rechts,2,
,xotask,dotcolour,xotask,6,2,126,126,main,positivefb,-99,average,,0.8013789999999972,['n'],1,right,['1'],6,0.5464400000000751,15,,,,,,,38,24,Vrouw,Rechts,2,
,xotask,dotcolour,xotask,7,2,127,127,main,positivefb,-99,hard,,0.6516776000000846,['n'],1,right,['1'],6,0.16371619999995346,27,,,,,,,38,24,Vrouw,Rechts,2,
,xotask,dotcolour,xotask,8,2,128,128,main,positivefb,-99,hard,,1.051002599999947,['c'],1,left,['2'],5,0.5799622999998064,54,,,,,,,38,24,Vrouw,Rechts,2,
,xotask,dotcolour,xotask,9,2,129,129,main,positivefb,-99,easy,,0.717001400000072,['n'],1,right,['1'],6,0.24946049999994102,7,,,,,,,38,24,Vrouw,Rechts,2,
,xotask,dotcolour,xotask,10,2,130,130,main,positivefb,-99,average,,0.8510011000000759,['c'],1,left,['1'],6,0.189978500000052,61,,,,,,,38,24,Vrouw,Rechts,2,
,xotask,dotcolour,xotask,11,2,131,131,main,positivefb,-99,hard,,0.6350417999999536,['c'],1,left,['1'],6,0.189990699999953,52,,,,,,,38,24,Vrouw,Rechts,2,
,xotask,dotcolour,xotask,12,2,132,132,main,positivefb,-99,hard,,0.451294100000041,['n'],1,right,['2'],5,0.413620900000069,28,,,,,,,38,24,Vrouw,Rechts,2,
,xotask,dotcolour,xotask,13,2,133,133,main,positivefb,-99,easy,,0.768112100000053,['n'],1,right,['1'],6,0.26371009999979833,9,,,,,,,38,24,Vrouw,Rechts,2,
,xotask,dotcolour,xotask,14,2,134,134,main,positivefb,-99,easy,,0.7506181000001106,['c'],1,left,['1'],6,0.16039769999997588,70,,,,,,,38,24,Vrouw,Rechts,2,
,xotask,dotcolour,xotask,15,2,135,135,main,positivefb,-99,easy,,0.7173992999998973,['n'],1,right,['1'],6,0.15094350000003942,9,,,,,,,38,24,Vrouw,Rechts,2,
,xotask,dotcolour,xotask,16,2,136,136,main,positivefb,-99,average,,0.7677730000000338,['c'],1,left,['1'],6,0.194867400000021,63,,,,,,,38,24,Vrouw,Rechts,2,
,xotask,dotcolour,xotask,17,2,137,137,main,positivefb,-99,average,,0.6340090999999575,['c'],1,left,['1'],6,0.26694290000000365,63,,,,,,,38,24,Vrouw,Rechts,2,
,xotask,dotcolour,xotask,18,2,138,138,main,positivefb,-99,average,,0.5170171999998274,['n'],1,right,['1'],6,0.2199098999999478,19,,,,,,,38,24,Vrouw,Rechts,2,
,xotask,dotcolour,xotask,19,2,139,139,main,positivefb,-99,easy,,0.5511473000001388,['n'],1,right,['1'],6,0.19723879999992278,9,,,,,,,38,24,Vrouw,Rechts,2,
,xotask,dotcolour,xotask,20,2,140,140,main,positivefb,-99,hard,,0.5516806000000543,['n'],1,right,['1'],6,0.6326174999999239,25,,,,,,,38,24,Vrouw,Rechts,2,
,xotask,dotcolour,xotask,21,2,141,141,main,positivefb,-99,hard,,0.9678813999998965,['c'],1,left,['2'],5,0.36149780000005194,53,,,,,,,38,24,Vrouw,Rechts,2,
,xotask,dotcolour,xotask,22,2,142,142,main,positivefb,-99,average,,1.917750500000011,['n'],1,right,['2'],5,0.5352439999999206,18,,,,,,,38,24,Vrouw,Rechts,2,
,xotask,dotcolour,xotask,23,2,143,143,main,positivefb,-99,easy,,0.6677448999998887,['n'],1,right,['2'],5,0.1680797999999868,5,,,,,,,38,24,Vrouw,Rechts,2,
,xotask,dotcolour,xotask,24,2,144,144,main,positivefb,-99,average,,0.7171210999999857,['c'],1,left,['1'],6,0.18912699999987126,62,,,,,,,38,24,Vrouw,Rechts,2,
,xotask,dotcolour,xotask,25,2,145,145,main,positivefb,-99,average,,1.6505804999999327,['c'],0,right,['2'],5,0.228084600000102,15,,,,,,,38,24,Vrouw,Rechts,2,
,xotask,dotcolour,xotask,26,2,146,146,main,positivefb,-99,average,,0.7497799000000214,['c'],1,left,['2'],5,0.3667321999998876,60,,,,,,,38,24,Vrouw,Rechts,2,
,xotask,dotcolour,xotask,27,2,147,147,main,positivefb,-99,easy,,0.7178369000000657,['c'],1,left,['1'],6,0.22761430000014116,70,,,,,,,38,24,Vrouw,Rechts,2,
,xotask,dotcolour,xotask,28,2,148,148,main,positivefb,-99,easy,,0.6178922000001421,['n'],1,right,['1'],6,0.2268671000001632,7,,,,,,,38,24,Vrouw,Rechts,2,
,xotask,dotcolour,xotask,29,2,149,149,main,positivefb,-99,average,,0.6500986000000921,['n'],1,right,['1'],6,0.18505559999994148,16,,,,,,,38,24,Vrouw,Rechts,2,
,xotask,dotcolour,xotask,30,2,150,150,main,positivefb,-99,easy,,1.6678858000000218,['n'],1,right,['2'],5,0.19133590000001277,6,,,,,,,38,24,Vrouw,Rechts,2,
,xotask,dotcolour,xotask,31,2,151,151,main,positivefb,-99,easy,,0.5680738999999448,['n'],1,right,['1'],6,0.18702659999985372,5,,,,,,,38,24,Vrouw,Rechts,2,
,xotask,dotcolour,xotask,32,2,152,152,main,positivefb,-99,easy,,0.7336568000000625,['c'],1,left,['1'],6,0.4865552999999636,70,,,,,,,38,24,Vrouw,Rechts,2,
,xotask,dotcolour,xotask,33,2,153,153,main,positivefb,-99,average,,1.117625500000031,['n'],1,right,['2'],5,0.22316939999996066,18,,,,,,,38,24,Vrouw,Rechts,2,
,xotask,dotcolour,xotask,34,2,154,154,main,positivefb,-99,hard,,0.7011403999999857,['c'],1,left,['2'],5,0.19545389999984764,53,,,,,,,38,24,Vrouw,Rechts,2,
,xotask,dotcolour,xotask,35,2,155,155,main,positivefb,-99,hard,,0.7011101999999028,['c'],1,left,['1'],6,0.18469649999997273,50,,,,,,,38,24,Vrouw,Rechts,2,
,xotask,dotcolour,xotask,36,2,156,156,main,positivefb,-99,average,,0.600820399999975,['c'],1,left,['1'],6,0.1781341999999313,63,,,,,,,38,24,Vrouw,Rechts,2,
,xotask,dotcolour,xotask,37,2,157,157,main,positivefb,-99,average,,1.718109400000003,['n'],1,right,['2'],5,0.5108351999999741,19,,,,,,,38,24,Vrouw,Rechts,2,
,xotask,dotcolour,xotask,38,2,158,158,main,positivefb,-99,average,,0.6670060999999805,['n'],1,right,['1'],6,0.2647456999998212,19,,,,,,,38,24,Vrouw,Rechts,2,
,xotask,dotcolour,xotask,39,2,159,159,main,positivefb,-99,hard,,1.3509698000000299,['n'],1,right,['2'],5,0.3290368000000399,26,,,,,,,38,24,Vrouw,Rechts,2,
,xotask,dotcolour,xotask,40,2,160,160,main,positivefb,-99,hard,,1.1007611999998517,['n'],1,right,['2'],5,0.18462859999999637,26,,,,,,,38,24,Vrouw,Rechts,2,
,xotask,dotcolour,xotask,41,2,161,161,main,positivefb,-99,easy,,0.5680119999999533,['c'],1,left,['1'],6,0.2123564000000897,73,,,,,,,38,24,Vrouw,Rechts,2,
,xotask,dotcolour,xotask,42,2,162,162,main,positivefb,-99,easy,,0.5173483000000942,['c'],1,left,['1'],6,0.18331140000009327,73,,,,,,,38,24,Vrouw,Rechts,2,
,xotask,dotcolour,xotask,43,2,163,163,main,positivefb,-99,hard,,0.9852937999999085,['n'],1,right,['2'],5,0.5463170000000446,27,,,,,,,38,24,Vrouw,Rechts,2,
,xotask,dotcolour,xotask,44,2,164,164,main,positivefb,-99,easy,,0.7008634999999686,['n'],1,right,['1'],6,0.48118270000009034,8,,,,,,,38,24,Vrouw,Rechts,2,
,xotask,dotcolour,xotask,45,2,165,165,main,positivefb,-99,hard,,0.6341191000001345,['n'],1,right,['1'],6,0.10099100000002181,25,,,,,,,38,24,Vrouw,Rechts,2,
,xotask,dotcolour,xotask,46,2,166,166,main,positivefb,-99,average,,0.716961000000083,['c'],1,left,['1'],6,0.15704570000002605,64,,,,,,,38,24,Vrouw,Rechts,2,
,xotask,dotcolour,xotask,47,2,167,167,main,positivefb,-99,easy,,1.0018142000001262,['c'],1,left,['1'],6,0.13575549999995928,71,,,,,,,38,24,Vrouw,Rechts,2,
,xotask,dotcolour,xotask,48,2,168,168,main,positivefb,-99,easy,,0.7842071000000033,['c'],1,left,['1'],6,0.09157649999997375,70,,,,,,,38,24,Vrouw,Rechts,2,
,xotask,dotcolour,xotask,49,2,169,169,main,positivefb,-99,easy,,0.6180425000000014,['c'],1,left,['1'],6,0.1523779999999988,71,,,,,,,38,24,Vrouw,Rechts,2,
,xotask,dotcolour,xotask,50,2,170,170,main,positivefb,-99,hard,,2.416717300000073,['c'],1,left,['3'],4,1.034246800000119,53,,,,,,,38,24,Vrouw,Rechts,2,
,xotask,dotcolour,xotask,51,2,171,171,main,positivefb,-99,easy,,0.9678965000000517,['c'],1,left,['1'],6,0.13898740000013277,74,,,,,,,38,24,Vrouw,Rechts,2,
,xotask,dotcolour,xotask,52,2,172,172,main,positivefb,-99,hard,,0.7014685999999983,['n'],1,right,['1'],6,0.11487940000006347,26,,,,,,,38,24,Vrouw,Rechts,2,
,xotask,dotcolour,xotask,53,2,173,173,main,positivefb,-99,hard,,0.9343590999999378,['c'],1,left,['1'],6,0.169005499999912,50,,,,,,,38,24,Vrouw,Rechts,2,
,xotask,dotcolour,xotask,54,2,174,174,main,positivefb,-99,average,,0.5682636999999886,['c'],1,left,['1'],6,0.16416529999992235,60,,,,,,,38,24,Vrouw,Rechts,2,
,xotask,dotcolour,xotask,55,2,175,175,main,positivefb,-99,hard,,0.7847378000001299,['c'],1,left,['1'],6,0.12669210000012754,54,,,,,,,38,24,Vrouw,Rechts,2,
,xotask,dotcolour,xotask,56,2,176,176,main,positivefb,-99,hard,,1.0349464000000808,['c'],1,left,['1'],6,0.17751829999997426,51,,,,,,,38,24,Vrouw,Rechts,2,
,xotask,dotcolour,xotask,57,2,177,177,main,positivefb,-99,hard,,0.785042699999849,['c'],1,left,['1'],6,0.17283670000006168,53,,,,,,,38,24,Vrouw,Rechts,2,
,xotask,dotcolour,xotask,58,2,178,178,main,positivefb,-99,hard,,1.0681025000001227,['n'],1,right,['2'],5,0.18740980000006857,25,,,,,,,38,24,Vrouw,Rechts,2,
,xotask,dotcolour,xotask,59,2,179,179,main,positivefb,-99,average,,0.9353195999999571,['n'],1,right,['2'],5,0.15977029999999104,17,,,,,,,38,24,Vrouw,Rechts,2,
,xotask,dotcolour,xotask,0,3,180,180,main,positivefb,-99,easy,,1.0840566000001672,['c'],1,left,['1'],6,0.12318630000004305,71,,,,,,,38,24,Vrouw,Rechts,2,
,xotask,dotcolour,xotask,1,3,181,181,main,positivefb,-99,average,,0.5339426999998977,['c'],1,left,['1'],6,0.13812130000019351,60,,,,,,,38,24,Vrouw,Rechts,2,
,xotask,dotcolour,xotask,2,3,182,182,main,positivefb,-99,average,,0.5514067999999952,['c'],1,left,['1'],6,0.1355326000000332,61,,,,,,,38,24,Vrouw,Rechts,2,
,xotask,dotcolour,xotask,3,3,183,183,main,positivefb,-99,average,,0.585099899999932,['n'],1,right,['1'],6,0.37141330000008566,15,,,,,,,38,24,Vrouw,Rechts,2,
,xotask,dotcolour,xotask,4,3,184,184,main,positivefb,-99,easy,,0.5837274000000434,['n'],1,right,['1'],6,0.15056860000004235,7,,,,,,,38,24,Vrouw,Rechts,2,
,xotask,dotcolour,xotask,5,3,185,185,main,positivefb,-99,average,,0.5005834999999479,['n'],1,right,['1'],6,0.1250723000000562,17,,,,,,,38,24,Vrouw,Rechts,2,
,xotask,dotcolour,xotask,6,3,186,186,main,positivefb,-99,easy,,0.4348525000000336,['n'],1,right,['1'],6,0.1517498999999134,8,,,,,,,38,24,Vrouw,Rechts,2,
,xotask,dotcolour,xotask,7,3,187,187,main,positivefb,-99,average,,0.7684114999999565,['c'],1,left,['1'],6,0.1479801000000407,62,,,,,,,38,24,Vrouw,Rechts,2,
,xotask,dotcolour,xotask,8,3,188,188,main,positivefb,-99,average,,0.6168081000000711,['n'],1,right,['1'],6,0.14172640000015235,15,,,,,,,38,24,Vrouw,Rechts,2,
,xotask,dotcolour,xotask,9,3,189,189,main,positivefb,-99,average,,0.6010495000000446,['n'],1,right,['1'],6,0.14506459999984145,16,,,,,,,38,24,Vrouw,Rechts,2,
,xotask,dotcolour,xotask,10,3,190,190,main,positivefb,-99,easy,,0.5178995000001123,['n'],1,right,['1'],6,0.09572319999983847,9,,,,,,,38,24,Vrouw,Rechts,2,
,xotask,dotcolour,xotask,11,3,191,191,main,positivefb,-99,hard,,0.7170991999998932,['c'],1,left,['1'],6,0.12107120000018767,53,,,,,,,38,24,Vrouw,Rechts,2,
,xotask,dotcolour,xotask,12,3,192,192,main,positivefb,-99,easy,,0.566913999999997,['n'],1,right,['1'],6,0.07846259999996619,8,,,,,,,38,24,Vrouw,Rechts,2,
,xotask,dotcolour,xotask,13,3,193,193,main,positivefb,-99,average,,0.501150399999915,['c'],1,left,['1'],6,0.10322629999996025,60,,,,,,,38,24,Vrouw,Rechts,2,
,xotask,dotcolour,xotask,14,3,194,194,main,positivefb,-99,hard,,0.9164795000001504,['c'],1,left,['1'],6,0.08715940000001865,51,,,,,,,38,24,Vrouw,Rechts,2,
,xotask,dotcolour,xotask,15,3,195,195,main,positivefb,-99,easy,,0.6182992999999897,['n'],1,right,['1'],6,0.09271920000014688,6,,,,,,,38,24,Vrouw,Rechts,2,
,xotask,dotcolour,xotask,16,3,196,196,main,positivefb,-99,hard,,1.2832511999999952,['c'],1,left,['1'],6,0.014552399999956833,50,,,,,,,38,24,Vrouw,Rechts,2,
,xotask,dotcolour,xotask,17,3,197,197,main,positivefb,-99,hard,,1.0320957000001272,['n'],1,right,['1'],6,0.14919159999999465,25,,,,,,,38,24,Vrouw,Rechts,2,
,xotask,dotcolour,xotask,18,3,198,198,main,positivefb,-99,average,,1.1502748999998857,['c'],1,left,['1'],6,0.13782969999988381,63,,,,,,,38,24,Vrouw,Rechts,2,
,xotask,dotcolour,xotask,19,3,199,199,main,positivefb,-99,easy,,0.9164863999999397,['c'],1,left,['1'],6,0.2728970999999092,72,,,,,,,38,24,Vrouw,Rechts,2,
,xotask,dotcolour,xotask,20,3,200,200,main,positivefb,-99,average,,0.7517522000000554,['c'],1,left,['1'],6,0.2243537000001652,64,,,,,,,38,24,Vrouw,Rechts,2,
,xotask,dotcolour,xotask,21,3,201,201,main,positivefb,-99,average,,0.6685796000001574,['c'],1,left,['1'],6,0.2373294999999871,60,,,,,,,38,24,Vrouw,Rechts,2,
,xotask,dotcolour,xotask,22,3,202,202,main,positivefb,-99,easy,,0.567514600000095,['c'],1,left,['1'],6,0.287184500000194,71,,,,,,,38,24,Vrouw,Rechts,2,
,xotask,dotcolour,xotask,23,3,203,203,main,positivefb,-99,hard,,0.9670573000000786,['n'],0,left,['8'],3,1.5655299000000014,51,,,,,,,38,24,Vrouw,Rechts,2,
,xotask,dotcolour,xotask,24,3,204,204,main,positivefb,-99,easy,,3.4349399000000176,['n'],1,right,['2'],5,0.27816409999991265,7,,,,,,,38,24,Vrouw,Rechts,2,
,xotask,dotcolour,xotask,25,3,205,205,main,positivefb,-99,hard,,1.1180262000000312,['c'],1,left,['2'],5,0.46358699999996134,52,,,,,,,38,24,Vrouw,Rechts,2,
,xotask,dotcolour,xotask,26,3,206,206,main,positivefb,-99,hard,,0.8170133999999507,['n'],1,right,['2'],5,0.22128879999991113,26,,,,,,,38,24,Vrouw,Rechts,2,
,xotask,dotcolour,xotask,27,3,207,207,main,positivefb,-99,easy,,0.5837419999998019,['c'],1,left,['1'],6,0.19768080000017108,71,,,,,,,38,24,Vrouw,Rechts,2,
,xotask,dotcolour,xotask,28,3,208,208,main,positivefb,-99,hard,,2.1511158000000705,['c'],0,right,['2'],5,0.17682590000003984,27,,,,,,,38,24,Vrouw,Rechts,2,
,xotask,dotcolour,xotask,29,3,209,209,main,positivefb,-99,hard,,0.7338259000000562,['c'],1,left,['1'],6,0.4448746000000483,54,,,,,,,38,24,Vrouw,Rechts,2,
,xotask,dotcolour,xotask,30,3,210,210,main,positivefb,-99,hard,,0.8677717000000484,['n'],1,right,['1'],6,0.402279099999987,28,,,,,,,38,24,Vrouw,Rechts,2,
,xotask,dotcolour,xotask,31,3,211,211,main,positivefb,-99,easy,,0.818295100000114,['c'],1,left,['1'],6,0.20176900000001297,73,,,,,,,38,24,Vrouw,Rechts,2,
,xotask,dotcolour,xotask,32,3,212,212,main,positivefb,-99,hard,,1.0342850000001818,['c'],1,left,['1'],6,0.192776399999957,51,,,,,,,38,24,Vrouw,Rechts,2,
,xotask,dotcolour,xotask,33,3,213,213,main,positivefb,-99,easy,,0.7509330000000318,['n'],1,right,['1'],6,0.16470950000007178,8,,,,,,,38,24,Vrouw,Rechts,2,
,xotask,dotcolour,xotask,34,3,214,214,main,positivefb,-99,easy,,0.6678408000000218,['c'],1,left,['1'],6,0.17985990000011043,72,,,,,,,38,24,Vrouw,Rechts,2,
,xotask,dotcolour,xotask,35,3,215,215,main,positivefb,-99,average,,0.6009930000000168,['n'],1,right,['1'],6,0.18218019999994794,16,,,,,,,38,24,Vrouw,Rechts,2,
,xotask,dotcolour,xotask,36,3,216,216,main,positivefb,-99,easy,,0.667532299999948,['c'],1,left,['1'],6,0.15688009999985297,74,,,,,,,38,24,Vrouw,Rechts,2,
,xotask,dotcolour,xotask,37,3,217,217,main,positivefb,-99,hard,,1.7164934999998422,['n'],1,right,['2'],5,0.5466421999999511,26,,,,,,,38,24,Vrouw,Rechts,2,
,xotask,dotcolour,xotask,38,3,218,218,main,positivefb,-99,hard,,1.6838160999998308,['n'],1,right,['2'],5,0.38727220000009765,26,,,,,,,38,24,Vrouw,Rechts,2,
,xotask,dotcolour,xotask,39,3,219,219,main,positivefb,-99,average,,0.7839109000001372,['n'],1,right,['1'],6,0.20453169999996135,19,,,,,,,38,24,Vrouw,Rechts,2,
,xotask,dotcolour,xotask,40,3,220,220,main,positivefb,-99,hard,,1.4177859000001263,['n'],1,right,['2'],5,0.24512589999994816,27,,,,,,,38,24,Vrouw,Rechts,2,
,xotask,dotcolour,xotask,41,3,221,221,main,positivefb,-99,average,,0.8670336000000134,['c'],1,left,['2'],5,0.32923020000021097,64,,,,,,,38,24,Vrouw,Rechts,2,
,xotask,dotcolour,xotask,42,3,222,222,main,positivefb,-99,average,,0.7510207000000264,['n'],1,right,['2'],5,0.47158970000009504,17,,,,,,,38,24,Vrouw,Rechts,2,
,xotask,dotcolour,xotask,43,3,223,223,main,positivefb,-99,hard,,2.334175899999991,['n'],1,right,['2'],5,0.17594740000004094,28,,,,,,,38,24,Vrouw,Rechts,2,
,xotask,dotcolour,xotask,44,3,224,224,main,positivefb,-99,hard,,1.7342985000000226,['n'],0,left,['3'],4,1.9964962999999898,52,,,,,,,38,24,Vrouw,Rechts,2,
,xotask,dotcolour,xotask,45,3,225,225,main,positivefb,-99,easy,,0.7999600000000555,['c'],1,left,['2'],5,0.5738770000000386,70,,,,,,,38,24,Vrouw,Rechts,2,
,xotask,dotcolour,xotask,46,3,226,226,main,positivefb,-99,average,,0.6513322000000699,['n'],1,right,['2'],5,0.2782882999999856,15,,,,,,,38,24,Vrouw,Rechts,2,
,xotask,dotcolour,xotask,47,3,227,227,main,positivefb,-99,average,,0.9004637999998977,['c'],1,left,['2'],5,0.39142259999994167,60,,,,,,,38,24,Vrouw,Rechts,2,
,xotask,dotcolour,xotask,48,3,228,228,main,positivefb,-99,average,,0.7514738999998372,['n'],1,right,['1'],6,0.4355790000001889,16,,,,,,,38,24,Vrouw,Rechts,2,
,xotask,dotcolour,xotask,49,3,229,229,main,positivefb,-99,hard,,1.3349009999999453,['n'],1,right,['2'],5,0.20539480000002186,28,,,,,,,38,24,Vrouw,Rechts,2,
,xotask,dotcolour,xotask,50,3,230,230,main,positivefb,-99,easy,,0.6180303999999524,['n'],1,right,['1'],6,0.15680999999995038,9,,,,,,,38,24,Vrouw,Rechts,2,
,xotask,dotcolour,xotask,51,3,231,231,main,positivefb,-99,hard,,0.7507164999999532,['c'],1,left,['1'],6,0.18659969999998793,51,,,,,,,38,24,Vrouw,Rechts,2,
,xotask,dotcolour,xotask,52,3,232,232,main,positivefb,-99,average,,2.0336847999999463,['n'],0,left,['3'],4,0.30610139999998864,60,,,,,,,38,24,Vrouw,Rechts,2,
,xotask,dotcolour,xotask,53,3,233,233,main,positivefb,-99,easy,,1.5515715999999884,['c'],1,left,['1'],6,0.19266080000011243,72,,,,,,,38,24,Vrouw,Rechts,2,
,xotask,dotcolour,xotask,54,3,234,234,main,positivefb,-99,average,,0.7341703999998117,['n'],1,right,['1'],6,0.17240420000007362,19,,,,,,,38,24,Vrouw,Rechts,2,
,xotask,dotcolour,xotask,55,3,235,235,main,positivefb,-99,hard,,0.9000541999998859,['c'],1,left,['1'],6,0.5154735999999502,52,,,,,,,38,24,Vrouw,Rechts,2,
,xotask,dotcolour,xotask,56,3,236,236,main,positivefb,-99,easy,,0.6840205000000878,['n'],1,right,['1'],6,0.1638026999999056,7,,,,,,,38,24,Vrouw,Rechts,2,
,xotask,dotcolour,xotask,57,3,237,237,main,positivefb,-99,hard,,1.4174309999998513,['n'],1,right,['2'],5,0.22901040000010653,25,,,,,,,38,24,Vrouw,Rechts,2,
,xotask,dotcolour,xotask,58,3,238,238,main,positivefb,-99,easy,,0.735286300000098,['c'],1,left,['1'],6,0.23186840000016673,72,,,,,,,38,24,Vrouw,Rechts,2,
,xotask,dotcolour,xotask,59,3,239,239,main,positivefb,-99,easy,,0.7010318000000098,['n'],1,right,['1'],6,0.19466990000000806,8,,,,,,,38,24,Vrouw,Rechts,2,
,xotask,dotcolour,xotask,0,4,240,240,main,positivefb,-99,average,,2.4351039000000583,['c'],1,left,['1'],6,0.6176336999999421,64,,,,,,,38,24,Vrouw,Rechts,2,
,xotask,dotcolour,xotask,1,4,241,241,main,positivefb,-99,easy,,0.6843066999999792,['c'],1,left,['1'],6,0.17449220000003152,74,,,,,,,38,24,Vrouw,Rechts,2,
,xotask,dotcolour,xotask,2,4,242,242,main,positivefb,-99,hard,,0.8176003999999466,['c'],1,left,['1'],6,0.19222500000000764,50,,,,,,,38,24,Vrouw,Rechts,2,
,xotask,dotcolour,xotask,3,4,243,243,main,positivefb,-99,easy,,0.684259000000111,['n'],1,right,['1'],6,0.20596120000004703,9,,,,,,,38,24,Vrouw,Rechts,2,
,xotask,dotcolour,xotask,4,4,244,244,main,positivefb,-99,hard,,1.2846498000001247,['c'],1,left,['1'],6,0.23492050000004383,54,,,,,,,38,24,Vrouw,Rechts,2,
,xotask,dotcolour,xotask,5,4,245,245,main,positivefb,-99,average,,0.9341307000001962,['c'],1,left,['1'],6,0.30101619999982177,63,,,,,,,38,24,Vrouw,Rechts,2,
,xotask,dotcolour,xotask,6,4,246,246,main,positivefb,-99,average,,0.9343747999998868,['c'],1,left,['2'],5,0.30063769999992473,64,,,,,,,38,24,Vrouw,Rechts,2,
,xotask,dotcolour,xotask,7,4,247,247,main,positivefb,-99,hard,,1.2843288999999913,['c'],1,left,['2'],5,0.26187259999983326,52,,,,,,,38,24,Vrouw,Rechts,2,
,xotask,dotcolour,xotask,8,4,248,248,main,positivefb,-99,average,,0.784443999999894,['n'],1,right,['1'],6,0.23751529999981358,17,,,,,,,38,24,Vrouw,Rechts,2,
,xotask,dotcolour,xotask,9,4,249,249,main,positivefb,-99,average,,0.6003677000001062,['c'],1,left,['1'],6,0.18935740000006263,63,,,,,,,38,24,Vrouw,Rechts,2,
,xotask,dotcolour,xotask,10,4,250,250,main,positivefb,-99,easy,,0.5682338000001437,['c'],1,left,['1'],6,0.19895249999990483,73,,,,,,,38,24,Vrouw,Rechts,2,
,xotask,dotcolour,xotask,11,4,251,251,main,positivefb,-99,hard,,0.7510972000000038,['n'],1,right,['1'],6,0.2662743999999293,29,,,,,,,38,24,Vrouw,Rechts,2,
,xotask,dotcolour,xotask,12,4,252,252,main,positivefb,-99,average,,0.7680502000000615,['c'],0,right,['2'],5,0.5131725999999617,19,,,,,,,38,24,Vrouw,Rechts,2,
,xotask,dotcolour,xotask,13,4,253,253,main,positivefb,-99,average,,0.6844125000000076,['c'],1,left,['1'],6,0.6346762000000581,64,,,,,,,38,24,Vrouw,Rechts,2,
,xotask,dotcolour,xotask,14,4,254,254,main,positivefb,-99,hard,,0.7000918999999612,['c'],1,left,['1'],6,0.2060453999999936,53,,,,,,,38,24,Vrouw,Rechts,2,
,xotask,dotcolour,xotask,15,4,255,255,main,positivefb,-99,average,,0.7510121000000254,['n'],1,right,['2'],5,0.9930764000000636,17,,,,,,,38,24,Vrouw,Rechts,2,
,xotask,dotcolour,xotask,16,4,256,256,main,positivefb,-99,easy,,0.6004041999999572,['c'],1,left,['1'],6,0.17820580000011432,73,,,,,,,38,24,Vrouw,Rechts,2,
,xotask,dotcolour,xotask,17,4,257,257,main,positivefb,-99,average,,0.783779000000095,['n'],1,right,['1'],6,0.13232130000005782,18,,,,,,,38,24,Vrouw,Rechts,2,
,xotask,dotcolour,xotask,18,4,258,258,main,positivefb,-99,hard,,2.1843559999999798,['c'],1,left,['1'],6,0.6810375000000022,52,,,,,,,38,24,Vrouw,Rechts,2,
,xotask,dotcolour,xotask,19,4,259,259,main,positivefb,-99,average,,0.6504114000001664,['c'],1,left,['1'],6,0.17992199999980585,64,,,,,,,38,24,Vrouw,Rechts,2,
,xotask,dotcolour,xotask,20,4,260,260,main,positivefb,-99,easy,,0.6506651000001966,['c'],1,left,['1'],6,0.18759040000009009,72,,,,,,,38,24,Vrouw,Rechts,2,
,xotask,dotcolour,xotask,21,4,261,261,main,positivefb,-99,hard,,0.7178709999998318,['n'],1,right,['2'],5,0.3208283000001302,25,,,,,,,38,24,Vrouw,Rechts,2,
,xotask,dotcolour,xotask,22,4,262,262,main,positivefb,-99,hard,,1.3838050999997904,['c'],0,right,['2'],5,0.28494949999981145,29,,,,,,,38,24,Vrouw,Rechts,2,
,xotask,dotcolour,xotask,23,4,263,263,main,positivefb,-99,easy,,0.6679398000001129,['n'],1,right,['1'],6,0.14408159999993586,8,,,,,,,38,24,Vrouw,Rechts,2,
,xotask,dotcolour,xotask,24,4,264,264,main,positivefb,-99,average,,0.8008674000000156,['c'],1,left,['1'],6,0.29127459999995153,62,,,,,,,38,24,Vrouw,Rechts,2,
,xotask,dotcolour,xotask,25,4,265,265,main,positivefb,-99,easy,,0.6175247000001036,['n'],1,right,['1'],6,0.21647710000002007,5,,,,,,,38,24,Vrouw,Rechts,2,
,xotask,dotcolour,xotask,26,4,266,266,main,positivefb,-99,average,,0.6676203999998052,['n'],1,right,['1'],6,0.8373980999999731,18,,,,,,,38,24,Vrouw,Rechts,2,
,xotask,dotcolour,xotask,27,4,267,267,main,positivefb,-99,hard,,0.816186499999958,['c'],1,left,['1'],6,0.15663370000015675,52,,,,,,,38,24,Vrouw,Rechts,2,
,xotask,dotcolour,xotask,28,4,268,268,main,positivefb,-99,average,,0.9517621999998482,['n'],1,right,['1'],6,1.1448272000000088,15,,,,,,,38,24,Vrouw,Rechts,2,
,xotask,dotcolour,xotask,29,4,269,269,main,positivefb,-99,hard,,1.0845071999999618,['c'],1,left,['2'],5,0.2643666999999823,51,,,,,,,38,24,Vrouw,Rechts,2,
,xotask,dotcolour,xotask,30,4,270,270,main,positivefb,-99,average,,0.8167708000000857,['n'],1,right,['2'],5,0.7741206999999122,15,,,,,,,38,24,Vrouw,Rechts,2,
,xotask,dotcolour,xotask,31,4,271,271,main,positivefb,-99,easy,,0.784466600000087,['n'],1,right,['1'],6,0.192334800000026,7,,,,,,,38,24,Vrouw,Rechts,2,
,xotask,dotcolour,xotask,32,4,272,272,main,positivefb,-99,easy,,0.5179980999998861,['c'],1,left,['1'],6,0.18113270000003467,72,,,,,,,38,24,Vrouw,Rechts,2,
,xotask,dotcolour,xotask,33,4,273,273,main,positivefb,-99,hard,,0.96798560000002,['n'],1,right,['2'],5,0.7199602000000596,29,,,,,,,38,24,Vrouw,Rechts,2,
,xotask,dotcolour,xotask,34,4,274,274,main,positivefb,-99,average,,0.8509311999998772,['n'],1,right,['2'],5,0.25016419999997197,17,,,,,,,38,24,Vrouw,Rechts,2,
,xotask,dotcolour,xotask,35,4,275,275,main,positivefb,-99,easy,,0.683893800000078,['c'],1,left,['1'],6,0.1893685000000005,72,,,,,,,38,24,Vrouw,Rechts,2,
,xotask,dotcolour,xotask,36,4,276,276,main,positivefb,-99,easy,,0.7837958999998591,['n'],1,right,['1'],6,0.2554150999999365,6,,,,,,,38,24,Vrouw,Rechts,2,
,xotask,dotcolour,xotask,37,4,277,277,main,positivefb,-99,hard,,0.8010395000001154,['n'],1,right,['1'],6,0.1900425000001178,29,,,,,,,38,24,Vrouw,Rechts,2,
,xotask,dotcolour,xotask,38,4,278,278,main,positivefb,-99,easy,,0.684338999999909,['n'],1,right,['1'],6,0.17200800000000527,6,,,,,,,38,24,Vrouw,Rechts,2,
,xotask,dotcolour,xotask,39,4,279,279,main,positivefb,-99,hard,,0.9342432999999346,['n'],1,right,['1'],6,0.66444609999985,25,,,,,,,38,24,Vrouw,Rechts,2,
,xotask,dotcolour,xotask,40,4,280,280,main,positivefb,-99,easy,,0.9337803999999323,['c'],1,left,['1'],6,1.2900180999999975,70,,,,,,,38,24,Vrouw,Rechts,2,
,xotask,dotcolour,xotask,41,4,281,281,main,positivefb,-99,average,,0.7995348999997987,['n'],1,right,['1'],6,0.20759459999999308,15,,,,,,,38,24,Vrouw,Rechts,2,
,xotask,dotcolour,xotask,42,4,282,282,main,positivefb,-99,easy,,0.767773699999907,['c'],1,left,['1'],6,0.2884229999999661,72,,,,,,,38,24,Vrouw,Rechts,2,
,xotask,dotcolour,xotask,43,4,283,283,main,positivefb,-99,easy,,0.6859253000000081,['n'],1,right,['1'],6,0.170644399999901,7,,,,,,,38,24,Vrouw,Rechts,2,
,xotask,dotcolour,xotask,44,4,284,284,main,positivefb,-99,average,,0.7016744000000017,['c'],1,left,['1'],6,0.20047309999995377,60,,,,,,,38,24,Vrouw,Rechts,2,
,xotask,dotcolour,xotask,45,4,285,285,main,positivefb,-99,easy,,0.6682038999999804,['n'],1,right,['1'],6,0.15905150000003232,5,,,,,,,38,24,Vrouw,Rechts,2,
,xotask,dotcolour,xotask,46,4,286,286,main,positivefb,-99,average,,0.7340640999998413,['n'],1,right,['1'],6,0.30042779999985214,17,,,,,,,38,24,Vrouw,Rechts,2,
,xotask,dotcolour,xotask,47,4,287,287,main,positivefb,-99,easy,,0.7507422999999562,['n'],1,right,['1'],6,0.1949626000000535,7,,,,,,,38,24,Vrouw,Rechts,2,
,xotask,dotcolour,xotask,48,4,288,288,main,positivefb,-99,average,,0.7680735000001278,['c'],1,left,['1'],6,0.42167209999979605,61,,,,,,,38,24,Vrouw,Rechts,2,
,xotask,dotcolour,xotask,49,4,289,289,main,positivefb,-99,hard,,0.9337726999999632,['c'],1,left,['1'],6,0.38379230000009557,54,,,,,,,38,24,Vrouw,Rechts,2,
,xotask,dotcolour,xotask,50,4,290,290,main,positivefb,-99,hard,,1.5009092000000237,['n'],1,right,['2'],5,0.18077259999995476,27,,,,,,,38,24,Vrouw,Rechts,2,
,xotask,dotcolour,xotask,51,4,291,291,main,positivefb,-99,easy,,0.584174700000176,['c'],1,left,['1'],6,0.14339780000000246,73,,,,,,,38,24,Vrouw,Rechts,2,
,xotask,dotcolour,xotask,52,4,292,292,main,positivefb,-99,easy,,0.5172339000000648,['n'],1,right,['1'],6,0.15063830000008238,6,,,,,,,38,24,Vrouw,Rechts,2,
,xotask,dotcolour,xotask,53,4,293,293,main,positivefb,-99,average,,1.8835572000000411,['c'],1,left,['2'],5,0.15787259999979142,63,,,,,,,38,24,Vrouw,Rechts,2,
,xotask,dotcolour,xotask,54,4,294,294,main,positivefb,-99,easy,,1.1672915999999987,['c'],1,left,['1'],6,0.1620101999999406,71,,,,,,,38,24,Vrouw,Rechts,2,
,xotask,dotcolour,xotask,55,4,295,295,main,positivefb,-99,hard,,0.6337957999999162,['c'],1,left,['1'],6,0.17105479999986528,51,,,,,,,38,24,Vrouw,Rechts,2,
,xotask,dotcolour,xotask,56,4,296,296,main,positivefb,-99,hard,,1.7509494000000814,['c'],0,right,['2'],5,0.22340589999998883,26,,,,,,,38,24,Vrouw,Rechts,2,
,xotask,dotcolour,xotask,57,4,297,297,main,positivefb,-99,hard,,1.3502456999999595,['c'],0,right,['2'],5,0.2004464999999982,28,,,,,,,38,24,Vrouw,Rechts,2,
,xotask,dotcolour,xotask,58,4,298,298,main,positivefb,-99,hard,,2.3345692000000327,['n'],0,left,['3'],4,0.5883307000001423,52,,,,,,,38,24,Vrouw,Rechts,2,
,xotask,dotcolour,xotask,59,4,299,299,main,positivefb,-99,hard,,1.6838232000000062,['n'],1,right,['3'],4,0.30662950000009914,27,,,,,,,38,24,Vrouw,Rechts,2,
,dotcolour,dotcolour,xotask,0,0,0,300,training,positivefb,94,hard,38,1.0676424999996925,['n'],1,right,['1'],6,0.09806259999959366,,,,,,,,38,24,Vrouw,Rechts,2,
,dotcolour,dotcolour,xotask,1,0,1,301,training,positivefb,90,average,55,0.8168276000001242,['c'],1,left,['1'],6,0.30916819999993095,,,,,,,,38,24,Vrouw,Rechts,2,
,dotcolour,dotcolour,xotask,2,0,2,302,training,positivefb,84,hard,37,0.5993105000002288,['n'],1,right,['2'],5,0.19355569999970612,,,,,,,,38,24,Vrouw,Rechts,2,
,dotcolour,dotcolour,xotask,3,0,3,303,training,positivefb,93,easy,62,0.7004891999999927,['c'],1,left,['1'],6,0.15818300000000818,,,,,,,,38,24,Vrouw,Rechts,2,
,dotcolour,dotcolour,xotask,4,0,4,304,training,positivefb,94,average,55,0.7173576999998659,['c'],1,left,['1'],6,0.15542219999997542,,,,,,,,38,24,Vrouw,Rechts,2,
,dotcolour,dotcolour,xotask,5,0,5,305,training,positivefb,99,easy,15,0.5996577000000798,['n'],1,right,['1'],6,0.0928700000004028,,,,,,,,38,24,Vrouw,Rechts,2,
,dotcolour,dotcolour,xotask,6,0,6,306,training,positivefb,98,average,54,0.6171967000000222,['c'],1,left,['1'],6,0.12996089999978722,,,,,,,,38,24,Vrouw,Rechts,2,
,dotcolour,dotcolour,xotask,7,0,7,307,training,positivefb,87,easy,63,0.7509552000001349,['c'],1,left,['1'],6,0.15079710000009072,,,,,,,,38,24,Vrouw,Rechts,2,
,dotcolour,dotcolour,xotask,8,0,8,308,training,positivefb,95,average,25,0.6504224999998769,['n'],1,right,['1'],6,0.36696189999975104,,,,,,,,38,24,Vrouw,Rechts,2,
,dotcolour,dotcolour,xotask,9,0,9,309,training,positivefb,98,average,25,0.6005731000000196,['n'],1,right,['1'],6,0.09559050000007119,,,,,,,,38,24,Vrouw,Rechts,2,
,dotcolour,dotcolour,xotask,10,0,10,310,training,positivefb,69,hard,42,2.93473640000002,['c'],1,left,['3'],4,0.18358230000012554,,,,,,,,38,24,Vrouw,Rechts,2,
,dotcolour,dotcolour,xotask,11,0,11,311,training,positivefb,80,easy,64,0.6488856000000851,['c'],1,left,['1'],6,0.1818732000001546,,,,,,,,38,24,Vrouw,Rechts,2,
,dotcolour,dotcolour,xotask,12,0,12,312,training,positivefb,97,easy,65,0.5176463999996486,['c'],1,left,['1'],6,0.2744852999999239,,,,,,,,38,24,Vrouw,Rechts,2,
,dotcolour,dotcolour,xotask,13,0,13,313,training,positivefb,88,hard,42,0.8321624000000156,['n'],0,left,['3'],4,0.7186259999998583,,,,,,,,38,24,Vrouw,Rechts,2,
,dotcolour,dotcolour,xotask,14,0,14,314,training,positivefb,94,average,29,0.8841222999999445,['n'],1,right,['2'],5,0.16578059999983452,,,,,,,,38,24,Vrouw,Rechts,2,
,dotcolour,dotcolour,xotask,15,0,15,315,training,positivefb,92,average,25,0.6341053999999531,['n'],1,right,['1'],6,0.1261250000002292,,,,,,,,38,24,Vrouw,Rechts,2,
,dotcolour,dotcolour,xotask,16,0,16,316,training,positivefb,97,hard,35,1.5338762999999744,['n'],1,right,['1'],6,0.6918870999998035,,,,,,,,38,24,Vrouw,Rechts,2,
,dotcolour,dotcolour,xotask,17,0,17,317,training,positivefb,98,average,29,0.599497700000029,['n'],1,right,['1'],6,0.2732897000000776,,,,,,,,38,24,Vrouw,Rechts,2,
,dotcolour,dotcolour,xotask,18,0,18,318,training,positivefb,81,easy,18,0.6324632000000747,['n'],1,right,['1'],6,0.14853989999983241,,,,,,,,38,24,Vrouw,Rechts,2,
,dotcolour,dotcolour,xotask,19,0,19,319,training,positivefb,95,hard,43,1.416581700000279,['c'],1,left,['2'],5,0.21421269999973447,,,,,,,,38,24,Vrouw,Rechts,2,
,dotcolour,dotcolour,xotask,20,0,20,320,training,positivefb,94,hard,36,0.8828489000002264,['n'],1,right,['2'],5,0.2993247999997948,,,,,,,,38,24,Vrouw,Rechts,2,
,dotcolour,dotcolour,xotask,21,0,21,321,training,positivefb,77,hard,44,1.0670552000001408,['c'],1,left,['2'],5,0.2604332000000795,,,,,,,,38,24,Vrouw,Rechts,2,
,dotcolour,dotcolour,xotask,22,0,22,322,training,positivefb,87,easy,18,0.816837299999861,['n'],1,right,['1'],6,0.09796349999987797,,,,,,,,38,24,Vrouw,Rechts,2,
,dotcolour,dotcolour,xotask,23,0,23,323,training,positivefb,99,average,25,0.7343571999999767,['n'],1,right,['1'],6,0.1292472000000089,,,,,,,,38,24,Vrouw,Rechts,2,
,dotcolour,dotcolour,xotask,24,0,24,324,training,positivefb,94,average,53,0.7826497000000927,['c'],1,left,['1'],6,0.13253320000012536,,,,,,,,38,24,Vrouw,Rechts,2,
,dotcolour,dotcolour,xotask,25,0,25,325,training,positivefb,86,hard,38,1.2506690999998682,['n'],1,right,['2'],5,0.22134609999966415,,,,,,,,38,24,Vrouw,Rechts,2,
,dotcolour,dotcolour,xotask,26,0,26,326,training,positivefb,87,easy,18,0.6335970000000088,['n'],1,right,['1'],6,0.12291329999970912,,,,,,,,38,24,Vrouw,Rechts,2,
,dotcolour,dotcolour,xotask,27,0,27,327,training,positivefb,97,easy,15,0.7167701000003035,['n'],1,right,['1'],6,0.11423150000018722,,,,,,,,38,24,Vrouw,Rechts,2,
,dotcolour,dotcolour,xotask,28,0,28,328,training,positivefb,64,hard,41,1.00019199999997,['n'],0,left,['2'],5,0.31837659999973766,,,,,,,,38,24,Vrouw,Rechts,2,
,dotcolour,dotcolour,xotask,29,0,29,329,training,positivefb,91,hard,45,1.8339004999997996,['c'],1,left,['3'],4,0.4399616999999125,,,,,,,,38,24,Vrouw,Rechts,2,
,dotcolour,dotcolour,xotask,30,0,30,330,training,positivefb,78,average,26,0.8164919999999256,['n'],1,right,['2'],5,0.18228110000018205,,,,,,,,38,24,Vrouw,Rechts,2,
,dotcolour,dotcolour,xotask,31,0,31,331,training,positivefb,98,average,52,0.9169815999998718,['c'],1,left,['1'],6,0.20237180000003718,,,,,,,,38,24,Vrouw,Rechts,2,
,dotcolour,dotcolour,xotask,32,0,32,332,training,positivefb,84,hard,45,1.06740069999978,['c'],1,left,['2'],5,0.36760869999989154,,,,,,,,38,24,Vrouw,Rechts,2,
,dotcolour,dotcolour,xotask,33,0,33,333,training,positivefb,93,hard,36,1.6161997999997766,['n'],1,right,['3'],4,0.2958537000004071,,,,,,,,38,24,Vrouw,Rechts,2,
,dotcolour,dotcolour,xotask,34,0,34,334,training,positivefb,67,easy,15,0.6166309000000183,['n'],1,right,['1'],6,0.3166320000000269,,,,,,,,38,24,Vrouw,Rechts,2,
,dotcolour,dotcolour,xotask,35,0,35,335,training,positivefb,90,average,25,0.6003969999997025,['n'],1,right,['1'],6,0.18325259999983246,,,,,,,,38,24,Vrouw,Rechts,2,
,dotcolour,dotcolour,xotask,36,0,36,336,training,positivefb,96,hard,42,0.9837712000003194,['c'],1,left,['2'],5,0.22538399999984904,,,,,,,,38,24,Vrouw,Rechts,2,
,dotcolour,dotcolour,xotask,37,0,37,337,training,positivefb,86,average,54,1.083628299999873,['c'],1,left,['2'],5,0.2691855000002761,,,,,,,,38,24,Vrouw,Rechts,2,
,dotcolour,dotcolour,xotask,38,0,38,338,training,positivefb,94,easy,18,0.701552399999855,['n'],1,right,['1'],6,0.08577509999986432,,,,,,,,38,24,Vrouw,Rechts,2,
,dotcolour,dotcolour,xotask,39,0,39,339,training,positivefb,96,easy,64,0.73420410000017,['c'],1,left,['1'],6,0.14181660000031115,,,,,,,,38,24,Vrouw,Rechts,2,
,dotcolour,dotcolour,xotask,40,0,40,340,training,positivefb,94,average,51,0.6015373000000181,['c'],1,left,['1'],6,0.1521656999998413,,,,,,,,38,24,Vrouw,Rechts,2,
,dotcolour,dotcolour,xotask,41,0,41,341,training,positivefb,97,easy,18,0.5166675000000396,['n'],1,right,['1'],6,0.13370009999971444,,,,,,,,38,24,Vrouw,Rechts,2,
,dotcolour,dotcolour,xotask,42,0,42,342,training,positivefb,96,hard,37,0.7169094000000769,['c'],0,right,['1'],6,0.11510600000019622,,,,,,,,38,24,Vrouw,Rechts,2,
,dotcolour,dotcolour,xotask,43,0,43,343,training,positivefb,78,hard,45,1.616912400000274,['c'],1,left,['2'],5,0.1659853999999541,,,,,,,,38,24,Vrouw,Rechts,2,
,dotcolour,dotcolour,xotask,44,0,44,344,training,positivefb,28,hard,36,1.6998724999998558,['c'],0,right,['2'],5,0.5313694999999825,,,,,,,,38,24,Vrouw,Rechts,2,
,dotcolour,dotcolour,xotask,45,0,45,345,training,positivefb,93,easy,18,0.9679850000002261,['n'],1,right,['1'],6,0.11987969999972847,,,,,,,,38,24,Vrouw,Rechts,2,
,dotcolour,dotcolour,xotask,46,0,46,346,training,positivefb,83,average,51,0.7675810000000638,['c'],1,left,['2'],5,0.22791830000005575,,,,,,,,38,24,Vrouw,Rechts,2,
,dotcolour,dotcolour,xotask,47,0,47,347,training,positivefb,85,easy,15,0.7003036000000975,['n'],1,right,['1'],6,0.19174710000015693,,,,,,,,38,24,Vrouw,Rechts,2,
,dotcolour,dotcolour,xotask,48,0,48,348,training,positivefb,98,easy,64,0.6495940999998311,['c'],1,left,['1'],6,0.14235820000021704,,,,,,,,38,24,Vrouw,Rechts,2,
,dotcolour,dotcolour,xotask,49,0,49,349,training,positivefb,81,hard,36,1.233682100000351,['c'],0,right,['2'],5,0.19963200000029246,,,,,,,,38,24,Vrouw,Rechts,2,
,dotcolour,dotcolour,xotask,50,0,50,350,training,positivefb,96,easy,63,1.3669034999998075,['c'],1,left,['1'],6,0.36100679999981367,,,,,,,,38,24,Vrouw,Rechts,2,
,dotcolour,dotcolour,xotask,51,0,51,351,training,positivefb,98,average,25,0.8829743999999664,['n'],1,right,['1'],6,0.1353625000001557,,,,,,,,38,24,Vrouw,Rechts,2,
,dotcolour,dotcolour,xotask,52,0,52,352,training,positivefb,87,average,28,1.1167089999999007,['n'],1,right,['2'],5,0.25396520000003875,,,,,,,,38,24,Vrouw,Rechts,2,
,dotcolour,dotcolour,xotask,53,0,53,353,training,positivefb,96,easy,62,0.632614999999987,['c'],1,left,['1'],6,0.12234450000005381,,,,,,,,38,24,Vrouw,Rechts,2,
,dotcolour,dotcolour,xotask,54,0,54,354,training,positivefb,93,average,53,0.8508326000001034,['c'],1,left,['1'],6,0.18700889999990977,,,,,,,,38,24,Vrouw,Rechts,2,
,dotcolour,dotcolour,xotask,55,0,55,355,training,positivefb,87,hard,36,1.2993016000000353,['n'],1,right,['2'],5,0.20788850000008097,,,,,,,,38,24,Vrouw,Rechts,2,
,dotcolour,dotcolour,xotask,56,0,56,356,training,positivefb,93,easy,61,0.7502464000003783,['c'],1,left,['1'],6,0.14637119999997594,,,,,,,,38,24,Vrouw,Rechts,2,
,dotcolour,dotcolour,xotask,57,0,57,357,training,positivefb,92,easy,62,0.7837329999997564,['c'],1,left,['1'],6,0.15779449999990902,,,,,,,,38,24,Vrouw,Rechts,2,
,dotcolour,dotcolour,xotask,58,0,58,358,training,positivefb,73,hard,41,1.1993557999999211,['n'],0,left,['2'],5,0.49532399999998233,,,,,,,,38,24,Vrouw,Rechts,2,
,dotcolour,dotcolour,xotask,59,0,59,359,training,positivefb,96,average,51,0.6502243999998427,['c'],1,left,['1'],6,0.2106976999998551,,,,,,,,38,24,Vrouw,Rechts,2,
,dotcolour,dotcolour,xotask,0,1,60,360,training,positivefb,90,hard,39,1.8011524999997164,['n'],1,right,['2'],5,0.20330429999967237,,,,,,,,38,24,Vrouw,Rechts,2,
,dotcolour,dotcolour,xotask,1,1,61,361,training,positivefb,96,average,55,0.6000665000001391,['c'],1,left,['1'],6,0.14723380000032193,,,,,,,,38,24,Vrouw,Rechts,2,
,dotcolour,dotcolour,xotask,2,1,62,362,training,positivefb,95,average,53,0.8159432000002198,['c'],1,left,['1'],6,0.565429100000074,,,,,,,,38,24,Vrouw,Rechts,2,
,dotcolour,dotcolour,xotask,3,1,63,363,training,positivefb,92,average,51,0.816626400000132,['c'],1,left,['1'],6,0.17361940000000686,,,,,,,,38,24,Vrouw,Rechts,2,
,dotcolour,dotcolour,xotask,4,1,64,364,training,positivefb,47,hard,36,0.9170477999996365,['c'],0,right,['2'],5,0.8187872000003154,,,,,,,,38,24,Vrouw,Rechts,2,
,dotcolour,dotcolour,xotask,5,1,65,365,training,positivefb,79,hard,45,2.1152933999997003,['n'],0,left,['3'],4,0.24499939999986964,,,,,,,,38,24,Vrouw,Rechts,2,
,dotcolour,dotcolour,xotask,6,1,66,366,training,positivefb,73,hard,38,1.7173471999999492,['n'],1,right,['3'],4,0.2147223000001759,,,,,,,,38,24,Vrouw,Rechts,2,
,dotcolour,dotcolour,xotask,7,1,67,367,training,positivefb,80,average,53,0.7831510999999409,['c'],1,left,['2'],5,0.26273010000022623,,,,,,,,38,24,Vrouw,Rechts,2,
,dotcolour,dotcolour,xotask,8,1,68,368,training,positivefb,84,hard,45,1.3821320000001833,['c'],1,left,['2'],5,0.18176619999985633,,,,,,,,38,24,Vrouw,Rechts,2,
,dotcolour,dotcolour,xotask,9,1,69,369,training,positivefb,95,easy,62,0.8003754999999728,['c'],1,left,['1'],6,0.12582090000023527,,,,,,,,38,24,Vrouw,Rechts,2,
,dotcolour,dotcolour,xotask,10,1,70,370,training,positivefb,99,hard,36,0.8837808999996923,['n'],1,right,['2'],5,0.35042269999985365,,,,,,,,38,24,Vrouw,Rechts,2,
,dotcolour,dotcolour,xotask,11,1,71,371,training,positivefb,96,easy,15,0.7004979000003004,['n'],1,right,['1'],6,0.12453580000010334,,,,,,,,38,24,Vrouw,Rechts,2,
,dotcolour,dotcolour,xotask,12,1,72,372,training,positivefb,76,hard,44,1.2663978999999017,['c'],1,left,['2'],5,0.349260299999969,,,,,,,,38,24,Vrouw,Rechts,2,
,dotcolour,dotcolour,xotask,13,1,73,373,training,positivefb,99,average,26,0.6833166000001256,['n'],1,right,['1'],6,0.6272926999999981,,,,,,,,38,24,Vrouw,Rechts,2,
,dotcolour,dotcolour,xotask,14,1,74,374,training,positivefb,95,easy,16,0.6327121000003899,['n'],1,right,['1'],6,0.1222234000001663,,,,,,,,38,24,Vrouw,Rechts,2,
,dotcolour,dotcolour,xotask,15,1,75,375,training,positivefb,86,hard,42,0.9996377000002212,['n'],0,left,['2'],5,0.16510399999970105,,,,,,,,38,24,Vrouw,Rechts,2,
,dotcolour,dotcolour,xotask,16,1,76,376,training,positivefb,94,hard,42,1.0495490000002974,['c'],1,left,['2'],5,0.38079930000003515,,,,,,,,38,24,Vrouw,Rechts,2,
,dotcolour,dotcolour,xotask,17,1,77,377,training,positivefb,91,easy,65,0.8498984000002565,['c'],1,left,['1'],6,0.21070959999997285,,,,,,,,38,24,Vrouw,Rechts,2,
,dotcolour,dotcolour,xotask,18,1,78,378,training,positivefb,97,easy,65,0.5329911999997421,['c'],1,left,['1'],6,0.1740868000001683,,,,,,,,38,24,Vrouw,Rechts,2,
,dotcolour,dotcolour,xotask,19,1,79,379,training,positivefb,97,easy,64,0.6001869000001534,['c'],1,left,['1'],6,0.1750713999999789,,,,,,,,38,24,Vrouw,Rechts,2,
,dotcolour,dotcolour,xotask,20,1,80,380,training,positivefb,96,average,29,0.7161943999999494,['n'],1,right,['1'],6,0.08389209999995728,,,,,,,,38,24,Vrouw,Rechts,2,
,dotcolour,dotcolour,xotask,21,1,81,381,training,positivefb,85,hard,39,1.966928899999857,['n'],1,right,['2'],5,0.4181800999999723,,,,,,,,38,24,Vrouw,Rechts,2,
,dotcolour,dotcolour,xotask,22,1,82,382,training,positivefb,90,easy,15,0.5832184999999299,['n'],1,right,['1'],6,0.20976569999993444,,,,,,,,38,24,Vrouw,Rechts,2,
,dotcolour,dotcolour,xotask,23,1,83,383,training,positivefb,97,hard,44,0.8675232000000506,['c'],1,left,['8'],3,1.2229237999999896,,,,,,,,38,24,Vrouw,Rechts,2,
,dotcolour,dotcolour,xotask,24,1,84,384,training,positivefb,25,hard,45,3.0670937999998387,['n'],0,left,['3'],4,1.475912100000187,,,,,,,,38,24,Vrouw,Rechts,2,
,dotcolour,dotcolour,xotask,25,1,85,385,training,positivefb,62,hard,37,1.082814800000051,['c'],0,right,['2'],5,0.5006235999999262,,,,,,,,38,24,Vrouw,Rechts,2,
,dotcolour,dotcolour,xotask,26,1,86,386,training,positivefb,92,average,53,1.167191399999865,['c'],1,left,['1'],6,0.39493179999999484,,,,,,,,38,24,Vrouw,Rechts,2,
,dotcolour,dotcolour,xotask,27,1,87,387,training,positivefb,85,hard,42,1.6828333000003113,['c'],1,left,['1'],6,0.3034096999999747,,,,,,,,38,24,Vrouw,Rechts,2,
,dotcolour,dotcolour,xotask,28,1,88,388,training,positivefb,98,easy,63,0.6008229999997639,['c'],1,left,['1'],6,0.18816089999972974,,,,,,,,38,24,Vrouw,Rechts,2,
,dotcolour,dotcolour,xotask,29,1,89,389,training,positivefb,96,easy,15,0.6494290999999066,['n'],1,right,['1'],6,0.13080010000021502,,,,,,,,38,24,Vrouw,Rechts,2,
,dotcolour,dotcolour,xotask,30,1,90,390,training,positivefb,97,easy,65,0.633280300000024,['c'],1,left,['1'],6,0.15703320000011445,,,,,,,,38,24,Vrouw,Rechts,2,
,dotcolour,dotcolour,xotask,31,1,91,391,training,positivefb,99,average,55,0.8668625999998767,['c'],1,left,['1'],6,0.18010450000019773,,,,,,,,38,24,Vrouw,Rechts,2,
,dotcolour,dotcolour,xotask,32,1,92,392,training,positivefb,94,easy,65,0.5659265999997842,['c'],1,left,['1'],6,0.15002050000020972,,,,,,,,38,24,Vrouw,Rechts,2,
,dotcolour,dotcolour,xotask,33,1,93,393,training,positivefb,94,easy,18,0.7165051000001768,['n'],1,right,['1'],6,0.18009900000015477,,,,,,,,38,24,Vrouw,Rechts,2,
,dotcolour,dotcolour,xotask,34,1,94,394,training,positivefb,93,hard,42,1.6996565999997983,['c'],1,left,['2'],5,0.208673699999963,,,,,,,,38,24,Vrouw,Rechts,2,
,dotcolour,dotcolour,xotask,35,1,95,395,training,positivefb,96,easy,61,0.6336676000000807,['c'],1,left,['1'],6,0.11198819999981424,,,,,,,,38,24,Vrouw,Rechts,2,
,dotcolour,dotcolour,xotask,36,1,96,396,training,positivefb,92,average,28,0.7835049000000254,['n'],1,right,['1'],6,0.13201100000014776,,,,,,,,38,24,Vrouw,Rechts,2,
,dotcolour,dotcolour,xotask,37,1,97,397,training,positivefb,91,easy,63,0.5501368999998704,['c'],1,left,['1'],6,0.12065220000022236,,,,,,,,38,24,Vrouw,Rechts,2,
,dotcolour,dotcolour,xotask,38,1,98,398,training,positivefb,98,easy,17,0.6330717000000732,['n'],1,right,['1'],6,0.0830908999996609,,,,,,,,38,24,Vrouw,Rechts,2,
,dotcolour,dotcolour,xotask,39,1,99,399,training,positivefb,95,average,51,0.7000059000001784,['c'],1,left,['1'],6,0.10753850000037346,,,,,,,,38,24,Vrouw,Rechts,2,
,dotcolour,dotcolour,xotask,40,1,100,400,training,positivefb,85,hard,37,1.7007306999998946,['n'],1,right,['2'],5,0.5718074999999772,,,,,,,,38,24,Vrouw,Rechts,2,
,dotcolour,dotcolour,xotask,41,1,101,401,training,positivefb,92,hard,36,0.8662283000003299,['n'],1,right,['2'],5,0.21036469999990004,,,,,,,,38,24,Vrouw,Rechts,2,
,dotcolour,dotcolour,xotask,42,1,102,402,training,positivefb,98,average,25,0.5667088000000149,['n'],1,right,['1'],6,0.2198659000000589,,,,,,,,38,24,Vrouw,Rechts,2,
,dotcolour,dotcolour,xotask,43,1,103,403,training,positivefb,97,average,53,0.6497534999998607,['c'],1,left,['1'],6,0.12916020000011486,,,,,,,,38,24,Vrouw,Rechts,2,
,dotcolour,dotcolour,xotask,44,1,104,404,training,positivefb,97,easy,17,0.6661269000001084,['n'],1,right,['1'],6,0.049874199999976554,,,,,,,,38,24,Vrouw,Rechts,2,
,dotcolour,dotcolour,xotask,45,1,105,405,training,positivefb,94,average,28,0.7670035000001008,['n'],1,right,['1'],6,0.08941920000006576,,,,,,,,38,24,Vrouw,Rechts,2,
,dotcolour,dotcolour,xotask,46,1,106,406,training,positivefb,94,hard,36,0.8178427000002557,['n'],1,right,['1'],6,0.12508819999993648,,,,,,,,38,24,Vrouw,Rechts,2,
,dotcolour,dotcolour,xotask,47,1,107,407,training,positivefb,97,average,27,0.566993100000218,['n'],1,right,['1'],6,0.10635210000009465,,,,,,,,38,24,Vrouw,Rechts,2,
,dotcolour,dotcolour,xotask,48,1,108,408,training,positivefb,96,average,26,0.516419500000211,['n'],1,right,['1'],6,0.09726399999999558,,,,,,,,38,24,Vrouw,Rechts,2,
,dotcolour,dotcolour,xotask,49,1,109,409,training,positivefb,93,hard,36,0.6161624999999731,['n'],1,right,['1'],6,0.02912319999995816,,,,,,,,38,24,Vrouw,Rechts,2,
,dotcolour,dotcolour,xotask,50,1,110,410,training,positivefb,95,easy,15,0.5504995000001145,['n'],1,right,['1'],6,0.07028989999980695,,,,,,,,38,24,Vrouw,Rechts,2,
,dotcolour,dotcolour,xotask,51,1,111,411,training,positivefb,80,average,29,0.5664787000000615,['n'],1,right,['1'],6,0.14897819999987405,,,,,,,,38,24,Vrouw,Rechts,2,
,dotcolour,dotcolour,xotask,52,1,112,412,training,positivefb,95,easy,15,0.5998178999998345,['n'],1,right,['1'],6,0.09506740000006175,,,,,,,,38,24,Vrouw,Rechts,2,
,dotcolour,dotcolour,xotask,53,1,113,413,training,positivefb,87,average,53,1.1661834000001363,['c'],1,left,['2'],5,0.41314199999987977,,,,,,,,38,24,Vrouw,Rechts,2,
,dotcolour,dotcolour,xotask,54,1,114,414,training,positivefb,99,easy,63,0.5005167999997866,['c'],1,left,['1'],6,0.1536482999999862,,,,,,,,38,24,Vrouw,Rechts,2,
,dotcolour,dotcolour,xotask,55,1,115,415,training,positivefb,98,average,27,0.6679153999998562,['n'],1,right,['2'],5,0.5770388000000821,,,,,,,,38,24,Vrouw,Rechts,2,
,dotcolour,dotcolour,xotask,56,1,116,416,training,positivefb,97,easy,17,0.66726030000018,['n'],1,right,['1'],6,0.07138050000003204,,,,,,,,38,24,Vrouw,Rechts,2,
,dotcolour,dotcolour,xotask,57,1,117,417,training,positivefb,88,hard,45,0.9663614000000962,['n'],0,left,['2'],5,0.13357150000001639,,,,,,,,38,24,Vrouw,Rechts,2,
,dotcolour,dotcolour,xotask,58,1,118,418,training,positivefb,84,average,26,0.6164210000001731,['n'],1,right,['1'],6,0.13537540000015724,,,,,,,,38,24,Vrouw,Rechts,2,
,dotcolour,dotcolour,xotask,59,1,119,419,training,positivefb,95,average,52,0.700441999999839,['c'],1,left,['2'],5,0.2948836000000483,,,,,,,,38,24,Vrouw,Rechts,2,
,dotcolour,dotcolour,xotask,0,2,120,420,main,positivefb,-99,easy,18,0.8669637000002695,['n'],1,right,['1'],6,0.13825919999999314,,,,,,,,38,24,Vrouw,Rechts,2,
,dotcolour,dotcolour,xotask,1,2,121,421,main,positivefb,-99,easy,63,0.7168040999999903,['c'],1,left,['1'],6,0.15316519999987577,,,,,,,,38,24,Vrouw,Rechts,2,
,dotcolour,dotcolour,xotask,2,2,122,422,main,positivefb,-99,easy,18,0.7184462999998686,['n'],1,right,['1'],6,0.10353669999994963,,,,,,,,38,24,Vrouw,Rechts,2,
,dotcolour,dotcolour,xotask,3,2,123,423,main,positivefb,-99,easy,63,0.5676136000001861,['c'],1,left,['1'],6,0.1494351999999708,,,,,,,,38,24,Vrouw,Rechts,2,
,dotcolour,dotcolour,xotask,4,2,124,424,main,positivefb,-99,easy,18,0.5843792000000576,['n'],1,right,['1'],6,0.11260799999990923,,,,,,,,38,24,Vrouw,Rechts,2,
,dotcolour,dotcolour,xotask,5,2,125,425,main,positivefb,-99,average,25,0.9503657000000203,['n'],1,right,['1'],6,0.1832878999998684,,,,,,,,38,24,Vrouw,Rechts,2,
,dotcolour,dotcolour,xotask,6,2,126,426,main,positivefb,-99,easy,16,0.6183069999997315,['n'],1,right,['1'],6,0.14388829999961672,,,,,,,,38,24,Vrouw,Rechts,2,
,dotcolour,dotcolour,xotask,7,2,127,427,main,positivefb,-99,easy,63,0.6342125999999553,['c'],1,left,['1'],6,0.17832380000027115,,,,,,,,38,24,Vrouw,Rechts,2,
,dotcolour,dotcolour,xotask,8,2,128,428,main,positivefb,-99,easy,61,0.6682485999999699,['c'],1,left,['1'],6,0.11328370000001087,,,,,,,,38,24,Vrouw,Rechts,2,
,dotcolour,dotcolour,xotask,9,2,129,429,main,positivefb,-99,average,55,0.6186646999999539,['c'],1,left,['1'],6,0.1175185999995847,,,,,,,,38,24,Vrouw,Rechts,2,
,dotcolour,dotcolour,xotask,10,2,130,430,main,positivefb,-99,average,28,1.1335509000000457,['n'],1,right,['2'],5,0.2526068999995914,,,,,,,,38,24,Vrouw,Rechts,2,
,dotcolour,dotcolour,xotask,11,2,131,431,main,positivefb,-99,hard,42,0.9843135000000984,['n'],0,left,['2'],5,0.33896229999982097,,,,,,,,38,24,Vrouw,Rechts,2,
,dotcolour,dotcolour,xotask,12,2,132,432,main,positivefb,-99,easy,16,0.7005807000000459,['n'],1,right,['1'],6,0.14684289999968314,,,,,,,,38,24,Vrouw,Rechts,2,
,dotcolour,dotcolour,xotask,13,2,133,433,main,positivefb,-99,average,29,0.7508158000000549,['n'],1,right,['1'],6,0.15201109999998152,,,,,,,,38,24,Vrouw,Rechts,2,
,dotcolour,dotcolour,xotask,14,2,134,434,main,positivefb,-99,hard,36,0.749574500000108,['n'],1,right,['2'],5,0.14842900000030568,,,,,,,,38,24,Vrouw,Rechts,2,
,dotcolour,dotcolour,xotask,15,2,135,435,main,positivefb,-99,average,54,1.0850258999998914,['c'],1,left,['1'],6,2.3717867999998816,,,,,,,,38,24,Vrouw,Rechts,2,
,dotcolour,dotcolour,xotask,16,2,136,436,main,positivefb,-99,easy,17,1.3504743000003145,['n'],1,right,['1'],6,0.11982510000007096,,,,,,,,38,24,Vrouw,Rechts,2,
,dotcolour,dotcolour,xotask,17,2,137,437,main,positivefb,-99,average,53,0.6516010999998798,['c'],1,left,['1'],6,0.16999349999969127,,,,,,,,38,24,Vrouw,Rechts,2,
,dotcolour,dotcolour,xotask,18,2,138,438,main,positivefb,-99,hard,42,1.1328444999999192,['c'],1,left,['2'],5,0.21426359999986744,,,,,,,,38,24,Vrouw,Rechts,2,
,dotcolour,dotcolour,xotask,19,2,139,439,main,positivefb,-99,easy,65,0.6176163999998607,['c'],1,left,['1'],6,0.14175979999981791,,,,,,,,38,24,Vrouw,Rechts,2,
,dotcolour,dotcolour,xotask,20,2,140,440,main,positivefb,-99,average,29,0.6174654999999802,['n'],1,right,['1'],6,0.608936900000117,,,,,,,,38,24,Vrouw,Rechts,2,
,dotcolour,dotcolour,xotask,21,2,141,441,main,positivefb,-99,average,28,0.5502599999999802,['n'],1,right,['1'],6,0.17932239999981903,,,,,,,,38,24,Vrouw,Rechts,2,
,dotcolour,dotcolour,xotask,22,2,142,442,main,positivefb,-99,hard,43,1.5353484000002027,['c'],1,left,['2'],5,0.18408649999992122,,,,,,,,38,24,Vrouw,Rechts,2,
,dotcolour,dotcolour,xotask,23,2,143,443,main,positivefb,-99,hard,42,1.299989000000096,['c'],1,left,['2'],5,0.19754899999998088,,,,,,,,38,24,Vrouw,Rechts,2,
,dotcolour,dotcolour,xotask,24,2,144,444,main,positivefb,-99,hard,45,1.518002300000262,['c'],1,left,['2'],5,0.3783031999996638,,,,,,,,38,24,Vrouw,Rechts,2,
,dotcolour,dotcolour,xotask,25,2,145,445,main,positivefb,-99,hard,37,1.7177084999998442,['c'],0,right,['2'],5,0.22331480000002557,,,,,,,,38,24,Vrouw,Rechts,2,
,dotcolour,dotcolour,xotask,26,2,146,446,main,positivefb,-99,average,26,0.9008976000000075,['n'],1,right,['2'],5,0.2760198000000855,,,,,,,,38,24,Vrouw,Rechts,2,
,dotcolour,dotcolour,xotask,27,2,147,447,main,positivefb,-99,hard,42,1.7011560999999347,['n'],0,left,['3'],4,0.17331190000004426,,,,,,,,38,24,Vrouw,Rechts,2,
,dotcolour,dotcolour,xotask,28,2,148,448,main,positivefb,-99,easy,15,0.7847302000000127,['n'],1,right,['1'],6,0.1446136999998089,,,,,,,,38,24,Vrouw,Rechts,2,
,dotcolour,dotcolour,xotask,29,2,149,449,main,positivefb,-99,easy,65,0.7843567999998413,['c'],1,left,['1'],6,0.13192019999996774,,,,,,,,38,24,Vrouw,Rechts,2,
,dotcolour,dotcolour,xotask,30,2,150,450,main,positivefb,-99,average,54,0.9845694000000549,['c'],1,left,['2'],5,0.32770879999998215,,,,,,,,38,24,Vrouw,Rechts,2,
,dotcolour,dotcolour,xotask,31,2,151,451,main,positivefb,-99,hard,36,1.8009586000002855,['c'],0,right,['2'],5,0.3718678000000182,,,,,,,,38,24,Vrouw,Rechts,2,
,dotcolour,dotcolour,xotask,32,2,152,452,main,positivefb,-99,average,28,1.501282799999899,['n'],1,right,['3'],4,0.3938420999998016,,,,,,,,38,24,Vrouw,Rechts,2,
,dotcolour,dotcolour,xotask,33,2,153,453,main,positivefb,-99,hard,36,0.9168598000001111,['n'],1,right,['3'],4,0.4466219999999339,,,,,,,,38,24,Vrouw,Rechts,2,
,dotcolour,dotcolour,xotask,34,2,154,454,main,positivefb,-99,hard,45,0.8340099000001828,['c'],1,left,['2'],5,0.2283730999997715,,,,,,,,38,24,Vrouw,Rechts,2,
,dotcolour,dotcolour,xotask,35,2,155,455,main,positivefb,-99,hard,37,1.250113400000373,['n'],1,right,['2'],5,0.27492990000018835,,,,,,,,38,24,Vrouw,Rechts,2,
,dotcolour,dotcolour,xotask,36,2,156,456,main,positivefb,-99,easy,65,0.7512778999998773,['c'],1,left,['1'],6,0.17859009999983755,,,,,,,,38,24,Vrouw,Rechts,2,
,dotcolour,dotcolour,xotask,37,2,157,457,main,positivefb,-99,easy,64,0.6343216000000211,['c'],1,left,['1'],6,0.1392255999999179,,,,,,,,38,24,Vrouw,Rechts,2,
,dotcolour,dotcolour,xotask,38,2,158,458,main,positivefb,-99,hard,39,1.2182526999999936,['n'],1,right,['1'],6,0.7265301000002182,,,,,,,,38,24,Vrouw,Rechts,2,
,dotcolour,dotcolour,xotask,39,2,159,459,main,positivefb,-99,average,55,0.734858599999825,['c'],1,left,['1'],6,0.19671949999974458,,,,,,,,38,24,Vrouw,Rechts,2,
,dotcolour,dotcolour,xotask,40,2,160,460,main,positivefb,-99,average,29,0.718154499999855,['n'],1,right,['1'],6,0.5133584999998675,,,,,,,,38,24,Vrouw,Rechts,2,
,dotcolour,dotcolour,xotask,41,2,161,461,main,positivefb,-99,average,29,0.7844509000001381,['n'],1,right,['1'],6,0.6233237000001282,,,,,,,,38,24,Vrouw,Rechts,2,
,dotcolour,dotcolour,xotask,42,2,162,462,main,positivefb,-99,average,53,0.8659941000000799,['c'],1,left,['2'],5,0.3323278000002574,,,,,,,,38,24,Vrouw,Rechts,2,
,dotcolour,dotcolour,xotask,43,2,163,463,main,positivefb,-99,hard,45,2.1176900000000387,['n'],0,left,['2'],5,0.5384441999999581,,,,,,,,38,24,Vrouw,Rechts,2,
,dotcolour,dotcolour,xotask,44,2,164,464,main,positivefb,-99,hard,35,0.984268400000019,['n'],1,right,['2'],5,0.2626605999998901,,,,,,,,38,24,Vrouw,Rechts,2,
,dotcolour,dotcolour,xotask,45,2,165,465,main,positivefb,-99,hard,44,1.8672154999999293,['c'],1,left,['2'],5,1.0905785999998443,,,,,,,,38,24,Vrouw,Rechts,2,
,dotcolour,dotcolour,xotask,46,2,166,466,main,positivefb,-99,average,52,0.7686193999998068,['c'],1,left,['2'],5,0.3134720000002744,,,,,,,,38,24,Vrouw,Rechts,2,
,dotcolour,dotcolour,xotask,47,2,167,467,main,positivefb,-99,average,52,0.967109199999868,['c'],1,left,['2'],5,0.3990266000000702,,,,,,,,38,24,Vrouw,Rechts,2,
,dotcolour,dotcolour,xotask,48,2,168,468,main,positivefb,-99,easy,61,0.6507251999996697,['c'],1,left,['1'],6,0.24603079999997135,,,,,,,,38,24,Vrouw,Rechts,2,
,dotcolour,dotcolour,xotask,49,2,169,469,main,positivefb,-99,average,54,0.518565800000033,['c'],1,left,['1'],6,0.2002428000000691,,,,,,,,38,24,Vrouw,Rechts,2,
,dotcolour,dotcolour,xotask,50,2,170,470,main,positivefb,-99,average,28,0.7344061000003421,['n'],1,right,['1'],6,0.187880700000278,,,,,,,,38,24,Vrouw,Rechts,2,
,dotcolour,dotcolour,xotask,51,2,171,471,main,positivefb,-99,easy,61,0.6174283999998806,['c'],1,left,['1'],6,0.22029299999985597,,,,,,,,38,24,Vrouw,Rechts,2,
,dotcolour,dotcolour,xotask,52,2,172,472,main,positivefb,-99,easy,15,0.5838027999998303,['n'],1,right,['1'],6,0.22941089999994801,,,,,,,,38,24,Vrouw,Rechts,2,
,dotcolour,dotcolour,xotask,53,2,173,473,main,positivefb,-99,easy,16,0.5844025999999758,['n'],1,right,['1'],6,0.2694959000000381,,,,,,,,38,24,Vrouw,Rechts,2,
,dotcolour,dotcolour,xotask,54,2,174,474,main,positivefb,-99,hard,44,1.301133899999968,['c'],1,left,['2'],5,0.3524065999999948,,,,,,,,38,24,Vrouw,Rechts,2,
,dotcolour,dotcolour,xotask,55,2,175,475,main,positivefb,-99,average,52,0.8676900000000387,['c'],1,left,['1'],6,0.2404935999998088,,,,,,,,38,24,Vrouw,Rechts,2,
,dotcolour,dotcolour,xotask,56,2,176,476,main,positivefb,-99,easy,16,0.6845502000001034,['n'],1,right,['1'],6,0.13212350000003426,,,,,,,,38,24,Vrouw,Rechts,2,
,dotcolour,dotcolour,xotask,57,2,177,477,main,positivefb,-99,hard,36,1.2339814000001752,['n'],1,right,['1'],6,0.5417359000002762,,,,,,,,38,24,Vrouw,Rechts,2,
,dotcolour,dotcolour,xotask,58,2,178,478,main,positivefb,-99,hard,38,1.083849299999656,['n'],1,right,['2'],5,0.21352650000017093,,,,,,,,38,24,Vrouw,Rechts,2,
,dotcolour,dotcolour,xotask,59,2,179,479,main,positivefb,-99,hard,38,1.0839292000000569,['n'],1,right,['2'],5,0.24346570000034262,,,,,,,,38,24,Vrouw,Rechts,2,
,dotcolour,dotcolour,xotask,0,3,180,480,main,positivefb,-99,easy,61,0.8176945999998679,['c'],1,left,['1'],6,0.19041710000010426,,,,,,,,38,24,Vrouw,Rechts,2,
,dotcolour,dotcolour,xotask,1,3,181,481,main,positivefb,-99,average,54,0.5507593999996061,['c'],1,left,['1'],6,0.12096599999995306,,,,,,,,38,24,Vrouw,Rechts,2,
,dotcolour,dotcolour,xotask,2,3,182,482,main,positivefb,-99,easy,15,0.5672275999995691,['n'],1,right,['1'],6,0.1103371999997762,,,,,,,,38,24,Vrouw,Rechts,2,
,dotcolour,dotcolour,xotask,3,3,183,483,main,positivefb,-99,average,28,0.5007961999999679,['n'],1,right,['1'],6,0.08781640000006519,,,,,,,,38,24,Vrouw,Rechts,2,
,dotcolour,dotcolour,xotask,4,3,184,484,main,positivefb,-99,average,25,0.5340573000003133,['n'],1,right,['1'],6,0.14305500000000393,,,,,,,,38,24,Vrouw,Rechts,2,
,dotcolour,dotcolour,xotask,5,3,185,485,main,positivefb,-99,average,51,0.9171897999999601,['c'],1,left,['2'],5,0.1825106000001142,,,,,,,,38,24,Vrouw,Rechts,2,
,dotcolour,dotcolour,xotask,6,3,186,486,main,positivefb,-99,hard,45,0.5508533000001989,['c'],1,left,['2'],5,0.13716889999977866,,,,,,,,38,24,Vrouw,Rechts,2,
,dotcolour,dotcolour,xotask,7,3,187,487,main,positivefb,-99,easy,63,0.633227799999986,['c'],1,left,['1'],6,0.17145930000015142,,,,,,,,38,24,Vrouw,Rechts,2,
,dotcolour,dotcolour,xotask,8,3,188,488,main,positivefb,-99,easy,15,0.734581100000014,['n'],1,right,['1'],6,0.7520105999997213,,,,,,,,38,24,Vrouw,Rechts,2,
,dotcolour,dotcolour,xotask,9,3,189,489,main,positivefb,-99,hard,39,0.9673634000000675,['n'],1,right,['2'],5,0.14861309999969308,,,,,,,,38,24,Vrouw,Rechts,2,
,dotcolour,dotcolour,xotask,10,3,190,490,main,positivefb,-99,hard,42,1.2337163000001965,['c'],1,left,['1'],6,0.589434799999708,,,,,,,,38,24,Vrouw,Rechts,2,
,dotcolour,dotcolour,xotask,11,3,191,491,main,positivefb,-99,average,29,0.7674375999999938,['n'],1,right,['2'],5,0.26374040000018795,,,,,,,,38,24,Vrouw,Rechts,2,
,dotcolour,dotcolour,xotask,12,3,192,492,main,positivefb,-99,average,28,0.6177570999998352,['n'],1,right,['1'],6,0.29448009999987335,,,,,,,,38,24,Vrouw,Rechts,2,
,dotcolour,dotcolour,xotask,13,3,193,493,main,positivefb,-99,hard,38,0.867541699999947,['n'],1,right,['1'],6,0.2807460999997602,,,,,,,,38,24,Vrouw,Rechts,2,
,dotcolour,dotcolour,xotask,14,3,194,494,main,positivefb,-99,easy,63,0.6182937999997193,['c'],1,left,['1'],6,0.174350300000242,,,,,,,,38,24,Vrouw,Rechts,2,
,dotcolour,dotcolour,xotask,15,3,195,495,main,positivefb,-99,hard,37,0.7338220000001456,['n'],1,right,['2'],5,0.13815169999998034,,,,,,,,38,24,Vrouw,Rechts,2,
,dotcolour,dotcolour,xotask,16,3,196,496,main,positivefb,-99,average,55,0.799758699999984,['c'],1,left,['1'],6,0.17416420000017752,,,,,,,,38,24,Vrouw,Rechts,2,
,dotcolour,dotcolour,xotask,17,3,197,497,main,positivefb,-99,easy,65,0.683980999999676,['c'],1,left,['1'],6,0.21277639999971143,,,,,,,,38,24,Vrouw,Rechts,2,
,dotcolour,dotcolour,xotask,18,3,198,498,main,positivefb,-99,hard,38,0.900786799999878,['n'],1,right,['1'],6,0.28923240000040096,,,,,,,,38,24,Vrouw,Rechts,2,
,dotcolour,dotcolour,xotask,19,3,199,499,main,positivefb,-99,hard,39,1.418073899999854,['n'],1,right,['2'],5,0.09412199999997028,,,,,,,,38,24,Vrouw,Rechts,2,
,dotcolour,dotcolour,xotask,20,3,200,500,main,positivefb,-99,easy,63,0.5666666000001896,['c'],1,left,['1'],6,0.11703429999988657,,,,,,,,38,24,Vrouw,Rechts,2,
,dotcolour,dotcolour,xotask,21,3,201,501,main,positivefb,-99,hard,42,1.6848009999998794,['n'],0,left,['3'],4,0.4452799999999115,,,,,,,,38,24,Vrouw,Rechts,2,
,dotcolour,dotcolour,xotask,22,3,202,502,main,positivefb,-99,easy,65,0.7345869000000675,['c'],1,left,['1'],6,0.2471187999999529,,,,,,,,38,24,Vrouw,Rechts,2,
,dotcolour,dotcolour,xotask,23,3,203,503,main,positivefb,-99,average,51,1.4010699999998906,['c'],1,left,['2'],5,0.39924080000037065,,,,,,,,38,24,Vrouw,Rechts,2,
,dotcolour,dotcolour,xotask,24,3,204,504,main,positivefb,-99,easy,17,0.6848981000002823,['n'],1,right,['1'],6,0.18009890000030282,,,,,,,,38,24,Vrouw,Rechts,2,
,dotcolour,dotcolour,xotask,25,3,205,505,main,positivefb,-99,hard,41,1.000886199999968,['n'],0,left,['2'],5,0.15008499999976266,,,,,,,,38,24,Vrouw,Rechts,2,
,dotcolour,dotcolour,xotask,26,3,206,506,main,positivefb,-99,average,27,0.6678123000001506,['n'],1,right,['2'],5,0.1896990000000187,,,,,,,,38,24,Vrouw,Rechts,2,
,dotcolour,dotcolour,xotask,27,3,207,507,main,positivefb,-99,average,53,0.7344656999998733,['c'],1,left,['2'],5,0.6016768999998021,,,,,,,,38,24,Vrouw,Rechts,2,
,dotcolour,dotcolour,xotask,28,3,208,508,main,positivefb,-99,hard,45,1.1175444000000425,['c'],1,left,['2'],5,0.15836039999976492,,,,,,,,38,24,Vrouw,Rechts,2,
,dotcolour,dotcolour,xotask,29,3,209,509,main,positivefb,-99,average,25,0.6351672999999209,['n'],1,right,['1'],6,0.16733389999990322,,,,,,,,38,24,Vrouw,Rechts,2,
,dotcolour,dotcolour,xotask,30,3,210,510,main,positivefb,-99,easy,19,0.46817890000011175,['n'],1,right,['1'],6,0.11894010000014532,,,,,,,,38,24,Vrouw,Rechts,2,
,dotcolour,dotcolour,xotask,31,3,211,511,main,positivefb,-99,hard,41,1.0671473000002152,['c'],1,left,['2'],5,0.4961750999996184,,,,,,,,38,24,Vrouw,Rechts,2,
,dotcolour,dotcolour,xotask,32,3,212,512,main,positivefb,-99,easy,17,0.7011503000003358,['n'],1,right,['1'],6,0.2171969999999419,,,,,,,,38,24,Vrouw,Rechts,2,
,dotcolour,dotcolour,xotask,33,3,213,513,main,positivefb,-99,average,54,0.6680289999999331,['c'],1,left,['1'],6,0.17521390000001702,,,,,,,,38,24,Vrouw,Rechts,2,
,dotcolour,dotcolour,xotask,34,3,214,514,main,positivefb,-99,easy,61,0.6515552000000753,['c'],1,left,['1'],6,0.1989851000003,,,,,,,,38,24,Vrouw,Rechts,2,
,dotcolour,dotcolour,xotask,35,3,215,515,main,positivefb,-99,easy,15,0.6841519999998127,['n'],1,right,['1'],6,0.22006129999999757,,,,,,,,38,24,Vrouw,Rechts,2,
,dotcolour,dotcolour,xotask,36,3,216,516,main,positivefb,-99,hard,38,1.2845545999998649,['n'],1,right,['2'],5,0.2410334999999577,,,,,,,,38,24,Vrouw,Rechts,2,
,dotcolour,dotcolour,xotask,37,3,217,517,main,positivefb,-99,hard,42,2.2501870999999483,['c'],1,left,['2'],5,0.6542873999997028,,,,,,,,38,24,Vrouw,Rechts,2,
,dotcolour,dotcolour,xotask,38,3,218,518,main,positivefb,-99,average,53,1.3348218999999517,['c'],1,left,['2'],5,0.16733460000023115,,,,,,,,38,24,Vrouw,Rechts,2,
,dotcolour,dotcolour,xotask,39,3,219,519,main,positivefb,-99,average,55,0.6841463999999178,['c'],1,left,['1'],6,0.18205130000023928,,,,,,,,38,24,Vrouw,Rechts,2,
,dotcolour,dotcolour,xotask,40,3,220,520,main,positivefb,-99,easy,16,0.583458900000096,['n'],1,right,['1'],6,0.1682593000000452,,,,,,,,38,24,Vrouw,Rechts,2,
,dotcolour,dotcolour,xotask,41,3,221,521,main,positivefb,-99,hard,38,0.9667010000002847,['n'],1,right,['2'],5,0.23554999999987558,,,,,,,,38,24,Vrouw,Rechts,2,
,dotcolour,dotcolour,xotask,42,3,222,522,main,positivefb,-99,easy,18,0.5679273000000649,['n'],1,right,['1'],6,0.33219969999981913,,,,,,,,38,24,Vrouw,Rechts,2,
,dotcolour,dotcolour,xotask,43,3,223,523,main,positivefb,-99,average,25,0.4830437999999049,['n'],1,right,['1'],6,0.23684570000023086,,,,,,,,38,24,Vrouw,Rechts,2,
,dotcolour,dotcolour,xotask,44,3,224,524,main,positivefb,-99,easy,61,1.034496499999932,['c'],1,left,['1'],6,0.2258600000000115,,,,,,,,38,24,Vrouw,Rechts,2,
,dotcolour,dotcolour,xotask,45,3,225,525,main,positivefb,-99,average,28,0.8514574000000721,['n'],1,right,['1'],6,0.8004703999999947,,,,,,,,38,24,Vrouw,Rechts,2,
,dotcolour,dotcolour,xotask,46,3,226,526,main,positivefb,-99,hard,42,1.3664606000002095,['n'],0,left,['1'],6,0.2977469000002202,,,,,,,,38,24,Vrouw,Rechts,2,
,dotcolour,dotcolour,xotask,47,3,227,527,main,positivefb,-99,easy,63,0.816570099999808,['c'],1,left,['1'],6,0.8702545999999529,,,,,,,,38,24,Vrouw,Rechts,2,
,dotcolour,dotcolour,xotask,48,3,228,528,main,positivefb,-99,hard,37,1.5506877000002532,['n'],1,right,['2'],5,0.39827809999997044,,,,,,,,38,24,Vrouw,Rechts,2,
,dotcolour,dotcolour,xotask,49,3,229,529,main,positivefb,-99,hard,37,1.5515869999999268,['n'],1,right,['3'],4,0.6890051999998832,,,,,,,,38,24,Vrouw,Rechts,2,
,dotcolour,dotcolour,xotask,50,3,230,530,main,positivefb,-99,easy,17,1.050659099999848,['n'],1,right,['1'],6,0.2927097000001595,,,,,,,,38,24,Vrouw,Rechts,2,
,dotcolour,dotcolour,xotask,51,3,231,531,main,positivefb,-99,easy,15,0.4340901999999005,['n'],1,right,['1'],6,0.17650200000025507,,,,,,,,38,24,Vrouw,Rechts,2,
,dotcolour,dotcolour,xotask,52,3,232,532,main,positivefb,-99,hard,39,1.3348511999997754,['c'],0,right,['2'],5,0.18845989999999802,,,,,,,,38,24,Vrouw,Rechts,2,
,dotcolour,dotcolour,xotask,53,3,233,533,main,positivefb,-99,hard,42,0.9178060999997797,['c'],1,left,['2'],5,0.1610160000000178,,,,,,,,38,24,Vrouw,Rechts,2,
,dotcolour,dotcolour,xotask,54,3,234,534,main,positivefb,-99,hard,44,1.7011846000000332,['c'],1,left,['2'],5,0.7364182999999684,,,,,,,,38,24,Vrouw,Rechts,2,
,dotcolour,dotcolour,xotask,55,3,235,535,main,positivefb,-99,average,25,1.1338278000002902,['n'],1,right,['2'],5,0.2866260000000693,,,,,,,,38,24,Vrouw,Rechts,2,
,dotcolour,dotcolour,xotask,56,3,236,536,main,positivefb,-99,average,26,0.5009974999998121,['n'],1,right,['1'],6,0.1839386999999988,,,,,,,,38,24,Vrouw,Rechts,2,
,dotcolour,dotcolour,xotask,57,3,237,537,main,positivefb,-99,easy,64,0.684274600000208,['c'],1,left,['1'],6,0.14100009999992835,,,,,,,,38,24,Vrouw,Rechts,2,
,dotcolour,dotcolour,xotask,58,3,238,538,main,positivefb,-99,average,52,0.7182729999999538,['c'],1,left,['1'],6,0.18853619999981674,,,,,,,,38,24,Vrouw,Rechts,2,
,dotcolour,dotcolour,xotask,59,3,239,539,main,positivefb,-99,average,52,0.7842912999999498,['c'],1,left,['1'],6,0.42265739999993457,,,,,,,,38,24,Vrouw,Rechts,2,
,dotcolour,dotcolour,xotask,0,4,240,540,main,positivefb,-99,average,29,1.0836464000003616,['n'],1,right,['1'],6,0.5469468000001143,,,,,,,,38,24,Vrouw,Rechts,2,
,dotcolour,dotcolour,xotask,1,4,241,541,main,positivefb,-99,easy,65,0.619112800000039,['c'],1,left,['1'],6,0.1644503999996232,,,,,,,,38,24,Vrouw,Rechts,2,
,dotcolour,dotcolour,xotask,2,4,242,542,main,positivefb,-99,easy,19,0.6342838000000484,['n'],1,right,['1'],6,0.1655706999999893,,,,,,,,38,24,Vrouw,Rechts,2,
,dotcolour,dotcolour,xotask,3,4,243,543,main,positivefb,-99,hard,42,0.7511137999999846,['n'],0,left,['1'],6,0.18538989999979094,,,,,,,,38,24,Vrouw,Rechts,2,
,dotcolour,dotcolour,xotask,4,4,244,544,main,positivefb,-99,hard,42,1.6177631999998994,['c'],1,left,['2'],5,0.4504882999999609,,,,,,,,38,24,Vrouw,Rechts,2,
,dotcolour,dotcolour,xotask,5,4,245,545,main,positivefb,-99,easy,62,0.8169820000002801,['c'],1,left,['1'],6,0.17626170000039565,,,,,,,,38,24,Vrouw,Rechts,2,
,dotcolour,dotcolour,xotask,6,4,246,546,main,positivefb,-99,easy,15,1.0009244999996554,['n'],1,right,['1'],6,0.427140899999813,,,,,,,,38,24,Vrouw,Rechts,2,
,dotcolour,dotcolour,xotask,7,4,247,547,main,positivefb,-99,hard,36,0.9506205999996382,['n'],1,right,['2'],5,0.22044539999978952,,,,,,,,38,24,Vrouw,Rechts,2,
,dotcolour,dotcolour,xotask,8,4,248,548,main,positivefb,-99,average,26,0.6169889000002513,['n'],1,right,['2'],5,0.11580940000021656,,,,,,,,38,24,Vrouw,Rechts,2,
,dotcolour,dotcolour,xotask,9,4,249,549,main,positivefb,-99,hard,44,0.8515449999999873,['c'],1,left,['2'],5,0.2696074000000408,,,,,,,,38,24,Vrouw,Rechts,2,
,dotcolour,dotcolour,xotask,10,4,250,550,main,positivefb,-99,average,25,0.5682802999999694,['n'],1,right,['2'],5,0.2365844000000834,,,,,,,,38,24,Vrouw,Rechts,2,
,dotcolour,dotcolour,xotask,11,4,251,551,main,positivefb,-99,hard,39,1.4508197999998629,['c'],0,right,['2'],5,0.22625010000001566,,,,,,,,38,24,Vrouw,Rechts,2,
,dotcolour,dotcolour,xotask,12,4,252,552,main,positivefb,-99,average,25,0.6185478000002149,['n'],1,right,['1'],6,0.09700889999976425,,,,,,,,38,24,Vrouw,Rechts,2,
,dotcolour,dotcolour,xotask,13,4,253,553,main,positivefb,-99,easy,19,0.5514401000000362,['n'],1,right,['1'],6,0.11246950000031575,,,,,,,,38,24,Vrouw,Rechts,2,
,dotcolour,dotcolour,xotask,14,4,254,554,main,positivefb,-99,hard,41,1.3510401000003185,['c'],1,left,['2'],5,0.19983810000030644,,,,,,,,38,24,Vrouw,Rechts,2,
,dotcolour,dotcolour,xotask,15,4,255,555,main,positivefb,-99,average,54,0.6347820000000866,['c'],1,left,['2'],5,0.20690090000016426,,,,,,,,38,24,Vrouw,Rechts,2,
,dotcolour,dotcolour,xotask,16,4,256,556,main,positivefb,-99,hard,36,1.6188474000000497,['c'],0,right,['2'],5,0.1989846999999827,,,,,,,,38,24,Vrouw,Rechts,2,
,dotcolour,dotcolour,xotask,17,4,257,557,main,positivefb,-99,hard,35,5.50070390000019,['c'],0,right,['3'],4,0.4997953000001871,,,,,,,,38,24,Vrouw,Rechts,2,
,dotcolour,dotcolour,xotask,18,4,258,558,main,positivefb,-99,average,53,0.7008722999999009,['c'],1,left,['1'],6,0.22798939999984214,,,,,,,,38,24,Vrouw,Rechts,2,
,dotcolour,dotcolour,xotask,19,4,259,559,main,positivefb,-99,easy,62,0.6171975000002021,['c'],1,left,['1'],6,0.25196219999997993,,,,,,,,38,24,Vrouw,Rechts,2,
,dotcolour,dotcolour,xotask,20,4,260,560,main,positivefb,-99,easy,16,0.667870799999946,['n'],1,right,['1'],6,0.167570699999942,,,,,,,,38,24,Vrouw,Rechts,2,
,dotcolour,dotcolour,xotask,21,4,261,561,main,positivefb,-99,average,25,0.56779940000024,['n'],1,right,['1'],6,0.21085360000006403,,,,,,,,38,24,Vrouw,Rechts,2,
,dotcolour,dotcolour,xotask,22,4,262,562,main,positivefb,-99,hard,44,0.950334500000281,['n'],0,left,['2'],5,0.6464114999998856,,,,,,,,38,24,Vrouw,Rechts,2,
,dotcolour,dotcolour,xotask,23,4,263,563,main,positivefb,-99,hard,35,1.185102999999799,['n'],1,right,['2'],5,0.23790510000026188,,,,,,,,38,24,Vrouw,Rechts,2,
,dotcolour,dotcolour,xotask,24,4,264,564,main,positivefb,-99,average,55,0.6675890000001345,['c'],1,left,['1'],6,0.37037610000015775,,,,,,,,38,24,Vrouw,Rechts,2,
,dotcolour,dotcolour,xotask,25,4,265,565,main,positivefb,-99,easy,15,0.6673037999998996,['n'],1,right,['1'],6,0.17783260000032897,,,,,,,,38,24,Vrouw,Rechts,2,
,dotcolour,dotcolour,xotask,26,4,266,566,main,positivefb,-99,average,52,0.651106400000117,['n'],0,left,['1'],6,0.178229999999985,,,,,,,,38,24,Vrouw,Rechts,2,
,dotcolour,dotcolour,xotask,27,4,267,567,main,positivefb,-99,easy,62,0.7837312000001475,['n'],0,left,['1'],6,0.29999720000023444,,,,,,,,38,24,Vrouw,Rechts,2,
,dotcolour,dotcolour,xotask,28,4,268,568,main,positivefb,-99,hard,43,1.0515185999997811,['n'],0,left,['2'],5,0.22321599999986574,,,,,,,,38,24,Vrouw,Rechts,2,
,dotcolour,dotcolour,xotask,29,4,269,569,main,positivefb,-99,average,55,0.8175922000000355,['c'],1,left,['2'],5,0.26220599999987826,,,,,,,,38,24,Vrouw,Rechts,2,
,dotcolour,dotcolour,xotask,30,4,270,570,main,positivefb,-99,average,27,0.9681034000000182,['n'],1,right,['2'],5,0.22225029999981416,,,,,,,,38,24,Vrouw,Rechts,2,
,dotcolour,dotcolour,xotask,31,4,271,571,main,positivefb,-99,hard,36,1.1336326000000554,['c'],0,right,['2'],5,0.1293574000001172,,,,,,,,38,24,Vrouw,Rechts,2,
,dotcolour,dotcolour,xotask,32,4,272,572,main,positivefb,-99,hard,42,0.9347821999999724,['c'],1,left,['2'],5,0.15135830000008355,,,,,,,,38,24,Vrouw,Rechts,2,
,dotcolour,dotcolour,xotask,33,4,273,573,main,positivefb,-99,average,25,0.8177601000002142,['n'],1,right,['2'],5,0.6503333999999086,,,,,,,,38,24,Vrouw,Rechts,2,
,dotcolour,dotcolour,xotask,34,4,274,574,main,positivefb,-99,hard,42,3.0014972999997553,['c'],1,left,['3'],4,0.8957781999997678,,,,,,,,38,24,Vrouw,Rechts,2,
,dotcolour,dotcolour,xotask,35,4,275,575,main,positivefb,-99,easy,63,0.7504481000000851,['c'],1,left,['1'],6,0.511256300000241,,,,,,,,38,24,Vrouw,Rechts,2,
,dotcolour,dotcolour,xotask,36,4,276,576,main,positivefb,-99,easy,64,0.48388410000006843,['c'],1,left,['1'],6,0.18453599999975268,,,,,,,,38,24,Vrouw,Rechts,2,
,dotcolour,dotcolour,xotask,37,4,277,577,main,positivefb,-99,easy,16,0.6172562000001562,['n'],1,right,['1'],6,0.13861660000020493,,,,,,,,38,24,Vrouw,Rechts,2,
,dotcolour,dotcolour,xotask,38,4,278,578,main,positivefb,-99,easy,16,0.6506494999998722,['n'],1,right,['1'],6,0.2032285000000229,,,,,,,,38,24,Vrouw,Rechts,2,
,dotcolour,dotcolour,xotask,39,4,279,579,main,positivefb,-99,easy,17,0.600625300000047,['n'],1,right,['1'],6,0.2758324999999786,,,,,,,,38,24,Vrouw,Rechts,2,
,dotcolour,dotcolour,xotask,40,4,280,580,main,positivefb,-99,hard,39,2.5186712999998235,['n'],1,right,['3'],4,0.2370480999998108,,,,,,,,38,24,Vrouw,Rechts,2,
,dotcolour,dotcolour,xotask,41,4,281,581,main,positivefb,-99,easy,16,0.6176354999997784,['n'],1,right,['2'],5,0.19577329999992799,,,,,,,,38,24,Vrouw,Rechts,2,
,dotcolour,dotcolour,xotask,42,4,282,582,main,positivefb,-99,average,27,0.7503652999998849,['n'],1,right,['1'],6,0.15082199999960721,,,,,,,,38,24,Vrouw,Rechts,2,
,dotcolour,dotcolour,xotask,43,4,283,583,main,positivefb,-99,average,29,0.8849273999999241,['n'],1,right,['1'],6,0.22249980000015057,,,,,,,,38,24,Vrouw,Rechts,2,
,dotcolour,dotcolour,xotask,44,4,284,584,main,positivefb,-99,average,54,0.7843641999997999,['c'],1,left,['1'],6,0.1827261999997063,,,,,,,,38,24,Vrouw,Rechts,2,
,dotcolour,dotcolour,xotask,45,4,285,585,main,positivefb,-99,easy,61,0.6505526000000827,['c'],1,left,['1'],6,0.18177920000016456,,,,,,,,38,24,Vrouw,Rechts,2,
,dotcolour,dotcolour,xotask,46,4,286,586,main,positivefb,-99,hard,37,1.5514054999998734,['n'],1,right,['2'],5,0.14621530000022176,,,,,,,,38,24,Vrouw,Rechts,2,
,dotcolour,dotcolour,xotask,47,4,287,587,main,positivefb,-99,average,53,0.9845070999999734,['c'],1,left,['1'],6,0.14194739999993544,,,,,,,,38,24,Vrouw,Rechts,2,
,dotcolour,dotcolour,xotask,48,4,288,588,main,positivefb,-99,average,55,0.6174765999999181,['c'],1,left,['1'],6,0.2006188000000293,,,,,,,,38,24,Vrouw,Rechts,2,
,dotcolour,dotcolour,xotask,49,4,289,589,main,positivefb,-99,easy,15,0.6686689000002843,['n'],1,right,['1'],6,0.21420839999973396,,,,,,,,38,24,Vrouw,Rechts,2,
,dotcolour,dotcolour,xotask,50,4,290,590,main,positivefb,-99,hard,44,0.8009784999999283,['n'],0,left,['2'],5,0.7586879999998928,,,,,,,,38,24,Vrouw,Rechts,2,
,dotcolour,dotcolour,xotask,51,4,291,591,main,positivefb,-99,easy,64,0.6845576000000619,['c'],1,left,['1'],6,0.2776607000000695,,,,,,,,38,24,Vrouw,Rechts,2,
,dotcolour,dotcolour,xotask,52,4,292,592,main,positivefb,-99,easy,64,0.9847982999999658,['c'],1,left,['1'],6,0.26006310000002486,,,,,,,,38,24,Vrouw,Rechts,2,
,dotcolour,dotcolour,xotask,53,4,293,593,main,positivefb,-99,easy,64,1.0335494999999355,['c'],1,left,['1'],6,0.21788500000002387,,,,,,,,38,24,Vrouw,Rechts,2,
,dotcolour,dotcolour,xotask,54,4,294,594,main,positivefb,-99,hard,36,1.0513550000000578,['n'],1,right,['2'],5,0.24004950000016834,,,,,,,,38,24,Vrouw,Rechts,2,
,dotcolour,dotcolour,xotask,55,4,295,595,main,positivefb,-99,hard,45,2.0337397000002966,['c'],1,left,['2'],5,0.20601269999997385,,,,,,,,38,24,Vrouw,Rechts,2,
,dotcolour,dotcolour,xotask,56,4,296,596,main,positivefb,-99,hard,39,0.7171483000001899,['n'],1,right,['2'],5,0.20174390000011044,,,,,,,,38,24,Vrouw,Rechts,2,
,dotcolour,dotcolour,xotask,57,4,297,597,main,positivefb,-99,average,55,0.7506425999999919,['c'],1,left,['1'],6,0.11590299999988929,,,,,,,,38,24,Vrouw,Rechts,2,
,dotcolour,dotcolour,xotask,58,4,298,598,main,positivefb,-99,average,54,0.6334816000003229,['c'],1,left,['1'],6,0.14306390000001556,,,,,,,,38,24,Vrouw,Rechts,2,
,dotcolour,dotcolour,xotask,59,4,299,599,main,positivefb,-99,average,27,0.9512640000002648,['n'],1,right,['1'],6,0.1562340000000404,,,,,,,,38,24,Vrouw,Rechts,2,
,dotcolour,dotcolour,xotask,0,0,0,600,training,positivefb,93,average,28,0.9673746000003121,['n'],1,right,['1'],6,0.1382978000001458,,,,,,,,38,24,Vrouw,Rechts,2,
,dotcolour,dotcolour,xotask,1,0,1,601,training,positivefb,92,average,29,0.7667068999999174,['n'],1,right,['1'],6,0.09416709999959494,,,,,,,,38,24,Vrouw,Rechts,2,
,dotcolour,dotcolour,xotask,2,0,2,602,training,positivefb,66,average,51,1.266769700000168,['n'],0,left,['2'],5,0.48871669999971346,,,,,,,,38,24,Vrouw,Rechts,2,
,dotcolour,dotcolour,xotask,3,0,3,603,training,positivefb,96,easy,17,0.5159373000001324,['n'],1,right,['1'],6,0.14454680000017106,,,,,,,,38,24,Vrouw,Rechts,2,
,dotcolour,dotcolour,xotask,4,0,4,604,training,positivefb,89,easy,65,0.5508654000000206,['c'],1,left,['1'],6,0.14937830000008034,,,,,,,,38,24,Vrouw,Rechts,2,
,dotcolour,dotcolour,xotask,5,0,5,605,training,positivefb,97,average,26,0.8009087000000363,['n'],1,right,['1'],6,0.39045119999991584,,,,,,,,38,24,Vrouw,Rechts,2,
,dotcolour,dotcolour,xotask,6,0,6,606,training,positivefb,97,easy,64,0.5994474999997692,['c'],1,left,['1'],6,0.11962099999982456,,,,,,,,38,24,Vrouw,Rechts,2,
,dotcolour,dotcolour,xotask,7,0,7,607,training,positivefb,83,hard,39,2.149532800000088,['n'],1,right,['2'],5,0.10858980000011798,,,,,,,,38,24,Vrouw,Rechts,2,
,dotcolour,dotcolour,xotask,8,0,8,608,training,positivefb,96,hard,39,0.5834387999998398,['n'],1,right,['2'],5,0.12247059999981502,,,,,,,,38,24,Vrouw,Rechts,2,
,dotcolour,dotcolour,xotask,9,0,9,609,training,positivefb,96,easy,63,0.5498031000001902,['c'],1,left,['1'],6,0.11840810000012425,,,,,,,,38,24,Vrouw,Rechts,2,
,dotcolour,dotcolour,xotask,10,0,10,610,training,positivefb,96,average,54,0.9831899000000703,['c'],1,left,['2'],5,0.13124299999981304,,,,,,,,38,24,Vrouw,Rechts,2,
,dotcolour,dotcolour,xotask,11,0,11,611,training,positivefb,94,average,27,0.6162699999999859,['n'],1,right,['1'],6,0.573159300000043,,,,,,,,38,24,Vrouw,Rechts,2,
,dotcolour,dotcolour,xotask,12,0,12,612,training,positivefb,96,average,51,0.7669510999999147,['c'],1,left,['1'],6,0.1433627000001252,,,,,,,,38,24,Vrouw,Rechts,2,
,dotcolour,dotcolour,xotask,13,0,13,613,training,positivefb,84,easy,65,0.5825418999997964,['c'],1,left,['1'],6,0.12342650000027788,,,,,,,,38,24,Vrouw,Rechts,2,
,dotcolour,dotcolour,xotask,14,0,14,614,training,positivefb,98,average,54,0.899402800000189,['c'],1,left,['1'],6,0.26633719999972527,,,,,,,,38,24,Vrouw,Rechts,2,
,dotcolour,dotcolour,xotask,15,0,15,615,training,positivefb,79,hard,45,0.7844313000000511,['c'],1,left,['2'],5,0.28108609999981127,,,,,,,,38,24,Vrouw,Rechts,2,
,dotcolour,dotcolour,xotask,16,0,16,616,training,positivefb,93,hard,36,1.133137099999658,['n'],1,right,['2'],5,0.20059689999970942,,,,,,,,38,24,Vrouw,Rechts,2,
,dotcolour,dotcolour,xotask,17,0,17,617,training,positivefb,94,average,52,0.7172387999999046,['c'],1,left,['1'],6,0.12418840000009368,,,,,,,,38,24,Vrouw,Rechts,2,
,dotcolour,dotcolour,xotask,18,0,18,618,training,positivefb,1,easy,16,0.6160757999996349,['c'],0,right,['3'],4,3.9424550000003364,,,,,,,,38,24,Vrouw,Rechts,2,
,dotcolour,dotcolour,xotask,19,0,19,619,training,positivefb,82,hard,38,3.533147799999824,['c'],0,right,['2'],5,0.2981824999997116,,,,,,,,38,24,Vrouw,Rechts,2,
,dotcolour,dotcolour,xotask,20,0,20,620,training,positivefb,96,easy,65,0.667579399999795,['c'],1,left,['1'],6,0.19539280000026338,,,,,,,,38,24,Vrouw,Rechts,2,
,dotcolour,dotcolour,xotask,21,0,21,621,training,positivefb,97,hard,44,0.8841549999997369,['c'],1,left,['1'],6,0.22522979999985182,,,,,,,,38,24,Vrouw,Rechts,2,
,dotcolour,dotcolour,xotask,22,0,22,622,training,positivefb,81,average,52,0.6845438000000286,['c'],1,left,['1'],6,0.21321489999991172,,,,,,,,38,24,Vrouw,Rechts,2,
,dotcolour,dotcolour,xotask,23,0,23,623,training,positivefb,91,average,26,0.9502118999998856,['n'],1,right,['1'],6,0.175536799999918,,,,,,,,38,24,Vrouw,Rechts,2,
,dotcolour,dotcolour,xotask,24,0,24,624,training,positivefb,91,easy,17,0.4993097999999918,['n'],1,right,['1'],6,0.17183709999972052,,,,,,,,38,24,Vrouw,Rechts,2,
,dotcolour,dotcolour,xotask,25,0,25,625,training,positivefb,95,easy,62,0.6665806999999404,['c'],1,left,['1'],6,0.13883269999996628,,,,,,,,38,24,Vrouw,Rechts,2,
,dotcolour,dotcolour,xotask,26,0,26,626,training,positivefb,84,average,54,1.5331529000000046,['c'],1,left,['1'],6,0.18485629999986486,,,,,,,,38,24,Vrouw,Rechts,2,
,dotcolour,dotcolour,xotask,27,0,27,627,training,positivefb,60,hard,41,1.517904300000282,['n'],0,left,['2'],5,1.0851643000000877,,,,,,,,38,24,Vrouw,Rechts,2,
,dotcolour,dotcolour,xotask,28,0,28,628,training,positivefb,88,easy,61,0.6500868000002811,['c'],1,left,['1'],6,0.23919649999970716,,,,,,,,38,24,Vrouw,Rechts,2,
