starttime,task,fbtask,firsttask,withinblocktrial,block,withintasktrial,trial,running,feedback,fbscore,difflevel,n_xes,rt,resp,cor,cresp,conf_press,cj,RTconf,reddots,stoptime,sub,age,gender,handedness,session,
1715076106,xotask,xotask,xotask,0,0,0,0,training,positivefb,91,hard,54,2.834585900000093,['c'],1,left,['2'],2,2.2992998999998235,,,57784,18,Vrouw,Rechts,1,
,xotask,xotask,xotask,1,0,1,1,training,positivefb,72,hard,53,2.434126600000127,['n'],0,left,['2'],2,1.34906299999966,,,57784,18,Vrouw,Rechts,1,
,xotask,xotask,xotask,2,0,2,2,training,positivefb,92,easy,5,3.4334514000001946,['n'],1,right,['0'],6,0.4212231999999858,,,57784,18,Vrouw,Rechts,1,
,xotask,xotask,xotask,3,0,3,3,training,positivefb,96,easy,5,1.6336842999999135,['n'],1,right,['0'],6,0.3151849999994738,,,57784,18,Vrouw,Rechts,1,
,xotask,xotask,xotask,4,0,4,4,training,positivefb,93,hard,52,1.3325558000005913,['c'],1,left,['0'],6,0.337234399999943,,,57784,18,Vrouw,Rechts,1,
,xotask,xotask,xotask,5,0,5,5,training,positivefb,99,easy,74,0.9842515999998795,['c'],1,left,['0'],6,0.564195999999356,,,57784,18,Vrouw,Rechts,1,
,xotask,xotask,xotask,6,0,6,6,training,positivefb,78,easy,9,0.9508984000003693,['n'],1,right,['0'],6,0.27933000000030006,,,57784,18,Vrouw,Rechts,1,
,xotask,xotask,xotask,7,0,7,7,training,positivefb,97,hard,51,1.5997975999998744,['c'],1,left,['8'],4,0.5011938000006921,,,57784,18,Vrouw,Rechts,1,
,xotask,xotask,xotask,8,0,8,8,training,positivefb,89,hard,51,1.4333529000005,['c'],1,left,['0'],6,0.35951920000024984,,,57784,18,Vrouw,Rechts,1,
,xotask,xotask,xotask,9,0,9,9,training,positivefb,86,hard,29,2.1338232999996762,['n'],1,right,['9'],5,0.7167975000002116,,,57784,18,Vrouw,Rechts,1,
,xotask,xotask,xotask,10,0,10,10,training,positivefb,85,easy,73,1.0836882000003243,['c'],1,left,['0'],6,0.22034130000065488,,,57784,18,Vrouw,Rechts,1,
,xotask,xotask,xotask,11,0,11,11,training,positivefb,88,average,63,1.2668813000000227,['c'],1,left,['0'],6,0.16977680000036344,,,57784,18,Vrouw,Rechts,1,
,xotask,xotask,xotask,12,0,12,12,training,positivefb,88,hard,53,0.8170972999996593,['c'],1,left,['0'],6,0.18605680000018765,,,57784,18,Vrouw,Rechts,1,
,xotask,xotask,xotask,13,0,13,13,training,positivefb,86,average,62,1.432958499999586,['c'],1,left,['9'],5,0.17751310000039666,,,57784,18,Vrouw,Rechts,1,
,xotask,xotask,xotask,14,0,14,14,training,positivefb,98,easy,74,0.5993503999998211,['c'],1,left,['9'],5,0.482655299999351,,,57784,18,Vrouw,Rechts,1,
,xotask,xotask,xotask,15,0,15,15,training,positivefb,97,average,63,1.1168351000005714,['c'],1,left,['9'],5,0.29120200000033947,,,57784,18,Vrouw,Rechts,1,
,xotask,xotask,xotask,16,0,16,16,training,positivefb,96,easy,6,1.5499816999999894,['n'],1,right,['9'],5,0.4092178999999305,,,57784,18,Vrouw,Rechts,1,
,xotask,xotask,xotask,17,0,17,17,training,positivefb,91,average,60,0.8324874999998428,['c'],1,left,['8'],4,0.32018950000019686,,,57784,18,Vrouw,Rechts,1,
,xotask,xotask,xotask,18,0,18,18,training,positivefb,91,easy,7,1.317516300000534,['n'],1,right,['0'],6,0.2543422000007922,,,57784,18,Vrouw,Rechts,1,
,xotask,xotask,xotask,19,0,19,19,training,positivefb,78,average,60,1.1332663999992292,['c'],1,left,['8'],4,0.33529249999992317,,,57784,18,Vrouw,Rechts,1,
,xotask,xotask,xotask,20,0,20,20,training,positivefb,98,easy,6,1.0332649000001766,['n'],1,right,['8'],4,0.4973366000003807,,,57784,18,Vrouw,Rechts,1,
,xotask,xotask,xotask,21,0,21,21,training,positivefb,96,easy,72,0.8003704999991896,['c'],1,left,['8'],4,0.22099280000020372,,,57784,18,Vrouw,Rechts,1,
,xotask,xotask,xotask,22,0,22,22,training,positivefb,93,average,18,1.765723199999229,['n'],1,right,['9'],5,0.32623189999958413,,,57784,18,Vrouw,Rechts,1,
,xotask,xotask,xotask,23,0,23,23,training,positivefb,96,average,64,0.9162365000001955,['c'],1,left,['9'],5,0.25247829999989335,,,57784,18,Vrouw,Rechts,1,
,xotask,xotask,xotask,24,0,24,24,training,positivefb,39,hard,25,1.4999072000000524,['c'],0,right,['3'],3,1.454888899999787,,,57784,18,Vrouw,Rechts,1,
,xotask,xotask,xotask,25,0,25,25,training,positivefb,85,hard,27,1.0332766999999876,['c'],0,right,['8'],4,0.4589028000000326,,,57784,18,Vrouw,Rechts,1,
,xotask,xotask,xotask,26,0,26,26,training,positivefb,68,average,19,1.2842098999999507,['n'],1,right,['9'],5,0.36605409999992844,,,57784,18,Vrouw,Rechts,1,
,xotask,xotask,xotask,27,0,27,27,training,positivefb,97,average,16,1.5345702999993591,['n'],1,right,['8'],4,0.3611602999999377,,,57784,18,Vrouw,Rechts,1,
,xotask,xotask,xotask,28,0,28,28,training,positivefb,81,average,62,1.5002306999995199,['c'],1,left,['9'],5,0.42390179999983957,,,57784,18,Vrouw,Rechts,1,
,xotask,xotask,xotask,29,0,29,29,training,positivefb,88,easy,72,1.0171449999998003,['c'],1,left,['9'],5,0.19807480000054056,,,57784,18,Vrouw,Rechts,1,
,xotask,xotask,xotask,30,0,30,30,training,positivefb,95,easy,74,0.7658160000000862,['c'],1,left,['9'],5,0.2317749999992884,,,57784,18,Vrouw,Rechts,1,
,xotask,xotask,xotask,31,0,31,31,training,positivefb,94,hard,53,1.318065800000113,['c'],1,left,['8'],4,0.32976200000030076,,,57784,18,Vrouw,Rechts,1,
,xotask,xotask,xotask,32,0,32,32,training,positivefb,76,hard,27,1.8330825000002733,['n'],1,right,['8'],4,0.37996559999919555,,,57784,18,Vrouw,Rechts,1,
,xotask,xotask,xotask,33,0,33,33,training,positivefb,92,easy,8,1.0333017000002656,['n'],1,right,['0'],6,0.22040469999956258,,,57784,18,Vrouw,Rechts,1,
,xotask,xotask,xotask,34,0,34,34,training,positivefb,89,easy,8,1.5846336000004158,['n'],1,right,['0'],6,0.31651160000001255,,,57784,18,Vrouw,Rechts,1,
,xotask,xotask,xotask,35,0,35,35,training,positivefb,74,hard,26,1.3173515999997107,['c'],0,right,['8'],4,0.40290359999926295,,,57784,18,Vrouw,Rechts,1,
,xotask,xotask,xotask,36,0,36,36,training,positivefb,93,hard,29,1.3663979000002655,['n'],1,right,['8'],4,0.33984549999968294,,,57784,18,Vrouw,Rechts,1,
,xotask,xotask,xotask,37,0,37,37,training,positivefb,98,easy,74,1.083380500000203,['c'],1,left,['8'],4,0.32340150000072754,,,57784,18,Vrouw,Rechts,1,
,xotask,xotask,xotask,38,0,38,38,training,positivefb,86,average,18,1.6163076000002548,['n'],1,right,['0'],6,0.3186505000003308,,,57784,18,Vrouw,Rechts,1,
,xotask,xotask,xotask,39,0,39,39,training,positivefb,87,easy,71,0.8828763000001345,['c'],1,left,['8'],4,0.33441229999971256,,,57784,18,Vrouw,Rechts,1,
,xotask,xotask,xotask,40,0,40,40,training,positivefb,92,easy,9,2.0003758000002563,['n'],1,right,['9'],5,0.35296740000012505,,,57784,18,Vrouw,Rechts,1,
,xotask,xotask,xotask,41,0,41,41,training,positivefb,80,hard,26,0.5836934000008114,['n'],1,right,['9'],5,0.36366280000038387,,,57784,18,Vrouw,Rechts,1,
,xotask,xotask,xotask,42,0,42,42,training,positivefb,87,average,16,0.9827858999997261,['n'],1,right,['9'],5,0.31809979999979987,,,57784,18,Vrouw,Rechts,1,
,xotask,xotask,xotask,43,0,43,43,training,positivefb,83,average,61,1.2001662000002398,['c'],1,left,['8'],4,0.3534251999999469,,,57784,18,Vrouw,Rechts,1,
,xotask,xotask,xotask,44,0,44,44,training,positivefb,75,hard,27,2.799414600000091,['n'],1,right,['8'],4,0.3396482999996806,,,57784,18,Vrouw,Rechts,1,
,xotask,xotask,xotask,45,0,45,45,training,positivefb,99,average,15,1.0835242000002836,['n'],1,right,['9'],5,0.40285120000044117,,,57784,18,Vrouw,Rechts,1,
,xotask,xotask,xotask,46,0,46,46,training,positivefb,98,average,19,0.6171726999991733,['n'],1,right,['9'],5,0.3463566999998875,,,57784,18,Vrouw,Rechts,1,
,xotask,xotask,xotask,47,0,47,47,training,positivefb,96,average,15,0.7165832000000592,['n'],1,right,['0'],6,0.30434889999924053,,,57784,18,Vrouw,Rechts,1,
,xotask,xotask,xotask,48,0,48,48,training,positivefb,72,average,64,1.1174075999997513,['n'],0,left,['8'],4,0.5998584999997547,,,57784,18,Vrouw,Rechts,1,
,xotask,xotask,xotask,49,0,49,49,training,positivefb,87,average,63,0.9337409999998272,['c'],1,left,['9'],5,0.3699897999995301,,,57784,18,Vrouw,Rechts,1,
,xotask,xotask,xotask,50,0,50,50,training,positivefb,94,hard,25,0.9844104000003426,['n'],1,right,['9'],5,0.29239940000024944,,,57784,18,Vrouw,Rechts,1,
,xotask,xotask,xotask,51,0,51,51,training,positivefb,98,easy,9,0.6671526000000085,['n'],1,right,['9'],5,0.3181830000003174,,,57784,18,Vrouw,Rechts,1,
,xotask,xotask,xotask,52,0,52,52,training,positivefb,88,easy,72,0.6001048999996783,['c'],1,left,['9'],5,0.2737720999994053,,,57784,18,Vrouw,Rechts,1,
,xotask,xotask,xotask,53,0,53,53,training,positivefb,54,average,15,1.9172381999997015,['c'],0,right,['8'],4,0.3389041999998881,,,57784,18,Vrouw,Rechts,1,
,xotask,xotask,xotask,54,0,54,54,training,positivefb,94,hard,51,0.8171216000000641,['c'],1,left,['9'],5,0.3325150999999096,,,57784,18,Vrouw,Rechts,1,
,xotask,xotask,xotask,55,0,55,55,training,positivefb,83,easy,72,0.8329250999995566,['c'],1,left,['9'],5,0.24582920000011654,,,57784,18,Vrouw,Rechts,1,
,xotask,xotask,xotask,56,0,56,56,training,positivefb,80,average,18,0.9665346000001591,['n'],1,right,['9'],5,0.30996630000026926,,,57784,18,Vrouw,Rechts,1,
,xotask,xotask,xotask,57,0,57,57,training,positivefb,63,hard,26,3.266526100000192,['n'],1,right,['9'],5,0.5279434000003675,,,57784,18,Vrouw,Rechts,1,
,xotask,xotask,xotask,58,0,58,58,training,positivefb,75,hard,50,1.3001053000007232,['n'],0,left,['9'],5,0.3430058000003555,,,57784,18,Vrouw,Rechts,1,
,xotask,xotask,xotask,59,0,59,59,training,positivefb,92,hard,50,0.8506799999995565,['c'],1,left,['9'],5,0.27113120000012714,,,57784,18,Vrouw,Rechts,1,
,xotask,xotask,xotask,0,1,60,60,training,positivefb,90,easy,6,1.433115099999668,['n'],1,right,['9'],5,0.3251594000003024,,,57784,18,Vrouw,Rechts,1,
,xotask,xotask,xotask,1,1,61,61,training,positivefb,92,hard,52,1.333465900000192,['n'],0,left,['9'],5,0.3631906999999046,,,57784,18,Vrouw,Rechts,1,
,xotask,xotask,xotask,2,1,62,62,training,positivefb,82,easy,70,0.6836421999996674,['c'],1,left,['9'],5,0.30588799999986804,,,57784,18,Vrouw,Rechts,1,
,xotask,xotask,xotask,3,1,63,63,training,positivefb,96,average,61,0.8338222000002133,['c'],1,left,['0'],6,0.3083403000000544,,,57784,18,Vrouw,Rechts,1,
,xotask,xotask,xotask,4,1,64,64,training,positivefb,95,easy,8,0.6501802000002499,['n'],1,right,['0'],6,0.310412499999984,,,57784,18,Vrouw,Rechts,1,
,xotask,xotask,xotask,5,1,65,65,training,positivefb,83,easy,73,0.7501748000004227,['c'],1,left,['0'],6,0.44515300000057323,,,57784,18,Vrouw,Rechts,1,
,xotask,xotask,xotask,6,1,66,66,training,positivefb,68,average,64,0.6350757999998677,['c'],1,left,['0'],6,0.24202779999995983,,,57784,18,Vrouw,Rechts,1,
,xotask,xotask,xotask,7,1,67,67,training,positivefb,95,easy,9,0.7163526000003912,['n'],1,right,['9'],5,0.619872100000066,,,57784,18,Vrouw,Rechts,1,
,xotask,xotask,xotask,8,1,68,68,training,positivefb,99,hard,29,1.0001119999997172,['n'],1,right,['9'],5,0.3555366000000504,,,57784,18,Vrouw,Rechts,1,
,xotask,xotask,xotask,9,1,69,69,training,positivefb,82,average,17,0.8505551999996896,['c'],0,right,['9'],5,0.34758460000011837,,,57784,18,Vrouw,Rechts,1,
,xotask,xotask,xotask,10,1,70,70,training,positivefb,63,hard,29,0.6505076999992525,['c'],0,right,['9'],5,0.5003255000001445,,,57784,18,Vrouw,Rechts,1,
,xotask,xotask,xotask,11,1,71,71,training,positivefb,97,average,63,0.40051109999967593,['c'],1,left,['9'],5,0.4402855999996973,,,57784,18,Vrouw,Rechts,1,
,xotask,xotask,xotask,12,1,72,72,training,positivefb,87,average,18,0.4667164000002231,['c'],0,right,['1'],1,1.4041326999995363,,,57784,18,Vrouw,Rechts,1,
,xotask,xotask,xotask,13,1,73,73,training,positivefb,79,hard,25,1.5674217999994653,['n'],1,right,['9'],5,0.3974179999995613,,,57784,18,Vrouw,Rechts,1,
,xotask,xotask,xotask,14,1,74,74,training,positivefb,91,average,19,0.883810899999844,['n'],1,right,['9'],5,0.34629580000000715,,,57784,18,Vrouw,Rechts,1,
,xotask,xotask,xotask,15,1,75,75,training,positivefb,92,average,60,1.4679284999992888,['c'],1,left,['8'],4,0.7710175000001982,,,57784,18,Vrouw,Rechts,1,
,xotask,xotask,xotask,16,1,76,76,training,positivefb,88,easy,8,2.166559600000255,['c'],0,right,['9'],5,0.31688930000018445,,,57784,18,Vrouw,Rechts,1,
,xotask,xotask,xotask,17,1,77,77,training,positivefb,91,hard,25,1.383495899999616,['c'],0,right,['9'],5,0.1934916999998677,,,57784,18,Vrouw,Rechts,1,
,xotask,xotask,xotask,18,1,78,78,training,positivefb,88,hard,53,0.6661485000004177,['c'],1,left,['9'],5,0.3347424999992654,,,57784,18,Vrouw,Rechts,1,
,xotask,xotask,xotask,19,1,79,79,training,positivefb,90,hard,25,0.7001166000000012,['c'],0,right,['9'],5,0.29358439999941766,,,57784,18,Vrouw,Rechts,1,
,xotask,xotask,xotask,20,1,80,80,training,positivefb,94,hard,51,0.8013870999993742,['c'],1,left,['9'],5,0.20206540000071982,,,57784,18,Vrouw,Rechts,1,
,xotask,xotask,xotask,21,1,81,81,training,positivefb,87,hard,53,0.7329643000002761,['c'],1,left,['9'],5,0.23718749999989086,,,57784,18,Vrouw,Rechts,1,
,xotask,xotask,xotask,22,1,82,82,training,positivefb,84,hard,25,0.5672458999997616,['c'],0,right,['9'],5,0.3731461000006675,,,57784,18,Vrouw,Rechts,1,
,xotask,xotask,xotask,23,1,83,83,training,positivefb,98,easy,5,0.6664043999999194,['n'],1,right,['9'],5,0.4755028999998103,,,57784,18,Vrouw,Rechts,1,
,xotask,xotask,xotask,24,1,84,84,training,positivefb,82,easy,74,0.7662811999998667,['c'],1,left,['9'],5,0.24259410000013304,,,57784,18,Vrouw,Rechts,1,
,xotask,xotask,xotask,25,1,85,85,training,positivefb,99,hard,26,0.500818900000013,['n'],1,right,['0'],6,0.3491632999994181,,,57784,18,Vrouw,Rechts,1,
,xotask,xotask,xotask,26,1,86,86,training,positivefb,97,hard,52,0.8339915000005931,['c'],1,left,['0'],6,0.36604429999988497,,,57784,18,Vrouw,Rechts,1,
,xotask,xotask,xotask,27,1,87,87,training,positivefb,94,easy,70,0.5333686000003581,['c'],1,left,['0'],6,0.5143574000003355,,,57784,18,Vrouw,Rechts,1,
,xotask,xotask,xotask,28,1,88,88,training,positivefb,95,easy,71,0.6661002000000735,['c'],1,left,['0'],6,0.266490299999532,,,57784,18,Vrouw,Rechts,1,
,xotask,xotask,xotask,29,1,89,89,training,positivefb,98,average,17,0.8338679999997112,['n'],1,right,['0'],6,0.33517769999980374,,,57784,18,Vrouw,Rechts,1,
,xotask,xotask,xotask,30,1,90,90,training,positivefb,97,average,17,1.1172629000002416,['c'],0,right,['0'],6,0.29283290000057605,,,57784,18,Vrouw,Rechts,1,
,xotask,xotask,xotask,31,1,91,91,training,positivefb,57,average,64,0.6160550999993575,['c'],1,left,['0'],6,0.40034280000054423,,,57784,18,Vrouw,Rechts,1,
,xotask,xotask,xotask,32,1,92,92,training,positivefb,97,easy,8,1.1496581999999762,['n'],1,right,['9'],5,0.458904099999927,,,57784,18,Vrouw,Rechts,1,
,xotask,xotask,xotask,33,1,93,93,training,positivefb,89,average,17,0.8841392000003907,['n'],1,right,['9'],5,0.37352820000069187,,,57784,18,Vrouw,Rechts,1,
,xotask,xotask,xotask,34,1,94,94,training,positivefb,97,easy,70,0.6844815000004019,['c'],1,left,['0'],6,0.2913358000005246,,,57784,18,Vrouw,Rechts,1,
,xotask,xotask,xotask,35,1,95,95,training,positivefb,93,average,17,0.9828717999998844,['n'],1,right,['0'],6,0.36078659999930096,,,57784,18,Vrouw,Rechts,1,
,xotask,xotask,xotask,36,1,96,96,training,positivefb,94,easy,6,0.7996409999996104,['n'],1,right,['0'],6,0.46735310000076424,,,57784,18,Vrouw,Rechts,1,
,xotask,xotask,xotask,37,1,97,97,training,positivefb,95,easy,73,0.6670235000001412,['c'],1,left,['0'],6,0.4056041000003461,,,57784,18,Vrouw,Rechts,1,
,xotask,xotask,xotask,38,1,98,98,training,positivefb,99,hard,25,0.9671867999995811,['n'],1,right,['0'],6,0.6315652000002956,,,57784,18,Vrouw,Rechts,1,
,xotask,xotask,xotask,39,1,99,99,training,positivefb,76,hard,27,1.4335840999992797,['c'],0,right,['9'],5,0.3637679000003118,,,57784,18,Vrouw,Rechts,1,
,xotask,xotask,xotask,40,1,100,100,training,positivefb,87,average,17,0.784145399999943,['c'],0,right,['1'],1,1.0788707000001523,,,57784,18,Vrouw,Rechts,1,
,xotask,xotask,xotask,41,1,101,101,training,positivefb,88,easy,71,0.8006615000003876,['c'],1,left,['0'],6,0.3077511000001323,,,57784,18,Vrouw,Rechts,1,
,xotask,xotask,xotask,42,1,102,102,training,positivefb,98,average,63,0.699761099999705,['c'],1,left,['0'],6,0.40445229999932053,,,57784,18,Vrouw,Rechts,1,
,xotask,xotask,xotask,43,1,103,103,training,positivefb,97,hard,51,0.6341896000003544,['c'],1,left,['0'],6,0.2910551000004489,,,57784,18,Vrouw,Rechts,1,
,xotask,xotask,xotask,44,1,104,104,training,positivefb,72,hard,27,0.9837923000004594,['c'],0,right,['0'],6,0.3043006999996578,,,57784,18,Vrouw,Rechts,1,
,xotask,xotask,xotask,45,1,105,105,training,positivefb,93,hard,54,1.000889200000529,['c'],1,left,['9'],5,0.379752599999847,,,57784,18,Vrouw,Rechts,1,
,xotask,xotask,xotask,46,1,106,106,training,positivefb,98,hard,53,1.0005447000003187,['c'],1,left,['9'],5,0.3181971000003614,,,57784,18,Vrouw,Rechts,1,
,xotask,xotask,xotask,47,1,107,107,training,positivefb,78,average,18,0.7162553999996817,['c'],0,right,['0'],6,0.42071279999981925,,,57784,18,Vrouw,Rechts,1,
,xotask,xotask,xotask,48,1,108,108,training,positivefb,99,hard,50,0.8495323000006465,['c'],1,left,['9'],5,0.4653625999999349,,,57784,18,Vrouw,Rechts,1,
,xotask,xotask,xotask,49,1,109,109,training,positivefb,99,easy,5,0.5000452000003861,['n'],1,right,['9'],5,0.6829156000003422,,,57784,18,Vrouw,Rechts,1,
,xotask,xotask,xotask,50,1,110,110,training,positivefb,99,easy,70,0.7665900000001784,['c'],1,left,['0'],6,0.6174933000002056,,,57784,18,Vrouw,Rechts,1,
,xotask,xotask,xotask,51,1,111,111,training,positivefb,78,average,16,1.4012025999991238,['n'],1,right,['0'],6,0.3289856999999756,,,57784,18,Vrouw,Rechts,1,
,xotask,xotask,xotask,52,1,112,112,training,positivefb,79,hard,51,0.9333308000004763,['c'],1,left,['9'],5,0.5422860999997283,,,57784,18,Vrouw,Rechts,1,
,xotask,xotask,xotask,53,1,113,113,training,positivefb,95,easy,7,0.9163968000002569,['n'],1,right,['9'],5,0.3086233000003631,,,57784,18,Vrouw,Rechts,1,
,xotask,xotask,xotask,54,1,114,114,training,positivefb,97,easy,9,1.1511480000008305,['n'],1,right,['9'],5,0.3227747000000818,,,57784,18,Vrouw,Rechts,1,
,xotask,xotask,xotask,55,1,115,115,training,positivefb,97,average,62,0.7162111999996341,['c'],1,left,['9'],5,0.25714420000076643,,,57784,18,Vrouw,Rechts,1,
,xotask,xotask,xotask,56,1,116,116,training,positivefb,27,easy,74,1.1009738000002471,['n'],0,left,['9'],5,1.0037482999996428,,,57784,18,Vrouw,Rechts,1,
,xotask,xotask,xotask,57,1,117,117,training,positivefb,92,average,60,0.8173241000004055,['c'],1,left,['9'],5,0.41101849999995466,,,57784,18,Vrouw,Rechts,1,
,xotask,xotask,xotask,58,1,118,118,training,positivefb,96,average,63,0.6344616999995196,['c'],1,left,['9'],5,0.3452642000002015,,,57784,18,Vrouw,Rechts,1,
,xotask,xotask,xotask,59,1,119,119,training,positivefb,90,average,64,1.0509007999999085,['c'],1,left,['0'],6,0.3619509999998627,,,57784,18,Vrouw,Rechts,1,
,xotask,xotask,xotask,0,2,120,120,main,positivefb,-99,easy,74,0.9848817000001873,['c'],1,left,['9'],5,4.6229666000008365,,,57784,18,Vrouw,Rechts,1,
,xotask,xotask,xotask,1,2,121,121,main,positivefb,-99,hard,51,0.8508145000005243,['c'],1,left,['9'],5,0.4603138000002218,,,57784,18,Vrouw,Rechts,1,
,xotask,xotask,xotask,2,2,122,122,main,positivefb,-99,hard,25,1.2174912000000404,['n'],1,right,['9'],5,0.2986685000005309,,,57784,18,Vrouw,Rechts,1,
,xotask,xotask,xotask,3,2,123,123,main,positivefb,-99,easy,7,0.7002064999996946,['n'],1,right,['9'],5,0.3227746999991723,,,57784,18,Vrouw,Rechts,1,
,xotask,xotask,xotask,4,2,124,124,main,positivefb,-99,hard,26,1.1512204000000565,['c'],0,right,['0'],6,0.36072409999997035,,,57784,18,Vrouw,Rechts,1,
,xotask,xotask,xotask,5,2,125,125,main,positivefb,-99,average,61,1.267385000000104,['c'],1,left,['0'],6,0.4257516999996369,,,57784,18,Vrouw,Rechts,1,
,xotask,xotask,xotask,6,2,126,126,main,positivefb,-99,hard,25,1.8673371000004408,['c'],0,right,['9'],5,0.28704560000005586,,,57784,18,Vrouw,Rechts,1,
,xotask,xotask,xotask,7,2,127,127,main,positivefb,-99,hard,25,0.5176394000000073,['n'],1,right,['9'],5,0.3347535999992033,,,57784,18,Vrouw,Rechts,1,
,xotask,xotask,xotask,8,2,128,128,main,positivefb,-99,average,16,1.0181062000001475,['n'],1,right,['9'],5,0.40984370000023773,,,57784,18,Vrouw,Rechts,1,
,xotask,xotask,xotask,9,2,129,129,main,positivefb,-99,average,16,0.6676701000005778,['n'],1,right,['0'],6,0.33652669999992213,,,57784,18,Vrouw,Rechts,1,
,xotask,xotask,xotask,10,2,130,130,main,positivefb,-99,average,15,0.5336047999999209,['n'],1,right,['0'],6,0.3337356000001819,,,57784,18,Vrouw,Rechts,1,
,xotask,xotask,xotask,11,2,131,131,main,positivefb,-99,hard,28,0.516830900000059,['n'],1,right,['0'],6,0.26833260000057635,,,57784,18,Vrouw,Rechts,1,
,xotask,xotask,xotask,12,2,132,132,main,positivefb,-99,easy,5,0.6007239999999001,['n'],1,right,['0'],6,1.0903596999996807,,,57784,18,Vrouw,Rechts,1,
,xotask,xotask,xotask,13,2,133,133,main,positivefb,-99,hard,28,0.5343029999994542,['n'],1,right,['0'],6,0.4425683999998,,,57784,18,Vrouw,Rechts,1,
,xotask,xotask,xotask,14,2,134,134,main,positivefb,-99,average,60,1.0677668000007543,['c'],1,left,['0'],6,0.43095440000070084,,,57784,18,Vrouw,Rechts,1,
,xotask,xotask,xotask,15,2,135,135,main,positivefb,-99,hard,26,0.8346363000000565,['n'],1,right,['9'],5,0.4533923999997569,,,57784,18,Vrouw,Rechts,1,
,xotask,xotask,xotask,16,2,136,136,main,positivefb,-99,easy,73,0.7846097999999984,['c'],1,left,['9'],5,0.2446629000005487,,,57784,18,Vrouw,Rechts,1,
,xotask,xotask,xotask,17,2,137,137,main,positivefb,-99,easy,70,0.8682271999996374,['c'],1,left,['9'],5,0.26520760000039445,,,57784,18,Vrouw,Rechts,1,
,xotask,xotask,xotask,18,2,138,138,main,positivefb,-99,average,17,0.7011796999995568,['n'],1,right,['8'],4,1.1477749999994558,,,57784,18,Vrouw,Rechts,1,
,xotask,xotask,xotask,19,2,139,139,main,positivefb,-99,easy,71,1.384024099999806,['c'],1,left,['0'],6,0.7505056999998487,,,57784,18,Vrouw,Rechts,1,
,xotask,xotask,xotask,20,2,140,140,main,positivefb,-99,easy,71,0.5679908000001888,['c'],1,left,['0'],6,0.3225247999998828,,,57784,18,Vrouw,Rechts,1,
,xotask,xotask,xotask,21,2,141,141,main,positivefb,-99,average,64,0.5009337000001324,['c'],1,left,['0'],6,0.26664099999925384,,,57784,18,Vrouw,Rechts,1,
,xotask,xotask,xotask,22,2,142,142,main,positivefb,-99,easy,72,0.9186170000002676,['c'],1,left,['0'],6,0.8038527000007889,,,57784,18,Vrouw,Rechts,1,
,xotask,xotask,xotask,23,2,143,143,main,positivefb,-99,easy,7,1.2675175000003946,['n'],1,right,['0'],6,0.8263356999996176,,,57784,18,Vrouw,Rechts,1,
,xotask,xotask,xotask,24,2,144,144,main,positivefb,-99,hard,54,0.8011221999995541,['c'],1,left,['9'],5,0.2658254999996643,,,57784,18,Vrouw,Rechts,1,
,xotask,xotask,xotask,25,2,145,145,main,positivefb,-99,average,60,0.6351651999993919,['c'],1,left,['9'],5,1.1748428000000786,,,57784,18,Vrouw,Rechts,1,
,xotask,xotask,xotask,26,2,146,146,main,positivefb,-99,hard,54,0.9676366999992752,['n'],0,left,['8'],4,1.5861088999999993,,,57784,18,Vrouw,Rechts,1,
,xotask,xotask,xotask,27,2,147,147,main,positivefb,-99,easy,6,1.1345675000002302,['n'],1,right,['9'],5,0.36601230000087526,,,57784,18,Vrouw,Rechts,1,
,xotask,xotask,xotask,28,2,148,148,main,positivefb,-99,average,16,0.7508891999996194,['n'],1,right,['0'],6,0.6422382999999172,,,57784,18,Vrouw,Rechts,1,
,xotask,xotask,xotask,29,2,149,149,main,positivefb,-99,hard,52,0.7504825999994864,['c'],1,left,['9'],5,0.36340910000035365,,,57784,18,Vrouw,Rechts,1,
,xotask,xotask,xotask,30,2,150,150,main,positivefb,-99,hard,28,0.8515557999999146,['n'],1,right,['9'],5,0.3643214999992779,,,57784,18,Vrouw,Rechts,1,
,xotask,xotask,xotask,31,2,151,151,main,positivefb,-99,easy,6,0.8668606999999611,['n'],1,right,['0'],6,0.44333950000054756,,,57784,18,Vrouw,Rechts,1,
,xotask,xotask,xotask,32,2,152,152,main,positivefb,-99,easy,9,0.850949199999377,['n'],1,right,['0'],6,0.39264970000022004,,,57784,18,Vrouw,Rechts,1,
,xotask,xotask,xotask,33,2,153,153,main,positivefb,-99,average,60,0.8015967000001183,['c'],1,left,['9'],5,0.32212840000011056,,,57784,18,Vrouw,Rechts,1,
,xotask,xotask,xotask,34,2,154,154,main,positivefb,-99,average,64,0.5685821999995824,['c'],1,left,['0'],6,0.6313795000005484,,,57784,18,Vrouw,Rechts,1,
,xotask,xotask,xotask,35,2,155,155,main,positivefb,-99,easy,70,1.8508416000004217,['c'],1,left,['8'],4,0.46139839999977994,,,57784,18,Vrouw,Rechts,1,
,xotask,xotask,xotask,36,2,156,156,main,positivefb,-99,easy,7,0.7166358999993463,['n'],1,right,['0'],6,0.3587092000007033,,,57784,18,Vrouw,Rechts,1,
,xotask,xotask,xotask,37,2,157,157,main,positivefb,-99,hard,29,0.9513812000004691,['n'],1,right,['9'],5,0.8109703999998601,,,57784,18,Vrouw,Rechts,1,
,xotask,xotask,xotask,38,2,158,158,main,positivefb,-99,average,61,0.9347256999999445,['c'],1,left,['9'],5,0.2796823000007862,,,57784,18,Vrouw,Rechts,1,
,xotask,xotask,xotask,39,2,159,159,main,positivefb,-99,average,63,1.367504399999234,['c'],1,left,['9'],5,0.24624599999970087,,,57784,18,Vrouw,Rechts,1,
,xotask,xotask,xotask,40,2,160,160,main,positivefb,-99,average,15,0.5170342000001256,['n'],1,right,['0'],6,0.5046297999997478,,,57784,18,Vrouw,Rechts,1,
,xotask,xotask,xotask,41,2,161,161,main,positivefb,-99,average,61,0.8176812000001519,['c'],1,left,['9'],5,0.22952919999988808,,,57784,18,Vrouw,Rechts,1,
,xotask,xotask,xotask,42,2,162,162,main,positivefb,-99,average,19,0.568076900000051,['n'],1,right,['9'],5,0.33414559999982885,,,57784,18,Vrouw,Rechts,1,
,xotask,xotask,xotask,43,2,163,163,main,positivefb,-99,hard,50,0.500627400000667,['c'],1,left,['9'],5,0.36587839999992866,,,57784,18,Vrouw,Rechts,1,
,xotask,xotask,xotask,44,2,164,164,main,positivefb,-99,average,63,0.9509345000005851,['c'],1,left,['0'],6,0.32969369999955234,,,57784,18,Vrouw,Rechts,1,
,xotask,xotask,xotask,45,2,165,165,main,positivefb,-99,easy,74,0.717791600000055,['c'],1,left,['0'],6,0.3291661999992357,,,57784,18,Vrouw,Rechts,1,
,xotask,xotask,xotask,46,2,166,166,main,positivefb,-99,average,16,0.9018491999995604,['n'],1,right,['0'],6,0.3286762000007002,,,57784,18,Vrouw,Rechts,1,
,xotask,xotask,xotask,47,2,167,167,main,positivefb,-99,hard,53,1.201031000000512,['c'],1,left,['9'],5,0.2688459999999395,,,57784,18,Vrouw,Rechts,1,
,xotask,xotask,xotask,48,2,168,168,main,positivefb,-99,hard,54,0.8511786999997639,['n'],0,left,['0'],6,0.3852679999999964,,,57784,18,Vrouw,Rechts,1,
,xotask,xotask,xotask,49,2,169,169,main,positivefb,-99,easy,8,0.9680465000001277,['n'],1,right,['0'],6,0.6279912999998487,,,57784,18,Vrouw,Rechts,1,
,xotask,xotask,xotask,50,2,170,170,main,positivefb,-99,hard,52,0.984479800000372,['n'],0,left,['8'],4,1.3323792999999569,,,57784,18,Vrouw,Rechts,1,
,xotask,xotask,xotask,51,2,171,171,main,positivefb,-99,easy,73,0.7843277000001763,['c'],1,left,['0'],6,0.24848780000047554,,,57784,18,Vrouw,Rechts,1,
,xotask,xotask,xotask,52,2,172,172,main,positivefb,-99,easy,72,0.5349797999997463,['c'],1,left,['0'],6,0.12991370000054303,,,57784,18,Vrouw,Rechts,1,
,xotask,xotask,xotask,53,2,173,173,main,positivefb,-99,easy,5,0.6840004000005138,['n'],1,right,['0'],6,0.32309989999976096,,,57784,18,Vrouw,Rechts,1,
,xotask,xotask,xotask,54,2,174,174,main,positivefb,-99,easy,9,0.7841883999999482,['n'],1,right,['0'],6,0.3830186999994112,,,57784,18,Vrouw,Rechts,1,
,xotask,xotask,xotask,55,2,175,175,main,positivefb,-99,hard,50,0.3514698999997563,['n'],0,left,['0'],6,0.24222979999922245,,,57784,18,Vrouw,Rechts,1,
,xotask,xotask,xotask,56,2,176,176,main,positivefb,-99,hard,54,0.6175814999996874,['c'],1,left,['9'],5,0.24132790000021487,,,57784,18,Vrouw,Rechts,1,
,xotask,xotask,xotask,57,2,177,177,main,positivefb,-99,average,17,0.6342604000001302,['n'],1,right,['0'],6,0.32674129999941215,,,57784,18,Vrouw,Rechts,1,
,xotask,xotask,xotask,58,2,178,178,main,positivefb,-99,hard,25,0.7504010000002381,['n'],1,right,['0'],6,0.37346979999983887,,,57784,18,Vrouw,Rechts,1,
,xotask,xotask,xotask,59,2,179,179,main,positivefb,-99,average,19,1.284762999999657,['n'],1,right,['9'],5,0.371691300000748,,,57784,18,Vrouw,Rechts,1,
,xotask,xotask,xotask,0,3,180,180,main,positivefb,-99,easy,5,5.717998500000249,['c'],0,right,['2'],2,1.1713183000001663,,,57784,18,Vrouw,Rechts,1,
,xotask,xotask,xotask,1,3,181,181,main,positivefb,-99,hard,25,0.8841619000004357,['c'],0,right,['9'],5,0.9780134000002363,,,57784,18,Vrouw,Rechts,1,
,xotask,xotask,xotask,2,3,182,182,main,positivefb,-99,easy,73,1.6181738999994195,['c'],1,left,['0'],6,0.4271758000004411,,,57784,18,Vrouw,Rechts,1,
,xotask,xotask,xotask,3,3,183,183,main,positivefb,-99,easy,7,0.9174849000000904,['c'],0,right,['9'],5,0.7189321999994718,,,57784,18,Vrouw,Rechts,1,
,xotask,xotask,xotask,4,3,184,184,main,positivefb,-99,hard,26,0.7676739999997153,['n'],1,right,['0'],6,0.3801558999994086,,,57784,18,Vrouw,Rechts,1,
,xotask,xotask,xotask,5,3,185,185,main,positivefb,-99,average,62,0.9847483000003194,['c'],1,left,['9'],5,0.2392264999998588,,,57784,18,Vrouw,Rechts,1,
,xotask,xotask,xotask,6,3,186,186,main,positivefb,-99,hard,29,1.2010489000003872,['n'],1,right,['9'],5,0.3416266000003816,,,57784,18,Vrouw,Rechts,1,
,xotask,xotask,xotask,7,3,187,187,main,positivefb,-99,easy,8,0.533435900000768,['n'],1,right,['0'],6,0.39595960000042396,,,57784,18,Vrouw,Rechts,1,
,xotask,xotask,xotask,8,3,188,188,main,positivefb,-99,hard,27,1.1007619000001796,['c'],0,right,['9'],5,0.28886510000029375,,,57784,18,Vrouw,Rechts,1,
,xotask,xotask,xotask,9,3,189,189,main,positivefb,-99,average,64,0.9182430999999269,['n'],0,left,['0'],6,0.8023582000005263,,,57784,18,Vrouw,Rechts,1,
,xotask,xotask,xotask,10,3,190,190,main,positivefb,-99,average,18,1.2010184999999183,['n'],1,right,['0'],6,0.7066743999994287,,,57784,18,Vrouw,Rechts,1,
,xotask,xotask,xotask,11,3,191,191,main,positivefb,-99,hard,25,0.5513473000000886,['n'],1,right,['0'],6,0.3612959000001865,,,57784,18,Vrouw,Rechts,1,
,xotask,xotask,xotask,12,3,192,192,main,positivefb,-99,average,63,1.4675132000002122,['c'],1,left,['8'],4,0.3217823999993925,,,57784,18,Vrouw,Rechts,1,
,xotask,xotask,xotask,13,3,193,193,main,positivefb,-99,average,18,2.5843801000000894,['n'],1,right,['0'],6,0.5181996999999683,,,57784,18,Vrouw,Rechts,1,
,xotask,xotask,xotask,14,3,194,194,main,positivefb,-99,easy,73,0.799949999999626,['c'],1,left,['9'],5,0.29797059999964404,,,57784,18,Vrouw,Rechts,1,
,xotask,xotask,xotask,15,3,195,195,main,positivefb,-99,hard,51,1.5184451999994053,['c'],1,left,['8'],4,0.41019500000038533,,,57784,18,Vrouw,Rechts,1,
,xotask,xotask,xotask,16,3,196,196,main,positivefb,-99,easy,74,0.8008465000002616,['c'],1,left,['9'],5,0.3067393000001175,,,57784,18,Vrouw,Rechts,1,
,xotask,xotask,xotask,17,3,197,197,main,positivefb,-99,average,15,0.8840240999998059,['n'],1,right,['0'],6,0.3963647000000492,,,57784,18,Vrouw,Rechts,1,
,xotask,xotask,xotask,18,3,198,198,main,positivefb,-99,easy,5,0.7504043000008096,['n'],1,right,['0'],6,0.4231657999998788,,,57784,18,Vrouw,Rechts,1,
,xotask,xotask,xotask,19,3,199,199,main,positivefb,-99,hard,28,1.2842829999999594,['c'],0,right,['9'],5,0.23630859999957465,,,57784,18,Vrouw,Rechts,1,
,xotask,xotask,xotask,20,3,200,200,main,positivefb,-99,easy,5,1.0178616000002876,['n'],1,right,['0'],6,0.2913442999997642,,,57784,18,Vrouw,Rechts,1,
,xotask,xotask,xotask,21,3,201,201,main,positivefb,-99,easy,72,1.0677905000002283,['c'],1,left,['0'],6,0.38130550000005314,,,57784,18,Vrouw,Rechts,1,
,xotask,xotask,xotask,22,3,202,202,main,positivefb,-99,easy,9,1.4178650999992897,['n'],1,right,['0'],6,0.8622383000001719,,,57784,18,Vrouw,Rechts,1,
,xotask,xotask,xotask,23,3,203,203,main,positivefb,-99,average,60,0.8346113000006881,['c'],1,left,['0'],6,0.39546429999973043,,,57784,18,Vrouw,Rechts,1,
,xotask,xotask,xotask,24,3,204,204,main,positivefb,-99,average,64,1.501078499999494,['c'],1,left,['9'],5,0.12059659999977157,,,57784,18,Vrouw,Rechts,1,
,xotask,xotask,xotask,25,3,205,205,main,positivefb,-99,average,18,1.050924699999996,['n'],1,right,['0'],6,0.31523659999947995,,,57784,18,Vrouw,Rechts,1,
,xotask,xotask,xotask,26,3,206,206,main,positivefb,-99,average,60,0.9178136999998969,['c'],1,left,['9'],5,0.2746718999997029,,,57784,18,Vrouw,Rechts,1,
,xotask,xotask,xotask,27,3,207,207,main,positivefb,-99,easy,7,0.8346570000003339,['n'],1,right,['0'],6,0.31143450000035955,,,57784,18,Vrouw,Rechts,1,
,xotask,xotask,xotask,28,3,208,208,main,positivefb,-99,average,16,1.4509050999995452,['c'],0,right,['0'],6,0.37747769999987213,,,57784,18,Vrouw,Rechts,1,
,xotask,xotask,xotask,29,3,209,209,main,positivefb,-99,average,64,1.0847958999993352,['n'],0,left,['0'],6,0.4163935999995374,,,57784,18,Vrouw,Rechts,1,
,xotask,xotask,xotask,30,3,210,210,main,positivefb,-99,average,15,0.8343881999999212,['c'],0,right,['0'],6,0.43936109999958717,,,57784,18,Vrouw,Rechts,1,
,xotask,xotask,xotask,31,3,211,211,main,positivefb,-99,easy,71,1.0004365999993752,['n'],0,left,['0'],6,0.462669200000164,,,57784,18,Vrouw,Rechts,1,
,xotask,xotask,xotask,32,3,212,212,main,positivefb,-99,easy,74,0.9347092000007251,['n'],0,left,['0'],6,0.4792495000001509,,,57784,18,Vrouw,Rechts,1,
,xotask,xotask,xotask,33,3,213,213,main,positivefb,-99,average,16,1.1004088999998203,['c'],0,right,['0'],6,0.2663263000004008,,,57784,18,Vrouw,Rechts,1,
,xotask,xotask,xotask,34,3,214,214,main,positivefb,-99,easy,71,0.7342669999998179,['n'],0,left,['0'],6,0.29097319999982574,,,57784,18,Vrouw,Rechts,1,
,xotask,xotask,xotask,35,3,215,215,main,positivefb,-99,hard,52,1.0337656000001516,['n'],0,left,['0'],6,0.35875769999984186,,,57784,18,Vrouw,Rechts,1,
,xotask,xotask,xotask,36,3,216,216,main,positivefb,-99,easy,5,1.083440100000189,['c'],0,right,['9'],5,0.3736010000002352,,,57784,18,Vrouw,Rechts,1,
,xotask,xotask,xotask,37,3,217,217,main,positivefb,-99,hard,29,1.435088199999882,['n'],1,right,['9'],5,0.41487230000075215,,,57784,18,Vrouw,Rechts,1,
,xotask,xotask,xotask,38,3,218,218,main,positivefb,-99,hard,54,0.6012613000002602,['c'],1,left,['0'],6,1.1660696999997526,,,57784,18,Vrouw,Rechts,1,
,xotask,xotask,xotask,39,3,219,219,main,positivefb,-99,hard,54,1.0675525000006019,['c'],1,left,['0'],6,0.3258463000001939,,,57784,18,Vrouw,Rechts,1,
,xotask,xotask,xotask,40,3,220,220,main,positivefb,-99,average,63,0.967879300000277,['n'],0,left,['0'],6,0.3239168999998583,,,57784,18,Vrouw,Rechts,1,
,xotask,xotask,xotask,41,3,221,221,main,positivefb,-99,hard,52,0.7676831999997376,['c'],1,left,['9'],5,0.3048980000003212,,,57784,18,Vrouw,Rechts,1,
,xotask,xotask,xotask,42,3,222,222,main,positivefb,-99,average,17,1.8007920000000013,['n'],1,right,['0'],6,0.7096618000005037,,,57784,18,Vrouw,Rechts,1,
,xotask,xotask,xotask,43,3,223,223,main,positivefb,-99,easy,70,2.1005737000004956,['c'],1,left,['8'],4,1.3100978000002215,,,57784,18,Vrouw,Rechts,1,
,xotask,xotask,xotask,44,3,224,224,main,positivefb,-99,hard,53,1.201196600000003,['c'],1,left,['9'],5,0.26670130000002246,,,57784,18,Vrouw,Rechts,1,
,xotask,xotask,xotask,45,3,225,225,main,positivefb,-99,average,15,0.5853070000002845,['n'],1,right,['0'],6,0.32170549999955256,,,57784,18,Vrouw,Rechts,1,
,xotask,xotask,xotask,46,3,226,226,main,positivefb,-99,hard,26,0.9015300000000934,['n'],1,right,['9'],5,0.3212911000000531,,,57784,18,Vrouw,Rechts,1,
,xotask,xotask,xotask,47,3,227,227,main,positivefb,-99,hard,25,2.151256299999659,['n'],1,right,['9'],5,0.43119410000053904,,,57784,18,Vrouw,Rechts,1,
,xotask,xotask,xotask,48,3,228,228,main,positivefb,-99,hard,50,2.017877100000078,['c'],1,left,['0'],6,0.40592780000042694,,,57784,18,Vrouw,Rechts,1,
,xotask,xotask,xotask,49,3,229,229,main,positivefb,-99,average,18,0.9176334000003408,['n'],1,right,['0'],6,0.4181027000004178,,,57784,18,Vrouw,Rechts,1,
,xotask,xotask,xotask,50,3,230,230,main,positivefb,-99,easy,5,1.201480000000629,['n'],1,right,['0'],6,0.5382348000002821,,,57784,18,Vrouw,Rechts,1,
,xotask,xotask,xotask,51,3,231,231,main,positivefb,-99,hard,53,1.5672217000001183,['n'],0,left,['9'],5,0.31843339999977616,,,57784,18,Vrouw,Rechts,1,
,xotask,xotask,xotask,52,3,232,232,main,positivefb,-99,average,64,0.7181109999992259,['c'],1,left,['9'],5,0.23812770000040473,,,57784,18,Vrouw,Rechts,1,
,xotask,xotask,xotask,53,3,233,233,main,positivefb,-99,easy,74,1.2340900999997757,['c'],1,left,['0'],6,0.1876347999996142,,,57784,18,Vrouw,Rechts,1,
,xotask,xotask,xotask,54,3,234,234,main,positivefb,-99,hard,51,0.9674648000000161,['c'],1,left,['9'],5,0.24696919999951206,,,57784,18,Vrouw,Rechts,1,
,xotask,xotask,xotask,55,3,235,235,main,positivefb,-99,easy,71,1.0512197999996715,['c'],1,left,['0'],6,0.30847519999952056,,,57784,18,Vrouw,Rechts,1,
,xotask,xotask,xotask,56,3,236,236,main,positivefb,-99,average,63,0.8501741999998558,['c'],1,left,['0'],6,0.4385029000004579,,,57784,18,Vrouw,Rechts,1,
,xotask,xotask,xotask,57,3,237,237,main,positivefb,-99,hard,27,1.1688630999997258,['c'],0,right,['0'],6,0.5597997000004398,,,57784,18,Vrouw,Rechts,1,
,xotask,xotask,xotask,58,3,238,238,main,positivefb,-99,hard,52,0.5512875000003987,['c'],1,left,['0'],6,0.33237259999987145,,,57784,18,Vrouw,Rechts,1,
,xotask,xotask,xotask,59,3,239,239,main,positivefb,-99,easy,5,0.7348551999994015,['n'],1,right,['0'],6,0.47459560000061174,,,57784,18,Vrouw,Rechts,1,
,xotask,xotask,xotask,0,4,240,240,main,positivefb,-99,hard,29,1.5845230000004449,['n'],1,right,['0'],6,0.2957082000002629,,,57784,18,Vrouw,Rechts,1,
,xotask,xotask,xotask,1,4,241,241,main,positivefb,-99,hard,26,0.6176293999997142,['c'],0,right,['9'],5,0.30910750000020926,,,57784,18,Vrouw,Rechts,1,
,xotask,xotask,xotask,2,4,242,242,main,positivefb,-99,easy,70,0.9676104999998643,['c'],1,left,['0'],6,0.2023988000000827,,,57784,18,Vrouw,Rechts,1,
,xotask,xotask,xotask,3,4,243,243,main,positivefb,-99,hard,51,1.0853241000004346,['n'],0,left,['0'],6,0.32805089999965276,,,57784,18,Vrouw,Rechts,1,
,xotask,xotask,xotask,4,4,244,244,main,positivefb,-99,hard,53,1.233308400000169,['c'],1,left,['9'],5,0.2103504000006069,,,57784,18,Vrouw,Rechts,1,
,xotask,xotask,xotask,5,4,245,245,main,positivefb,-99,average,64,0.8667728999998872,['c'],1,left,['9'],5,0.2564748000004329,,,57784,18,Vrouw,Rechts,1,
,xotask,xotask,xotask,6,4,246,246,main,positivefb,-99,hard,27,1.2177953999998863,['n'],1,right,['0'],6,0.3104748000005202,,,57784,18,Vrouw,Rechts,1,
,xotask,xotask,xotask,7,4,247,247,main,positivefb,-99,hard,52,1.6343001000004733,['n'],0,left,['0'],6,0.545868000000155,,,57784,18,Vrouw,Rechts,1,
,xotask,xotask,xotask,8,4,248,248,main,positivefb,-99,easy,8,0.8010882999997193,['n'],1,right,['0'],6,0.3735306999997192,,,57784,18,Vrouw,Rechts,1,
,xotask,xotask,xotask,9,4,249,249,main,positivefb,-99,easy,6,0.7855174999995143,['n'],1,right,['0'],6,0.5199295000002166,,,57784,18,Vrouw,Rechts,1,
,xotask,xotask,xotask,10,4,250,250,main,positivefb,-99,average,17,0.451042900000175,['n'],1,right,['0'],6,0.29014180000012857,,,57784,18,Vrouw,Rechts,1,
,xotask,xotask,xotask,11,4,251,251,main,positivefb,-99,easy,73,0.7508203000006688,['c'],1,left,['0'],6,0.16164029999981722,,,57784,18,Vrouw,Rechts,1,
,xotask,xotask,xotask,12,4,252,252,main,positivefb,-99,average,64,0.7835412000003998,['c'],1,left,['9'],5,0.15644350000002305,,,57784,18,Vrouw,Rechts,1,
,xotask,xotask,xotask,13,4,253,253,main,positivefb,-99,hard,25,1.0006296999999904,['n'],1,right,['0'],6,0.3027797000004284,,,57784,18,Vrouw,Rechts,1,
,xotask,xotask,xotask,14,4,254,254,main,positivefb,-99,hard,28,1.3176871999994546,['n'],1,right,['0'],6,0.3828683000001547,,,57784,18,Vrouw,Rechts,1,
,xotask,xotask,xotask,15,4,255,255,main,positivefb,-99,easy,72,0.5343606999995245,['c'],1,left,['0'],6,0.19562020000012126,,,57784,18,Vrouw,Rechts,1,
,xotask,xotask,xotask,16,4,256,256,main,positivefb,-99,easy,72,0.7178722999997262,['c'],1,left,['0'],6,0.11961759999940114,,,57784,18,Vrouw,Rechts,1,
,xotask,xotask,xotask,17,4,257,257,main,positivefb,-99,average,19,0.6851295999995273,['n'],1,right,['0'],6,0.32863169999927777,,,57784,18,Vrouw,Rechts,1,
,xotask,xotask,xotask,18,4,258,258,main,positivefb,-99,average,15,0.5502244999997856,['n'],1,right,['0'],6,0.3504424000002473,,,57784,18,Vrouw,Rechts,1,
,xotask,xotask,xotask,19,4,259,259,main,positivefb,-99,hard,27,0.484816299999693,['n'],1,right,['0'],6,0.2697475000004488,,,57784,18,Vrouw,Rechts,1,
,xotask,xotask,xotask,20,4,260,260,main,positivefb,-99,easy,5,0.38489359999948647,['n'],1,right,['0'],6,0.30887609999990673,,,57784,18,Vrouw,Rechts,1,
,xotask,xotask,xotask,21,4,261,261,main,positivefb,-99,hard,25,0.6164144999993368,['n'],1,right,['0'],6,0.2813558000007106,,,57784,18,Vrouw,Rechts,1,
,xotask,xotask,xotask,22,4,262,262,main,positivefb,-99,hard,52,0.7165972000002512,['c'],1,left,['9'],5,0.21078849999958038,,,57784,18,Vrouw,Rechts,1,
,xotask,xotask,xotask,23,4,263,263,main,positivefb,-99,hard,54,0.9175611000000572,['c'],1,left,['9'],5,0.24654040000041277,,,57784,18,Vrouw,Rechts,1,
,xotask,xotask,xotask,24,4,264,264,main,positivefb,-99,average,63,0.634971299999961,['c'],1,left,['9'],5,0.4281724000002214,,,57784,18,Vrouw,Rechts,1,
,xotask,xotask,xotask,25,4,265,265,main,positivefb,-99,hard,53,0.6175319000003583,['c'],1,left,['9'],5,0.19533529999989696,,,57784,18,Vrouw,Rechts,1,
,xotask,xotask,xotask,26,4,266,266,main,positivefb,-99,average,16,1.0341801000004125,['n'],1,right,['9'],5,0.29911510000056296,,,57784,18,Vrouw,Rechts,1,
,xotask,xotask,xotask,27,4,267,267,main,positivefb,-99,easy,9,0.5175689000006969,['n'],1,right,['0'],6,0.3069922000004226,,,57784,18,Vrouw,Rechts,1,
,xotask,xotask,xotask,28,4,268,268,main,positivefb,-99,average,62,0.7517285999992964,['c'],1,left,['0'],6,0.21823940000012954,,,57784,18,Vrouw,Rechts,1,
,xotask,xotask,xotask,29,4,269,269,main,positivefb,-99,average,61,0.7682275999995909,['c'],1,left,['0'],6,0.2590647999995781,,,57784,18,Vrouw,Rechts,1,
,xotask,xotask,xotask,30,4,270,270,main,positivefb,-99,easy,7,0.901944199999889,['n'],1,right,['0'],6,0.23789099999976315,,,57784,18,Vrouw,Rechts,1,
,xotask,xotask,xotask,31,4,271,271,main,positivefb,-99,easy,5,0.684132999999747,['c'],0,right,['2'],2,0.9141291999994792,,,57784,18,Vrouw,Rechts,1,
,xotask,xotask,xotask,32,4,272,272,main,positivefb,-99,easy,73,1.0177645000003395,['c'],1,left,['0'],6,0.2465209000001778,,,57784,18,Vrouw,Rechts,1,
,xotask,xotask,xotask,33,4,273,273,main,positivefb,-99,hard,26,0.96763909999936,['n'],1,right,['0'],6,0.23910590000014054,,,57784,18,Vrouw,Rechts,1,
,xotask,xotask,xotask,34,4,274,274,main,positivefb,-99,easy,71,0.7173822000004293,['c'],1,left,['0'],6,0.3214984000005643,,,57784,18,Vrouw,Rechts,1,
,xotask,xotask,xotask,35,4,275,275,main,positivefb,-99,average,64,0.7676753999994617,['c'],1,left,['0'],6,0.2073246999998446,,,57784,18,Vrouw,Rechts,1,
,xotask,xotask,xotask,36,4,276,276,main,positivefb,-99,easy,5,0.9010275999999067,['n'],1,right,['0'],6,0.2750293999997666,,,57784,18,Vrouw,Rechts,1,
,xotask,xotask,xotask,37,4,277,277,main,positivefb,-99,average,63,0.5838390000008076,['c'],1,left,['0'],6,0.27384669999992184,,,57784,18,Vrouw,Rechts,1,
,xotask,xotask,xotask,38,4,278,278,main,positivefb,-99,easy,71,0.6843482999993284,['c'],1,left,['0'],6,0.20455439999932423,,,57784,18,Vrouw,Rechts,1,
,xotask,xotask,xotask,39,4,279,279,main,positivefb,-99,hard,26,0.9847593000004053,['n'],1,right,['9'],5,0.23835139999937383,,,57784,18,Vrouw,Rechts,1,
,xotask,xotask,xotask,40,4,280,280,main,positivefb,-99,easy,5,0.7841144000003624,['n'],1,right,['0'],6,0.32659329999933107,,,57784,18,Vrouw,Rechts,1,
,xotask,xotask,xotask,41,4,281,281,main,positivefb,-99,hard,51,0.6679501999997228,['c'],1,left,['9'],5,0.3358567999994193,,,57784,18,Vrouw,Rechts,1,
,xotask,xotask,xotask,42,4,282,282,main,positivefb,-99,average,16,0.999823699999979,['n'],1,right,['0'],6,0.5389934000004359,,,57784,18,Vrouw,Rechts,1,
,xotask,xotask,xotask,43,4,283,283,main,positivefb,-99,average,60,0.7012543999999252,['c'],1,left,['9'],5,0.30613700000048993,,,57784,18,Vrouw,Rechts,1,
,xotask,xotask,xotask,44,4,284,284,main,positivefb,-99,easy,74,0.5007093000003806,['c'],1,left,['9'],5,0.290760599999885,,,57784,18,Vrouw,Rechts,1,
,xotask,xotask,xotask,45,4,285,285,main,positivefb,-99,hard,53,1.0836749999998574,['n'],0,left,['0'],6,0.26901599999928294,,,57784,18,Vrouw,Rechts,1,
,xotask,xotask,xotask,46,4,286,286,main,positivefb,-99,average,19,0.7013025000005655,['n'],1,right,['0'],6,0.33489209999970626,,,57784,18,Vrouw,Rechts,1,
,xotask,xotask,xotask,47,4,287,287,main,positivefb,-99,average,17,0.5173801000000822,['n'],1,right,['0'],6,0.3412644,,,57784,18,Vrouw,Rechts,1,
,xotask,xotask,xotask,48,4,288,288,main,positivefb,-99,hard,53,0.8685023000007277,['c'],1,left,['9'],5,0.26237159999982396,,,57784,18,Vrouw,Rechts,1,
,xotask,xotask,xotask,49,4,289,289,main,positivefb,-99,easy,74,0.634914000000208,['c'],1,left,['9'],5,0.45201210000050196,,,57784,18,Vrouw,Rechts,1,
,xotask,xotask,xotask,50,4,290,290,main,positivefb,-99,average,61,0.66759170000023,['c'],1,left,['0'],6,0.40781949999927747,,,57784,18,Vrouw,Rechts,1,
,xotask,xotask,xotask,51,4,291,291,main,positivefb,-99,easy,5,1.0010136000000784,['c'],0,right,['9'],5,0.7687814000000799,,,57784,18,Vrouw,Rechts,1,
,xotask,xotask,xotask,52,4,292,292,main,positivefb,-99,average,16,0.500878200000443,['n'],1,right,['0'],6,0.285990700000184,,,57784,18,Vrouw,Rechts,1,
,xotask,xotask,xotask,53,4,293,293,main,positivefb,-99,average,15,0.5510384999997768,['n'],1,right,['0'],6,0.2695324000005712,,,57784,18,Vrouw,Rechts,1,
,xotask,xotask,xotask,54,4,294,294,main,positivefb,-99,easy,8,0.500050900000133,['n'],1,right,['0'],6,0.2721781000000192,,,57784,18,Vrouw,Rechts,1,
,xotask,xotask,xotask,55,4,295,295,main,positivefb,-99,hard,52,0.4839600999994218,['n'],0,left,['9'],5,0.962286299999505,,,57784,18,Vrouw,Rechts,1,
,xotask,xotask,xotask,56,4,296,296,main,positivefb,-99,easy,71,0.6850753999997323,['c'],1,left,['9'],5,0.2503687999997055,,,57784,18,Vrouw,Rechts,1,
,xotask,xotask,xotask,57,4,297,297,main,positivefb,-99,average,15,0.6165917999996964,['c'],0,right,['0'],6,0.4878160999996908,,,57784,18,Vrouw,Rechts,1,
,xotask,xotask,xotask,58,4,298,298,main,positivefb,-99,hard,27,1.2678568000001178,['n'],1,right,['0'],6,0.27433120000023337,,,57784,18,Vrouw,Rechts,1,
,xotask,xotask,xotask,59,4,299,299,main,positivefb,-99,average,62,0.9174597999999605,['c'],1,left,['0'],6,0.24363439999979164,,,57784,18,Vrouw,Rechts,1,
,xotask,xotask,xotask,0,0,0,300,training,positivefb,92,hard,25,1.768260800000462,['n'],1,right,['9'],5,0.611323999999513,,,57784,18,Vrouw,Rechts,1,
,xotask,xotask,xotask,1,0,1,301,training,positivefb,88,hard,51,0.9340611000006902,['n'],0,left,['9'],5,0.2617264000000432,,,57784,18,Vrouw,Rechts,1,
,xotask,xotask,xotask,2,0,2,302,training,positivefb,95,average,64,0.5180459000002884,['c'],1,left,['9'],5,0.2875723000006474,,,57784,18,Vrouw,Rechts,1,
,xotask,xotask,xotask,3,0,3,303,training,positivefb,89,easy,72,0.6002498999996533,['c'],1,left,['9'],5,0.24440359999971406,,,57784,18,Vrouw,Rechts,1,
,xotask,xotask,xotask,4,0,4,304,training,positivefb,99,average,62,0.48404500000015105,['c'],1,left,['9'],5,0.31972899999982474,,,57784,18,Vrouw,Rechts,1,
,xotask,xotask,xotask,5,0,5,305,training,positivefb,97,hard,50,0.5337030999999115,['c'],1,left,['9'],5,0.2215234999994209,,,57784,18,Vrouw,Rechts,1,
,xotask,xotask,xotask,6,0,6,306,training,positivefb,89,average,16,0.850366199999371,['n'],1,right,['0'],6,0.29079120000005787,,,57784,18,Vrouw,Rechts,1,
,xotask,xotask,xotask,7,0,7,307,training,positivefb,80,hard,28,0.7169686999995974,['n'],1,right,['9'],5,0.34676219999983005,,,57784,18,Vrouw,Rechts,1,
,xotask,xotask,xotask,8,0,8,308,training,positivefb,88,hard,25,0.8335528999996313,['n'],1,right,['0'],6,0.4918014000004405,,,57784,18,Vrouw,Rechts,1,
,xotask,xotask,xotask,9,0,9,309,training,positivefb,80,average,18,0.4679169999999431,['n'],1,right,['0'],6,0.32644320000053995,,,57784,18,Vrouw,Rechts,1,
,xotask,xotask,xotask,10,0,10,310,training,positivefb,98,hard,28,0.7331491000004462,['c'],0,right,['0'],6,0.3642427000004318,,,57784,18,Vrouw,Rechts,1,
,xotask,xotask,xotask,11,0,11,311,training,positivefb,91,easy,5,0.5825893999999607,['n'],1,right,['0'],6,0.3268365999992966,,,57784,18,Vrouw,Rechts,1,
,xotask,xotask,xotask,12,0,12,312,training,positivefb,95,average,63,0.9004033000001073,['c'],1,left,['0'],6,0.2537592999997287,,,57784,18,Vrouw,Rechts,1,
,xotask,xotask,xotask,13,0,13,313,training,positivefb,98,easy,7,0.7333611000003657,['n'],1,right,['0'],6,0.3020366999999169,,,57784,18,Vrouw,Rechts,1,
,xotask,xotask,xotask,14,0,14,314,training,positivefb,92,easy,9,0.5507867999995142,['n'],1,right,['0'],6,0.25264700000025186,,,57784,18,Vrouw,Rechts,1,
,xotask,xotask,xotask,15,0,15,315,training,positivefb,94,easy,74,0.46773040000061883,['c'],1,left,['0'],6,0.25622310000017023,,,57784,18,Vrouw,Rechts,1,
,xotask,xotask,xotask,16,0,16,316,training,positivefb,82,easy,9,0.5676604999998744,['n'],1,right,['0'],6,0.2792467999997825,,,57784,18,Vrouw,Rechts,1,
,xotask,xotask,xotask,17,0,17,317,training,positivefb,98,average,19,0.5504535000000033,['n'],1,right,['0'],6,0.38246299999991606,,,57784,18,Vrouw,Rechts,1,
,xotask,xotask,xotask,18,0,18,318,training,positivefb,89,hard,27,0.45006590000048163,['n'],1,right,['0'],6,0.30875990000004094,,,57784,18,Vrouw,Rechts,1,
,xotask,xotask,xotask,19,0,19,319,training,positivefb,87,easy,70,0.8835211000005074,['c'],1,left,['0'],6,0.349901100000352,,,57784,18,Vrouw,Rechts,1,
,xotask,xotask,xotask,20,0,20,320,training,positivefb,96,hard,28,0.5854214999999385,['n'],1,right,['0'],6,0.6331179999997403,,,57784,18,Vrouw,Rechts,1,
,xotask,xotask,xotask,21,0,21,321,training,positivefb,92,average,62,0.9171926999997595,['c'],1,left,['0'],6,0.23453690000042116,,,57784,18,Vrouw,Rechts,1,
,xotask,xotask,xotask,22,0,22,322,training,positivefb,99,easy,8,0.5340152999997372,['n'],1,right,['0'],6,0.3878943000008803,,,57784,18,Vrouw,Rechts,1,
,xotask,xotask,xotask,23,0,23,323,training,positivefb,86,easy,70,0.6163876000000528,['c'],1,left,['0'],6,0.307579700000133,,,57784,18,Vrouw,Rechts,1,
,xotask,xotask,xotask,24,0,24,324,training,positivefb,97,hard,54,0.7159724000002825,['c'],1,left,['0'],6,0.2347258999998303,,,57784,18,Vrouw,Rechts,1,
,xotask,xotask,xotask,25,0,25,325,training,positivefb,96,hard,50,0.8987407999993593,['c'],1,left,['9'],5,0.3105691000000661,,,57784,18,Vrouw,Rechts,1,
,xotask,xotask,xotask,26,0,26,326,training,positivefb,98,average,63,0.7001429000001735,['c'],1,left,['0'],6,0.39783710000028805,,,57784,18,Vrouw,Rechts,1,
,xotask,xotask,xotask,27,0,27,327,training,positivefb,95,easy,72,0.7666088999994827,['c'],1,left,['0'],6,0.311150099999395,,,57784,18,Vrouw,Rechts,1,
,xotask,xotask,xotask,28,0,28,328,training,positivefb,99,hard,25,0.6170461000001524,['n'],1,right,['0'],6,0.3708948000003147,,,57784,18,Vrouw,Rechts,1,
,xotask,xotask,xotask,29,0,29,329,training,positivefb,87,hard,52,0.7165496999996321,['c'],1,left,['9'],5,0.1913064000000304,,,57784,18,Vrouw,Rechts,1,
,xotask,xotask,xotask,30,0,30,330,training,positivefb,86,easy,9,1.2004392999997435,['n'],1,right,['0'],6,0.30425950000062585,,,57784,18,Vrouw,Rechts,1,
,xotask,xotask,xotask,31,0,31,331,training,positivefb,89,average,60,0.7335458999996263,['c'],1,left,['0'],6,0.30308899999999994,,,57784,18,Vrouw,Rechts,1,
,xotask,xotask,xotask,32,0,32,332,training,positivefb,73,average,19,0.517009400000461,['c'],0,right,['8'],4,1.4537780999999086,,,57784,18,Vrouw,Rechts,1,
,xotask,xotask,xotask,33,0,33,333,training,positivefb,99,easy,6,0.6008862999997291,['n'],1,right,['0'],6,0.33140949999960867,,,57784,18,Vrouw,Rechts,1,
,xotask,xotask,xotask,34,0,34,334,training,positivefb,94,average,62,0.45018609999988257,['c'],1,left,['0'],6,0.2839246000003186,,,57784,18,Vrouw,Rechts,1,
,xotask,xotask,xotask,35,0,35,335,training,positivefb,94,easy,7,0.5671452000005957,['n'],1,right,['0'],6,0.33773680000012973,,,57784,18,Vrouw,Rechts,1,
,xotask,xotask,xotask,36,0,36,336,training,positivefb,78,easy,5,1.0835855000004813,['n'],1,right,['9'],5,0.2259809999995923,,,57784,18,Vrouw,Rechts,1,
,xotask,xotask,xotask,37,0,37,337,training,positivefb,98,average,15,0.4836869000000661,['n'],1,right,['9'],5,0.3174188000002687,,,57784,18,Vrouw,Rechts,1,
,xotask,xotask,xotask,38,0,38,338,training,positivefb,87,hard,51,1.0505030999993323,['n'],0,left,['0'],6,0.3269289999998364,,,57784,18,Vrouw,Rechts,1,
,xotask,xotask,xotask,39,0,39,339,training,positivefb,95,easy,71,0.7335361000004923,['c'],1,left,['0'],6,0.18088559999978315,,,57784,18,Vrouw,Rechts,1,
,xotask,xotask,xotask,40,0,40,340,training,positivefb,90,average,60,0.7166367999998329,['c'],1,left,['0'],6,0.24835829999938142,,,57784,18,Vrouw,Rechts,1,
,xotask,xotask,xotask,41,0,41,341,training,positivefb,66,hard,53,0.5172829000002821,['c'],1,left,['0'],6,0.2823547999996663,,,57784,18,Vrouw,Rechts,1,
,xotask,xotask,xotask,42,0,42,342,training,positivefb,99,easy,72,0.5002879000003304,['c'],1,left,['0'],6,0.3152461999998195,,,57784,18,Vrouw,Rechts,1,
,xotask,xotask,xotask,43,0,43,343,training,positivefb,97,average,61,0.782710099999349,['c'],1,left,['0'],6,0.4150442000000112,,,57784,18,Vrouw,Rechts,1,
,xotask,xotask,xotask,44,0,44,344,training,positivefb,97,average,17,0.7663532999995368,['n'],1,right,['9'],5,0.35941790000015317,,,57784,18,Vrouw,Rechts,1,
,xotask,xotask,xotask,45,0,45,345,training,positivefb,96,easy,7,0.6669696999997541,['n'],1,right,['9'],5,0.27923639999971783,,,57784,18,Vrouw,Rechts,1,
,xotask,xotask,xotask,46,0,46,346,training,positivefb,98,hard,25,0.5676493000000846,['n'],1,right,['9'],5,0.3014664000002085,,,57784,18,Vrouw,Rechts,1,
,xotask,xotask,xotask,47,0,47,347,training,positivefb,97,average,60,0.4837025000006179,['c'],1,left,['9'],5,0.23058010000022477,,,57784,18,Vrouw,Rechts,1,
,xotask,xotask,xotask,48,0,48,348,training,positivefb,90,hard,51,1.0001152999993792,['c'],1,left,['9'],5,0.32610769999973854,,,57784,18,Vrouw,Rechts,1,
,xotask,xotask,xotask,49,0,49,349,training,positivefb,96,average,15,1.0836275000001478,['n'],1,right,['0'],6,0.3660027000005357,,,57784,18,Vrouw,Rechts,1,
,xotask,xotask,xotask,50,0,50,350,training,positivefb,99,easy,72,0.6833060999997542,['c'],1,left,['0'],6,0.4438525000005029,,,57784,18,Vrouw,Rechts,1,
,xotask,xotask,xotask,51,0,51,351,training,positivefb,95,average,16,0.9499838000001546,['n'],1,right,['0'],6,0.3649619999996503,,,57784,18,Vrouw,Rechts,1,
,xotask,xotask,xotask,52,0,52,352,training,positivefb,86,easy,71,0.5674011999999493,['c'],1,left,['0'],6,0.34332180000001244,,,57784,18,Vrouw,Rechts,1,
,xotask,xotask,xotask,53,0,53,353,training,positivefb,86,average,16,0.7169550999997227,['n'],1,right,['0'],6,0.38916710000012245,,,57784,18,Vrouw,Rechts,1,
,xotask,xotask,xotask,54,0,54,354,training,positivefb,81,hard,53,0.9843015999995259,['c'],1,left,['0'],6,0.3825335999999879,,,57784,18,Vrouw,Rechts,1,
,xotask,xotask,xotask,55,0,55,355,training,positivefb,99,average,18,0.7335262000005969,['n'],1,right,['0'],6,1.0501901999996335,,,57784,18,Vrouw,Rechts,1,
,xotask,xotask,xotask,56,0,56,356,training,positivefb,86,hard,29,0.7333507999992435,['c'],0,right,['0'],6,0.33905700000013894,,,57784,18,Vrouw,Rechts,1,
,xotask,xotask,xotask,57,0,57,357,training,positivefb,97,hard,26,0.934675900000002,['n'],1,right,['0'],6,0.3195466999995915,,,57784,18,Vrouw,Rechts,1,
,xotask,xotask,xotask,58,0,58,358,training,positivefb,91,easy,70,1.1343790000000809,['c'],1,left,['0'],6,0.2940257999998721,,,57784,18,Vrouw,Rechts,1,
,xotask,xotask,xotask,59,0,59,359,training,positivefb,90,hard,53,0.7678052000001117,['c'],1,left,['0'],6,0.3401527999994869,,,57784,18,Vrouw,Rechts,1,
,xotask,xotask,xotask,0,1,60,360,training,positivefb,96,easy,7,3.5675787999998647,['n'],1,right,['9'],5,1.8183368999998493,,,57784,18,Vrouw,Rechts,1,
,xotask,xotask,xotask,1,1,61,361,training,positivefb,91,hard,52,0.717018399999688,['c'],1,left,['9'],5,0.2598938999999518,,,57784,18,Vrouw,Rechts,1,
,xotask,xotask,xotask,2,1,62,362,training,positivefb,95,average,18,0.8492735999998331,['n'],1,right,['9'],5,0.3278230000005351,,,57784,18,Vrouw,Rechts,1,
,xotask,xotask,xotask,3,1,63,363,training,positivefb,76,average,15,1.3842847999994774,['n'],1,right,['9'],5,0.4122103000008792,,,57784,18,Vrouw,Rechts,1,
,xotask,xotask,xotask,4,1,64,364,training,positivefb,97,easy,73,0.7336355000006733,['c'],1,left,['9'],5,0.2390968999998222,,,57784,18,Vrouw,Rechts,1,
,xotask,xotask,xotask,5,1,65,365,training,positivefb,96,average,64,1.3999110999993718,['c'],1,left,['9'],5,0.30199139999967883,,,57784,18,Vrouw,Rechts,1,
,xotask,xotask,xotask,6,1,66,366,training,positivefb,96,easy,5,0.8674607999992077,['n'],1,right,['9'],5,0.32653819999995903,,,57784,18,Vrouw,Rechts,1,
,xotask,xotask,xotask,7,1,67,367,training,positivefb,96,hard,54,0.6840812000000369,['c'],1,left,['9'],5,0.32709540000087145,,,57784,18,Vrouw,Rechts,1,
,xotask,xotask,xotask,8,1,68,368,training,positivefb,94,average,15,0.9337454000005891,['n'],1,right,['0'],6,0.3889501999992717,,,57784,18,Vrouw,Rechts,1,
,xotask,xotask,xotask,9,1,69,369,training,positivefb,95,easy,73,0.783446799999183,['c'],1,left,['0'],6,0.2386769999993703,,,57784,18,Vrouw,Rechts,1,
,xotask,xotask,xotask,10,1,70,370,training,positivefb,81,hard,53,0.7668652000002112,['n'],0,left,['0'],6,0.3498605000004318,,,57784,18,Vrouw,Rechts,1,
,xotask,xotask,xotask,11,1,71,371,training,positivefb,91,easy,74,0.7172947999997632,['c'],1,left,['0'],6,0.30768580000039947,,,57784,18,Vrouw,Rechts,1,
,xotask,xotask,xotask,12,1,72,372,training,positivefb,80,hard,51,0.666467900000498,['n'],0,left,['0'],6,0.34133699999983946,,,57784,18,Vrouw,Rechts,1,
,xotask,xotask,xotask,13,1,73,373,training,positivefb,42,hard,25,0.533280200000263,['c'],0,right,['0'],6,0.5539651999997659,,,57784,18,Vrouw,Rechts,1,
,xotask,xotask,xotask,14,1,74,374,training,positivefb,73,average,15,0.9163655000002109,['n'],1,right,['0'],6,0.3198938999994425,,,57784,18,Vrouw,Rechts,1,
,xotask,xotask,xotask,15,1,75,375,training,positivefb,95,hard,27,0.7171981999999844,['n'],1,right,['9'],5,0.454311499999676,,,57784,18,Vrouw,Rechts,1,
,xotask,xotask,xotask,16,1,76,376,training,positivefb,94,easy,72,0.8342513999996299,['c'],1,left,['9'],5,0.21907920000012382,,,57784,18,Vrouw,Rechts,1,
,xotask,xotask,xotask,17,1,77,377,training,positivefb,71,average,17,0.7164722999996229,['n'],1,right,['9'],5,0.3260887999995248,,,57784,18,Vrouw,Rechts,1,
,xotask,xotask,xotask,18,1,78,378,training,positivefb,96,easy,6,0.8337585999997827,['n'],1,right,['0'],6,0.40828399999918474,,,57784,18,Vrouw,Rechts,1,
,xotask,xotask,xotask,19,1,79,379,training,positivefb,88,hard,29,0.7830399000004036,['c'],0,right,['0'],6,0.304989299999761,,,57784,18,Vrouw,Rechts,1,
,xotask,xotask,xotask,20,1,80,380,training,positivefb,78,hard,29,0.8345896000000721,['n'],1,right,['0'],6,0.5234080000000176,,,57784,18,Vrouw,Rechts,1,
,xotask,xotask,xotask,21,1,81,381,training,positivefb,91,easy,74,0.8335017999997945,['c'],1,left,['0'],6,0.27750469999955385,,,57784,18,Vrouw,Rechts,1,
,xotask,xotask,xotask,22,1,82,382,training,positivefb,85,hard,51,0.8334926999996242,['n'],0,left,['0'],6,0.33755010000004404,,,57784,18,Vrouw,Rechts,1,
,xotask,xotask,xotask,23,1,83,383,training,positivefb,83,hard,51,0.8507699000001594,['c'],1,left,['0'],6,0.3375579999992624,,,57784,18,Vrouw,Rechts,1,
,xotask,xotask,xotask,24,1,84,384,training,positivefb,86,average,60,0.582837599999948,['c'],1,left,['0'],6,0.28530809999938356,,,57784,18,Vrouw,Rechts,1,
,xotask,xotask,xotask,25,1,85,385,training,positivefb,90,average,60,0.5330986999997549,['c'],1,left,['0'],6,0.20497989999967103,,,57784,18,Vrouw,Rechts,1,
,xotask,xotask,xotask,26,1,86,386,training,positivefb,95,easy,9,0.9174161999999342,['n'],1,right,['0'],6,0.41561819999969885,,,57784,18,Vrouw,Rechts,1,
,xotask,xotask,xotask,27,1,87,387,training,positivefb,98,average,60,0.6336473999999725,['c'],1,left,['0'],6,0.46175810000022466,,,57784,18,Vrouw,Rechts,1,
,xotask,xotask,xotask,28,1,88,388,training,positivefb,97,average,17,0.8836949000005916,['n'],1,right,['0'],6,0.337402000000111,,,57784,18,Vrouw,Rechts,1,
,xotask,xotask,xotask,29,1,89,389,training,positivefb,93,hard,29,0.7995229999996809,['c'],0,right,['0'],6,0.45953060000010737,,,57784,18,Vrouw,Rechts,1,
,xotask,xotask,xotask,30,1,90,390,training,positivefb,88,easy,6,0.6507104000002073,['n'],1,right,['0'],6,0.3997564000001148,,,57784,18,Vrouw,Rechts,1,
,xotask,xotask,xotask,31,1,91,391,training,positivefb,75,average,64,1.0002816000005623,['c'],1,left,['0'],6,0.21552219999921363,,,57784,18,Vrouw,Rechts,1,
,xotask,xotask,xotask,32,1,92,392,training,positivefb,97,easy,71,0.3663637999998173,['c'],1,left,['0'],6,0.25633209999978135,,,57784,18,Vrouw,Rechts,1,
,xotask,xotask,xotask,33,1,93,393,training,positivefb,98,easy,8,0.6333021000000372,['n'],1,right,['0'],6,0.48497780000070634,,,57784,18,Vrouw,Rechts,1,
,xotask,xotask,xotask,34,1,94,394,training,positivefb,94,hard,26,0.5995840000005046,['n'],1,right,['0'],6,0.44974610000008397,,,57784,18,Vrouw,Rechts,1,
,xotask,xotask,xotask,35,1,95,395,training,positivefb,94,easy,70,0.8837648999997327,['c'],1,left,['9'],5,0.2042819000007512,,,57784,18,Vrouw,Rechts,1,
,xotask,xotask,xotask,36,1,96,396,training,positivefb,98,average,15,0.8337867999998707,['n'],1,right,['9'],5,0.27542600000015227,,,57784,18,Vrouw,Rechts,1,
,xotask,xotask,xotask,37,1,97,397,training,positivefb,87,easy,7,0.8344301999995878,['n'],1,right,['0'],6,0.27868860000035056,,,57784,18,Vrouw,Rechts,1,
,xotask,xotask,xotask,38,1,98,398,training,positivefb,93,hard,54,0.6836106999999174,['c'],1,left,['0'],6,0.2249494000006962,,,57784,18,Vrouw,Rechts,1,
,xotask,xotask,xotask,39,1,99,399,training,positivefb,81,hard,29,0.6186376999994536,['n'],1,right,['9'],5,0.24790419999953883,,,57784,18,Vrouw,Rechts,1,
,xotask,xotask,xotask,40,1,100,400,training,positivefb,98,easy,5,0.7661087999986194,['n'],1,right,['0'],6,0.24712089999957243,,,57784,18,Vrouw,Rechts,1,
,xotask,xotask,xotask,41,1,101,401,training,positivefb,97,average,61,0.8168466000006447,['c'],1,left,['0'],6,0.2533564000004844,,,57784,18,Vrouw,Rechts,1,
,xotask,xotask,xotask,42,1,102,402,training,positivefb,97,easy,9,0.5828573999988294,['n'],1,right,['0'],6,0.31608980000055453,,,57784,18,Vrouw,Rechts,1,
,xotask,xotask,xotask,43,1,103,403,training,positivefb,99,average,62,0.4996549999996205,['c'],1,left,['0'],6,0.4109575999991648,,,57784,18,Vrouw,Rechts,1,
,xotask,xotask,xotask,44,1,104,404,training,positivefb,73,average,63,0.5661421999993763,['c'],1,left,['0'],6,0.21195819999957166,,,57784,18,Vrouw,Rechts,1,
,xotask,xotask,xotask,45,1,105,405,training,positivefb,92,average,18,0.9341905000001134,['n'],1,right,['0'],6,0.2551920000005339,,,57784,18,Vrouw,Rechts,1,
,xotask,xotask,xotask,46,1,106,406,training,positivefb,82,easy,7,0.7167461999997613,['n'],1,right,['0'],6,0.38494639999953506,,,57784,18,Vrouw,Rechts,1,
,xotask,xotask,xotask,47,1,107,407,training,positivefb,91,easy,71,0.5167763999997987,['c'],1,left,['0'],6,0.30036459999973886,,,57784,18,Vrouw,Rechts,1,
,xotask,xotask,xotask,48,1,108,408,training,positivefb,92,hard,53,0.7668247999990854,['c'],1,left,['0'],6,0.18605009999919275,,,57784,18,Vrouw,Rechts,1,
,xotask,xotask,xotask,49,1,109,409,training,positivefb,91,average,16,1.0344761000014842,['n'],1,right,['9'],5,0.2577861000008852,,,57784,18,Vrouw,Rechts,1,
,xotask,xotask,xotask,50,1,110,410,training,positivefb,96,hard,26,0.7000962000001891,['n'],1,right,['9'],5,0.41957209999964107,,,57784,18,Vrouw,Rechts,1,
,xotask,xotask,xotask,51,1,111,411,training,positivefb,74,easy,74,0.5826618999999482,['c'],1,left,['0'],6,0.363306699999157,,,57784,18,Vrouw,Rechts,1,
,xotask,xotask,xotask,52,1,112,412,training,positivefb,94,average,63,0.8506300000008196,['c'],1,left,['0'],6,0.3552687999999762,,,57784,18,Vrouw,Rechts,1,
,xotask,xotask,xotask,53,1,113,413,training,positivefb,87,hard,53,0.5493556999990687,['c'],1,left,['0'],6,0.31159800000023097,,,57784,18,Vrouw,Rechts,1,
,xotask,xotask,xotask,54,1,114,414,training,positivefb,97,hard,27,0.9665916000012658,['n'],1,right,['9'],5,0.32460879999962344,,,57784,18,Vrouw,Rechts,1,
,xotask,xotask,xotask,55,1,115,415,training,positivefb,96,hard,53,0.8841258000011294,['c'],1,left,['0'],6,0.5813370000014402,,,57784,18,Vrouw,Rechts,1,
,xotask,xotask,xotask,56,1,116,416,training,positivefb,95,easy,73,0.5498049999987416,['c'],1,left,['0'],6,0.2874403000005259,,,57784,18,Vrouw,Rechts,1,
,xotask,xotask,xotask,57,1,117,417,training,positivefb,88,average,18,1.233026100000643,['n'],1,right,['9'],5,0.43516009999984817,,,57784,18,Vrouw,Rechts,1,
,xotask,xotask,xotask,58,1,118,418,training,positivefb,89,average,61,1.116712600000028,['c'],1,left,['9'],5,0.3405780000011873,,,57784,18,Vrouw,Rechts,1,
,xotask,xotask,xotask,59,1,119,419,training,positivefb,95,hard,25,0.44954019999931916,['c'],0,right,['0'],6,0.3010689000002458,,,57784,18,Vrouw,Rechts,1,
,dotcolour,xotask,xotask,0,2,120,420,main,positivefb,-99,easy,,0.9668609999989712,['c'],1,left,['9'],5,1.0812025000013818,63,,57784,18,Vrouw,Rechts,1,
,dotcolour,xotask,xotask,1,2,121,421,main,positivefb,-99,average,,0.7520558999985951,['c'],1,left,['9'],5,0.16049810000004072,53,,57784,18,Vrouw,Rechts,1,
,dotcolour,xotask,xotask,2,2,122,422,main,positivefb,-99,average,,0.5513393000001088,['n'],1,right,['0'],6,0.25286029999915627,29,,57784,18,Vrouw,Rechts,1,
,dotcolour,xotask,xotask,3,2,123,423,main,positivefb,-99,average,,0.6341749000002892,['n'],1,right,['0'],6,0.32996470000034606,28,,57784,18,Vrouw,Rechts,1,
,dotcolour,xotask,xotask,4,2,124,424,main,positivefb,-99,easy,,0.4839812999998685,['n'],1,right,['0'],6,0.22725899999932153,17,,57784,18,Vrouw,Rechts,1,
,dotcolour,xotask,xotask,5,2,125,425,main,positivefb,-99,hard,,1.1501055999997334,['n'],1,right,['0'],6,0.30973049999920477,35,,57784,18,Vrouw,Rechts,1,
,dotcolour,xotask,xotask,6,2,126,426,main,positivefb,-99,hard,,0.6181082000002789,['c'],1,left,['0'],6,0.16059210000094026,43,,57784,18,Vrouw,Rechts,1,
,dotcolour,xotask,xotask,7,2,127,427,main,positivefb,-99,average,,0.8680401000001439,['c'],1,left,['0'],6,0.17707589999918127,52,,57784,18,Vrouw,Rechts,1,
,dotcolour,xotask,xotask,8,2,128,428,main,positivefb,-99,easy,,0.8338415999987774,['n'],1,right,['0'],6,0.2895509999998467,17,,57784,18,Vrouw,Rechts,1,
,dotcolour,xotask,xotask,9,2,129,429,main,positivefb,-99,average,,0.5517006999998557,['n'],1,right,['0'],6,0.24080099999991944,27,,57784,18,Vrouw,Rechts,1,
,dotcolour,xotask,xotask,10,2,130,430,main,positivefb,-99,average,,1.5497550999989471,['n'],1,right,['9'],5,0.31417510000028415,28,,57784,18,Vrouw,Rechts,1,
,dotcolour,xotask,xotask,11,2,131,431,main,positivefb,-99,easy,,0.6517208999994182,['c'],1,left,['0'],6,0.2285967999996501,61,,57784,18,Vrouw,Rechts,1,
,dotcolour,xotask,xotask,12,2,132,432,main,positivefb,-99,easy,,0.46758930000032706,['c'],1,left,['0'],6,0.40167660000042815,65,,57784,18,Vrouw,Rechts,1,
,dotcolour,xotask,xotask,13,2,133,433,main,positivefb,-99,easy,,0.5339785000014672,['c'],1,left,['0'],6,0.16497829999934766,65,,57784,18,Vrouw,Rechts,1,
,dotcolour,xotask,xotask,14,2,134,434,main,positivefb,-99,easy,,0.8169859000008728,['c'],1,left,['0'],6,0.20699659999991127,64,,57784,18,Vrouw,Rechts,1,
,dotcolour,xotask,xotask,15,2,135,435,main,positivefb,-99,hard,,1.0339221999984147,['n'],1,right,['9'],5,0.30143300000054296,36,,57784,18,Vrouw,Rechts,1,
,dotcolour,xotask,xotask,16,2,136,436,main,positivefb,-99,hard,,1.2340282999994088,['c'],0,right,['9'],5,0.3216639000002033,38,,57784,18,Vrouw,Rechts,1,
,dotcolour,xotask,xotask,17,2,137,437,main,positivefb,-99,easy,,0.6673760000012408,['n'],1,right,['0'],6,0.22716589999981807,19,,57784,18,Vrouw,Rechts,1,
,dotcolour,xotask,xotask,18,2,138,438,main,positivefb,-99,hard,,0.7172334000006231,['c'],1,left,['0'],6,0.15037990000018908,45,,57784,18,Vrouw,Rechts,1,
,dotcolour,xotask,xotask,19,2,139,439,main,positivefb,-99,hard,,0.43261879999954544,['n'],1,right,['0'],6,0.21543300000121235,36,,57784,18,Vrouw,Rechts,1,
,dotcolour,xotask,xotask,20,2,140,440,main,positivefb,-99,easy,,0.501287199998842,['c'],1,left,['0'],6,0.11512790000051609,64,,57784,18,Vrouw,Rechts,1,
,dotcolour,xotask,xotask,21,2,141,441,main,positivefb,-99,average,,0.5683064000004379,['c'],1,left,['0'],6,0.09696919999987585,54,,57784,18,Vrouw,Rechts,1,
,dotcolour,xotask,xotask,22,2,142,442,main,positivefb,-99,average,,0.5013589999998658,['c'],1,left,['0'],6,0.12920580000172777,55,,57784,18,Vrouw,Rechts,1,
,dotcolour,xotask,xotask,23,2,143,443,main,positivefb,-99,average,,0.7342117999996844,['n'],1,right,['0'],6,0.27280310000060126,27,,57784,18,Vrouw,Rechts,1,
,dotcolour,xotask,xotask,24,2,144,444,main,positivefb,-99,hard,,1.2015596000001096,['n'],1,right,['0'],6,0.24658950000048208,38,,57784,18,Vrouw,Rechts,1,
,dotcolour,xotask,xotask,25,2,145,445,main,positivefb,-99,average,,0.5831741000001784,['n'],1,right,['0'],6,0.19836420000137878,28,,57784,18,Vrouw,Rechts,1,
,dotcolour,xotask,xotask,26,2,146,446,main,positivefb,-99,hard,,0.6509463000002143,['c'],0,right,['9'],5,0.1732601000003342,39,,57784,18,Vrouw,Rechts,1,
,dotcolour,xotask,xotask,27,2,147,447,main,positivefb,-99,easy,,0.6013913000006141,['c'],1,left,['0'],6,0.375345099999322,62,,57784,18,Vrouw,Rechts,1,
,dotcolour,xotask,xotask,28,2,148,448,main,positivefb,-99,hard,,1.0679918000005273,['n'],0,left,['9'],5,0.2867414000011195,42,,57784,18,Vrouw,Rechts,1,
,dotcolour,xotask,xotask,29,2,149,449,main,positivefb,-99,easy,,0.9343843999995443,['n'],1,right,['0'],6,0.38216300000021874,16,,57784,18,Vrouw,Rechts,1,
,dotcolour,xotask,xotask,30,2,150,450,main,positivefb,-99,easy,,0.5846928999999363,['n'],1,right,['0'],6,0.2722522999993089,17,,57784,18,Vrouw,Rechts,1,
,dotcolour,xotask,xotask,31,2,151,451,main,positivefb,-99,hard,,0.6679889999995794,['c'],1,left,['0'],6,0.14745010000115144,42,,57784,18,Vrouw,Rechts,1,
,dotcolour,xotask,xotask,32,2,152,452,main,positivefb,-99,hard,,1.0848284999992757,['c'],1,left,['9'],5,0.12397430000055465,44,,57784,18,Vrouw,Rechts,1,
,dotcolour,xotask,xotask,33,2,153,453,main,positivefb,-99,hard,,1.2831201999997575,['c'],1,left,['9'],5,0.17209509999884176,43,,57784,18,Vrouw,Rechts,1,
,dotcolour,xotask,xotask,34,2,154,454,main,positivefb,-99,average,,0.5847805000012158,['c'],1,left,['0'],6,0.31040779999966617,54,,57784,18,Vrouw,Rechts,1,
,dotcolour,xotask,xotask,35,2,155,455,main,positivefb,-99,average,,0.5496162999988883,['c'],1,left,['0'],6,0.42917879999913566,53,,57784,18,Vrouw,Rechts,1,
,dotcolour,xotask,xotask,36,2,156,456,main,positivefb,-99,easy,,0.6166905999998562,['c'],1,left,['0'],6,0.19694230000095558,64,,57784,18,Vrouw,Rechts,1,
,dotcolour,xotask,xotask,37,2,157,457,main,positivefb,-99,hard,,0.468386599999576,['c'],1,left,['0'],6,0.17133819999980915,44,,57784,18,Vrouw,Rechts,1,
,dotcolour,xotask,xotask,38,2,158,458,main,positivefb,-99,average,,0.7847185999999056,['n'],1,right,['0'],6,0.2385095999998157,26,,57784,18,Vrouw,Rechts,1,
,dotcolour,xotask,xotask,39,2,159,459,main,positivefb,-99,hard,,0.9004887999999482,['n'],1,right,['9'],5,0.31351080000058573,35,,57784,18,Vrouw,Rechts,1,
,dotcolour,xotask,xotask,40,2,160,460,main,positivefb,-99,average,,0.6681514000010793,['c'],1,left,['9'],5,0.4358734000015829,55,,57784,18,Vrouw,Rechts,1,
,dotcolour,xotask,xotask,41,2,161,461,main,positivefb,-99,average,,0.8010461999983818,['c'],1,left,['9'],5,0.25035139999999956,53,,57784,18,Vrouw,Rechts,1,
,dotcolour,xotask,xotask,42,2,162,462,main,positivefb,-99,hard,,0.6170213000004878,['c'],0,right,['0'],6,0.2884603000002244,39,,57784,18,Vrouw,Rechts,1,
,dotcolour,xotask,xotask,43,2,163,463,main,positivefb,-99,average,,0.6336107999995875,['c'],0,right,['0'],6,0.21229280000079598,25,,57784,18,Vrouw,Rechts,1,
,dotcolour,xotask,xotask,44,2,164,464,main,positivefb,-99,easy,,0.6174135000001115,['c'],0,right,['0'],6,0.4443842999990011,19,,57784,18,Vrouw,Rechts,1,
,dotcolour,xotask,xotask,45,2,165,465,main,positivefb,-99,hard,,0.8166808999994828,['c'],1,left,['9'],5,1.1876704000005702,42,,57784,18,Vrouw,Rechts,1,
,dotcolour,xotask,xotask,46,2,166,466,main,positivefb,-99,average,,1.0675148000009358,['c'],1,left,['0'],6,0.25785330000144313,51,,57784,18,Vrouw,Rechts,1,
,dotcolour,xotask,xotask,47,2,167,467,main,positivefb,-99,easy,,0.38434870000128285,['n'],1,right,['9'],5,0.25765750000027765,16,,57784,18,Vrouw,Rechts,1,
,dotcolour,xotask,xotask,48,2,168,468,main,positivefb,-99,hard,,0.5174332999995386,['c'],0,right,['9'],5,0.3237349999999424,38,,57784,18,Vrouw,Rechts,1,
,dotcolour,xotask,xotask,49,2,169,469,main,positivefb,-99,easy,,0.6175397000006342,['c'],1,left,['9'],5,0.29550209999979415,63,,57784,18,Vrouw,Rechts,1,
,dotcolour,xotask,xotask,50,2,170,470,main,positivefb,-99,easy,,0.5838317999987339,['n'],1,right,['0'],6,0.2213489000005211,16,,57784,18,Vrouw,Rechts,1,
,dotcolour,xotask,xotask,51,2,171,471,main,positivefb,-99,hard,,0.46844059999966703,['c'],1,left,['9'],5,0.27427129999887256,41,,57784,18,Vrouw,Rechts,1,
,dotcolour,xotask,xotask,52,2,172,472,main,positivefb,-99,average,,0.5172165999993013,['c'],1,left,['0'],6,0.35536820000015723,52,,57784,18,Vrouw,Rechts,1,
,dotcolour,xotask,xotask,53,2,173,473,main,positivefb,-99,hard,,0.7001576000002387,['n'],1,right,['0'],6,0.2988442000005307,37,,57784,18,Vrouw,Rechts,1,
,dotcolour,xotask,xotask,54,2,174,474,main,positivefb,-99,easy,,0.6172547000005579,['c'],1,left,['0'],6,0.2381719000004523,62,,57784,18,Vrouw,Rechts,1,
,dotcolour,xotask,xotask,55,2,175,475,main,positivefb,-99,easy,,0.5176676000010048,['n'],1,right,['0'],6,0.24859709999873303,19,,57784,18,Vrouw,Rechts,1,
,dotcolour,xotask,xotask,56,2,176,476,main,positivefb,-99,easy,,0.6013186000000132,['n'],1,right,['0'],6,0.24778859999969427,16,,57784,18,Vrouw,Rechts,1,
,dotcolour,xotask,xotask,57,2,177,477,main,positivefb,-99,hard,,0.5336380999997345,['c'],1,left,['9'],5,0.5446311999985483,44,,57784,18,Vrouw,Rechts,1,
,dotcolour,xotask,xotask,58,2,178,478,main,positivefb,-99,average,,0.7011733999988792,['c'],0,right,['8'],4,1.6406950000000506,27,,57784,18,Vrouw,Rechts,1,
,dotcolour,xotask,xotask,59,2,179,479,main,positivefb,-99,average,,1.2348973999996815,['n'],1,right,['0'],6,0.27810499999941385,28,,57784,18,Vrouw,Rechts,1,
,dotcolour,xotask,xotask,0,3,180,480,main,positivefb,-99,average,,0.7854705000008835,['n'],1,right,['0'],6,0.3122849999999744,25,,57784,18,Vrouw,Rechts,1,
,dotcolour,xotask,xotask,1,3,181,481,main,positivefb,-99,hard,,0.7503276000006736,['n'],0,left,['9'],5,0.26209059999928286,42,,57784,18,Vrouw,Rechts,1,
,dotcolour,xotask,xotask,2,3,182,482,main,positivefb,-99,hard,,0.8184676000000763,['n'],1,right,['0'],6,0.284098999998605,37,,57784,18,Vrouw,Rechts,1,
,dotcolour,xotask,xotask,3,3,183,483,main,positivefb,-99,hard,,0.8341362999999546,['n'],1,right,['0'],6,0.2801677000006748,35,,57784,18,Vrouw,Rechts,1,
,dotcolour,xotask,xotask,4,3,184,484,main,positivefb,-99,average,,0.7012384999998176,['c'],1,left,['9'],5,0.2505990000008751,52,,57784,18,Vrouw,Rechts,1,
,dotcolour,xotask,xotask,5,3,185,485,main,positivefb,-99,hard,,0.8831728000004659,['n'],1,right,['0'],6,0.23021519999929296,35,,57784,18,Vrouw,Rechts,1,
,dotcolour,xotask,xotask,6,3,186,486,main,positivefb,-99,average,,0.48446580000018,['n'],1,right,['0'],6,0.24211640000066836,28,,57784,18,Vrouw,Rechts,1,
,dotcolour,xotask,xotask,7,3,187,487,main,positivefb,-99,hard,,0.5349363000004814,['n'],1,right,['0'],6,0.26839470000049914,38,,57784,18,Vrouw,Rechts,1,
,dotcolour,xotask,xotask,8,3,188,488,main,positivefb,-99,average,,1.600633399999424,['n'],1,right,['9'],5,0.5382371000014246,26,,57784,18,Vrouw,Rechts,1,
,dotcolour,xotask,xotask,9,3,189,489,main,positivefb,-99,average,,0.6350521999993362,['n'],1,right,['0'],6,0.2121000000006461,29,,57784,18,Vrouw,Rechts,1,
,dotcolour,xotask,xotask,10,3,190,490,main,positivefb,-99,easy,,0.46823439999934635,['n'],1,right,['0'],6,0.23453949999930046,16,,57784,18,Vrouw,Rechts,1,
,dotcolour,xotask,xotask,11,3,191,491,main,positivefb,-99,average,,0.3680119000000559,['c'],1,left,['9'],5,0.19547830000010435,51,,57784,18,Vrouw,Rechts,1,
,dotcolour,xotask,xotask,12,3,192,492,main,positivefb,-99,hard,,0.8677889999999024,['c'],1,left,['8'],4,1.0423270999999659,43,,57784,18,Vrouw,Rechts,1,
,dotcolour,xotask,xotask,13,3,193,493,main,positivefb,-99,hard,,1.4506031000000803,['c'],1,left,['9'],5,0.22329779999927268,44,,57784,18,Vrouw,Rechts,1,
,dotcolour,xotask,xotask,14,3,194,494,main,positivefb,-99,easy,,0.4841309999992518,['c'],1,left,['0'],6,0.2281769000001077,64,,57784,18,Vrouw,Rechts,1,
,dotcolour,xotask,xotask,15,3,195,495,main,positivefb,-99,easy,,0.4182423000002018,['c'],1,left,['0'],6,0.13881290000063018,62,,57784,18,Vrouw,Rechts,1,
,dotcolour,xotask,xotask,16,3,196,496,main,positivefb,-99,average,,0.4669713999992382,['c'],1,left,['0'],6,0.124470000000656,51,,57784,18,Vrouw,Rechts,1,
,dotcolour,xotask,xotask,17,3,197,497,main,positivefb,-99,easy,,0.45095860000037646,['c'],1,left,['0'],6,0.14992699999856995,64,,57784,18,Vrouw,Rechts,1,
,dotcolour,xotask,xotask,18,3,198,498,main,positivefb,-99,easy,,1.4187275000003865,['n'],1,right,['0'],6,0.33554040000126406,19,,57784,18,Vrouw,Rechts,1,
,dotcolour,xotask,xotask,19,3,199,499,main,positivefb,-99,easy,,0.48480320000089705,['c'],1,left,['0'],6,0.3363595000009809,64,,57784,18,Vrouw,Rechts,1,
,dotcolour,xotask,xotask,20,3,200,500,main,positivefb,-99,hard,,0.7509293000002799,['c'],0,right,['9'],5,0.23778570000104082,37,,57784,18,Vrouw,Rechts,1,
,dotcolour,xotask,xotask,21,3,201,501,main,positivefb,-99,hard,,0.733758599999419,['c'],1,left,['0'],6,0.24743870000020252,43,,57784,18,Vrouw,Rechts,1,
,dotcolour,xotask,xotask,22,3,202,502,main,positivefb,-99,average,,0.8013580999995611,['n'],1,right,['0'],6,0.23032280000006722,29,,57784,18,Vrouw,Rechts,1,
,dotcolour,xotask,xotask,23,3,203,503,main,positivefb,-99,average,,0.701084100001026,['c'],1,left,['0'],6,0.2503845999999612,53,,57784,18,Vrouw,Rechts,1,
,dotcolour,xotask,xotask,24,3,204,504,main,positivefb,-99,easy,,0.46892640000078245,['n'],1,right,['0'],6,0.31870490000073914,17,,57784,18,Vrouw,Rechts,1,
,dotcolour,xotask,xotask,25,3,205,505,main,positivefb,-99,hard,,0.4839280999985931,['c'],1,left,['9'],5,0.3436265000000276,44,,57784,18,Vrouw,Rechts,1,
,dotcolour,xotask,xotask,26,3,206,506,main,positivefb,-99,average,,0.6350710999995499,['c'],1,left,['0'],6,0.20173140000042622,53,,57784,18,Vrouw,Rechts,1,
,dotcolour,xotask,xotask,27,3,207,507,main,positivefb,-99,easy,,0.4847135999989405,['c'],1,left,['0'],6,0.11057660000005853,61,,57784,18,Vrouw,Rechts,1,
,dotcolour,xotask,xotask,28,3,208,508,main,positivefb,-99,hard,,0.9841962000009516,['c'],1,left,['9'],5,1.5967749000010372,44,,57784,18,Vrouw,Rechts,1,
,dotcolour,xotask,xotask,29,3,209,509,main,positivefb,-99,average,,0.6500051999992138,['n'],1,right,['0'],6,0.25949860000037006,28,,57784,18,Vrouw,Rechts,1,
,dotcolour,xotask,xotask,30,3,210,510,main,positivefb,-99,average,,0.7171643000001495,['c'],1,left,['0'],6,0.3094574000006105,53,,57784,18,Vrouw,Rechts,1,
,dotcolour,xotask,xotask,31,3,211,511,main,positivefb,-99,hard,,0.984220299998924,['n'],1,right,['0'],6,0.2345726999992621,38,,57784,18,Vrouw,Rechts,1,
,dotcolour,xotask,xotask,32,3,212,512,main,positivefb,-99,easy,,0.6341874999998254,['c'],1,left,['0'],6,0.32087420000061684,64,,57784,18,Vrouw,Rechts,1,
,dotcolour,xotask,xotask,33,3,213,513,main,positivefb,-99,easy,,0.6510299000001396,['n'],1,right,['9'],5,0.3229559999999765,19,,57784,18,Vrouw,Rechts,1,
,dotcolour,xotask,xotask,34,3,214,514,main,positivefb,-99,easy,,0.8175329999994574,['c'],1,left,['0'],6,0.2861408000007941,62,,57784,18,Vrouw,Rechts,1,
,dotcolour,xotask,xotask,35,3,215,515,main,positivefb,-99,average,,0.35004509999998845,['n'],1,right,['0'],6,0.2380844999988767,29,,57784,18,Vrouw,Rechts,1,
,dotcolour,xotask,xotask,36,3,216,516,main,positivefb,-99,average,,0.5667374000004202,['c'],1,left,['9'],5,0.22204270000111137,54,,57784,18,Vrouw,Rechts,1,
,dotcolour,xotask,xotask,37,3,217,517,main,positivefb,-99,average,,0.5851179000001139,['n'],1,right,['0'],6,0.2233814999999595,26,,57784,18,Vrouw,Rechts,1,
,dotcolour,xotask,xotask,38,3,218,518,main,positivefb,-99,easy,,0.5347174999988056,['c'],1,left,['9'],5,0.4418454999995447,65,,57784,18,Vrouw,Rechts,1,
,dotcolour,xotask,xotask,39,3,219,519,main,positivefb,-99,hard,,1.0675931999994646,['c'],1,left,['0'],6,0.17417960000057064,43,,57784,18,Vrouw,Rechts,1,
,dotcolour,xotask,xotask,40,3,220,520,main,positivefb,-99,hard,,1.450809500000105,['c'],0,right,['0'],6,0.23850820000006934,37,,57784,18,Vrouw,Rechts,1,
,dotcolour,xotask,xotask,41,3,221,521,main,positivefb,-99,easy,,0.5336409000010462,['n'],1,right,['0'],6,0.2323369999994611,15,,57784,18,Vrouw,Rechts,1,
,dotcolour,xotask,xotask,42,3,222,522,main,positivefb,-99,easy,,0.6501781000006304,['n'],1,right,['0'],6,0.24617009999928996,18,,57784,18,Vrouw,Rechts,1,
,dotcolour,xotask,xotask,43,3,223,523,main,positivefb,-99,easy,,0.44972989999951096,['n'],1,right,['0'],6,0.3075367000001279,15,,57784,18,Vrouw,Rechts,1,
,dotcolour,xotask,xotask,44,3,224,524,main,positivefb,-99,hard,,0.6503902000004018,['c'],1,left,['9'],5,0.437875300000087,41,,57784,18,Vrouw,Rechts,1,
,dotcolour,xotask,xotask,45,3,225,525,main,positivefb,-99,hard,,0.41806629999882716,['n'],1,right,['0'],6,0.1887261000010767,38,,57784,18,Vrouw,Rechts,1,
,dotcolour,xotask,xotask,46,3,226,526,main,positivefb,-99,average,,0.5345336999998835,['n'],1,right,['0'],6,0.21689150000020163,27,,57784,18,Vrouw,Rechts,1,
,dotcolour,xotask,xotask,47,3,227,527,main,positivefb,-99,hard,,0.6345254999996541,['n'],1,right,['0'],6,0.29541839999910735,36,,57784,18,Vrouw,Rechts,1,
,dotcolour,xotask,xotask,48,3,228,528,main,positivefb,-99,easy,,0.435083600001235,['n'],1,right,['0'],6,0.23469440000008035,19,,57784,18,Vrouw,Rechts,1,
,dotcolour,xotask,xotask,49,3,229,529,main,positivefb,-99,average,,0.750545200000488,['c'],1,left,['0'],6,0.10082709999915096,53,,57784,18,Vrouw,Rechts,1,
,dotcolour,xotask,xotask,50,3,230,530,main,positivefb,-99,hard,,0.49968120000085037,['c'],1,left,['0'],6,0.1410223999992013,45,,57784,18,Vrouw,Rechts,1,
,dotcolour,xotask,xotask,51,3,231,531,main,positivefb,-99,easy,,0.35102680000090913,['c'],1,left,['0'],6,0.002447799999572453,61,,57784,18,Vrouw,Rechts,1,
,dotcolour,xotask,xotask,52,3,232,532,main,positivefb,-99,hard,,1.0504822000002605,['n'],0,left,['0'],6,0.1936132999999245,41,,57784,18,Vrouw,Rechts,1,
,dotcolour,xotask,xotask,53,3,233,533,main,positivefb,-99,average,,0.7847953000000416,['c'],1,left,['9'],5,0.1547207999992679,53,,57784,18,Vrouw,Rechts,1,
,dotcolour,xotask,xotask,54,3,234,534,main,positivefb,-99,average,,0.8002960000012536,['n'],1,right,['0'],6,0.41359279999960563,26,,57784,18,Vrouw,Rechts,1,
,dotcolour,xotask,xotask,55,3,235,535,main,positivefb,-99,average,,0.7844874999991589,['c'],1,left,['0'],6,0.30280880000100296,51,,57784,18,Vrouw,Rechts,1,
,dotcolour,xotask,xotask,56,3,236,536,main,positivefb,-99,easy,,0.6340624999993452,['c'],1,left,['0'],6,0.17067889999998442,63,,57784,18,Vrouw,Rechts,1,
,dotcolour,xotask,xotask,57,3,237,537,main,positivefb,-99,hard,,0.851152600000205,['n'],1,right,['9'],5,0.23397149999982503,36,,57784,18,Vrouw,Rechts,1,
,dotcolour,xotask,xotask,58,3,238,538,main,positivefb,-99,easy,,0.6848594000002777,['n'],1,right,['0'],6,0.27066280000144616,19,,57784,18,Vrouw,Rechts,1,
,dotcolour,xotask,xotask,59,3,239,539,main,positivefb,-99,easy,,0.4681089999994583,['n'],1,right,['0'],6,0.19370710000112012,19,,57784,18,Vrouw,Rechts,1,
,dotcolour,xotask,xotask,0,4,240,540,main,positivefb,-99,hard,,1.5346305999992182,['n'],0,left,['0'],6,0.22032579999904556,42,,57784,18,Vrouw,Rechts,1,
,dotcolour,xotask,xotask,1,4,241,541,main,positivefb,-99,average,,0.46711580000010144,['c'],1,left,['9'],5,0.20982980000007956,54,,57784,18,Vrouw,Rechts,1,
,dotcolour,xotask,xotask,2,4,242,542,main,positivefb,-99,easy,,0.5341661000002205,['n'],1,right,['9'],5,0.24523260000023583,19,,57784,18,Vrouw,Rechts,1,
,dotcolour,xotask,xotask,3,4,243,543,main,positivefb,-99,average,,0.4851216999995813,['c'],0,right,['0'],6,0.1930711999993946,27,,57784,18,Vrouw,Rechts,1,
,dotcolour,xotask,xotask,4,4,244,544,main,positivefb,-99,average,,0.5342736999991757,['n'],0,left,['0'],6,0.8532790999997815,53,,57784,18,Vrouw,Rechts,1,
,dotcolour,xotask,xotask,5,4,245,545,main,positivefb,-99,average,,0.98334739999882,['n'],1,right,['0'],6,0.25314129999969737,29,,57784,18,Vrouw,Rechts,1,
,dotcolour,xotask,xotask,6,4,246,546,main,positivefb,-99,hard,,1.1332108999995398,['n'],0,left,['9'],5,0.7821377000000211,42,,57784,18,Vrouw,Rechts,1,
,dotcolour,xotask,xotask,7,4,247,547,main,positivefb,-99,easy,,0.751154100000349,['c'],1,left,['0'],6,0.3454254000007495,65,,57784,18,Vrouw,Rechts,1,
,dotcolour,xotask,xotask,8,4,248,548,main,positivefb,-99,average,,0.7015711999993073,['c'],1,left,['9'],5,0.10474459999932151,55,,57784,18,Vrouw,Rechts,1,
,dotcolour,xotask,xotask,9,4,249,549,main,positivefb,-99,hard,,0.684541900000113,['c'],1,left,['9'],5,0.10625769999933254,45,,57784,18,Vrouw,Rechts,1,
,dotcolour,xotask,xotask,10,4,250,550,main,positivefb,-99,average,,0.4168464000013046,['c'],1,left,['9'],5,0.10132539999904111,52,,57784,18,Vrouw,Rechts,1,
,dotcolour,xotask,xotask,11,4,251,551,main,positivefb,-99,average,,0.684041000000434,['n'],1,right,['9'],5,0.19190340000022843,28,,57784,18,Vrouw,Rechts,1,
,dotcolour,xotask,xotask,12,4,252,552,main,positivefb,-99,average,,0.750301699999909,['n'],1,right,['9'],5,0.19481939999968745,26,,57784,18,Vrouw,Rechts,1,
,dotcolour,xotask,xotask,13,4,253,553,main,positivefb,-99,hard,,0.8338148999991972,['c'],1,left,['9'],5,0.12240009999914037,45,,57784,18,Vrouw,Rechts,1,
,dotcolour,xotask,xotask,14,4,254,554,main,positivefb,-99,easy,,0.5167852999984461,['c'],0,right,['9'],5,0.17038569999931497,16,,57784,18,Vrouw,Rechts,1,
,dotcolour,xotask,xotask,15,4,255,555,main,positivefb,-99,easy,,0.4335265999998228,['c'],0,right,['9'],5,0.11438640000051237,18,,57784,18,Vrouw,Rechts,1,
,dotcolour,xotask,xotask,16,4,256,556,main,positivefb,-99,average,,1.0010105000001204,['c'],1,left,['9'],5,0.1826853000002302,52,,57784,18,Vrouw,Rechts,1,
,dotcolour,xotask,xotask,17,4,257,557,main,positivefb,-99,hard,,0.6670732999991742,['c'],1,left,['9'],5,0.5978938999996899,42,,57784,18,Vrouw,Rechts,1,
,dotcolour,xotask,xotask,18,4,258,558,main,positivefb,-99,easy,,0.5177260000000388,['c'],1,left,['9'],5,0.1054178000013053,64,,57784,18,Vrouw,Rechts,1,
,dotcolour,xotask,xotask,19,4,259,559,main,positivefb,-99,hard,,0.4999774999996589,['c'],0,right,['9'],5,0.4256831999991846,37,,57784,18,Vrouw,Rechts,1,
,dotcolour,xotask,xotask,20,4,260,560,main,positivefb,-99,average,,0.5855895999993663,['n'],1,right,['9'],5,0.20271890000003623,27,,57784,18,Vrouw,Rechts,1,
,dotcolour,xotask,xotask,21,4,261,561,main,positivefb,-99,hard,,0.6841800000001967,['c'],1,left,['9'],5,0.11248330000125861,44,,57784,18,Vrouw,Rechts,1,
,dotcolour,xotask,xotask,22,4,262,562,main,positivefb,-99,easy,,0.48477939999975206,['c'],1,left,['9'],5,0.04227480000008654,63,,57784,18,Vrouw,Rechts,1,
,dotcolour,xotask,xotask,23,4,263,563,main,positivefb,-99,hard,,1.1680298000010225,['n'],1,right,['9'],5,0.17806720000044152,35,,57784,18,Vrouw,Rechts,1,
,dotcolour,xotask,xotask,24,4,264,564,main,positivefb,-99,average,,0.5516820000011649,['n'],1,right,['9'],5,0.20649570000023232,26,,57784,18,Vrouw,Rechts,1,
,dotcolour,xotask,xotask,25,4,265,565,main,positivefb,-99,easy,,0.33479609999994864,['n'],1,right,['9'],5,0.18597589999990305,17,,57784,18,Vrouw,Rechts,1,
,dotcolour,xotask,xotask,26,4,266,566,main,positivefb,-99,easy,,0.40000400000099035,['n'],1,right,['9'],5,0.15452799999911804,18,,57784,18,Vrouw,Rechts,1,
,dotcolour,xotask,xotask,27,4,267,567,main,positivefb,-99,easy,,0.3843250000008993,['n'],1,right,['9'],5,0.1658248999992793,16,,57784,18,Vrouw,Rechts,1,
,dotcolour,xotask,xotask,28,4,268,568,main,positivefb,-99,average,,0.36738940000032017,['n'],1,right,['9'],5,0.2015893000007054,26,,57784,18,Vrouw,Rechts,1,
,dotcolour,xotask,xotask,29,4,269,569,main,positivefb,-99,hard,,0.5004117000007682,['c'],0,right,['9'],5,0.07862500000010186,38,,57784,18,Vrouw,Rechts,1,
,dotcolour,xotask,xotask,30,4,270,570,main,positivefb,-99,easy,,0.8677276000016718,['c'],1,left,['9'],5,0.21710350000103062,64,,57784,18,Vrouw,Rechts,1,
,dotcolour,xotask,xotask,31,4,271,571,main,positivefb,-99,hard,,0.36789929999940796,['c'],0,right,['9'],5,0.1383984000003693,37,,57784,18,Vrouw,Rechts,1,
,dotcolour,xotask,xotask,32,4,272,572,main,positivefb,-99,easy,,0.36824720000004163,['n'],0,left,['9'],5,0.2319313999996666,63,,57784,18,Vrouw,Rechts,1,
,dotcolour,xotask,xotask,33,4,273,573,main,positivefb,-99,easy,,0.6503963000013755,['n'],1,right,['9'],5,0.12497520000033546,16,,57784,18,Vrouw,Rechts,1,
,dotcolour,xotask,xotask,34,4,274,574,main,positivefb,-99,average,,0.45036610000170185,['c'],1,left,['9'],5,0.2712781999998697,54,,57784,18,Vrouw,Rechts,1,
,dotcolour,xotask,xotask,35,4,275,575,main,positivefb,-99,hard,,0.784421199999997,['n'],1,right,['9'],5,0.133682100000442,38,,57784,18,Vrouw,Rechts,1,
,dotcolour,xotask,xotask,36,4,276,576,main,positivefb,-99,hard,,0.9338793000006262,['c'],0,right,['9'],5,0.1634498999992502,35,,57784,18,Vrouw,Rechts,1,
,dotcolour,xotask,xotask,37,4,277,577,main,positivefb,-99,easy,,0.5994678999995813,['c'],1,left,['9'],5,0.08661159999974188,62,,57784,18,Vrouw,Rechts,1,
,dotcolour,xotask,xotask,38,4,278,578,main,positivefb,-99,easy,,0.5328923999986728,['n'],1,right,['9'],5,0.10291789999973844,18,,57784,18,Vrouw,Rechts,1,
,dotcolour,xotask,xotask,39,4,279,579,main,positivefb,-99,hard,,0.667126800000915,['c'],1,left,['9'],5,0.17603320000125677,42,,57784,18,Vrouw,Rechts,1,
,dotcolour,xotask,xotask,40,4,280,580,main,positivefb,-99,easy,,0.5511489999989863,['c'],1,left,['9'],5,0.028882799999337294,64,,57784,18,Vrouw,Rechts,1,
,dotcolour,xotask,xotask,41,4,281,581,main,positivefb,-99,average,,0.38321759999962524,['c'],1,left,['9'],5,0.02883040000051551,53,,57784,18,Vrouw,Rechts,1,
,dotcolour,xotask,xotask,42,4,282,582,main,positivefb,-99,hard,,0.7844328999999561,['c'],1,left,['9'],5,0.9417050000010931,45,,57784,18,Vrouw,Rechts,1,
,dotcolour,xotask,xotask,43,4,283,583,main,positivefb,-99,easy,,1.3832588000004762,['n'],1,right,['9'],5,0.7778025999996316,15,,57784,18,Vrouw,Rechts,1,
,dotcolour,xotask,xotask,44,4,284,584,main,positivefb,-99,average,,0.6835030000002007,['n'],1,right,['9'],5,0.20884819999992033,29,,57784,18,Vrouw,Rechts,1,
,dotcolour,xotask,xotask,45,4,285,585,main,positivefb,-99,average,,0.6681329999992158,['c'],1,left,['9'],5,0.1583587000004627,55,,57784,18,Vrouw,Rechts,1,
,dotcolour,xotask,xotask,46,4,286,586,main,positivefb,-99,hard,,0.5173158999987209,['c'],1,left,['9'],5,0.10882370000035735,43,,57784,18,Vrouw,Rechts,1,
,dotcolour,xotask,xotask,47,4,287,587,main,positivefb,-99,easy,,0.41781409999930474,['c'],1,left,['9'],5,0.1280443000014202,64,,57784,18,Vrouw,Rechts,1,
,dotcolour,xotask,xotask,48,4,288,588,main,positivefb,-99,hard,,0.7678785000007338,['n'],1,right,['9'],5,0.15701829999852635,35,,57784,18,Vrouw,Rechts,1,
,dotcolour,xotask,xotask,49,4,289,589,main,positivefb,-99,hard,,0.8841219000005367,['c'],1,left,['9'],5,0.11712420000003476,45,,57784,18,Vrouw,Rechts,1,
,dotcolour,xotask,xotask,50,4,290,590,main,positivefb,-99,hard,,0.551201399999627,['c'],0,right,['9'],5,0.10734640000009676,39,,57784,18,Vrouw,Rechts,1,
,dotcolour,xotask,xotask,51,4,291,591,main,positivefb,-99,average,,0.35089739999966696,['c'],0,right,['9'],5,0.497456000000966,28,,57784,18,Vrouw,Rechts,1,
,dotcolour,xotask,xotask,52,4,292,592,main,positivefb,-99,easy,,0.6677553999998054,['c'],1,left,['9'],5,0.17937979999987874,61,,57784,18,Vrouw,Rechts,1,
,dotcolour,xotask,xotask,53,4,293,593,main,positivefb,-99,average,,0.8675720999999612,['n'],1,right,['9'],5,0.026653599999917787,28,,57784,18,Vrouw,Rechts,1,
,dotcolour,xotask,xotask,54,4,294,594,main,positivefb,-99,average,,0.6501490999999078,['c'],1,left,['9'],5,0.0649159000004147,53,,57784,18,Vrouw,Rechts,1,
,dotcolour,xotask,xotask,55,4,295,595,main,positivefb,-99,hard,,0.9672430999999051,['c'],0,right,['9'],5,0.08803160000024945,36,,57784,18,Vrouw,Rechts,1,
,dotcolour,xotask,xotask,56,4,296,596,main,positivefb,-99,easy,,0.6005492999993294,['n'],1,right,['9'],5,0.726114700000835,19,,57784,18,Vrouw,Rechts,1,
,dotcolour,xotask,xotask,57,4,297,597,main,positivefb,-99,easy,,0.7176622999995743,['c'],1,left,['9'],5,0.14172619999953895,61,,57784,18,Vrouw,Rechts,1,
,dotcolour,xotask,xotask,58,4,298,598,main,positivefb,-99,average,,0.5509774000001926,['c'],1,left,['9'],5,0.1546213000001444,52,,57784,18,Vrouw,Rechts,1,
,dotcolour,xotask,xotask,59,4,299,599,main,positivefb,-99,hard,,1.066983500000788,['n'],1,right,['9'],5,0.3786513000013656,38,,57784,18,Vrouw,Rechts,1,
,xotask,xotask,xotask,0,0,0,600,training,positivefb,8,easy,8,2.034570200001326,['c'],0,right,['9'],5,3.430953099999897,,,57784,18,Vrouw,Rechts,1,
,xotask,xotask,xotask,1,0,1,601,training,positivefb,97,average,64,0.6494428999994852,['c'],1,left,['9'],5,0.24375299999883282,,,57784,18,Vrouw,Rechts,1,
,xotask,xotask,xotask,2,0,2,602,training,positivefb,69,easy,7,0.7673776000010548,['n'],1,right,['9'],5,0.4836732000003394,,,57784,18,Vrouw,Rechts,1,
,xotask,xotask,xotask,3,0,3,603,training,positivefb,93,average,19,1.1167285999999876,['n'],1,right,['0'],6,0.34751869999854534,,,57784,18,Vrouw,Rechts,1,
,xotask,xotask,xotask,4,0,4,604,training,positivefb,99,average,63,0.5658624000006967,['c'],1,left,['0'],6,0.4785673999995197,,,57784,18,Vrouw,Rechts,1,
,xotask,xotask,xotask,5,0,5,605,training,positivefb,83,hard,28,2.416839399998935,['c'],0,right,['9'],5,0.16368959999999788,,,57784,18,Vrouw,Rechts,1,
,xotask,xotask,xotask,6,0,6,606,training,positivefb,93,average,15,2.1822049999991577,['c'],0,right,['9'],5,0.48725829999966663,,,57784,18,Vrouw,Rechts,1,
,xotask,xotask,xotask,7,0,7,607,training,positivefb,80,hard,51,1.966762000000017,['c'],1,left,['9'],5,1.2295861000002333,,,57784,18,Vrouw,Rechts,1,
,xotask,xotask,xotask,8,0,8,608,training,positivefb,83,easy,5,2.615516199999547,['n'],1,right,['0'],6,0.25914600000032806,,,57784,18,Vrouw,Rechts,1,
,xotask,xotask,xotask,9,0,9,609,training,positivefb,61,average,63,2.7163156000005984,['n'],0,left,['0'],6,0.5647857999992993,,,57784,18,Vrouw,Rechts,1,
,xotask,xotask,xotask,10,0,10,610,training,positivefb,85,hard,50,0.4496914999999717,['c'],1,left,['0'],6,0.14806900000075984,,,57784,18,Vrouw,Rechts,1,
,xotask,xotask,xotask,11,0,11,611,training,positivefb,98,easy,73,0.43280159999994794,['c'],1,left,['0'],6,0.07615729999997711,,,57784,18,Vrouw,Rechts,1,
,xotask,xotask,xotask,12,0,12,612,training,positivefb,60,hard,26,0.35048079999978654,['n'],1,right,['9'],5,0.2675042000009853,,,57784,18,Vrouw,Rechts,1,
,xotask,xotask,xotask,13,0,13,613,training,positivefb,96,average,64,0.3507232000010845,['c'],1,left,['9'],5,0.17962459999944258,,,57784,18,Vrouw,Rechts,1,
,xotask,xotask,xotask,14,0,14,614,training,positivefb,96,hard,50,0.399509399998351,['c'],1,left,['9'],5,0.1970461000000796,,,57784,18,Vrouw,Rechts,1,
,xotask,xotask,xotask,15,0,15,615,training,positivefb,99,easy,71,0.48373519999950076,['c'],1,left,['9'],5,0.16185150000092108,,,57784,18,Vrouw,Rechts,1,
,xotask,xotask,xotask,16,0,16,616,training,positivefb,97,easy,6,0.483574599998974,['n'],1,right,['0'],6,0.17682760000025155,,,57784,18,Vrouw,Rechts,1,
,xotask,xotask,xotask,17,0,17,617,training,positivefb,90,easy,73,0.4502591000000393,['c'],1,left,['0'],6,0.08775359999890497,,,57784,18,Vrouw,Rechts,1,
,xotask,xotask,xotask,18,0,18,618,training,positivefb,97,hard,26,0.5178138000010222,['n'],1,right,['0'],6,0.15160819999982778,,,57784,18,Vrouw,Rechts,1,
,xotask,xotask,xotask,19,0,19,619,training,positivefb,83,easy,7,0.40024170000106096,['c'],0,right,['0'],6,0.13827059999857738,,,57784,18,Vrouw,Rechts,1,
,xotask,xotask,xotask,20,0,20,620,training,positivefb,95,easy,72,0.4175230000000738,['c'],1,left,['0'],6,0.1159827999999834,,,57784,18,Vrouw,Rechts,1,
,xotask,xotask,xotask,21,0,21,621,training,positivefb,97,easy,5,0.6336262000004353,['n'],1,right,['0'],6,0.1735262000001967,,,57784,18,Vrouw,Rechts,1,
,xotask,xotask,xotask,22,0,22,622,training,positivefb,96,hard,25,0.7004859000007855,['n'],1,right,['0'],6,0.39475019999918004,,,57784,18,Vrouw,Rechts,1,
,xotask,xotask,xotask,23,0,23,623,training,positivefb,95,average,62,0.5663652000002912,['c'],1,left,['0'],6,0.053338899999289424,,,57784,18,Vrouw,Rechts,1,
,xotask,xotask,xotask,24,0,24,624,training,positivefb,99,easy,71,0.5329703999996127,['c'],1,left,['0'],6,1.1578329000003578,,,57784,18,Vrouw,Rechts,1,
,xotask,xotask,xotask,25,0,25,625,training,positivefb,92,hard,27,0.6329206000009435,['n'],1,right,['0'],6,0.13503420000051847,,,57784,18,Vrouw,Rechts,1,
,xotask,xotask,xotask,26,0,26,626,training,positivefb,96,average,18,0.7166005999988556,['n'],1,right,['0'],6,0.12481579999985115,,,57784,18,Vrouw,Rechts,1,
,xotask,xotask,xotask,27,0,27,627,training,positivefb,98,average,18,0.8172377000009874,['n'],1,right,['0'],6,0.7835861000003206,,,57784,18,Vrouw,Rechts,1,
,xotask,xotask,xotask,28,0,28,628,training,positivefb,99,easy,9,0.4171783999991021,['n'],1,right,['0'],6,0.3276244000007864,,,57784,18,Vrouw,Rechts,1,
,xotask,xotask,xotask,29,0,29,629,training,positivefb,94,hard,26,0.6005853000006027,['n'],1,right,['0'],6,0.1707864999989397,,,57784,18,Vrouw,Rechts,1,
,xotask,xotask,xotask,30,0,30,630,training,positivefb,91,hard,53,0.4499107000010554,['n'],0,left,['0'],6,0.1701431000001321,,,57784,18,Vrouw,Rechts,1,
,xotask,xotask,xotask,31,0,31,631,training,positivefb,94,average,61,0.5333914000002551,['n'],0,left,['0'],6,0.23889799999960815,,,57784,18,Vrouw,Rechts,1,
,xotask,xotask,xotask,32,0,32,632,training,positivefb,94,hard,50,0.6506258999997954,['c'],1,left,['0'],6,0.0907521999997698,,,57784,18,Vrouw,Rechts,1,
,xotask,xotask,xotask,33,0,33,633,training,positivefb,95,average,16,0.6329721999991307,['n'],1,right,['0'],6,0.11029219999909401,,,57784,18,Vrouw,Rechts,1,
,xotask,xotask,xotask,34,0,34,634,training,positivefb,87,hard,53,0.7325803999992786,['n'],0,left,['0'],6,0.13318079999953625,,,57784,18,Vrouw,Rechts,1,
,xotask,xotask,xotask,35,0,35,635,training,positivefb,97,easy,8,0.5005366000004869,['n'],1,right,['0'],6,0.1151004000003013,,,57784,18,Vrouw,Rechts,1,
,xotask,xotask,xotask,36,0,36,636,training,positivefb,85,average,64,0.783559299999979,['c'],1,left,['0'],6,0.0962850999985676,,,57784,18,Vrouw,Rechts,1,
,xotask,xotask,xotask,37,0,37,637,training,positivefb,92,hard,25,0.632730299999821,['n'],1,right,['0'],6,0.15480989999923622,,,57784,18,Vrouw,Rechts,1,
,xotask,xotask,xotask,38,0,38,638,training,positivefb,91,average,19,0.48333350000029895,['n'],1,right,['0'],6,0.09769979999873613,,,57784,18,Vrouw,Rechts,1,
,xotask,xotask,xotask,39,0,39,639,training,positivefb,99,average,62,0.4671927000017604,['c'],1,left,['0'],6,0.12247860000024957,,,57784,18,Vrouw,Rechts,1,
,xotask,xotask,xotask,40,0,40,640,training,positivefb,95,easy,72,0.499986999999237,['c'],1,left,['0'],6,0.12980220000099507,,,57784,18,Vrouw,Rechts,1,
,xotask,xotask,xotask,41,0,41,641,training,positivefb,97,easy,71,0.4504503999996814,['c'],1,left,['0'],6,0.1633987999994133,,,57784,18,Vrouw,Rechts,1,
,xotask,xotask,xotask,42,0,42,642,training,positivefb,88,average,18,0.59976049999932,['n'],1,right,['0'],6,0.14210590000038792,,,57784,18,Vrouw,Rechts,1,
,xotask,xotask,xotask,43,0,43,643,training,positivefb,89,easy,9,0.4663680000012391,['n'],1,right,['0'],6,0.13371029999871098,,,57784,18,Vrouw,Rechts,1,
,xotask,xotask,xotask,44,0,44,644,training,positivefb,89,easy,74,0.6825339999995776,['c'],1,left,['0'],6,0.09281449999980396,,,57784,18,Vrouw,Rechts,1,
,xotask,xotask,xotask,45,0,45,645,training,positivefb,85,hard,27,0.616241199999422,['n'],1,right,['0'],6,0.15339839999978722,,,57784,18,Vrouw,Rechts,1,
,xotask,xotask,xotask,46,0,46,646,training,positivefb,93,easy,73,0.4835168000008707,['c'],1,left,['0'],6,0.05598939999981667,,,57784,18,Vrouw,Rechts,1,
,xotask,xotask,xotask,47,0,47,647,training,positivefb,97,hard,25,0.7164173999990453,['c'],0,right,['0'],6,0.1055186000012327,,,57784,18,Vrouw,Rechts,1,
,xotask,xotask,xotask,48,0,48,648,training,positivefb,86,hard,51,0.5337725000008504,['n'],0,left,['0'],6,0.23203519999879063,,,57784,18,Vrouw,Rechts,1,
,xotask,xotask,xotask,49,0,49,649,training,positivefb,97,average,17,0.4661783000010473,['c'],0,right,['0'],6,0.30806699999993725,,,57784,18,Vrouw,Rechts,1,
,xotask,xotask,xotask,50,0,50,650,training,positivefb,83,hard,51,0.6339723999990383,['n'],0,left,['0'],6,0.1666294000006019,,,57784,18,Vrouw,Rechts,1,
,xotask,xotask,xotask,51,0,51,651,training,positivefb,96,average,17,0.43308059999981197,['c'],0,right,['0'],6,0.11852150000049733,,,57784,18,Vrouw,Rechts,1,
,xotask,xotask,xotask,52,0,52,652,training,positivefb,92,hard,26,0.6172511000004306,['n'],1,right,['0'],6,0.15346350000072562,,,57784,18,Vrouw,Rechts,1,
,xotask,xotask,xotask,53,0,53,653,training,positivefb,99,average,17,0.4832285000011325,['n'],1,right,['0'],6,0.13622710000163352,,,57784,18,Vrouw,Rechts,1,
,xotask,xotask,xotask,54,0,54,654,training,positivefb,94,average,62,0.5172115000004851,['c'],1,left,['0'],6,0.11799359999895387,,,57784,18,Vrouw,Rechts,1,
