starttime,task,fbtask,firsttask,withinblocktrial,block,withintasktrial,trial,running,feedback,fbscore,difflevel,reddots,rt,resp,cor,cresp,conf_press,cj,RTconf,n_xes,post1,post2,post3,post4,post5,stoptime,sub,age,gender,handedness,session,
1716966080,dotcolour,dotcolour,dotcolour,0,0,0,0,training,negativefb,17,hard,35,1.0830008999998881,['c'],0,right,['9'],2,1.862741700000015,,,,,,,,37,0,Vrouw,Rechts,2,
,dotcolour,dotcolour,dotcolour,1,0,1,1,training,negativefb,97,easy,18,1.33338260000005,['n'],1,right,['2'],5,1.4707361000000674,,,,,,,,37,0,Vrouw,Rechts,2,
,dotcolour,dotcolour,dotcolour,2,0,2,2,training,negativefb,90,hard,41,1.1674717000000783,['c'],1,left,['3'],4,0.7651949999999488,,,,,,,,37,0,Vrouw,Rechts,2,
,dotcolour,dotcolour,dotcolour,3,0,3,3,training,negativefb,89,easy,17,1.7501305000000684,['n'],1,right,['2'],5,1.0001667999999881,,,,,,,,37,0,Vrouw,Rechts,2,
,dotcolour,dotcolour,dotcolour,4,0,4,4,training,negativefb,15,hard,42,0.7005163999999695,['n'],0,left,['2'],5,0.19615999999996347,,,,,,,,37,0,Vrouw,Rechts,2,
,dotcolour,dotcolour,dotcolour,5,0,5,5,training,negativefb,41,easy,63,1.2675067000000126,['c'],1,left,['2'],5,0.7221999999999298,,,,,,,,37,0,Vrouw,Rechts,2,
,dotcolour,dotcolour,dotcolour,6,0,6,6,training,negativefb,55,average,53,0.8003387999999632,['c'],1,left,['2'],5,0.2694731999999931,,,,,,,,37,0,Vrouw,Rechts,2,
,dotcolour,dotcolour,dotcolour,7,0,7,7,training,negativefb,77,average,27,0.43356409999978496,['c'],0,right,['2'],5,0.23352300000010473,,,,,,,,37,0,Vrouw,Rechts,2,
,dotcolour,dotcolour,dotcolour,8,0,8,8,training,negativefb,79,average,55,0.5008070999999745,['c'],1,left,['2'],5,0.13208229999986543,,,,,,,,37,0,Vrouw,Rechts,2,
,dotcolour,dotcolour,dotcolour,9,0,9,9,training,negativefb,72,hard,41,0.6168548999999075,['n'],0,left,['2'],5,0.11796589999994467,,,,,,,,37,0,Vrouw,Rechts,2,
,dotcolour,dotcolour,dotcolour,10,0,10,10,training,negativefb,49,easy,65,0.5508112999998502,['c'],1,left,['1'],6,0.32338389999995343,,,,,,,,37,0,Vrouw,Rechts,2,
,dotcolour,dotcolour,dotcolour,11,0,11,11,training,negativefb,92,average,26,0.6837141000000884,['n'],1,right,['2'],5,0.2199470000000474,,,,,,,,37,0,Vrouw,Rechts,2,
,dotcolour,dotcolour,dotcolour,12,0,12,12,training,negativefb,55,average,55,0.6505575999999564,['c'],1,left,['2'],5,0.16895740000018122,,,,,,,,37,0,Vrouw,Rechts,2,
,dotcolour,dotcolour,dotcolour,13,0,13,13,training,negativefb,38,hard,37,0.7507509999998092,['n'],1,right,['2'],5,0.13220000000001164,,,,,,,,37,0,Vrouw,Rechts,2,
,dotcolour,dotcolour,dotcolour,14,0,14,14,training,negativefb,72,average,26,0.583658000000014,['n'],1,right,['2'],5,0.1035001000000193,,,,,,,,37,0,Vrouw,Rechts,2,
,dotcolour,dotcolour,dotcolour,15,0,15,15,training,negativefb,47,easy,18,0.7663936999999805,['n'],1,right,['1'],6,0.26093340000011267,,,,,,,,37,0,Vrouw,Rechts,2,
,dotcolour,dotcolour,dotcolour,16,0,16,16,training,negativefb,70,easy,64,0.7507511000001159,['c'],1,left,['1'],6,0.2608713000001899,,,,,,,,37,0,Vrouw,Rechts,2,
,dotcolour,dotcolour,dotcolour,17,0,17,17,training,negativefb,55,average,28,0.6163884000000053,['n'],1,right,['1'],6,0.0502544000000853,,,,,,,,37,0,Vrouw,Rechts,2,
,dotcolour,dotcolour,dotcolour,18,0,18,18,training,negativefb,63,easy,15,0.44973449999997683,['n'],1,right,['1'],6,0.09436299999993025,,,,,,,,37,0,Vrouw,Rechts,2,
,dotcolour,dotcolour,dotcolour,19,0,19,19,training,negativefb,57,average,52,0.7666933999998946,['c'],1,left,['1'],6,0.16423999999983607,,,,,,,,37,0,Vrouw,Rechts,2,
,dotcolour,dotcolour,dotcolour,20,0,20,20,training,negativefb,89,easy,18,0.5008359000000837,['n'],1,right,['1'],6,0.08224459999996725,,,,,,,,37,0,Vrouw,Rechts,2,
,dotcolour,dotcolour,dotcolour,21,0,21,21,training,negativefb,33,hard,35,0.5166265999998814,['n'],1,right,['1'],6,0.1388400000000729,,,,,,,,37,0,Vrouw,Rechts,2,
,dotcolour,dotcolour,dotcolour,22,0,22,22,training,negativefb,75,average,25,0.5660713999998279,['n'],1,right,['1'],6,0.1345589000000018,,,,,,,,37,0,Vrouw,Rechts,2,
,dotcolour,dotcolour,dotcolour,23,0,23,23,training,negativefb,55,easy,63,0.9163653000000522,['c'],1,left,['1'],6,0.1964711000000534,,,,,,,,37,0,Vrouw,Rechts,2,
,dotcolour,dotcolour,dotcolour,24,0,24,24,training,negativefb,67,hard,39,0.4665945000001557,['n'],1,right,['1'],6,0.16236509999998816,,,,,,,,37,0,Vrouw,Rechts,2,
,dotcolour,dotcolour,dotcolour,25,0,25,25,training,negativefb,53,easy,15,0.5829910999998447,['n'],1,right,['1'],6,0.3730565000000752,,,,,,,,37,0,Vrouw,Rechts,2,
,dotcolour,dotcolour,dotcolour,26,0,26,26,training,negativefb,46,easy,17,0.7160472000000482,['n'],1,right,['1'],6,0.12198800000010124,,,,,,,,37,0,Vrouw,Rechts,2,
,dotcolour,dotcolour,dotcolour,27,0,27,27,training,negativefb,61,hard,44,0.6012226999998802,['n'],0,left,['1'],6,0.09302070000012463,,,,,,,,37,0,Vrouw,Rechts,2,
,dotcolour,dotcolour,dotcolour,28,0,28,28,training,negativefb,86,hard,37,0.6171117999999751,['n'],1,right,['1'],6,0.20898799999986295,,,,,,,,37,0,Vrouw,Rechts,2,
,dotcolour,dotcolour,dotcolour,29,0,29,29,training,negativefb,82,easy,65,0.6840159000000767,['c'],1,left,['1'],6,0.36565589999986514,,,,,,,,37,0,Vrouw,Rechts,2,
,dotcolour,dotcolour,dotcolour,30,0,30,30,training,negativefb,31,easy,17,0.9665360000001328,['n'],1,right,['1'],6,0.31256839999991826,,,,,,,,37,0,Vrouw,Rechts,2,
,dotcolour,dotcolour,dotcolour,31,0,31,31,training,negativefb,70,hard,41,0.6833338000001277,['n'],0,left,['1'],6,0.06536590000018805,,,,,,,,37,0,Vrouw,Rechts,2,
,dotcolour,dotcolour,dotcolour,32,0,32,32,training,negativefb,97,easy,63,0.6497256999998626,['c'],1,left,['1'],6,0.36458310000011807,,,,,,,,37,0,Vrouw,Rechts,2,
,dotcolour,dotcolour,dotcolour,33,0,33,33,training,negativefb,83,easy,64,0.6665981999999531,['c'],1,left,['1'],6,0.23585980000007112,,,,,,,,37,0,Vrouw,Rechts,2,
,dotcolour,dotcolour,dotcolour,34,0,34,34,training,negativefb,71,hard,38,0.5170209000000341,['n'],1,right,['1'],6,0.12585699999999633,,,,,,,,37,0,Vrouw,Rechts,2,
,dotcolour,dotcolour,dotcolour,35,0,35,35,training,negativefb,66,easy,17,0.6844565000001239,['n'],1,right,['1'],6,0.26175679999983004,,,,,,,,37,0,Vrouw,Rechts,2,
,dotcolour,dotcolour,dotcolour,36,0,36,36,training,negativefb,39,hard,41,0.5332214000000022,['n'],0,left,['1'],6,0.11055839999994532,,,,,,,,37,0,Vrouw,Rechts,2,
,dotcolour,dotcolour,dotcolour,37,0,37,37,training,negativefb,74,hard,38,0.4838184000000183,['n'],1,right,['1'],6,0.10383230000002186,,,,,,,,37,0,Vrouw,Rechts,2,
,dotcolour,dotcolour,dotcolour,38,0,38,38,training,negativefb,60,easy,18,0.9175419000000602,['n'],1,right,['1'],6,0.1904787999999371,,,,,,,,37,0,Vrouw,Rechts,2,
,dotcolour,dotcolour,dotcolour,39,0,39,39,training,negativefb,60,average,51,0.8493898000001536,['c'],1,left,['1'],6,0.26921519999996235,,,,,,,,37,0,Vrouw,Rechts,2,
,dotcolour,dotcolour,dotcolour,40,0,40,40,training,negativefb,49,hard,44,0.3834299000000101,['n'],0,left,['1'],6,0.11529250000012325,,,,,,,,37,0,Vrouw,Rechts,2,
,dotcolour,dotcolour,dotcolour,41,0,41,41,training,negativefb,58,easy,64,0.9005362000000332,['c'],1,left,['1'],6,0.15453950000005534,,,,,,,,37,0,Vrouw,Rechts,2,
,dotcolour,dotcolour,dotcolour,42,0,42,42,training,negativefb,49,average,51,0.8006296999999449,['n'],0,left,['2'],5,0.18057740000017475,,,,,,,,37,0,Vrouw,Rechts,2,
,dotcolour,dotcolour,dotcolour,43,0,43,43,training,negativefb,46,easy,63,1.5994321000000582,['c'],1,left,['1'],6,0.22193960000004154,,,,,,,,37,0,Vrouw,Rechts,2,
,dotcolour,dotcolour,dotcolour,44,0,44,44,training,negativefb,76,hard,45,1.051128800000015,['n'],0,left,['9'],2,0.18739510000000337,,,,,,,,37,0,Vrouw,Rechts,2,
,dotcolour,dotcolour,dotcolour,45,0,45,45,training,negativefb,78,average,54,0.882833699999992,['c'],1,left,['1'],6,0.13674549999996088,,,,,,,,37,0,Vrouw,Rechts,2,
,dotcolour,dotcolour,dotcolour,46,0,46,46,training,negativefb,55,easy,62,0.8827332999999271,['c'],1,left,['1'],6,0.16800130000001445,,,,,,,,37,0,Vrouw,Rechts,2,
,dotcolour,dotcolour,dotcolour,47,0,47,47,training,negativefb,69,average,28,0.5497539999998935,['n'],1,right,['1'],6,0.07532020000007833,,,,,,,,37,0,Vrouw,Rechts,2,
,dotcolour,dotcolour,dotcolour,48,0,48,48,training,negativefb,59,average,55,0.7346889999998893,['c'],1,left,['1'],6,0.12357250000013664,,,,,,,,37,0,Vrouw,Rechts,2,
,dotcolour,dotcolour,dotcolour,49,0,49,49,training,negativefb,70,hard,35,0.8674237000000176,['n'],1,right,['2'],5,0.19604839999988144,,,,,,,,37,0,Vrouw,Rechts,2,
,dotcolour,dotcolour,dotcolour,50,0,50,50,training,negativefb,52,average,53,0.7675504999999703,['c'],1,left,['1'],6,0.2142052000001513,,,,,,,,37,0,Vrouw,Rechts,2,
,dotcolour,dotcolour,dotcolour,51,0,51,51,training,negativefb,60,hard,42,0.5506823000000622,['n'],0,left,['1'],6,0.12003069999991567,,,,,,,,37,0,Vrouw,Rechts,2,
,dotcolour,dotcolour,dotcolour,52,0,52,52,training,negativefb,82,average,25,0.5166890999998941,['n'],1,right,['1'],6,0.1749022999999852,,,,,,,,37,0,Vrouw,Rechts,2,
,dotcolour,dotcolour,dotcolour,53,0,53,53,training,negativefb,42,hard,43,0.6671331999998529,['c'],1,left,['2'],5,0.23778940000011062,,,,,,,,37,0,Vrouw,Rechts,2,
,dotcolour,dotcolour,dotcolour,54,0,54,54,training,negativefb,45,average,26,0.5674690999999257,['n'],1,right,['1'],6,0.1894340999999713,,,,,,,,37,0,Vrouw,Rechts,2,
,dotcolour,dotcolour,dotcolour,55,0,55,55,training,negativefb,68,hard,37,0.7505493000001024,['n'],1,right,['1'],6,0.20822640000005777,,,,,,,,37,0,Vrouw,Rechts,2,
,dotcolour,dotcolour,dotcolour,56,0,56,56,training,negativefb,67,average,28,0.4838733999999931,['n'],1,right,['1'],6,0.11677620000000388,,,,,,,,37,0,Vrouw,Rechts,2,
,dotcolour,dotcolour,dotcolour,57,0,57,57,training,negativefb,71,hard,35,0.482970000000023,['n'],1,right,['1'],6,0.13311799999996765,,,,,,,,37,0,Vrouw,Rechts,2,
,dotcolour,dotcolour,dotcolour,58,0,58,58,training,negativefb,77,average,53,0.5339115000001584,['n'],0,left,['1'],6,0.08220300000016323,,,,,,,,37,0,Vrouw,Rechts,2,
,dotcolour,dotcolour,dotcolour,59,0,59,59,training,negativefb,20,average,26,0.500176200000169,['n'],1,right,['1'],6,0.33078980000004776,,,,,,,,37,0,Vrouw,Rechts,2,
,dotcolour,dotcolour,dotcolour,0,1,60,60,training,negativefb,44,easy,15,1.1166537000001426,['n'],1,right,['1'],6,0.31740590000003976,,,,,,,,37,0,Vrouw,Rechts,2,
,dotcolour,dotcolour,dotcolour,1,1,61,61,training,negativefb,38,hard,43,0.39948309999999765,['n'],0,left,['1'],6,0.08799269999985881,,,,,,,,37,0,Vrouw,Rechts,2,
,dotcolour,dotcolour,dotcolour,2,1,62,62,training,negativefb,47,hard,42,0.40082729999994626,['n'],0,left,['1'],6,0.10892579999995178,,,,,,,,37,0,Vrouw,Rechts,2,
,dotcolour,dotcolour,dotcolour,3,1,63,63,training,negativefb,87,easy,61,0.7165989000000081,['c'],1,left,['2'],5,0.324245000000019,,,,,,,,37,0,Vrouw,Rechts,2,
,dotcolour,dotcolour,dotcolour,4,1,64,64,training,negativefb,80,average,27,0.5669356000000789,['n'],1,right,['1'],6,0.12096289999999499,,,,,,,,37,0,Vrouw,Rechts,2,
,dotcolour,dotcolour,dotcolour,5,1,65,65,training,negativefb,67,average,25,0.44971559999999045,['n'],1,right,['1'],6,0.12211980000006406,,,,,,,,37,0,Vrouw,Rechts,2,
,dotcolour,dotcolour,dotcolour,6,1,66,66,training,negativefb,71,average,55,0.6166507000000365,['c'],1,left,['1'],6,0.23695279999992636,,,,,,,,37,0,Vrouw,Rechts,2,
,dotcolour,dotcolour,dotcolour,7,1,67,67,training,negativefb,43,hard,38,0.46722700000009354,['n'],1,right,['1'],6,0.11294080000016038,,,,,,,,37,0,Vrouw,Rechts,2,
,dotcolour,dotcolour,dotcolour,8,1,68,68,training,negativefb,87,easy,17,0.3832879999999932,['n'],1,right,['1'],6,0.1495130999999219,,,,,,,,37,0,Vrouw,Rechts,2,
,dotcolour,dotcolour,dotcolour,9,1,69,69,training,negativefb,43,easy,61,0.49938449999990553,['n'],0,left,['2'],5,0.3800286999999116,,,,,,,,37,0,Vrouw,Rechts,2,
,dotcolour,dotcolour,dotcolour,10,1,70,70,training,negativefb,78,hard,39,0.45008770000004006,['n'],1,right,['1'],6,0.0830290999999761,,,,,,,,37,0,Vrouw,Rechts,2,
,dotcolour,dotcolour,dotcolour,11,1,71,71,training,negativefb,54,easy,62,0.6493464000000131,['c'],1,left,['1'],6,0.11744990000011057,,,,,,,,37,0,Vrouw,Rechts,2,
,dotcolour,dotcolour,dotcolour,12,1,72,72,training,negativefb,37,average,55,0.5676352999998926,['n'],0,left,['2'],5,0.19417459999999664,,,,,,,,37,0,Vrouw,Rechts,2,
,dotcolour,dotcolour,dotcolour,13,1,73,73,training,negativefb,53,average,55,0.7344267000000855,['c'],1,left,['1'],6,0.22184280000010403,,,,,,,,37,0,Vrouw,Rechts,2,
,dotcolour,dotcolour,dotcolour,14,1,74,74,training,negativefb,33,average,52,0.4679373999999825,['n'],0,left,['2'],5,0.10641200000009121,,,,,,,,37,0,Vrouw,Rechts,2,
,dotcolour,dotcolour,dotcolour,15,1,75,75,training,negativefb,51,average,28,0.35005309999996825,['n'],1,right,['2'],5,0.18450020000000222,,,,,,,,37,0,Vrouw,Rechts,2,
,dotcolour,dotcolour,dotcolour,16,1,76,76,training,negativefb,34,hard,41,0.4167569999999614,['n'],0,left,['2'],5,0.04070939999996881,,,,,,,,37,0,Vrouw,Rechts,2,
,dotcolour,dotcolour,dotcolour,17,1,77,77,training,negativefb,82,hard,42,0.5680944999999156,['n'],0,left,['2'],5,0.16044830000009824,,,,,,,,37,0,Vrouw,Rechts,2,
,dotcolour,dotcolour,dotcolour,18,1,78,78,training,negativefb,7,easy,63,0.2844793000001573,['n'],0,left,['9'],2,0.7997700000000805,,,,,,,,37,0,Vrouw,Rechts,2,
,dotcolour,dotcolour,dotcolour,19,1,79,79,training,negativefb,44,hard,37,0.4846784999999727,['n'],1,right,['2'],5,0.15581169999995836,,,,,,,,37,0,Vrouw,Rechts,2,
,dotcolour,dotcolour,dotcolour,20,1,80,80,training,negativefb,44,hard,43,0.5663879999999608,['n'],0,left,['2'],5,0.1751200000001063,,,,,,,,37,0,Vrouw,Rechts,2,
,dotcolour,dotcolour,dotcolour,21,1,81,81,training,negativefb,84,easy,65,0.4999086000000261,['c'],1,left,['1'],6,0.1885287000000062,,,,,,,,37,0,Vrouw,Rechts,2,
,dotcolour,dotcolour,dotcolour,22,1,82,82,training,negativefb,44,average,54,0.3993955000000824,['n'],0,left,['2'],5,0.101269099999854,,,,,,,,37,0,Vrouw,Rechts,2,
,dotcolour,dotcolour,dotcolour,23,1,83,83,training,negativefb,69,average,55,0.5005396999999903,['c'],1,left,['1'],6,0.09303219999992507,,,,,,,,37,0,Vrouw,Rechts,2,
,dotcolour,dotcolour,dotcolour,24,1,84,84,training,negativefb,60,hard,42,0.5173534000000473,['n'],0,left,['2'],5,0.11727140000016334,,,,,,,,37,0,Vrouw,Rechts,2,
,dotcolour,dotcolour,dotcolour,25,1,85,85,training,negativefb,50,average,54,0.6011454000001777,['c'],1,left,['1'],6,0.18452010000009977,,,,,,,,37,0,Vrouw,Rechts,2,
,dotcolour,dotcolour,dotcolour,26,1,86,86,training,negativefb,67,easy,16,0.5504210999999941,['n'],1,right,['1'],6,0.2911338999999771,,,,,,,,37,0,Vrouw,Rechts,2,
,dotcolour,dotcolour,dotcolour,27,1,87,87,training,negativefb,66,easy,18,0.4176444000001993,['n'],1,right,['1'],6,0.27112499999998363,,,,,,,,37,0,Vrouw,Rechts,2,
,dotcolour,dotcolour,dotcolour,28,1,88,88,training,negativefb,52,easy,62,0.6169924999999239,['c'],1,left,['1'],6,0.11613360000001194,,,,,,,,37,0,Vrouw,Rechts,2,
,dotcolour,dotcolour,dotcolour,29,1,89,89,training,negativefb,2,easy,65,0.43404129999998986,['n'],0,left,['0'],1,0.661982099999932,,,,,,,,37,0,Vrouw,Rechts,2,
,dotcolour,dotcolour,dotcolour,30,1,90,90,training,negativefb,76,hard,37,0.5511554000001979,['n'],1,right,['1'],6,0.08594259999995302,,,,,,,,37,0,Vrouw,Rechts,2,
,dotcolour,dotcolour,dotcolour,31,1,91,91,training,negativefb,40,hard,38,0.5661718999999721,['n'],1,right,['2'],5,0.09196459999998297,,,,,,,,37,0,Vrouw,Rechts,2,
,dotcolour,dotcolour,dotcolour,32,1,92,92,training,negativefb,71,easy,16,0.8169267000000673,['n'],1,right,['1'],6,0.1598412000000735,,,,,,,,37,0,Vrouw,Rechts,2,
,dotcolour,dotcolour,dotcolour,33,1,93,93,training,negativefb,79,average,54,0.6837567999998555,['c'],1,left,['1'],6,0.11857220000001689,,,,,,,,37,0,Vrouw,Rechts,2,
,dotcolour,dotcolour,dotcolour,34,1,94,94,training,negativefb,74,easy,65,0.6998512000000119,['c'],1,left,['1'],6,0.1660396000002038,,,,,,,,37,0,Vrouw,Rechts,2,
,dotcolour,dotcolour,dotcolour,35,1,95,95,training,negativefb,41,hard,42,0.46625749999998334,['n'],0,left,['2'],5,0.08581019999996897,,,,,,,,37,0,Vrouw,Rechts,2,
,dotcolour,dotcolour,dotcolour,36,1,96,96,training,negativefb,83,hard,36,0.5177639000000909,['n'],1,right,['1'],6,0.11646289999998771,,,,,,,,37,0,Vrouw,Rechts,2,
,dotcolour,dotcolour,dotcolour,37,1,97,97,training,negativefb,64,average,26,0.5836722000001373,['n'],1,right,['1'],6,0.11203720000003159,,,,,,,,37,0,Vrouw,Rechts,2,
,dotcolour,dotcolour,dotcolour,38,1,98,98,training,negativefb,69,easy,18,0.5001033000000916,['n'],1,right,['1'],6,0.0563844999999219,,,,,,,,37,0,Vrouw,Rechts,2,
,dotcolour,dotcolour,dotcolour,39,1,99,99,training,negativefb,64,hard,39,0.4332294999999249,['n'],1,right,['2'],5,0.09326230000010582,,,,,,,,37,0,Vrouw,Rechts,2,
,dotcolour,dotcolour,dotcolour,40,1,100,100,training,negativefb,68,average,27,0.43349860000012086,['n'],1,right,['2'],5,0.2167979999999261,,,,,,,,37,0,Vrouw,Rechts,2,
,dotcolour,dotcolour,dotcolour,41,1,101,101,training,negativefb,37,easy,17,0.2841920000000755,['n'],1,right,['1'],6,0.12422839999999269,,,,,,,,37,0,Vrouw,Rechts,2,
,dotcolour,dotcolour,dotcolour,42,1,102,102,training,negativefb,36,average,51,0.43444019999992634,['n'],0,left,['1'],6,0.11796780000008766,,,,,,,,37,0,Vrouw,Rechts,2,
,dotcolour,dotcolour,dotcolour,43,1,103,103,training,negativefb,67,average,29,0.2834368999999697,['n'],1,right,['2'],5,0.08637859999998909,,,,,,,,37,0,Vrouw,Rechts,2,
,dotcolour,dotcolour,dotcolour,44,1,104,104,training,negativefb,68,easy,16,0.3499157999999625,['n'],1,right,['1'],6,0.07663090000005468,,,,,,,,37,0,Vrouw,Rechts,2,
,dotcolour,dotcolour,dotcolour,45,1,105,105,training,negativefb,65,average,25,0.33271669999999176,['n'],1,right,['1'],6,0.06041290000007393,,,,,,,,37,0,Vrouw,Rechts,2,
,dotcolour,dotcolour,dotcolour,46,1,106,106,training,negativefb,72,average,55,1.1175155000000814,['c'],1,left,['1'],6,0.08642269999995733,,,,,,,,37,0,Vrouw,Rechts,2,
,dotcolour,dotcolour,dotcolour,47,1,107,107,training,negativefb,65,average,26,0.45121740000013233,['n'],1,right,['1'],6,0.04849699999999757,,,,,,,,37,0,Vrouw,Rechts,2,
,dotcolour,dotcolour,dotcolour,48,1,108,108,training,negativefb,71,hard,35,0.5173661000001175,['n'],1,right,['1'],6,0.06619769999997516,,,,,,,,37,0,Vrouw,Rechts,2,
,dotcolour,dotcolour,dotcolour,49,1,109,109,training,negativefb,82,easy,63,0.4839778999998998,['c'],1,left,['1'],6,0.12432879999983015,,,,,,,,37,0,Vrouw,Rechts,2,
,dotcolour,dotcolour,dotcolour,50,1,110,110,training,negativefb,88,easy,18,0.4831550999999763,['n'],1,right,['1'],6,0.1083009999999831,,,,,,,,37,0,Vrouw,Rechts,2,
,dotcolour,dotcolour,dotcolour,51,1,111,111,training,negativefb,59,hard,43,0.6336807000000135,['c'],1,left,['1'],6,0.12654729999985648,,,,,,,,37,0,Vrouw,Rechts,2,
,dotcolour,dotcolour,dotcolour,52,1,112,112,training,negativefb,62,hard,42,0.48428249999983564,['n'],0,left,['2'],5,0.15926039999999375,,,,,,,,37,0,Vrouw,Rechts,2,
,dotcolour,dotcolour,dotcolour,53,1,113,113,training,negativefb,96,hard,36,0.4843405999999959,['n'],1,right,['2'],5,0.5334083000000192,,,,,,,,37,0,Vrouw,Rechts,2,
,dotcolour,dotcolour,dotcolour,54,1,114,114,training,negativefb,64,easy,18,0.38462540000000445,['n'],1,right,['2'],5,0.12114990000009129,,,,,,,,37,0,Vrouw,Rechts,2,
,dotcolour,dotcolour,dotcolour,55,1,115,115,training,negativefb,37,easy,62,0.6008734999998069,['c'],1,left,['1'],6,0.1725088999999116,,,,,,,,37,0,Vrouw,Rechts,2,
,dotcolour,dotcolour,dotcolour,56,1,116,116,training,negativefb,94,average,27,0.48401570000009997,['n'],1,right,['1'],6,0.2344423999998071,,,,,,,,37,0,Vrouw,Rechts,2,
,dotcolour,dotcolour,dotcolour,57,1,117,117,training,negativefb,81,average,28,0.5665549000000283,['n'],1,right,['1'],6,0.25841429999991306,,,,,,,,37,0,Vrouw,Rechts,2,
,dotcolour,dotcolour,dotcolour,58,1,118,118,training,negativefb,46,hard,45,0.6004146000000219,['n'],0,left,['2'],5,0.09686039999996865,,,,,,,,37,0,Vrouw,Rechts,2,
,dotcolour,dotcolour,dotcolour,59,1,119,119,training,negativefb,64,hard,39,0.3849843000000419,['n'],1,right,['1'],6,0.07791320000001178,,,,,,,,37,0,Vrouw,Rechts,2,
,dotcolour,dotcolour,dotcolour,0,2,120,120,main,negativefb,-99,easy,16,0.6169749000000593,['n'],1,right,['1'],6,0.15934300000003532,,,,,,,,37,0,Vrouw,Rechts,2,
,dotcolour,dotcolour,dotcolour,1,2,121,121,main,negativefb,-99,average,53,0.5013667999999143,['n'],0,left,['2'],5,0.05447049999997944,,,,,,,,37,0,Vrouw,Rechts,2,
,dotcolour,dotcolour,dotcolour,2,2,122,122,main,negativefb,-99,hard,44,0.5842416999998932,['n'],0,left,['2'],5,0.037642900000037116,,,,,,,,37,0,Vrouw,Rechts,2,
,dotcolour,dotcolour,dotcolour,3,2,123,123,main,negativefb,-99,hard,35,0.4183694999999261,['n'],1,right,['2'],5,0.19645779999996194,,,,,,,,37,0,Vrouw,Rechts,2,
,dotcolour,dotcolour,dotcolour,4,2,124,124,main,negativefb,-99,easy,65,0.767386100000067,['c'],1,left,['1'],6,0.11117930000000342,,,,,,,,37,0,Vrouw,Rechts,2,
,dotcolour,dotcolour,dotcolour,5,2,125,125,main,negativefb,-99,hard,39,0.4520654000000377,['n'],1,right,['2'],5,0.10521270000003824,,,,,,,,37,0,Vrouw,Rechts,2,
,dotcolour,dotcolour,dotcolour,6,2,126,126,main,negativefb,-99,hard,44,0.3512264999999388,['n'],0,left,['1'],6,0.10394110000015644,,,,,,,,37,0,Vrouw,Rechts,2,
,dotcolour,dotcolour,dotcolour,7,2,127,127,main,negativefb,-99,easy,15,0.40076970000018264,['n'],1,right,['1'],6,0.045738799999980984,,,,,,,,37,0,Vrouw,Rechts,2,
,dotcolour,dotcolour,dotcolour,8,2,128,128,main,negativefb,-99,average,29,0.4656099000001177,['n'],1,right,['2'],5,0.1293279999999868,,,,,,,,37,0,Vrouw,Rechts,2,
,dotcolour,dotcolour,dotcolour,9,2,129,129,main,negativefb,-99,average,54,0.6842154000000846,['c'],1,left,['1'],6,1.002232599999843,,,,,,,,37,0,Vrouw,Rechts,2,
,dotcolour,dotcolour,dotcolour,10,2,130,130,main,negativefb,-99,average,27,0.3852816000000985,['n'],1,right,['1'],6,0.08422560000008161,,,,,,,,37,0,Vrouw,Rechts,2,
,dotcolour,dotcolour,dotcolour,11,2,131,131,main,negativefb,-99,hard,37,0.6841709999998784,['n'],1,right,['2'],5,0.13419419999991078,,,,,,,,37,0,Vrouw,Rechts,2,
,dotcolour,dotcolour,dotcolour,12,2,132,132,main,negativefb,-99,average,26,0.40169280000009167,['n'],1,right,['2'],5,0.06538209999985156,,,,,,,,37,0,Vrouw,Rechts,2,
,dotcolour,dotcolour,dotcolour,13,2,133,133,main,negativefb,-99,easy,64,0.5013364999999794,['c'],1,left,['1'],6,0.07474120000006224,,,,,,,,37,0,Vrouw,Rechts,2,
,dotcolour,dotcolour,dotcolour,14,2,134,134,main,negativefb,-99,hard,36,0.5510477999998784,['n'],1,right,['2'],5,0.03522910000015145,,,,,,,,37,0,Vrouw,Rechts,2,
,dotcolour,dotcolour,dotcolour,15,2,135,135,main,negativefb,-99,average,52,0.5159917999999379,['c'],1,left,['2'],5,0.1578093999999055,,,,,,,,37,0,Vrouw,Rechts,2,
,dotcolour,dotcolour,dotcolour,16,2,136,136,main,negativefb,-99,easy,64,0.31782079999993584,['n'],0,left,['2'],5,0.03615880000006655,,,,,,,,37,0,Vrouw,Rechts,2,
,dotcolour,dotcolour,dotcolour,17,2,137,137,main,negativefb,-99,easy,63,0.550952499999994,['c'],1,left,['1'],6,0.11685379999994439,,,,,,,,37,0,Vrouw,Rechts,2,
,dotcolour,dotcolour,dotcolour,18,2,138,138,main,negativefb,-99,easy,15,0.4840083000001414,['n'],1,right,['1'],6,0.1582052000001113,,,,,,,,37,0,Vrouw,Rechts,2,
,dotcolour,dotcolour,dotcolour,19,2,139,139,main,negativefb,-99,easy,64,0.4824756000000434,['c'],1,left,['1'],6,0.05385389999992185,,,,,,,,37,0,Vrouw,Rechts,2,
,dotcolour,dotcolour,dotcolour,20,2,140,140,main,negativefb,-99,hard,37,0.35152339999990545,['n'],1,right,['2'],5,0.10216439999999238,,,,,,,,37,0,Vrouw,Rechts,2,
,dotcolour,dotcolour,dotcolour,21,2,141,141,main,negativefb,-99,hard,41,0.41771400000016,['n'],0,left,['1'],6,0.0500502999998389,,,,,,,,37,0,Vrouw,Rechts,2,
,dotcolour,dotcolour,dotcolour,22,2,142,142,main,negativefb,-99,hard,37,0.7016355999999178,['n'],1,right,['2'],5,0.09289760000001479,,,,,,,,37,0,Vrouw,Rechts,2,
,dotcolour,dotcolour,dotcolour,23,2,143,143,main,negativefb,-99,average,52,0.6177895000000717,['c'],1,left,['1'],6,0.05748160000007374,,,,,,,,37,0,Vrouw,Rechts,2,
,dotcolour,dotcolour,dotcolour,24,2,144,144,main,negativefb,-99,hard,42,0.7341212999999698,['n'],0,left,['2'],5,0.04327919999991536,,,,,,,,37,0,Vrouw,Rechts,2,
,dotcolour,dotcolour,dotcolour,25,2,145,145,main,negativefb,-99,hard,39,0.5173574999998891,['n'],1,right,['2'],5,0.0452124000000822,,,,,,,,37,0,Vrouw,Rechts,2,
,dotcolour,dotcolour,dotcolour,26,2,146,146,main,negativefb,-99,easy,61,0.5345254999999725,['c'],1,left,['1'],6,0.0961037000001852,,,,,,,,37,0,Vrouw,Rechts,2,
,dotcolour,dotcolour,dotcolour,27,2,147,147,main,negativefb,-99,hard,45,0.43412869999997383,['n'],0,left,['2'],5,0.06730270000002747,,,,,,,,37,0,Vrouw,Rechts,2,
,dotcolour,dotcolour,dotcolour,28,2,148,148,main,negativefb,-99,hard,45,0.5169693000000279,['c'],1,left,['2'],5,0.11676110000007611,,,,,,,,37,0,Vrouw,Rechts,2,
,dotcolour,dotcolour,dotcolour,29,2,149,149,main,negativefb,-99,average,26,0.46744269999999233,['n'],1,right,['2'],5,0.014188699999976961,,,,,,,,37,0,Vrouw,Rechts,2,
,dotcolour,dotcolour,dotcolour,30,2,150,150,main,negativefb,-99,average,51,0.7340429999999287,['n'],0,left,['1'],6,0.21740719999979774,,,,,,,,37,0,Vrouw,Rechts,2,
,dotcolour,dotcolour,dotcolour,31,2,151,151,main,negativefb,-99,easy,18,0.8181490000001759,['n'],1,right,['1'],6,0.11264389999996638,,,,,,,,37,0,Vrouw,Rechts,2,
,dotcolour,dotcolour,dotcolour,32,2,152,152,main,negativefb,-99,easy,62,0.44979239999997844,['c'],1,left,['1'],6,0.24335210000003826,,,,,,,,37,0,Vrouw,Rechts,2,
,dotcolour,dotcolour,dotcolour,33,2,153,153,main,negativefb,-99,average,55,0.5506484,['n'],0,left,['2'],5,0.07668839999996635,,,,,,,,37,0,Vrouw,Rechts,2,
,dotcolour,dotcolour,dotcolour,34,2,154,154,main,negativefb,-99,average,27,0.600282899999911,['n'],1,right,['1'],6,0.07509520000007797,,,,,,,,37,0,Vrouw,Rechts,2,
,dotcolour,dotcolour,dotcolour,35,2,155,155,main,negativefb,-99,average,53,0.8337252000001172,['c'],1,left,['1'],6,0.11959330000013324,,,,,,,,37,0,Vrouw,Rechts,2,
,dotcolour,dotcolour,dotcolour,36,2,156,156,main,negativefb,-99,hard,42,0.4503879000001234,['n'],0,left,['2'],5,0.04091030000017781,,,,,,,,37,0,Vrouw,Rechts,2,
,dotcolour,dotcolour,dotcolour,37,2,157,157,main,negativefb,-99,hard,39,0.5169098999999733,['n'],1,right,['2'],5,0.3965812999999798,,,,,,,,37,0,Vrouw,Rechts,2,
,dotcolour,dotcolour,dotcolour,38,2,158,158,main,negativefb,-99,hard,45,0.701355299999932,['n'],0,left,['2'],5,0.025488799999948242,,,,,,,,37,0,Vrouw,Rechts,2,
,dotcolour,dotcolour,dotcolour,39,2,159,159,main,negativefb,-99,average,29,0.7996588000000884,['n'],1,right,['2'],5,0.06522220000010748,,,,,,,,37,0,Vrouw,Rechts,2,
,dotcolour,dotcolour,dotcolour,40,2,160,160,main,negativefb,-99,hard,38,0.683984799999962,['n'],1,right,['3'],4,0.1799793000000136,,,,,,,,37,0,Vrouw,Rechts,2,
,dotcolour,dotcolour,dotcolour,41,2,161,161,main,negativefb,-99,hard,43,0.5852743999998893,['n'],0,left,['2'],5,0.03878420000000915,,,,,,,,37,0,Vrouw,Rechts,2,
,dotcolour,dotcolour,dotcolour,42,2,162,162,main,negativefb,-99,average,27,0.8006000999998832,['n'],1,right,['2'],5,0.11029729999995652,,,,,,,,37,0,Vrouw,Rechts,2,
,dotcolour,dotcolour,dotcolour,43,2,163,163,main,negativefb,-99,average,55,0.401921399999992,['c'],1,left,['1'],6,0.17873640000016167,,,,,,,,37,0,Vrouw,Rechts,2,
,dotcolour,dotcolour,dotcolour,44,2,164,164,main,negativefb,-99,easy,17,0.4843298999999206,['n'],1,right,['2'],5,0.06575560000010228,,,,,,,,37,0,Vrouw,Rechts,2,
,dotcolour,dotcolour,dotcolour,45,2,165,165,main,negativefb,-99,easy,18,0.48439029999985905,['n'],1,right,['2'],5,0.10821780000014769,,,,,,,,37,0,Vrouw,Rechts,2,
,dotcolour,dotcolour,dotcolour,46,2,166,166,main,negativefb,-99,average,25,0.46782600000005914,['n'],1,right,['2'],5,0.0698691999998573,,,,,,,,37,0,Vrouw,Rechts,2,
,dotcolour,dotcolour,dotcolour,47,2,167,167,main,negativefb,-99,average,52,0.6675668999998834,['c'],1,left,['1'],6,0.1531296000000566,,,,,,,,37,0,Vrouw,Rechts,2,
,dotcolour,dotcolour,dotcolour,48,2,168,168,main,negativefb,-99,easy,61,0.4682669999999689,['c'],1,left,['1'],6,0.08077030000004015,,,,,,,,37,0,Vrouw,Rechts,2,
,dotcolour,dotcolour,dotcolour,49,2,169,169,main,negativefb,-99,hard,35,0.5668911999998727,['n'],1,right,['2'],5,0.032436100000040824,,,,,,,,37,0,Vrouw,Rechts,2,
,dotcolour,dotcolour,dotcolour,50,2,170,170,main,negativefb,-99,easy,18,0.5009511999999177,['n'],1,right,['2'],5,0.043580100000099264,,,,,,,,37,0,Vrouw,Rechts,2,
,dotcolour,dotcolour,dotcolour,51,2,171,171,main,negativefb,-99,easy,16,0.40176499999984117,['n'],1,right,['1'],6,0.07453450000002704,,,,,,,,37,0,Vrouw,Rechts,2,
,dotcolour,dotcolour,dotcolour,52,2,172,172,main,negativefb,-99,average,28,0.4017487999999503,['n'],1,right,['1'],6,0.016813299999967057,,,,,,,,37,0,Vrouw,Rechts,2,
,dotcolour,dotcolour,dotcolour,53,2,173,173,main,negativefb,-99,easy,15,0.4494030000000748,['n'],1,right,['1'],6,0.023021400000061476,,,,,,,,37,0,Vrouw,Rechts,2,
,dotcolour,dotcolour,dotcolour,54,2,174,174,main,negativefb,-99,average,29,0.6161145999999462,['n'],1,right,['2'],5,0.06233339999994314,,,,,,,,37,0,Vrouw,Rechts,2,
,dotcolour,dotcolour,dotcolour,55,2,175,175,main,negativefb,-99,easy,63,0.5184798000000228,['n'],0,left,['0'],1,0.7122357999999167,,,,,,,,37,0,Vrouw,Rechts,2,
,dotcolour,dotcolour,dotcolour,56,2,176,176,main,negativefb,-99,easy,16,0.7350797999999941,['n'],1,right,['2'],5,0.015618200000062643,,,,,,,,37,0,Vrouw,Rechts,2,
,dotcolour,dotcolour,dotcolour,57,2,177,177,main,negativefb,-99,easy,64,0.5179336999999578,['c'],1,left,['1'],6,0.1625698000000284,,,,,,,,37,0,Vrouw,Rechts,2,
,dotcolour,dotcolour,dotcolour,58,2,178,178,main,negativefb,-99,average,52,0.5840085999998337,['n'],0,left,['2'],5,0.04674199999999473,,,,,,,,37,0,Vrouw,Rechts,2,
,dotcolour,dotcolour,dotcolour,59,2,179,179,main,negativefb,-99,hard,41,0.5676301000000876,['n'],0,left,['2'],5,0.07884390000003805,,,,,,,,37,0,Vrouw,Rechts,2,
,dotcolour,dotcolour,dotcolour,0,3,180,180,main,negativefb,-99,average,53,1.3505760000000464,['c'],1,left,['1'],6,0.13617580000004637,,,,,,,,37,0,Vrouw,Rechts,2,
,dotcolour,dotcolour,dotcolour,1,3,181,181,main,negativefb,-99,hard,45,0.3662348000000293,['n'],0,left,['2'],5,0.05234249999989515,,,,,,,,37,0,Vrouw,Rechts,2,
,dotcolour,dotcolour,dotcolour,2,3,182,182,main,negativefb,-99,easy,19,0.39949090000004617,['n'],1,right,['2'],5,0.12288600000010774,,,,,,,,37,0,Vrouw,Rechts,2,
,dotcolour,dotcolour,dotcolour,3,3,183,183,main,negativefb,-99,average,28,0.43458910000003925,['n'],1,right,['2'],5,0.06263930000000073,,,,,,,,37,0,Vrouw,Rechts,2,
,dotcolour,dotcolour,dotcolour,4,3,184,184,main,negativefb,-99,hard,44,0.7014537000000018,['c'],1,left,['1'],6,0.1763820000001033,,,,,,,,37,0,Vrouw,Rechts,2,
,dotcolour,dotcolour,dotcolour,5,3,185,185,main,negativefb,-99,easy,64,0.3171720999998797,['n'],0,left,['2'],5,0.04625490000012178,,,,,,,,37,0,Vrouw,Rechts,2,
,dotcolour,dotcolour,dotcolour,6,3,186,186,main,negativefb,-99,average,29,1.0009253999999146,['n'],1,right,['1'],6,0.021636599999965256,,,,,,,,37,0,Vrouw,Rechts,2,
,dotcolour,dotcolour,dotcolour,7,3,187,187,main,negativefb,-99,average,53,0.43212289999996756,['c'],1,left,['1'],6,0.3964943000000858,,,,,,,,37,0,Vrouw,Rechts,2,
,dotcolour,dotcolour,dotcolour,8,3,188,188,main,negativefb,-99,average,51,0.4680739000000358,['n'],0,left,['1'],6,0.08261960000004365,,,,,,,,37,0,Vrouw,Rechts,2,
,dotcolour,dotcolour,dotcolour,9,3,189,189,main,negativefb,-99,average,53,0.5668327000000772,['c'],1,left,['1'],6,0.1294247999999243,,,,,,,,37,0,Vrouw,Rechts,2,
,dotcolour,dotcolour,dotcolour,10,3,190,190,main,negativefb,-99,hard,37,0.4006477000000359,['n'],1,right,['2'],5,0.053403600000137885,,,,,,,,37,0,Vrouw,Rechts,2,
,dotcolour,dotcolour,dotcolour,11,3,191,191,main,negativefb,-99,average,51,0.46658929999989596,['c'],1,left,['1'],6,0.13025650000008682,,,,,,,,37,0,Vrouw,Rechts,2,
,dotcolour,dotcolour,dotcolour,12,3,192,192,main,negativefb,-99,easy,16,0.6004383000001781,['n'],1,right,['1'],6,0.053629400000090754,,,,,,,,37,0,Vrouw,Rechts,2,
,dotcolour,dotcolour,dotcolour,13,3,193,193,main,negativefb,-99,average,55,0.6017111999999543,['n'],0,left,['2'],5,0.09258809999982986,,,,,,,,37,0,Vrouw,Rechts,2,
,dotcolour,dotcolour,dotcolour,14,3,194,194,main,negativefb,-99,hard,38,0.5005389999998897,['n'],1,right,['2'],5,0.07775409999999283,,,,,,,,37,0,Vrouw,Rechts,2,
,dotcolour,dotcolour,dotcolour,15,3,195,195,main,negativefb,-99,easy,16,0.567233299999998,['n'],1,right,['1'],6,0.3569259000000784,,,,,,,,37,0,Vrouw,Rechts,2,
,dotcolour,dotcolour,dotcolour,16,3,196,196,main,negativefb,-99,average,29,0.31769550000012714,['n'],1,right,['2'],5,0.05858530000000428,,,,,,,,37,0,Vrouw,Rechts,2,
,dotcolour,dotcolour,dotcolour,17,3,197,197,main,negativefb,-99,hard,42,0.2683792000000267,['n'],0,left,['2'],5,0.08718309999994744,,,,,,,,37,0,Vrouw,Rechts,2,
,dotcolour,dotcolour,dotcolour,18,3,198,198,main,negativefb,-99,easy,18,0.6514703000000281,['n'],1,right,['2'],5,0.018511100000068836,,,,,,,,37,0,Vrouw,Rechts,2,
,dotcolour,dotcolour,dotcolour,19,3,199,199,main,negativefb,-99,easy,15,0.5671554000000469,['n'],1,right,['1'],6,0.1803936999999678,,,,,,,,37,0,Vrouw,Rechts,2,
,dotcolour,dotcolour,dotcolour,20,3,200,200,main,negativefb,-99,easy,19,0.350689599999896,['n'],1,right,['1'],6,0.031538499999896885,,,,,,,,37,0,Vrouw,Rechts,2,
,dotcolour,dotcolour,dotcolour,21,3,201,201,main,negativefb,-99,hard,38,0.41640219999999317,['n'],1,right,['2'],5,0.16668899999990572,,,,,,,,37,0,Vrouw,Rechts,2,
,dotcolour,dotcolour,dotcolour,22,3,202,202,main,negativefb,-99,average,25,0.5013071000000764,['n'],1,right,['2'],5,0.06839160000004085,,,,,,,,37,0,Vrouw,Rechts,2,
,dotcolour,dotcolour,dotcolour,23,3,203,203,main,negativefb,-99,easy,64,0.8016043999998601,['c'],1,left,['1'],6,0.13042010000003756,,,,,,,,37,0,Vrouw,Rechts,2,
,dotcolour,dotcolour,dotcolour,24,3,204,204,main,negativefb,-99,hard,38,0.549713200000042,['n'],1,right,['2'],5,0.032307799999898634,,,,,,,,37,0,Vrouw,Rechts,2,
,dotcolour,dotcolour,dotcolour,25,3,205,205,main,negativefb,-99,easy,64,0.46667539999998553,['c'],1,left,['1'],6,0.13264679999997497,,,,,,,,37,0,Vrouw,Rechts,2,
,dotcolour,dotcolour,dotcolour,26,3,206,206,main,negativefb,-99,hard,42,0.4668768000001364,['n'],0,left,['1'],6,0.06219460000011168,,,,,,,,37,0,Vrouw,Rechts,2,
,dotcolour,dotcolour,dotcolour,27,3,207,207,main,negativefb,-99,average,26,0.4173805000000357,['n'],1,right,['2'],5,0.027940399999806687,,,,,,,,37,0,Vrouw,Rechts,2,
,dotcolour,dotcolour,dotcolour,28,3,208,208,main,negativefb,-99,average,28,0.850791400000162,['n'],1,right,['3'],4,0.45006609999995817,,,,,,,,37,0,Vrouw,Rechts,2,
,dotcolour,dotcolour,dotcolour,29,3,209,209,main,negativefb,-99,average,55,0.666783500000065,['c'],1,left,['1'],6,0.14216609999994034,,,,,,,,37,0,Vrouw,Rechts,2,
,dotcolour,dotcolour,dotcolour,30,3,210,210,main,negativefb,-99,easy,16,0.5166454000000158,['n'],1,right,['1'],6,0.17203489999997146,,,,,,,,37,0,Vrouw,Rechts,2,
,dotcolour,dotcolour,dotcolour,31,3,211,211,main,negativefb,-99,easy,61,0.5174666999998863,['c'],1,left,['1'],6,0.19404600000007122,,,,,,,,37,0,Vrouw,Rechts,2,
,dotcolour,dotcolour,dotcolour,32,3,212,212,main,negativefb,-99,hard,42,0.6685692999999446,['n'],0,left,['3'],4,0.11251900000002024,,,,,,,,37,0,Vrouw,Rechts,2,
,dotcolour,dotcolour,dotcolour,33,3,213,213,main,negativefb,-99,easy,18,0.7008888000000297,['n'],1,right,['1'],6,0.040992499999902066,,,,,,,,37,0,Vrouw,Rechts,2,
,dotcolour,dotcolour,dotcolour,34,3,214,214,main,negativefb,-99,average,53,0.601403399999981,['c'],1,left,['1'],6,0.1606837000001633,,,,,,,,37,0,Vrouw,Rechts,2,
,dotcolour,dotcolour,dotcolour,35,3,215,215,main,negativefb,-99,hard,42,0.5346794000001864,['n'],0,left,['2'],5,0.25433750000001965,,,,,,,,37,0,Vrouw,Rechts,2,
,dotcolour,dotcolour,dotcolour,36,3,216,216,main,negativefb,-99,average,25,0.4841297000000395,['n'],1,right,['1'],6,0.19238550000000032,,,,,,,,37,0,Vrouw,Rechts,2,
,dotcolour,dotcolour,dotcolour,37,3,217,217,main,negativefb,-99,hard,36,0.4167701000001216,['n'],1,right,['2'],5,0.1059194000001753,,,,,,,,37,0,Vrouw,Rechts,2,
,dotcolour,dotcolour,dotcolour,38,3,218,218,main,negativefb,-99,average,25,0.5501560000000154,['n'],1,right,['1'],6,0.05681039999990389,,,,,,,,37,0,Vrouw,Rechts,2,
,dotcolour,dotcolour,dotcolour,39,3,219,219,main,negativefb,-99,hard,39,0.9334102000000257,['c'],0,right,['1'],6,0.05823099999997794,,,,,,,,37,0,Vrouw,Rechts,2,
,dotcolour,dotcolour,dotcolour,40,3,220,220,main,negativefb,-99,hard,43,0.21662560000004305,['n'],0,left,['2'],5,0.05568180000000211,,,,,,,,37,0,Vrouw,Rechts,2,
,dotcolour,dotcolour,dotcolour,41,3,221,221,main,negativefb,-99,hard,39,0.2679906000000756,['n'],1,right,['2'],5,0.1081583000000137,,,,,,,,37,0,Vrouw,Rechts,2,
,dotcolour,dotcolour,dotcolour,42,3,222,222,main,negativefb,-99,easy,19,0.36819100000002436,['n'],1,right,['2'],5,0.5294132999999874,,,,,,,,37,0,Vrouw,Rechts,2,
,dotcolour,dotcolour,dotcolour,43,3,223,223,main,negativefb,-99,average,29,0.33378170000014507,['n'],1,right,['2'],5,0.040156700000125056,,,,,,,,37,0,Vrouw,Rechts,2,
,dotcolour,dotcolour,dotcolour,44,3,224,224,main,negativefb,-99,average,29,0.4011643000001186,['c'],0,right,['0'],1,0.7839493000001312,,,,,,,,37,0,Vrouw,Rechts,2,
,dotcolour,dotcolour,dotcolour,45,3,225,225,main,negativefb,-99,hard,38,0.5169246999998904,['n'],1,right,['2'],5,0.04409710000004452,,,,,,,,37,0,Vrouw,Rechts,2,
,dotcolour,dotcolour,dotcolour,46,3,226,226,main,negativefb,-99,easy,65,0.6673051000000214,['c'],1,left,['1'],6,0.16872779999994236,,,,,,,,37,0,Vrouw,Rechts,2,
,dotcolour,dotcolour,dotcolour,47,3,227,227,main,negativefb,-99,hard,44,0.5170118999999431,['n'],0,left,['2'],5,0.11014639999984865,,,,,,,,37,0,Vrouw,Rechts,2,
,dotcolour,dotcolour,dotcolour,48,3,228,228,main,negativefb,-99,hard,36,0.6514864000000671,['n'],1,right,['2'],5,0.07264589999999771,,,,,,,,37,0,Vrouw,Rechts,2,
,dotcolour,dotcolour,dotcolour,49,3,229,229,main,negativefb,-99,hard,44,0.717805799999951,['c'],1,left,['1'],6,0.10663499999986925,,,,,,,,37,0,Vrouw,Rechts,2,
,dotcolour,dotcolour,dotcolour,50,3,230,230,main,negativefb,-99,easy,64,0.28359610000006796,['n'],0,left,['2'],5,0.05159870000011324,,,,,,,,37,0,Vrouw,Rechts,2,
,dotcolour,dotcolour,dotcolour,51,3,231,231,main,negativefb,-99,easy,18,0.31767649999983405,['c'],0,right,['1'],6,0.19765649999999368,,,,,,,,37,0,Vrouw,Rechts,2,
,dotcolour,dotcolour,dotcolour,52,3,232,232,main,negativefb,-99,easy,61,0.33401580000008835,['c'],1,left,['1'],6,0.13728909999986172,,,,,,,,37,0,Vrouw,Rechts,2,
,dotcolour,dotcolour,dotcolour,53,3,233,233,main,negativefb,-99,average,54,0.46731629999999313,['c'],1,left,['1'],6,0.05046130000005178,,,,,,,,37,0,Vrouw,Rechts,2,
,dotcolour,dotcolour,dotcolour,54,3,234,234,main,negativefb,-99,easy,62,0.4834932999999637,['c'],1,left,['1'],6,0.09380579999992733,,,,,,,,37,0,Vrouw,Rechts,2,
,dotcolour,dotcolour,dotcolour,55,3,235,235,main,negativefb,-99,average,53,0.5850286999998389,['c'],1,left,['1'],6,0.10686779999991813,,,,,,,,37,0,Vrouw,Rechts,2,
,dotcolour,dotcolour,dotcolour,56,3,236,236,main,negativefb,-99,easy,62,0.5010999000000993,['c'],1,left,['1'],6,0.07615880000003017,,,,,,,,37,0,Vrouw,Rechts,2,
,dotcolour,dotcolour,dotcolour,57,3,237,237,main,negativefb,-99,hard,37,0.6337278000000879,['n'],1,right,['2'],5,0.37707320000004074,,,,,,,,37,0,Vrouw,Rechts,2,
,dotcolour,dotcolour,dotcolour,58,3,238,238,main,negativefb,-99,easy,64,0.5333638000001883,['c'],1,left,['1'],6,0.15707689999999275,,,,,,,,37,0,Vrouw,Rechts,2,
,dotcolour,dotcolour,dotcolour,59,3,239,239,main,negativefb,-99,hard,44,0.5348705999999765,['c'],1,left,['1'],6,0.13009699999997792,,,,,,,,37,0,Vrouw,Rechts,2,
,dotcolour,dotcolour,dotcolour,0,4,240,240,main,negativefb,-99,hard,42,0.5345457000000806,['n'],0,left,['2'],5,0.053128199999946446,,,,,,,,37,0,Vrouw,Rechts,2,
,dotcolour,dotcolour,dotcolour,1,4,241,241,main,negativefb,-99,average,25,0.6677137000001494,['n'],1,right,['1'],6,0.20962299999996503,,,,,,,,37,0,Vrouw,Rechts,2,
,dotcolour,dotcolour,dotcolour,2,4,242,242,main,negativefb,-99,hard,37,0.6009933000000274,['n'],1,right,['2'],5,0.1058711000000585,,,,,,,,37,0,Vrouw,Rechts,2,
,dotcolour,dotcolour,dotcolour,3,4,243,243,main,negativefb,-99,hard,44,0.46829299999990326,['n'],0,left,['1'],6,0.09179249999988315,,,,,,,,37,0,Vrouw,Rechts,2,
,dotcolour,dotcolour,dotcolour,4,4,244,244,main,negativefb,-99,average,29,0.4345672999997987,['n'],1,right,['1'],6,0.07204559999991034,,,,,,,,37,0,Vrouw,Rechts,2,
,dotcolour,dotcolour,dotcolour,5,4,245,245,main,negativefb,-99,hard,41,0.8011294000000362,['c'],1,left,['2'],5,0.12603920000015023,,,,,,,,37,0,Vrouw,Rechts,2,
,dotcolour,dotcolour,dotcolour,6,4,246,246,main,negativefb,-99,hard,39,0.4331231999999545,['n'],1,right,['2'],5,0.05697779999991326,,,,,,,,37,0,Vrouw,Rechts,2,
,dotcolour,dotcolour,dotcolour,7,4,247,247,main,negativefb,-99,average,25,0.600832599999876,['n'],1,right,['2'],5,0.15963319999991654,,,,,,,,37,0,Vrouw,Rechts,2,
,dotcolour,dotcolour,dotcolour,8,4,248,248,main,negativefb,-99,easy,16,0.41712359999996806,['n'],1,right,['2'],5,0.017149400000107562,,,,,,,,37,0,Vrouw,Rechts,2,
,dotcolour,dotcolour,dotcolour,9,4,249,249,main,negativefb,-99,easy,61,0.5840230999999676,['c'],1,left,['1'],6,0.21801419999997051,,,,,,,,37,0,Vrouw,Rechts,2,
,dotcolour,dotcolour,dotcolour,10,4,250,250,main,negativefb,-99,average,55,0.5512073000002147,['c'],1,left,['1'],6,0.10799169999995684,,,,,,,,37,0,Vrouw,Rechts,2,
,dotcolour,dotcolour,dotcolour,11,4,251,251,main,negativefb,-99,hard,36,0.4996708999999555,['c'],0,right,['1'],6,0.10025619999987612,,,,,,,,37,0,Vrouw,Rechts,2,
,dotcolour,dotcolour,dotcolour,12,4,252,252,main,negativefb,-99,easy,65,0.6020717999999761,['c'],1,left,['1'],6,0.1297013999999308,,,,,,,,37,0,Vrouw,Rechts,2,
,dotcolour,dotcolour,dotcolour,13,4,253,253,main,negativefb,-99,hard,38,0.5674652999998671,['n'],1,right,['2'],5,0.07853609999983746,,,,,,,,37,0,Vrouw,Rechts,2,
,dotcolour,dotcolour,dotcolour,14,4,254,254,main,negativefb,-99,hard,44,0.4165048000002116,['c'],1,left,['1'],6,0.10812339999984033,,,,,,,,37,0,Vrouw,Rechts,2,
,dotcolour,dotcolour,dotcolour,15,4,255,255,main,negativefb,-99,hard,37,0.433435000000145,['n'],1,right,['2'],5,0.07106619999990471,,,,,,,,37,0,Vrouw,Rechts,2,
,dotcolour,dotcolour,dotcolour,16,4,256,256,main,negativefb,-99,hard,38,0.5672657999998592,['n'],1,right,['2'],5,0.06316470000001573,,,,,,,,37,0,Vrouw,Rechts,2,
,dotcolour,dotcolour,dotcolour,17,4,257,257,main,negativefb,-99,average,52,0.5680276999999023,['c'],1,left,['1'],6,0.13416509999979098,,,,,,,,37,0,Vrouw,Rechts,2,
,dotcolour,dotcolour,dotcolour,18,4,258,258,main,negativefb,-99,easy,18,0.48419349999994665,['n'],1,right,['2'],5,0.0784643000001779,,,,,,,,37,0,Vrouw,Rechts,2,
,dotcolour,dotcolour,dotcolour,19,4,259,259,main,negativefb,-99,average,53,0.6170756000001347,['c'],1,left,['1'],6,0.10740129999999226,,,,,,,,37,0,Vrouw,Rechts,2,
,dotcolour,dotcolour,dotcolour,20,4,260,260,main,negativefb,-99,easy,18,0.31790079999996124,['n'],1,right,['2'],5,0.01948960000004263,,,,,,,,37,0,Vrouw,Rechts,2,
,dotcolour,dotcolour,dotcolour,21,4,261,261,main,negativefb,-99,hard,42,0.3328713999999309,['c'],1,left,['1'],6,0.10325200000011137,,,,,,,,37,0,Vrouw,Rechts,2,
,dotcolour,dotcolour,dotcolour,22,4,262,262,main,negativefb,-99,easy,61,0.17339359999982662,['n'],0,left,['2'],5,0.0038144000000102096,,,,,,,,37,0,Vrouw,Rechts,2,
,dotcolour,dotcolour,dotcolour,23,4,263,263,main,negativefb,-99,average,28,0.31739710000010746,['n'],1,right,['2'],5,0.02303099999994629,,,,,,,,37,0,Vrouw,Rechts,2,
,dotcolour,dotcolour,dotcolour,24,4,264,264,main,negativefb,-99,hard,38,0.30101890000014464,['c'],0,right,['1'],6,0.09936259999994945,,,,,,,,37,0,Vrouw,Rechts,2,
,dotcolour,dotcolour,dotcolour,25,4,265,265,main,negativefb,-99,easy,18,0.934579900000017,['n'],1,right,['1'],6,0.01815870000018549,,,,,,,,37,0,Vrouw,Rechts,2,
,dotcolour,dotcolour,dotcolour,26,4,266,266,main,negativefb,-99,easy,19,0.5999626999998782,['n'],1,right,['1'],6,0.0515055000000757,,,,,,,,37,0,Vrouw,Rechts,2,
,dotcolour,dotcolour,dotcolour,27,4,267,267,main,negativefb,-99,easy,17,0.45118349999984275,['n'],1,right,['1'],6,0.09538079999992988,,,,,,,,37,0,Vrouw,Rechts,2,
,dotcolour,dotcolour,dotcolour,28,4,268,268,main,negativefb,-99,hard,37,0.9509687000002032,['n'],1,right,['2'],5,0.3593155000000934,,,,,,,,37,0,Vrouw,Rechts,2,
,dotcolour,dotcolour,dotcolour,29,4,269,269,main,negativefb,-99,average,54,0.6349212999998599,['c'],1,left,['1'],6,0.09623910000004798,,,,,,,,37,0,Vrouw,Rechts,2,
,dotcolour,dotcolour,dotcolour,30,4,270,270,main,negativefb,-99,easy,63,0.4844130999999834,['c'],1,left,['1'],6,0.17032700000004297,,,,,,,,37,0,Vrouw,Rechts,2,
,dotcolour,dotcolour,dotcolour,31,4,271,271,main,negativefb,-99,hard,35,0.7017304999999396,['n'],1,right,['2'],5,0.0562777999998616,,,,,,,,37,0,Vrouw,Rechts,2,
,dotcolour,dotcolour,dotcolour,32,4,272,272,main,negativefb,-99,hard,44,0.7335594000001038,['c'],1,left,['1'],6,0.08133380000003854,,,,,,,,37,0,Vrouw,Rechts,2,
,dotcolour,dotcolour,dotcolour,33,4,273,273,main,negativefb,-99,average,29,0.4666233000000375,['n'],1,right,['2'],5,0.1079515999999785,,,,,,,,37,0,Vrouw,Rechts,2,
,dotcolour,dotcolour,dotcolour,34,4,274,274,main,negativefb,-99,easy,62,0.6015975000000253,['c'],1,left,['1'],6,0.09703799999988405,,,,,,,,37,0,Vrouw,Rechts,2,
,dotcolour,dotcolour,dotcolour,35,4,275,275,main,negativefb,-99,average,51,0.43477859999984503,['c'],1,left,['1'],6,0.06844230000001517,,,,,,,,37,0,Vrouw,Rechts,2,
,dotcolour,dotcolour,dotcolour,36,4,276,276,main,negativefb,-99,average,55,0.533861300000126,['c'],1,left,['1'],6,0.05326599999989412,,,,,,,,37,0,Vrouw,Rechts,2,
,dotcolour,dotcolour,dotcolour,37,4,277,277,main,negativefb,-99,easy,62,0.734523099999933,['c'],1,left,['1'],6,0.1036033000000316,,,,,,,,37,0,Vrouw,Rechts,2,
,dotcolour,dotcolour,dotcolour,38,4,278,278,main,negativefb,-99,average,27,0.5350839999998698,['n'],1,right,['2'],5,0.09447629999999663,,,,,,,,37,0,Vrouw,Rechts,2,
,dotcolour,dotcolour,dotcolour,39,4,279,279,main,negativefb,-99,average,53,0.6339003000000503,['c'],1,left,['1'],6,0.08135629999992489,,,,,,,,37,0,Vrouw,Rechts,2,
,dotcolour,dotcolour,dotcolour,40,4,280,280,main,negativefb,-99,average,26,0.5340628999999808,['n'],1,right,['2'],5,0.09821609999994507,,,,,,,,37,0,Vrouw,Rechts,2,
,dotcolour,dotcolour,dotcolour,41,4,281,281,main,negativefb,-99,average,25,0.5837925999999243,['n'],1,right,['2'],5,0.09555869999985589,,,,,,,,37,0,Vrouw,Rechts,2,
,dotcolour,dotcolour,dotcolour,42,4,282,282,main,negativefb,-99,average,54,0.6675417999999809,['c'],1,left,['1'],6,0.09026879999987614,,,,,,,,37,0,Vrouw,Rechts,2,
,dotcolour,dotcolour,dotcolour,43,4,283,283,main,negativefb,-99,easy,63,0.6174144999999953,['c'],1,left,['1'],6,0.07892960000003768,,,,,,,,37,0,Vrouw,Rechts,2,
,dotcolour,dotcolour,dotcolour,44,4,284,284,main,negativefb,-99,easy,19,0.5348650999999336,['n'],1,right,['2'],5,0.07196819999990112,,,,,,,,37,0,Vrouw,Rechts,2,
,dotcolour,dotcolour,dotcolour,45,4,285,285,main,negativefb,-99,easy,15,0.5520748999999796,['n'],1,right,['2'],5,0.11136579999993046,,,,,,,,37,0,Vrouw,Rechts,2,
,dotcolour,dotcolour,dotcolour,46,4,286,286,main,negativefb,-99,average,51,0.6011326000000281,['c'],1,left,['1'],6,0.0921438999998827,,,,,,,,37,0,Vrouw,Rechts,2,
,dotcolour,dotcolour,dotcolour,47,4,287,287,main,negativefb,-99,easy,64,0.6342208999999457,['c'],1,left,['1'],6,0.10447929999986627,,,,,,,,37,0,Vrouw,Rechts,2,
,dotcolour,dotcolour,dotcolour,48,4,288,288,main,negativefb,-99,easy,17,0.5999946999997974,['n'],1,right,['1'],6,0.10910260000014205,,,,,,,,37,0,Vrouw,Rechts,2,
,dotcolour,dotcolour,dotcolour,49,4,289,289,main,negativefb,-99,hard,41,0.518412600000147,['n'],0,left,['2'],5,0.1330112000000554,,,,,,,,37,0,Vrouw,Rechts,2,
,dotcolour,dotcolour,dotcolour,50,4,290,290,main,negativefb,-99,easy,63,0.5499082000001181,['n'],0,left,['1'],6,0.08207630000015342,,,,,,,,37,0,Vrouw,Rechts,2,
,dotcolour,dotcolour,dotcolour,51,4,291,291,main,negativefb,-99,easy,63,0.38451310000004923,['c'],1,left,['1'],6,0.04797039999994013,,,,,,,,37,0,Vrouw,Rechts,2,
,dotcolour,dotcolour,dotcolour,52,4,292,292,main,negativefb,-99,hard,45,0.5506723999999394,['c'],1,left,['1'],6,0.07286229999999705,,,,,,,,37,0,Vrouw,Rechts,2,
,dotcolour,dotcolour,dotcolour,53,4,293,293,main,negativefb,-99,average,51,0.7340570999999727,['c'],1,left,['1'],6,0.1294495999998162,,,,,,,,37,0,Vrouw,Rechts,2,
,dotcolour,dotcolour,dotcolour,54,4,294,294,main,negativefb,-99,hard,45,0.6330255000000307,['n'],0,left,['2'],5,0.1320868000000246,,,,,,,,37,0,Vrouw,Rechts,2,
,dotcolour,dotcolour,dotcolour,55,4,295,295,main,negativefb,-99,average,28,0.8167321000000811,['n'],1,right,['2'],5,0.03893079999988913,,,,,,,,37,0,Vrouw,Rechts,2,
,dotcolour,dotcolour,dotcolour,56,4,296,296,main,negativefb,-99,hard,45,0.8008638999999675,['c'],1,left,['1'],6,0.08635540000000219,,,,,,,,37,0,Vrouw,Rechts,2,
,dotcolour,dotcolour,dotcolour,57,4,297,297,main,negativefb,-99,hard,39,0.48446659999990516,['n'],1,right,['2'],5,0.08826150000004418,,,,,,,,37,0,Vrouw,Rechts,2,
,dotcolour,dotcolour,dotcolour,58,4,298,298,main,negativefb,-99,average,29,0.7995160999998916,['n'],1,right,['2'],5,0.061914000000115266,,,,,,,,37,0,Vrouw,Rechts,2,
,dotcolour,dotcolour,dotcolour,59,4,299,299,main,negativefb,-99,easy,17,0.7669287000001077,['n'],1,right,['1'],6,0.038164199999982884,,,,,,,,37,0,Vrouw,Rechts,2,
,dotcolour,dotcolour,dotcolour,0,0,0,300,training,negativefb,51,hard,42,2.234943299999941,['n'],0,left,['2'],5,0.16207600000007005,,,,,,,,37,0,Vrouw,Rechts,2,
,dotcolour,dotcolour,dotcolour,1,0,1,301,training,negativefb,55,easy,64,2.2992475000000923,['c'],1,left,['3'],4,0.0952350000000024,,,,,,,,37,0,Vrouw,Rechts,2,
,dotcolour,dotcolour,dotcolour,2,0,2,302,training,negativefb,71,average,54,0.5663426000000982,['n'],0,left,['2'],5,0.061753999999837106,,,,,,,,37,0,Vrouw,Rechts,2,
,dotcolour,dotcolour,dotcolour,3,0,3,303,training,negativefb,61,hard,38,0.7658451999998306,['n'],1,right,['2'],5,0.0537139999998999,,,,,,,,37,0,Vrouw,Rechts,2,
,dotcolour,dotcolour,dotcolour,4,0,4,304,training,negativefb,58,hard,39,0.5168645999999626,['c'],0,right,['2'],5,0.4139961000000767,,,,,,,,37,0,Vrouw,Rechts,2,
,dotcolour,dotcolour,dotcolour,5,0,5,305,training,negativefb,78,average,26,0.7833467000000383,['n'],1,right,['1'],6,0.20587969999996858,,,,,,,,37,0,Vrouw,Rechts,2,
,dotcolour,dotcolour,dotcolour,6,0,6,306,training,negativefb,26,easy,61,0.7501405000000432,['c'],1,left,['1'],6,0.24797629999989113,,,,,,,,37,0,Vrouw,Rechts,2,
,dotcolour,dotcolour,dotcolour,7,0,7,307,training,negativefb,59,hard,42,0.5335219999999481,['n'],0,left,['2'],5,0.0572856999999658,,,,,,,,37,0,Vrouw,Rechts,2,
,dotcolour,dotcolour,dotcolour,8,0,8,308,training,negativefb,60,easy,15,0.7168655999998919,['n'],1,right,['1'],6,0.11450169999989157,,,,,,,,37,0,Vrouw,Rechts,2,
,dotcolour,dotcolour,dotcolour,9,0,9,309,training,negativefb,75,hard,37,0.7496209000000817,['n'],1,right,['1'],6,0.11954319999995278,,,,,,,,37,0,Vrouw,Rechts,2,
,dotcolour,dotcolour,dotcolour,10,0,10,310,training,negativefb,53,average,51,0.5670645999998669,['n'],0,left,['2'],5,0.051843399999825124,,,,,,,,37,0,Vrouw,Rechts,2,
,dotcolour,dotcolour,dotcolour,11,0,11,311,training,negativefb,70,hard,38,0.5496860000000652,['n'],1,right,['2'],5,0.30046149999998306,,,,,,,,37,0,Vrouw,Rechts,2,
,dotcolour,dotcolour,dotcolour,12,0,12,312,training,negativefb,39,hard,41,0.38305930000001354,['n'],0,left,['1'],6,0.0729298999999628,,,,,,,,37,0,Vrouw,Rechts,2,
,dotcolour,dotcolour,dotcolour,13,0,13,313,training,negativefb,55,average,55,1.1010539999999764,['c'],1,left,['1'],6,0.20992390000014893,,,,,,,,37,0,Vrouw,Rechts,2,
,dotcolour,dotcolour,dotcolour,14,0,14,314,training,negativefb,8,easy,64,0.3670417000000725,['n'],0,left,['1'],6,0.4355255999998917,,,,,,,,37,0,Vrouw,Rechts,2,
,dotcolour,dotcolour,dotcolour,15,0,15,315,training,negativefb,73,easy,17,0.9337117999998554,['n'],1,right,['1'],6,0.12475180000001274,,,,,,,,37,0,Vrouw,Rechts,2,
,dotcolour,dotcolour,dotcolour,16,0,16,316,training,negativefb,61,hard,42,0.5344393999998829,['n'],0,left,['2'],5,0.043463499999916166,,,,,,,,37,0,Vrouw,Rechts,2,
,dotcolour,dotcolour,dotcolour,17,0,17,317,training,negativefb,58,average,51,0.6655293999999685,['n'],0,left,['2'],5,0.08638129999985722,,,,,,,,37,0,Vrouw,Rechts,2,
,dotcolour,dotcolour,dotcolour,18,0,18,318,training,negativefb,25,average,52,0.8839615000001686,['c'],1,left,['1'],6,0.24810589999992771,,,,,,,,37,0,Vrouw,Rechts,2,
,dotcolour,dotcolour,dotcolour,19,0,19,319,training,negativefb,34,average,27,0.4324145000000499,['n'],1,right,['2'],5,0.05277449999994133,,,,,,,,37,0,Vrouw,Rechts,2,
,dotcolour,dotcolour,dotcolour,20,0,20,320,training,negativefb,54,average,27,0.5513215000000855,['n'],1,right,['1'],6,0.10946990000002188,,,,,,,,37,0,Vrouw,Rechts,2,
,dotcolour,dotcolour,dotcolour,21,0,21,321,training,negativefb,84,average,26,0.41760180000005676,['n'],1,right,['1'],6,0.056649200000038036,,,,,,,,37,0,Vrouw,Rechts,2,
,dotcolour,dotcolour,dotcolour,22,0,22,322,training,negativefb,55,hard,39,0.4831125000000611,['n'],1,right,['2'],5,0.03532719999998335,,,,,,,,37,0,Vrouw,Rechts,2,
,dotcolour,dotcolour,dotcolour,23,0,23,323,training,negativefb,67,hard,38,0.2999994000001607,['n'],1,right,['2'],5,0.12623310000003585,,,,,,,,37,0,Vrouw,Rechts,2,
,dotcolour,dotcolour,dotcolour,24,0,24,324,training,negativefb,90,easy,16,0.41761939999992137,['n'],1,right,['1'],6,0.4720394999999371,,,,,,,,37,0,Vrouw,Rechts,2,
,dotcolour,dotcolour,dotcolour,25,0,25,325,training,negativefb,36,average,51,0.717142800000147,['c'],1,left,['1'],6,0.12128379999990102,,,,,,,,37,0,Vrouw,Rechts,2,
,dotcolour,dotcolour,dotcolour,26,0,26,326,training,negativefb,80,easy,17,0.3994245999999748,['n'],1,right,['1'],6,0.04405159999987518,,,,,,,,37,0,Vrouw,Rechts,2,
,dotcolour,dotcolour,dotcolour,27,0,27,327,training,negativefb,58,easy,61,0.9507101999997758,['c'],1,left,['1'],6,0.2693865999999616,,,,,,,,37,0,Vrouw,Rechts,2,
,dotcolour,dotcolour,dotcolour,28,0,28,328,training,negativefb,48,easy,65,0.7341903999999886,['c'],1,left,['1'],6,0.06152819999988424,,,,,,,,37,0,Vrouw,Rechts,2,
,dotcolour,dotcolour,dotcolour,29,0,29,329,training,negativefb,75,easy,17,0.46723870000005263,['n'],1,right,['1'],6,0.048235800000156814,,,,,,,,37,0,Vrouw,Rechts,2,
,dotcolour,dotcolour,dotcolour,30,0,30,330,training,negativefb,67,hard,38,0.5334672999999839,['n'],1,right,['2'],5,0.04934659999980795,,,,,,,,37,0,Vrouw,Rechts,2,
,dotcolour,dotcolour,dotcolour,31,0,31,331,training,negativefb,76,easy,61,0.6663398000000598,['c'],1,left,['1'],6,0.22905869999999595,,,,,,,,37,0,Vrouw,Rechts,2,
,dotcolour,dotcolour,dotcolour,32,0,32,332,training,negativefb,72,easy,16,0.4672567000000072,['n'],1,right,['1'],6,0.18502379999995355,,,,,,,,37,0,Vrouw,Rechts,2,
,dotcolour,dotcolour,dotcolour,33,0,33,333,training,negativefb,43,average,29,0.4670381000000816,['n'],1,right,['1'],6,0.09531990000004953,,,,,,,,37,0,Vrouw,Rechts,2,
,dotcolour,dotcolour,dotcolour,34,0,34,334,training,negativefb,63,average,26,0.5000477000000956,['n'],1,right,['1'],6,0.04797259999986636,,,,,,,,37,0,Vrouw,Rechts,2,
,dotcolour,dotcolour,dotcolour,35,0,35,335,training,negativefb,57,hard,42,0.5672005999999783,['n'],0,left,['2'],5,0.05559650000009242,,,,,,,,37,0,Vrouw,Rechts,2,
,dotcolour,dotcolour,dotcolour,36,0,36,336,training,negativefb,62,hard,45,0.5335281000000123,['n'],0,left,['2'],5,0.0393375000001015,,,,,,,,37,0,Vrouw,Rechts,2,
,dotcolour,dotcolour,dotcolour,37,0,37,337,training,negativefb,59,easy,19,0.5669593999998597,['n'],1,right,['1'],6,0.03207180000003973,,,,,,,,37,0,Vrouw,Rechts,2,
,dotcolour,dotcolour,dotcolour,38,0,38,338,training,negativefb,70,easy,65,0.8161949999998797,['c'],1,left,['1'],6,0.28616329999999834,,,,,,,,37,0,Vrouw,Rechts,2,
,dotcolour,dotcolour,dotcolour,39,0,39,339,training,negativefb,83,easy,18,0.4490434000001642,['n'],1,right,['1'],6,0.05631490000018857,,,,,,,,37,0,Vrouw,Rechts,2,
,dotcolour,dotcolour,dotcolour,40,0,40,340,training,negativefb,73,average,54,0.6827825000000303,['c'],1,left,['1'],6,0.09084060000009231,,,,,,,,37,0,Vrouw,Rechts,2,
,dotcolour,dotcolour,dotcolour,41,0,41,341,training,negativefb,79,average,25,0.5179572000001826,['n'],1,right,['1'],6,0.06758650000006128,,,,,,,,37,0,Vrouw,Rechts,2,
,dotcolour,dotcolour,dotcolour,42,0,42,342,training,negativefb,51,hard,45,0.4831100000001243,['n'],0,left,['2'],5,0.16526740000017526,,,,,,,,37,0,Vrouw,Rechts,2,
,dotcolour,dotcolour,dotcolour,43,0,43,343,training,negativefb,60,easy,15,0.4996539000001121,['n'],1,right,['1'],6,0.011340699999891513,,,,,,,,37,0,Vrouw,Rechts,2,
,dotcolour,dotcolour,dotcolour,44,0,44,344,training,negativefb,59,average,52,0.30022100000019236,['n'],0,left,['2'],5,0.05455440000014278,,,,,,,,37,0,Vrouw,Rechts,2,
,dotcolour,dotcolour,dotcolour,45,0,45,345,training,negativefb,58,average,54,0.23287260000006427,['n'],0,left,['2'],5,0.05937380000000303,,,,,,,,37,0,Vrouw,Rechts,2,
,dotcolour,dotcolour,dotcolour,46,0,46,346,training,negativefb,77,hard,39,0.26850599999988845,['n'],1,right,['2'],5,0.014724000000114756,,,,,,,,37,0,Vrouw,Rechts,2,
,dotcolour,dotcolour,dotcolour,47,0,47,347,training,negativefb,82,easy,16,0.3006250999999338,['n'],1,right,['1'],6,0.058565900000076,,,,,,,,37,0,Vrouw,Rechts,2,
,dotcolour,dotcolour,dotcolour,48,0,48,348,training,negativefb,59,easy,63,0.5507527999998274,['c'],1,left,['1'],6,0.05767340000011245,,,,,,,,37,0,Vrouw,Rechts,2,
,dotcolour,dotcolour,dotcolour,49,0,49,349,training,negativefb,75,hard,36,0.267717699999821,['n'],1,right,['1'],6,0.021818199999870558,,,,,,,,37,0,Vrouw,Rechts,2,
,dotcolour,dotcolour,dotcolour,50,0,50,350,training,negativefb,62,easy,62,0.2677483999998458,['n'],0,left,['2'],5,0.07371489999991354,,,,,,,,37,0,Vrouw,Rechts,2,
,dotcolour,dotcolour,dotcolour,51,0,51,351,training,negativefb,68,average,29,0.5168143999999302,['n'],1,right,['2'],5,0.32280740000010155,,,,,,,,37,0,Vrouw,Rechts,2,
,dotcolour,dotcolour,dotcolour,52,0,52,352,training,negativefb,90,hard,37,0.5175853000000643,['n'],1,right,['2'],5,0.2096787000000404,,,,,,,,37,0,Vrouw,Rechts,2,
,dotcolour,dotcolour,dotcolour,53,0,53,353,training,negativefb,57,hard,45,0.5001710999999887,['c'],1,left,['1'],6,0.29346590000000106,,,,,,,,37,0,Vrouw,Rechts,2,
,dotcolour,dotcolour,dotcolour,54,0,54,354,training,negativefb,87,average,26,0.4511835000000701,['n'],1,right,['1'],6,0.4236324999999397,,,,,,,,37,0,Vrouw,Rechts,2,
,dotcolour,dotcolour,dotcolour,55,0,55,355,training,negativefb,83,average,29,0.5503456999999798,['n'],1,right,['1'],6,1.097666899999922,,,,,,,,37,0,Vrouw,Rechts,2,
,dotcolour,dotcolour,dotcolour,56,0,56,356,training,negativefb,89,easy,64,0.6014494000000923,['c'],1,left,['1'],6,0.42992499999991196,,,,,,,,37,0,Vrouw,Rechts,2,
,dotcolour,dotcolour,dotcolour,57,0,57,357,training,negativefb,61,average,52,0.516981400000077,['n'],0,left,['2'],5,0.08081829999991896,,,,,,,,37,0,Vrouw,Rechts,2,
,dotcolour,dotcolour,dotcolour,58,0,58,358,training,negativefb,64,hard,44,0.5339449000000513,['n'],0,left,['2'],5,0.08114520000003722,,,,,,,,37,0,Vrouw,Rechts,2,
,dotcolour,dotcolour,dotcolour,59,0,59,359,training,negativefb,54,hard,44,0.44980089999990014,['n'],0,left,['2'],5,0.07584090000000288,,,,,,,,37,0,Vrouw,Rechts,2,
,dotcolour,dotcolour,dotcolour,0,1,60,360,training,negativefb,91,easy,15,1.0017407000000276,['n'],1,right,['1'],6,0.16265930000008666,,,,,,,,37,0,Vrouw,Rechts,2,
,dotcolour,dotcolour,dotcolour,1,1,61,361,training,negativefb,74,average,28,0.4332042000000911,['n'],1,right,['2'],5,0.09112459999983002,,,,,,,,37,0,Vrouw,Rechts,2,
,dotcolour,dotcolour,dotcolour,2,1,62,362,training,negativefb,58,easy,15,0.3164756999999554,['n'],1,right,['2'],5,0.042611600000100225,,,,,,,,37,0,Vrouw,Rechts,2,
,dotcolour,dotcolour,dotcolour,3,1,63,363,training,negativefb,71,average,27,0.4344570999999178,['n'],1,right,['2'],5,0.08029749999991509,,,,,,,,37,0,Vrouw,Rechts,2,
,dotcolour,dotcolour,dotcolour,4,1,64,364,training,negativefb,34,average,27,0.41672749999997905,['n'],1,right,['2'],5,0.03750379999996767,,,,,,,,37,0,Vrouw,Rechts,2,
,dotcolour,dotcolour,dotcolour,5,1,65,365,training,negativefb,61,easy,17,0.48243840000009186,['n'],1,right,['1'],6,0.06389310000008663,,,,,,,,37,0,Vrouw,Rechts,2,
,dotcolour,dotcolour,dotcolour,6,1,66,366,training,negativefb,82,average,53,0.6325890000000527,['c'],1,left,['1'],6,0.2614744999998493,,,,,,,,37,0,Vrouw,Rechts,2,
,dotcolour,dotcolour,dotcolour,7,1,67,367,training,negativefb,11,easy,64,0.36608079999996335,['n'],0,left,['0'],1,0.6838195999998788,,,,,,,,37,0,Vrouw,Rechts,2,
,dotcolour,dotcolour,dotcolour,8,1,68,368,training,negativefb,55,hard,37,0.4827743000000737,['n'],1,right,['2'],5,0.10939769999981763,,,,,,,,37,0,Vrouw,Rechts,2,
,dotcolour,dotcolour,dotcolour,9,1,69,369,training,negativefb,61,hard,43,0.533807300000035,['n'],0,left,['2'],5,0.08384210000008352,,,,,,,,37,0,Vrouw,Rechts,2,
,dotcolour,dotcolour,dotcolour,10,1,70,370,training,negativefb,76,hard,38,0.36689929999988635,['n'],1,right,['2'],5,0.009629000000131782,,,,,,,,37,0,Vrouw,Rechts,2,
,dotcolour,dotcolour,dotcolour,11,1,71,371,training,negativefb,60,hard,39,0.6991540000001351,['n'],1,right,['2'],5,0.0855701999998928,,,,,,,,37,0,Vrouw,Rechts,2,
,dotcolour,dotcolour,dotcolour,12,1,72,372,training,negativefb,82,average,29,1.0164762000001701,['n'],1,right,['2'],5,0.14621000000011009,,,,,,,,37,0,Vrouw,Rechts,2,
,dotcolour,dotcolour,dotcolour,13,1,73,373,training,negativefb,83,easy,63,0.6832776999999624,['c'],1,left,['1'],6,0.12171110000008412,,,,,,,,37,0,Vrouw,Rechts,2,
,dotcolour,dotcolour,dotcolour,14,1,74,374,training,negativefb,53,easy,15,0.44940840000003845,['n'],1,right,['2'],5,0.04305840000006356,,,,,,,,37,0,Vrouw,Rechts,2,
,dotcolour,dotcolour,dotcolour,15,1,75,375,training,negativefb,57,hard,35,0.45055100000013226,['n'],1,right,['2'],5,0.07211729999994532,,,,,,,,37,0,Vrouw,Rechts,2,
,dotcolour,dotcolour,dotcolour,16,1,76,376,training,negativefb,66,easy,18,0.4169939000000795,['n'],1,right,['2'],5,0.06822469999997338,,,,,,,,37,0,Vrouw,Rechts,2,
,dotcolour,dotcolour,dotcolour,17,1,77,377,training,negativefb,83,average,53,0.8997302000000218,['c'],1,left,['2'],5,0.3735884000000169,,,,,,,,37,0,Vrouw,Rechts,2,
,dotcolour,dotcolour,dotcolour,18,1,78,378,training,negativefb,45,hard,41,0.5173891000001731,['n'],0,left,['2'],5,0.05022710000002917,,,,,,,,37,0,Vrouw,Rechts,2,
,dotcolour,dotcolour,dotcolour,19,1,79,379,training,negativefb,89,easy,15,0.6005819999998039,['n'],1,right,['1'],6,0.215833400000065,,,,,,,,37,0,Vrouw,Rechts,2,
,dotcolour,dotcolour,dotcolour,20,1,80,380,training,negativefb,40,hard,42,0.6328208999998424,['n'],0,left,['2'],5,0.10203420000016195,,,,,,,,37,0,Vrouw,Rechts,2,
,dotcolour,dotcolour,dotcolour,21,1,81,381,training,negativefb,48,average,29,0.5167010000000118,['n'],1,right,['1'],6,0.19756519999987177,,,,,,,,37,0,Vrouw,Rechts,2,
,dotcolour,dotcolour,dotcolour,22,1,82,382,training,negativefb,77,average,26,0.48368359999994937,['n'],1,right,['2'],5,0.0663148999999521,,,,,,,,37,0,Vrouw,Rechts,2,
,dotcolour,dotcolour,dotcolour,23,1,83,383,training,negativefb,36,hard,41,0.5169372000000294,['n'],0,left,['2'],5,0.08272379999993973,,,,,,,,37,0,Vrouw,Rechts,2,
,dotcolour,dotcolour,dotcolour,24,1,84,384,training,negativefb,40,hard,37,0.5661990999999489,['n'],1,right,['2'],5,0.03311899999994239,,,,,,,,37,0,Vrouw,Rechts,2,
,dotcolour,dotcolour,dotcolour,25,1,85,385,training,negativefb,79,easy,19,0.58397889999992,['n'],1,right,['1'],6,0.22430219999978362,,,,,,,,37,0,Vrouw,Rechts,2,
,dotcolour,dotcolour,dotcolour,26,1,86,386,training,negativefb,55,average,54,0.4505354999998872,['n'],0,left,['2'],5,0.08572240000012243,,,,,,,,37,0,Vrouw,Rechts,2,
,dotcolour,dotcolour,dotcolour,27,1,87,387,training,negativefb,65,easy,65,0.5004903999999897,['c'],1,left,['1'],6,0.1985560999999052,,,,,,,,37,0,Vrouw,Rechts,2,
,dotcolour,dotcolour,dotcolour,28,1,88,388,training,negativefb,67,hard,38,0.43306280000001607,['n'],1,right,['2'],5,0.06108940000012808,,,,,,,,37,0,Vrouw,Rechts,2,
,dotcolour,dotcolour,dotcolour,29,1,89,389,training,negativefb,74,easy,65,0.6506639000001542,['c'],1,left,['1'],6,0.15302340000016557,,,,,,,,37,0,Vrouw,Rechts,2,
,dotcolour,dotcolour,dotcolour,30,1,90,390,training,negativefb,60,hard,38,0.5662592999999561,['n'],1,right,['2'],5,0.08507940000004055,,,,,,,,37,0,Vrouw,Rechts,2,
,dotcolour,dotcolour,dotcolour,31,1,91,391,training,negativefb,51,hard,41,0.28367449999996097,['n'],0,left,['2'],5,0.029326999999966574,,,,,,,,37,0,Vrouw,Rechts,2,
,dotcolour,dotcolour,dotcolour,32,1,92,392,training,negativefb,85,easy,17,0.2340578999999252,['n'],1,right,['2'],5,0.06021199999986493,,,,,,,,37,0,Vrouw,Rechts,2,
,dotcolour,dotcolour,dotcolour,33,1,93,393,training,negativefb,33,easy,64,0.28233270000009725,['n'],0,left,['2'],5,0.06291329999999107,,,,,,,,37,0,Vrouw,Rechts,2,
,dotcolour,dotcolour,dotcolour,34,1,94,394,training,negativefb,63,average,52,0.4662115000000995,['c'],1,left,['1'],6,0.17031139999994593,,,,,,,,37,0,Vrouw,Rechts,2,
,dotcolour,dotcolour,dotcolour,35,1,95,395,training,negativefb,38,hard,37,0.28227769999989505,['n'],1,right,['2'],5,0.015355800000179443,,,,,,,,37,0,Vrouw,Rechts,2,
,dotcolour,dotcolour,dotcolour,36,1,96,396,training,negativefb,94,easy,64,0.6345292999999401,['c'],1,left,['1'],6,0.31740480000007665,,,,,,,,37,0,Vrouw,Rechts,2,
,dotcolour,dotcolour,dotcolour,37,1,97,397,training,negativefb,70,hard,45,0.2834940000000188,['n'],0,left,['2'],5,0.0304515000000265,,,,,,,,37,0,Vrouw,Rechts,2,
,dotcolour,dotcolour,dotcolour,38,1,98,398,training,negativefb,85,easy,19,0.08004510000000664,['n'],1,right,['2'],5,0.6697949999997945,,,,,,,,37,0,Vrouw,Rechts,2,
,dotcolour,dotcolour,dotcolour,39,1,99,399,training,negativefb,34,average,55,0.5337293999998565,['n'],0,left,['2'],5,0.093708099999958,,,,,,,,37,0,Vrouw,Rechts,2,
,dotcolour,dotcolour,dotcolour,40,1,100,400,training,negativefb,10,easy,64,0.33347570000000815,['n'],0,left,['0'],1,0.5649856,,,,,,,,37,0,Vrouw,Rechts,2,
,dotcolour,dotcolour,dotcolour,41,1,101,401,training,negativefb,59,average,28,0.45122250000008535,['n'],1,right,['2'],5,0.03596600000014405,,,,,,,,37,0,Vrouw,Rechts,2,
,dotcolour,dotcolour,dotcolour,42,1,102,402,training,negativefb,77,easy,64,1.0818985999999313,['c'],1,left,['1'],6,0.16768120000006093,,,,,,,,37,0,Vrouw,Rechts,2,
,dotcolour,dotcolour,dotcolour,43,1,103,403,training,negativefb,41,hard,44,0.3488411000000724,['n'],0,left,['2'],5,0.09083950000012919,,,,,,,,37,0,Vrouw,Rechts,2,
,dotcolour,dotcolour,dotcolour,44,1,104,404,training,negativefb,46,easy,19,0.5681553000001713,['n'],1,right,['1'],6,0.04830420000007507,,,,,,,,37,0,Vrouw,Rechts,2,
,dotcolour,dotcolour,dotcolour,45,1,105,405,training,negativefb,63,easy,64,0.6009032999997999,['c'],1,left,['1'],6,0.11875850000001265,,,,,,,,37,0,Vrouw,Rechts,2,
,dotcolour,dotcolour,dotcolour,46,1,106,406,training,negativefb,44,average,51,0.9320990000001075,['n'],0,left,['2'],5,0.13290920000008555,,,,,,,,37,0,Vrouw,Rechts,2,
,dotcolour,dotcolour,dotcolour,47,1,107,407,training,negativefb,29,average,53,0.44957320000003165,['n'],0,left,['2'],5,0.261673299999984,,,,,,,,37,0,Vrouw,Rechts,2,
,dotcolour,dotcolour,dotcolour,48,1,108,408,training,negativefb,51,hard,36,0.5494573999999375,['n'],1,right,['2'],5,0.07683099999985643,,,,,,,,37,0,Vrouw,Rechts,2,
,dotcolour,dotcolour,dotcolour,49,1,109,409,training,negativefb,54,average,52,0.46824800000013056,['n'],0,left,['2'],5,0.04746130000012272,,,,,,,,37,0,Vrouw,Rechts,2,
,dotcolour,dotcolour,dotcolour,50,1,110,410,training,negativefb,74,easy,63,0.8829648999999336,['c'],1,left,['1'],6,0.27451380000002246,,,,,,,,37,0,Vrouw,Rechts,2,
,dotcolour,dotcolour,dotcolour,51,1,111,411,training,negativefb,55,hard,41,0.5836547999999766,['n'],0,left,['2'],5,0.024914699999953882,,,,,,,,37,0,Vrouw,Rechts,2,
,dotcolour,dotcolour,dotcolour,52,1,112,412,training,negativefb,78,average,53,0.5667717000001176,['n'],0,left,['2'],5,0.06575009999983195,,,,,,,,37,0,Vrouw,Rechts,2,
,dotcolour,dotcolour,dotcolour,53,1,113,413,training,negativefb,47,average,26,0.3001670999999533,['n'],1,right,['2'],5,0.07418849999999111,,,,,,,,37,0,Vrouw,Rechts,2,
,dotcolour,dotcolour,dotcolour,54,1,114,414,training,negativefb,77,average,28,0.40012270000011085,['n'],1,right,['2'],5,0.07162650000009307,,,,,,,,37,0,Vrouw,Rechts,2,
,dotcolour,dotcolour,dotcolour,55,1,115,415,training,negativefb,53,average,27,0.4514784000000418,['n'],1,right,['2'],5,0.06750599999986662,,,,,,,,37,0,Vrouw,Rechts,2,
,dotcolour,dotcolour,dotcolour,56,1,116,416,training,negativefb,82,hard,44,0.33239350000008017,['n'],0,left,['2'],5,0.03542309999988902,,,,,,,,37,0,Vrouw,Rechts,2,
,dotcolour,dotcolour,dotcolour,57,1,117,417,training,negativefb,80,hard,45,0.3166838999998163,['n'],0,left,['2'],5,0.06098709999992025,,,,,,,,37,0,Vrouw,Rechts,2,
,dotcolour,dotcolour,dotcolour,58,1,118,418,training,negativefb,63,average,55,0.43263279999996485,['n'],0,left,['2'],5,0.03341249999994034,,,,,,,,37,0,Vrouw,Rechts,2,
,dotcolour,dotcolour,dotcolour,59,1,119,419,training,negativefb,85,hard,38,0.13001999999983127,['n'],1,right,['2'],5,0.02524719999996705,,,,,,,,37,0,Vrouw,Rechts,2,
,xotask,dotcolour,dotcolour,0,2,120,420,main,negativefb,-99,easy,,1.3166793000000325,['c'],1,left,['2'],5,0.53359219999993,71,,,,,,,37,0,Vrouw,Rechts,2,
,xotask,dotcolour,dotcolour,1,2,121,421,main,negativefb,-99,easy,,0.76758360000008,['n'],1,right,['2'],5,0.06557259999999587,5,,,,,,,37,0,Vrouw,Rechts,2,
,xotask,dotcolour,dotcolour,2,2,122,422,main,negativefb,-99,easy,,0.45124550000014096,['n'],0,left,['2'],5,0.06239550000009331,73,,,,,,,37,0,Vrouw,Rechts,2,
,xotask,dotcolour,dotcolour,3,2,123,423,main,negativefb,-99,hard,,0.44956870000009985,['c'],1,left,['2'],5,0.09072349999996732,51,,,,,,,37,0,Vrouw,Rechts,2,
,xotask,dotcolour,dotcolour,4,2,124,424,main,negativefb,-99,hard,,0.3512998000001062,['n'],1,right,['2'],5,0.033818099999962214,26,,,,,,,37,0,Vrouw,Rechts,2,
,xotask,dotcolour,dotcolour,5,2,125,425,main,negativefb,-99,average,,0.6173307000001387,['n'],0,left,['2'],5,0.06489250000004176,64,,,,,,,37,0,Vrouw,Rechts,2,
,xotask,dotcolour,dotcolour,6,2,126,426,main,negativefb,-99,hard,,0.3830984000001081,['c'],1,left,['2'],5,0.039596599999867976,54,,,,,,,37,0,Vrouw,Rechts,2,
,xotask,dotcolour,dotcolour,7,2,127,427,main,negativefb,-99,hard,,0.4000373999999738,['n'],0,left,['2'],5,0.07063369999991664,51,,,,,,,37,0,Vrouw,Rechts,2,
,xotask,dotcolour,dotcolour,8,2,128,428,main,negativefb,-99,hard,,0.40035839999995915,['n'],1,right,['2'],5,0.028568100000029517,27,,,,,,,37,0,Vrouw,Rechts,2,
,xotask,dotcolour,dotcolour,9,2,129,429,main,negativefb,-99,hard,,0.450499900000068,['n'],1,right,['2'],5,0.01134949999982382,26,,,,,,,37,0,Vrouw,Rechts,2,
,xotask,dotcolour,dotcolour,10,2,130,430,main,negativefb,-99,easy,,0.46592240000018137,['c'],1,left,['2'],5,0.025351500000169835,72,,,,,,,37,0,Vrouw,Rechts,2,
,xotask,dotcolour,dotcolour,11,2,131,431,main,negativefb,-99,hard,,0.6006792999999107,['n'],1,right,['2'],5,0.057436300000063056,27,,,,,,,37,0,Vrouw,Rechts,2,
,xotask,dotcolour,dotcolour,12,2,132,432,main,negativefb,-99,hard,,0.6666872000000694,['c'],1,left,['2'],5,0.11709240000004684,51,,,,,,,37,0,Vrouw,Rechts,2,
,xotask,dotcolour,dotcolour,13,2,133,433,main,negativefb,-99,hard,,0.26759900000001835,['n'],1,right,['2'],5,0.02237609999997403,25,,,,,,,37,0,Vrouw,Rechts,2,
,xotask,dotcolour,dotcolour,14,2,134,434,main,negativefb,-99,average,,0.3513100000000122,['n'],1,right,['3'],4,0.016477099999974598,18,,,,,,,37,0,Vrouw,Rechts,2,
,xotask,dotcolour,dotcolour,15,2,135,435,main,negativefb,-99,average,,0.4169186000001446,['n'],0,left,['3'],4,0.023995400000103473,62,,,,,,,37,0,Vrouw,Rechts,2,
,xotask,dotcolour,dotcolour,16,2,136,436,main,negativefb,-99,average,,1.1173099000000093,['c'],0,right,['2'],5,0.12279770000009194,15,,,,,,,37,0,Vrouw,Rechts,2,
,xotask,dotcolour,dotcolour,17,2,137,437,main,negativefb,-99,average,,0.8178347000000485,['n'],1,right,['2'],5,0.02976200000011886,19,,,,,,,37,0,Vrouw,Rechts,2,
,xotask,dotcolour,dotcolour,18,2,138,438,main,negativefb,-99,easy,,0.5175420000000486,['n'],0,left,['2'],5,0.06590559999995094,70,,,,,,,37,0,Vrouw,Rechts,2,
,xotask,dotcolour,dotcolour,19,2,139,439,main,negativefb,-99,hard,,0.6333270000000084,['n'],1,right,['2'],5,0.04673669999988306,25,,,,,,,37,0,Vrouw,Rechts,2,
,xotask,dotcolour,dotcolour,20,2,140,440,main,negativefb,-99,hard,,0.6340543999999682,['n'],0,left,['2'],5,0.027969399999847155,52,,,,,,,37,0,Vrouw,Rechts,2,
,xotask,dotcolour,dotcolour,21,2,141,441,main,negativefb,-99,average,,0.5006826999999703,['n'],1,right,['2'],5,0.04873829999996815,18,,,,,,,37,0,Vrouw,Rechts,2,
,xotask,dotcolour,dotcolour,22,2,142,442,main,negativefb,-99,hard,,0.5844844000000649,['n'],1,right,['2'],5,0.03950939999981529,29,,,,,,,37,0,Vrouw,Rechts,2,
,xotask,dotcolour,dotcolour,23,2,143,443,main,negativefb,-99,easy,,0.6009935999998106,['c'],1,left,['2'],5,0.0787646000001132,74,,,,,,,37,0,Vrouw,Rechts,2,
,xotask,dotcolour,dotcolour,24,2,144,444,main,negativefb,-99,hard,,0.8510610999999244,['n'],1,right,['2'],5,0.02675239999985024,27,,,,,,,37,0,Vrouw,Rechts,2,
,xotask,dotcolour,dotcolour,25,2,145,445,main,negativefb,-99,average,,0.5496610000000146,['n'],0,left,['2'],5,0.08496009999998932,62,,,,,,,37,0,Vrouw,Rechts,2,
,xotask,dotcolour,dotcolour,26,2,146,446,main,negativefb,-99,easy,,0.8342706999999336,['n'],1,right,['2'],5,0.03339060000007521,9,,,,,,,37,0,Vrouw,Rechts,2,
,xotask,dotcolour,dotcolour,27,2,147,447,main,negativefb,-99,average,,0.8347933999998531,['n'],1,right,['1'],6,0.06304199999999582,19,,,,,,,37,0,Vrouw,Rechts,2,
,xotask,dotcolour,dotcolour,28,2,148,448,main,negativefb,-99,average,,0.7004383999999391,['c'],0,right,['0'],1,0.24980090000008204,19,,,,,,,37,0,Vrouw,Rechts,2,
,xotask,dotcolour,dotcolour,29,2,149,449,main,negativefb,-99,hard,,0.5837571000001844,['c'],1,left,['0'],1,0.04075609999995322,52,,,,,,,37,0,Vrouw,Rechts,2,
,xotask,dotcolour,dotcolour,30,2,150,450,main,negativefb,-99,easy,,0.9671760999999606,['n'],1,right,['2'],5,0.11344260000009854,6,,,,,,,37,0,Vrouw,Rechts,2,
,xotask,dotcolour,dotcolour,31,2,151,451,main,negativefb,-99,hard,,0.5677820999999312,['n'],0,left,['2'],5,0.031661500000154774,53,,,,,,,37,0,Vrouw,Rechts,2,
,xotask,dotcolour,dotcolour,32,2,152,452,main,negativefb,-99,easy,,0.4334016000000247,['n'],0,left,['2'],5,0.06219829999986359,74,,,,,,,37,0,Vrouw,Rechts,2,
,xotask,dotcolour,dotcolour,33,2,153,453,main,negativefb,-99,easy,,0.5500437999999122,['n'],1,right,['2'],5,0.07077189999995426,7,,,,,,,37,0,Vrouw,Rechts,2,
,xotask,dotcolour,dotcolour,34,2,154,454,main,negativefb,-99,hard,,0.7668988999998874,['c'],1,left,['2'],5,0.1167620999999599,53,,,,,,,37,0,Vrouw,Rechts,2,
,xotask,dotcolour,dotcolour,35,2,155,455,main,negativefb,-99,hard,,0.6174355000002834,['c'],1,left,['2'],5,0.11320859999977984,53,,,,,,,37,0,Vrouw,Rechts,2,
,xotask,dotcolour,dotcolour,36,2,156,456,main,negativefb,-99,average,,0.9341569000002892,['c'],1,left,['2'],5,0.7198732000001655,64,,,,,,,37,0,Vrouw,Rechts,2,
,xotask,dotcolour,dotcolour,37,2,157,457,main,negativefb,-99,easy,,0.36775470000020505,['n'],1,right,['2'],5,0.005636299999878247,7,,,,,,,37,0,Vrouw,Rechts,2,
,xotask,dotcolour,dotcolour,38,2,158,458,main,negativefb,-99,easy,,0.41768930000034743,['c'],1,left,['2'],5,0.08550270000023374,73,,,,,,,37,0,Vrouw,Rechts,2,
,xotask,dotcolour,dotcolour,39,2,159,459,main,negativefb,-99,easy,,0.6180215999997927,['c'],1,left,['2'],5,0.09038590000000113,72,,,,,,,37,0,Vrouw,Rechts,2,
,xotask,dotcolour,dotcolour,40,2,160,460,main,negativefb,-99,easy,,0.36827590000029886,['c'],0,right,['2'],5,0.024891200000183744,5,,,,,,,37,0,Vrouw,Rechts,2,
,xotask,dotcolour,dotcolour,41,2,161,461,main,negativefb,-99,hard,,0.400008600000092,['n'],1,right,['2'],5,0.025089499999921827,26,,,,,,,37,0,Vrouw,Rechts,2,
,xotask,dotcolour,dotcolour,42,2,162,462,main,negativefb,-99,easy,,0.5999199999996563,['n'],0,left,['2'],5,0.048749600000064675,71,,,,,,,37,0,Vrouw,Rechts,2,
,xotask,dotcolour,dotcolour,43,2,163,463,main,negativefb,-99,average,,0.46696449999990364,['c'],1,left,['2'],5,0.07687810000015816,63,,,,,,,37,0,Vrouw,Rechts,2,
,xotask,dotcolour,dotcolour,44,2,164,464,main,negativefb,-99,easy,,0.617421099999774,['n'],1,right,['2'],5,0.07390459999987797,9,,,,,,,37,0,Vrouw,Rechts,2,
,xotask,dotcolour,dotcolour,45,2,165,465,main,negativefb,-99,average,,0.48326479999968797,['c'],1,left,['2'],5,0.09265490000007048,61,,,,,,,37,0,Vrouw,Rechts,2,
,xotask,dotcolour,dotcolour,46,2,166,466,main,negativefb,-99,average,,0.6517029999999977,['c'],1,left,['2'],5,0.04821750000019165,61,,,,,,,37,0,Vrouw,Rechts,2,
,xotask,dotcolour,dotcolour,47,2,167,467,main,negativefb,-99,hard,,0.5847404000001006,['n'],1,right,['2'],5,0.03889230000004318,26,,,,,,,37,0,Vrouw,Rechts,2,
,xotask,dotcolour,dotcolour,48,2,168,468,main,negativefb,-99,average,,0.7166406999999708,['c'],1,left,['2'],5,0.025963900000078866,63,,,,,,,37,0,Vrouw,Rechts,2,
,xotask,dotcolour,dotcolour,49,2,169,469,main,negativefb,-99,easy,,0.43459600000005594,['n'],1,right,['2'],5,0.04086010000037277,7,,,,,,,37,0,Vrouw,Rechts,2,
,xotask,dotcolour,dotcolour,50,2,170,470,main,negativefb,-99,average,,0.36708820000012565,['c'],0,right,['2'],5,0.041161600000123144,16,,,,,,,37,0,Vrouw,Rechts,2,
,xotask,dotcolour,dotcolour,51,2,171,471,main,negativefb,-99,average,,0.7847335999999814,['c'],1,left,['2'],5,0.07396650000009686,64,,,,,,,37,0,Vrouw,Rechts,2,
,xotask,dotcolour,dotcolour,52,2,172,472,main,negativefb,-99,average,,0.6513073000000986,['c'],0,right,['3'],4,0.10987790000035602,19,,,,,,,37,0,Vrouw,Rechts,2,
,xotask,dotcolour,dotcolour,53,2,173,473,main,negativefb,-99,average,,0.8008827000003294,['n'],1,right,['2'],5,0.04225459999997838,16,,,,,,,37,0,Vrouw,Rechts,2,
,xotask,dotcolour,dotcolour,54,2,174,474,main,negativefb,-99,easy,,0.6182008000000678,['c'],1,left,['2'],5,0.04044640000029176,73,,,,,,,37,0,Vrouw,Rechts,2,
,xotask,dotcolour,dotcolour,55,2,175,475,main,negativefb,-99,easy,,0.4510091000001921,['n'],1,right,['2'],5,0.07838799999990442,6,,,,,,,37,0,Vrouw,Rechts,2,
,xotask,dotcolour,dotcolour,56,2,176,476,main,negativefb,-99,average,,0.5010848000001715,['n'],1,right,['2'],5,0.08875209999996514,17,,,,,,,37,0,Vrouw,Rechts,2,
,xotask,dotcolour,dotcolour,57,2,177,477,main,negativefb,-99,hard,,1.3011067000002186,['c'],1,left,['2'],5,0.6817762999999104,51,,,,,,,37,0,Vrouw,Rechts,2,
,xotask,dotcolour,dotcolour,58,2,178,478,main,negativefb,-99,average,,1.0174532000000909,['c'],1,left,['2'],5,0.03906069999993633,62,,,,,,,37,0,Vrouw,Rechts,2,
,xotask,dotcolour,dotcolour,59,2,179,479,main,negativefb,-99,easy,,0.5514450000000579,['n'],1,right,['2'],5,0.055858200000329816,8,,,,,,,37,0,Vrouw,Rechts,2,
,xotask,dotcolour,dotcolour,0,3,180,480,main,negativefb,-99,average,,0.9682920000000195,['n'],0,left,['2'],5,0.0799938000000111,63,,,,,,,37,0,Vrouw,Rechts,2,
,xotask,dotcolour,dotcolour,1,3,181,481,main,negativefb,-99,average,,0.8847906000000876,['n'],1,right,['2'],5,0.08291899999994712,19,,,,,,,37,0,Vrouw,Rechts,2,
,xotask,dotcolour,dotcolour,2,3,182,482,main,negativefb,-99,easy,,0.8680401999999958,['c'],1,left,['2'],5,0.06851390000019819,73,,,,,,,37,0,Vrouw,Rechts,2,
,xotask,dotcolour,dotcolour,3,3,183,483,main,negativefb,-99,average,,0.716983700000128,['n'],1,right,['2'],5,0.053952100000060454,15,,,,,,,37,0,Vrouw,Rechts,2,
,xotask,dotcolour,dotcolour,4,3,184,484,main,negativefb,-99,average,,0.5672537999998895,['n'],1,right,['2'],5,0.06973229999994146,15,,,,,,,37,0,Vrouw,Rechts,2,
,xotask,dotcolour,dotcolour,5,3,185,485,main,negativefb,-99,hard,,0.5345636999995804,['n'],1,right,['2'],5,0.07140350000008766,25,,,,,,,37,0,Vrouw,Rechts,2,
,xotask,dotcolour,dotcolour,6,3,186,486,main,negativefb,-99,average,,0.5501456000001781,['c'],1,left,['2'],5,0.11139240000011341,64,,,,,,,37,0,Vrouw,Rechts,2,
,xotask,dotcolour,dotcolour,7,3,187,487,main,negativefb,-99,easy,,0.551416099999642,['n'],1,right,['2'],5,0.03733699999975215,9,,,,,,,37,0,Vrouw,Rechts,2,
,xotask,dotcolour,dotcolour,8,3,188,488,main,negativefb,-99,average,,0.7672198000000208,['n'],1,right,['2'],5,0.08648119999998016,16,,,,,,,37,0,Vrouw,Rechts,2,
,xotask,dotcolour,dotcolour,9,3,189,489,main,negativefb,-99,average,,0.7503726999998435,['c'],1,left,['2'],5,0.10922049999999217,61,,,,,,,37,0,Vrouw,Rechts,2,
,xotask,dotcolour,dotcolour,10,3,190,490,main,negativefb,-99,hard,,0.8177484000002551,['n'],0,left,['2'],5,0.017719899999974587,52,,,,,,,37,0,Vrouw,Rechts,2,
,xotask,dotcolour,dotcolour,11,3,191,491,main,negativefb,-99,average,,0.7335825000000114,['n'],1,right,['2'],5,0.08416410000018004,18,,,,,,,37,0,Vrouw,Rechts,2,
,xotask,dotcolour,dotcolour,12,3,192,492,main,negativefb,-99,easy,,0.8673615000002428,['c'],1,left,['2'],5,0.07058629999983168,72,,,,,,,37,0,Vrouw,Rechts,2,
,xotask,dotcolour,dotcolour,13,3,193,493,main,negativefb,-99,easy,,0.6671584999999141,['n'],0,left,['2'],5,0.07461770000008983,71,,,,,,,37,0,Vrouw,Rechts,2,
,xotask,dotcolour,dotcolour,14,3,194,494,main,negativefb,-99,easy,,0.9007999999998901,['n'],1,right,['2'],5,0.10077369999999064,6,,,,,,,37,0,Vrouw,Rechts,2,
,xotask,dotcolour,dotcolour,15,3,195,495,main,negativefb,-99,average,,0.6671818999998322,['n'],1,right,['2'],5,0.06286109999973633,17,,,,,,,37,0,Vrouw,Rechts,2,
,xotask,dotcolour,dotcolour,16,3,196,496,main,negativefb,-99,average,,0.8508397000000514,['c'],1,left,['2'],5,0.0512114000002839,60,,,,,,,37,0,Vrouw,Rechts,2,
,xotask,dotcolour,dotcolour,17,3,197,497,main,negativefb,-99,hard,,0.5183325000002696,['n'],1,right,['2'],5,0.04536689999986265,29,,,,,,,37,0,Vrouw,Rechts,2,
,xotask,dotcolour,dotcolour,18,3,198,498,main,negativefb,-99,easy,,0.9000309000002744,['c'],1,left,['2'],5,0.05617839999968055,71,,,,,,,37,0,Vrouw,Rechts,2,
,xotask,dotcolour,dotcolour,19,3,199,499,main,negativefb,-99,easy,,0.5348463999998785,['n'],0,left,['2'],5,0.049876299999596085,72,,,,,,,37,0,Vrouw,Rechts,2,
,xotask,dotcolour,dotcolour,20,3,200,500,main,negativefb,-99,easy,,0.7344514000001254,['c'],1,left,['2'],5,0.0835109999998167,73,,,,,,,37,0,Vrouw,Rechts,2,
,xotask,dotcolour,dotcolour,21,3,201,501,main,negativefb,-99,easy,,0.8345748000001549,['n'],1,right,['2'],5,0.37548629999992045,9,,,,,,,37,0,Vrouw,Rechts,2,
,xotask,dotcolour,dotcolour,22,3,202,502,main,negativefb,-99,hard,,0.9515627000000677,['n'],1,right,['2'],5,0.08293319999984305,29,,,,,,,37,0,Vrouw,Rechts,2,
,xotask,dotcolour,dotcolour,23,3,203,503,main,negativefb,-99,easy,,0.985424100000273,['n'],1,right,['2'],5,0.1926530000000639,7,,,,,,,37,0,Vrouw,Rechts,2,
,xotask,dotcolour,dotcolour,24,3,204,504,main,negativefb,-99,easy,,1.0332194000002346,['c'],0,right,['0'],1,0.16965650000020105,7,,,,,,,37,0,Vrouw,Rechts,2,
,xotask,dotcolour,dotcolour,25,3,205,505,main,negativefb,-99,easy,,0.8174979999998868,['n'],0,left,['2'],5,0.07551319999993211,72,,,,,,,37,0,Vrouw,Rechts,2,
,xotask,dotcolour,dotcolour,26,3,206,506,main,negativefb,-99,hard,,0.9669693999999254,['c'],0,right,['2'],5,0.11382430000003296,26,,,,,,,37,0,Vrouw,Rechts,2,
,xotask,dotcolour,dotcolour,27,3,207,507,main,negativefb,-99,easy,,0.7507942000002004,['c'],1,left,['2'],5,0.11224179999999251,71,,,,,,,37,0,Vrouw,Rechts,2,
,xotask,dotcolour,dotcolour,28,3,208,508,main,negativefb,-99,hard,,1.033898500000305,['c'],1,left,['2'],5,0.16340009999976246,50,,,,,,,37,0,Vrouw,Rechts,2,
,xotask,dotcolour,dotcolour,29,3,209,509,main,negativefb,-99,hard,,1.4005115999998452,['n'],1,right,['2'],5,0.0066778999998859945,29,,,,,,,37,0,Vrouw,Rechts,2,
,xotask,dotcolour,dotcolour,30,3,210,510,main,negativefb,-99,easy,,1.0160077999998975,['c'],1,left,['2'],5,0.054877399999895715,73,,,,,,,37,0,Vrouw,Rechts,2,
,xotask,dotcolour,dotcolour,31,3,211,511,main,negativefb,-99,easy,,0.4669333000001643,['n'],1,right,['2'],5,0.07487469999978202,6,,,,,,,37,0,Vrouw,Rechts,2,
,xotask,dotcolour,dotcolour,32,3,212,512,main,negativefb,-99,hard,,1.0502197000000706,['n'],0,left,['2'],5,1.1586084999999002,51,,,,,,,37,0,Vrouw,Rechts,2,
,xotask,dotcolour,dotcolour,33,3,213,513,main,negativefb,-99,easy,,0.8838233999999829,['c'],1,left,['2'],5,0.06970339999998032,70,,,,,,,37,0,Vrouw,Rechts,2,
,xotask,dotcolour,dotcolour,34,3,214,514,main,negativefb,-99,easy,,0.6006778999999369,['n'],1,right,['2'],5,0.10809030000018538,8,,,,,,,37,0,Vrouw,Rechts,2,
,xotask,dotcolour,dotcolour,35,3,215,515,main,negativefb,-99,average,,0.6842095000001791,['c'],1,left,['2'],5,0.1329755000001569,64,,,,,,,37,0,Vrouw,Rechts,2,
,xotask,dotcolour,dotcolour,36,3,216,516,main,negativefb,-99,easy,,0.6010590999999295,['n'],1,right,['2'],5,0.22462369999993825,5,,,,,,,37,0,Vrouw,Rechts,2,
,xotask,dotcolour,dotcolour,37,3,217,517,main,negativefb,-99,hard,,0.6841632999999092,['c'],1,left,['2'],5,0.18921550000004572,52,,,,,,,37,0,Vrouw,Rechts,2,
,xotask,dotcolour,dotcolour,38,3,218,518,main,negativefb,-99,hard,,0.6171329999997397,['n'],1,right,['2'],5,0.25422770000022865,29,,,,,,,37,0,Vrouw,Rechts,2,
,xotask,dotcolour,dotcolour,39,3,219,519,main,negativefb,-99,average,,1.067211000000043,['c'],1,left,['0'],1,0.1458201000000372,61,,,,,,,37,0,Vrouw,Rechts,2,
,xotask,dotcolour,dotcolour,40,3,220,520,main,negativefb,-99,average,,1.584946200000104,['c'],1,left,['2'],5,0.7658006999999998,64,,,,,,,37,0,Vrouw,Rechts,2,
,xotask,dotcolour,dotcolour,41,3,221,521,main,negativefb,-99,hard,,0.8680766000002222,['n'],1,right,['2'],5,0.14931350000006205,28,,,,,,,37,0,Vrouw,Rechts,2,
,xotask,dotcolour,dotcolour,42,3,222,522,main,negativefb,-99,easy,,0.7502632000000631,['n'],1,right,['2'],5,0.27390420000028826,7,,,,,,,37,0,Vrouw,Rechts,2,
,xotask,dotcolour,dotcolour,43,3,223,523,main,negativefb,-99,easy,,0.4504938999998558,['n'],1,right,['2'],5,0.14183090000005905,9,,,,,,,37,0,Vrouw,Rechts,2,
,xotask,dotcolour,dotcolour,44,3,224,524,main,negativefb,-99,average,,0.4014078000000154,['n'],1,right,['2'],5,0.08103999999957523,16,,,,,,,37,0,Vrouw,Rechts,2,
,xotask,dotcolour,dotcolour,45,3,225,525,main,negativefb,-99,hard,,0.6510106000000633,['n'],0,left,['2'],5,0.26118610000003173,52,,,,,,,37,0,Vrouw,Rechts,2,
,xotask,dotcolour,dotcolour,46,3,226,526,main,negativefb,-99,hard,,0.5338992000001781,['n'],1,right,['2'],5,0.3658586000001378,29,,,,,,,37,0,Vrouw,Rechts,2,
,xotask,dotcolour,dotcolour,47,3,227,527,main,negativefb,-99,hard,,0.3672740000001795,['n'],0,left,['2'],5,0.04081689999975424,51,,,,,,,37,0,Vrouw,Rechts,2,
,xotask,dotcolour,dotcolour,48,3,228,528,main,negativefb,-99,hard,,1.3690387000001465,['c'],1,left,['0'],1,0.1298023999997895,52,,,,,,,37,0,Vrouw,Rechts,2,
,xotask,dotcolour,dotcolour,49,3,229,529,main,negativefb,-99,average,,0.7844123999998374,['c'],1,left,['2'],5,0.2308631000000787,61,,,,,,,37,0,Vrouw,Rechts,2,
,xotask,dotcolour,dotcolour,50,3,230,530,main,negativefb,-99,average,,0.6008363999999347,['n'],0,left,['2'],5,0.09474229999977979,63,,,,,,,37,0,Vrouw,Rechts,2,
,xotask,dotcolour,dotcolour,51,3,231,531,main,negativefb,-99,hard,,1.735833900000216,['n'],1,right,['2'],5,0.6067176000001382,26,,,,,,,37,0,Vrouw,Rechts,2,
,xotask,dotcolour,dotcolour,52,3,232,532,main,negativefb,-99,hard,,0.7348612999999204,['n'],0,left,['2'],5,0.04192749999992884,53,,,,,,,37,0,Vrouw,Rechts,2,
,xotask,dotcolour,dotcolour,53,3,233,533,main,negativefb,-99,average,,0.6520142000003943,['n'],1,right,['2'],5,0.03889939999999115,19,,,,,,,37,0,Vrouw,Rechts,2,
,xotask,dotcolour,dotcolour,54,3,234,534,main,negativefb,-99,average,,0.7997906000000512,['n'],1,right,['2'],5,0.054978399999981775,16,,,,,,,37,0,Vrouw,Rechts,2,
,xotask,dotcolour,dotcolour,55,3,235,535,main,negativefb,-99,hard,,0.9664029999999002,['n'],1,right,['2'],5,0.0786460000003899,26,,,,,,,37,0,Vrouw,Rechts,2,
,xotask,dotcolour,dotcolour,56,3,236,536,main,negativefb,-99,average,,0.7501793000001271,['n'],1,right,['2'],5,0.30256169999984195,15,,,,,,,37,0,Vrouw,Rechts,2,
,xotask,dotcolour,dotcolour,57,3,237,537,main,negativefb,-99,hard,,1.0021165000002838,['n'],0,left,['2'],5,0.1070793999997477,51,,,,,,,37,0,Vrouw,Rechts,2,
,xotask,dotcolour,dotcolour,58,3,238,538,main,negativefb,-99,average,,0.9839057999997749,['n'],0,left,['0'],1,0.16017209999972692,64,,,,,,,37,0,Vrouw,Rechts,2,
,xotask,dotcolour,dotcolour,59,3,239,539,main,negativefb,-99,hard,,0.6829882999995789,['n'],0,left,['2'],5,0.03209209999977247,52,,,,,,,37,0,Vrouw,Rechts,2,
,xotask,dotcolour,dotcolour,0,4,240,540,main,negativefb,-99,hard,,0.7685472000002846,['n'],1,right,['2'],5,0.21127449999994496,25,,,,,,,37,0,Vrouw,Rechts,2,
,xotask,dotcolour,dotcolour,1,4,241,541,main,negativefb,-99,average,,0.7351340000000164,['c'],1,left,['2'],5,0.12660900000037145,61,,,,,,,37,0,Vrouw,Rechts,2,
,xotask,dotcolour,dotcolour,2,4,242,542,main,negativefb,-99,easy,,0.4344277999998667,['n'],1,right,['2'],5,0.017040299999734998,9,,,,,,,37,0,Vrouw,Rechts,2,
,xotask,dotcolour,dotcolour,3,4,243,543,main,negativefb,-99,easy,,0.5162467000000106,['n'],1,right,['2'],5,0.04420290000007299,9,,,,,,,37,0,Vrouw,Rechts,2,
,xotask,dotcolour,dotcolour,4,4,244,544,main,negativefb,-99,average,,0.7007087000001775,['n'],1,right,['2'],5,0.02373540000007779,16,,,,,,,37,0,Vrouw,Rechts,2,
,xotask,dotcolour,dotcolour,5,4,245,545,main,negativefb,-99,hard,,0.6504783000000316,['c'],1,left,['2'],5,0.07017990000031205,53,,,,,,,37,0,Vrouw,Rechts,2,
,xotask,dotcolour,dotcolour,6,4,246,546,main,negativefb,-99,hard,,0.5346601999999621,['n'],0,left,['2'],5,0.06295049999971525,51,,,,,,,37,0,Vrouw,Rechts,2,
,xotask,dotcolour,dotcolour,7,4,247,547,main,negativefb,-99,hard,,0.6518715000001976,['c'],0,right,['2'],5,0.03540579999980764,26,,,,,,,37,0,Vrouw,Rechts,2,
,xotask,dotcolour,dotcolour,8,4,248,548,main,negativefb,-99,average,,0.7513669999998456,['n'],0,left,['2'],5,0.09306979999973919,64,,,,,,,37,0,Vrouw,Rechts,2,
,xotask,dotcolour,dotcolour,9,4,249,549,main,negativefb,-99,easy,,0.4346487999996498,['c'],1,left,['2'],5,0.024681299999883777,71,,,,,,,37,0,Vrouw,Rechts,2,
,xotask,dotcolour,dotcolour,10,4,250,550,main,negativefb,-99,average,,0.4508448999999928,['c'],0,right,['2'],5,0.0706347000000278,19,,,,,,,37,0,Vrouw,Rechts,2,
,xotask,dotcolour,dotcolour,11,4,251,551,main,negativefb,-99,average,,0.4842533999999432,['n'],0,left,['2'],5,0.033706400000028225,60,,,,,,,37,0,Vrouw,Rechts,2,
,xotask,dotcolour,dotcolour,12,4,252,552,main,negativefb,-99,hard,,0.3842394000002969,['c'],0,right,['2'],5,0.032872600000246166,27,,,,,,,37,0,Vrouw,Rechts,2,
,xotask,dotcolour,dotcolour,13,4,253,553,main,negativefb,-99,average,,0.4177484000001641,['n'],0,left,['2'],5,0.040059500000097614,64,,,,,,,37,0,Vrouw,Rechts,2,
,xotask,dotcolour,dotcolour,14,4,254,554,main,negativefb,-99,easy,,0.43329010000024937,['c'],1,left,['2'],5,0.03810859999975946,71,,,,,,,37,0,Vrouw,Rechts,2,
,xotask,dotcolour,dotcolour,15,4,255,555,main,negativefb,-99,hard,,0.48310459999993327,['n'],1,right,['2'],5,0.058130099999743834,26,,,,,,,37,0,Vrouw,Rechts,2,
,xotask,dotcolour,dotcolour,16,4,256,556,main,negativefb,-99,hard,,0.3338482000003751,['c'],1,left,['2'],5,0.05104769999979908,52,,,,,,,37,0,Vrouw,Rechts,2,
,xotask,dotcolour,dotcolour,17,4,257,557,main,negativefb,-99,easy,,0.5841976000001523,['n'],1,right,['2'],5,0.05109179999999469,8,,,,,,,37,0,Vrouw,Rechts,2,
,xotask,dotcolour,dotcolour,18,4,258,558,main,negativefb,-99,average,,0.43402800000012576,['n'],1,right,['2'],5,0.05640010000024631,19,,,,,,,37,0,Vrouw,Rechts,2,
,xotask,dotcolour,dotcolour,19,4,259,559,main,negativefb,-99,easy,,0.4510974999998325,['n'],1,right,['2'],5,0.05288310000014462,5,,,,,,,37,0,Vrouw,Rechts,2,
,xotask,dotcolour,dotcolour,20,4,260,560,main,negativefb,-99,average,,0.6666472000001704,['c'],1,left,['2'],5,0.04928800000016054,64,,,,,,,37,0,Vrouw,Rechts,2,
,xotask,dotcolour,dotcolour,21,4,261,561,main,negativefb,-99,easy,,0.6171358000001419,['c'],1,left,['2'],5,0.03811540000015157,70,,,,,,,37,0,Vrouw,Rechts,2,
,xotask,dotcolour,dotcolour,22,4,262,562,main,negativefb,-99,hard,,0.4996347000001151,['c'],0,right,['2'],5,0.017909099999997125,29,,,,,,,37,0,Vrouw,Rechts,2,
,xotask,dotcolour,dotcolour,23,4,263,563,main,negativefb,-99,average,,0.350217000000157,['n'],1,right,['2'],5,0.06828290000021298,17,,,,,,,37,0,Vrouw,Rechts,2,
,xotask,dotcolour,dotcolour,24,4,264,564,main,negativefb,-99,hard,,0.40117899999995643,['n'],1,right,['2'],5,0.6739338000002135,28,,,,,,,37,0,Vrouw,Rechts,2,
,xotask,dotcolour,dotcolour,25,4,265,565,main,negativefb,-99,easy,,0.36688379999986864,['n'],1,right,['2'],5,0.025927799999863055,9,,,,,,,37,0,Vrouw,Rechts,2,
,xotask,dotcolour,dotcolour,26,4,266,566,main,negativefb,-99,hard,,0.3011191999999028,['n'],0,left,['2'],5,0.7174055000000408,53,,,,,,,37,0,Vrouw,Rechts,2,
,xotask,dotcolour,dotcolour,27,4,267,567,main,negativefb,-99,hard,,0.3679328000002897,['n'],1,right,['2'],5,0.5550180999998702,27,,,,,,,37,0,Vrouw,Rechts,2,
,xotask,dotcolour,dotcolour,28,4,268,568,main,negativefb,-99,easy,,0.20029380000005403,['n'],1,right,['2'],5,0.046253600000000006,6,,,,,,,37,0,Vrouw,Rechts,2,
,xotask,dotcolour,dotcolour,29,4,269,569,main,negativefb,-99,average,,0.9846806999998989,['c'],1,left,['2'],5,0.2936976999999388,62,,,,,,,37,0,Vrouw,Rechts,2,
,xotask,dotcolour,dotcolour,30,4,270,570,main,negativefb,-99,average,,0.2341905000002953,['n'],0,left,['2'],5,0.017884999999751017,64,,,,,,,37,0,Vrouw,Rechts,2,
,xotask,dotcolour,dotcolour,31,4,271,571,main,negativefb,-99,average,,0.5839347000000998,['c'],0,right,['2'],5,0.07412780000004204,18,,,,,,,37,0,Vrouw,Rechts,2,
,xotask,dotcolour,dotcolour,32,4,272,572,main,negativefb,-99,hard,,0.6004191000001811,['c'],0,right,['2'],5,0.08041000000002896,27,,,,,,,37,0,Vrouw,Rechts,2,
,xotask,dotcolour,dotcolour,33,4,273,573,main,negativefb,-99,hard,,0.717718099999729,['c'],1,left,['2'],5,0.0417608000002474,53,,,,,,,37,0,Vrouw,Rechts,2,
,xotask,dotcolour,dotcolour,34,4,274,574,main,negativefb,-99,easy,,0.5843952999998692,['c'],1,left,['2'],5,0.41770820000010644,73,,,,,,,37,0,Vrouw,Rechts,2,
,xotask,dotcolour,dotcolour,35,4,275,575,main,negativefb,-99,hard,,0.6018608999997923,['n'],1,right,['2'],5,0.08174910000025193,26,,,,,,,37,0,Vrouw,Rechts,2,
,xotask,dotcolour,dotcolour,36,4,276,576,main,negativefb,-99,hard,,0.5839498000000276,['n'],0,left,['2'],5,0.06307730000025913,53,,,,,,,37,0,Vrouw,Rechts,2,
,xotask,dotcolour,dotcolour,37,4,277,577,main,negativefb,-99,average,,0.9342381000001296,['c'],1,left,['2'],5,0.07247500000039508,63,,,,,,,37,0,Vrouw,Rechts,2,
,xotask,dotcolour,dotcolour,38,4,278,578,main,negativefb,-99,average,,0.7179481000002852,['n'],1,right,['2'],5,0.06591160000016316,16,,,,,,,37,0,Vrouw,Rechts,2,
,xotask,dotcolour,dotcolour,39,4,279,579,main,negativefb,-99,easy,,0.7010822000002008,['n'],1,right,['2'],5,0.06788950000009208,5,,,,,,,37,0,Vrouw,Rechts,2,
,xotask,dotcolour,dotcolour,40,4,280,580,main,negativefb,-99,easy,,0.6169386999999915,['c'],1,left,['2'],5,0.041806000000178756,73,,,,,,,37,0,Vrouw,Rechts,2,
,xotask,dotcolour,dotcolour,41,4,281,581,main,negativefb,-99,easy,,0.41753719999996974,['c'],1,left,['2'],5,0.08042139999997744,74,,,,,,,37,0,Vrouw,Rechts,2,
,xotask,dotcolour,dotcolour,42,4,282,582,main,negativefb,-99,easy,,0.4340687999997499,['c'],0,right,['2'],5,0.2849036000002343,5,,,,,,,37,0,Vrouw,Rechts,2,
,xotask,dotcolour,dotcolour,43,4,283,583,main,negativefb,-99,easy,,0.24951439999995273,['n'],0,left,['2'],5,0.040553600000293955,73,,,,,,,37,0,Vrouw,Rechts,2,
,xotask,dotcolour,dotcolour,44,4,284,584,main,negativefb,-99,easy,,0.8164741000000504,['c'],1,left,['2'],5,0.09468619999961447,73,,,,,,,37,0,Vrouw,Rechts,2,
,xotask,dotcolour,dotcolour,45,4,285,585,main,negativefb,-99,hard,,0.5680249000001822,['n'],0,left,['2'],5,0.03764240000009522,50,,,,,,,37,0,Vrouw,Rechts,2,
,xotask,dotcolour,dotcolour,46,4,286,586,main,negativefb,-99,hard,,0.7660270999999739,['c'],1,left,['2'],5,0.006618800000069314,54,,,,,,,37,0,Vrouw,Rechts,2,
,xotask,dotcolour,dotcolour,47,4,287,587,main,negativefb,-99,easy,,0.6008474999998725,['c'],1,left,['2'],5,0.07056120000015653,70,,,,,,,37,0,Vrouw,Rechts,2,
,xotask,dotcolour,dotcolour,48,4,288,588,main,negativefb,-99,hard,,0.68439619999981,['n'],0,left,['2'],5,0.06548519999978453,54,,,,,,,37,0,Vrouw,Rechts,2,
,xotask,dotcolour,dotcolour,49,4,289,589,main,negativefb,-99,average,,0.8340048999998544,['c'],1,left,['2'],5,0.014014200000019628,62,,,,,,,37,0,Vrouw,Rechts,2,
,xotask,dotcolour,dotcolour,50,4,290,590,main,negativefb,-99,easy,,0.8168633000000227,['n'],1,right,['2'],5,0.10245219999978872,7,,,,,,,37,0,Vrouw,Rechts,2,
,xotask,dotcolour,dotcolour,51,4,291,591,main,negativefb,-99,average,,0.7009576999998899,['n'],1,right,['2'],5,0.06343590000005861,15,,,,,,,37,0,Vrouw,Rechts,2,
,xotask,dotcolour,dotcolour,52,4,292,592,main,negativefb,-99,average,,0.7332482000001619,['c'],1,left,['2'],5,0.0321564999999282,62,,,,,,,37,0,Vrouw,Rechts,2,
,xotask,dotcolour,dotcolour,53,4,293,593,main,negativefb,-99,easy,,0.518248500000027,['n'],1,right,['2'],5,0.06744539999999688,6,,,,,,,37,0,Vrouw,Rechts,2,
,xotask,dotcolour,dotcolour,54,4,294,594,main,negativefb,-99,hard,,0.9667441999999937,['n'],1,right,['2'],5,0.3387923000000228,28,,,,,,,37,0,Vrouw,Rechts,2,
,xotask,dotcolour,dotcolour,55,4,295,595,main,negativefb,-99,average,,0.684639099999913,['n'],1,right,['3'],4,0.17879830000038055,19,,,,,,,37,0,Vrouw,Rechts,2,
,xotask,dotcolour,dotcolour,56,4,296,596,main,negativefb,-99,average,,0.8845986999999695,['n'],1,right,['2'],5,0.03276510000023336,15,,,,,,,37,0,Vrouw,Rechts,2,
,xotask,dotcolour,dotcolour,57,4,297,597,main,negativefb,-99,hard,,0.6339304999996784,['c'],1,left,['2'],5,0.01521679999996195,50,,,,,,,37,0,Vrouw,Rechts,2,
,xotask,dotcolour,dotcolour,58,4,298,598,main,negativefb,-99,easy,,0.7335866999997052,['n'],0,left,['2'],5,0.02591630000006262,70,,,,,,,37,0,Vrouw,Rechts,2,
,xotask,dotcolour,dotcolour,59,4,299,599,main,negativefb,-99,average,,0.8340188999995917,['n'],1,right,['2'],5,0.9601618000001508,15,,,,,,,37,0,Vrouw,Rechts,2,
,dotcolour,dotcolour,dotcolour,0,0,0,600,training,negativefb,67,easy,61,0.8680715000000419,['c'],1,left,['2'],5,1.0156151000001046,,,,,,,,37,0,Vrouw,Rechts,2,
,dotcolour,dotcolour,dotcolour,1,0,1,601,training,negativefb,55,hard,44,0.6499621999996634,['c'],1,left,['2'],5,0.5326358000002074,,,,,,,,37,0,Vrouw,Rechts,2,
,dotcolour,dotcolour,dotcolour,2,0,2,602,training,negativefb,72,hard,45,0.7664653000001636,['c'],1,left,['2'],5,0.4000576000003093,,,,,,,,37,0,Vrouw,Rechts,2,
,dotcolour,dotcolour,dotcolour,3,0,3,603,training,negativefb,56,average,29,1.149587999999767,['n'],1,right,['1'],6,0.5067203000003246,,,,,,,,37,0,Vrouw,Rechts,2,
,dotcolour,dotcolour,dotcolour,4,0,4,604,training,negativefb,68,hard,36,0.5337346999999681,['n'],1,right,['2'],5,0.08855560000029072,,,,,,,,37,0,Vrouw,Rechts,2,
,dotcolour,dotcolour,dotcolour,5,0,5,605,training,negativefb,85,hard,44,0.566332699999748,['n'],0,left,['2'],5,0.25553869999976087,,,,,,,,37,0,Vrouw,Rechts,2,
,dotcolour,dotcolour,dotcolour,6,0,6,606,training,negativefb,48,average,52,0.5832064999999602,['n'],0,left,['2'],5,0.18176939999966635,,,,,,,,37,0,Vrouw,Rechts,2,
,dotcolour,dotcolour,dotcolour,7,0,7,607,training,negativefb,44,hard,35,0.6498544000000948,['n'],1,right,['1'],6,0.39635820000012245,,,,,,,,37,0,Vrouw,Rechts,2,
,dotcolour,dotcolour,dotcolour,8,0,8,608,training,negativefb,86,average,27,0.783704200000102,['n'],1,right,['1'],6,0.24608059999991383,,,,,,,,37,0,Vrouw,Rechts,2,
,dotcolour,dotcolour,dotcolour,9,0,9,609,training,negativefb,31,hard,42,0.48465010000018083,['n'],0,left,['2'],5,0.24871280000024854,,,,,,,,37,0,Vrouw,Rechts,2,
,dotcolour,dotcolour,dotcolour,10,0,10,610,training,negativefb,70,easy,65,0.43304540000008274,['c'],1,left,['1'],6,0.2695247000001473,,,,,,,,37,0,Vrouw,Rechts,2,
,dotcolour,dotcolour,dotcolour,11,0,11,611,training,negativefb,61,average,25,0.5335141000000476,['n'],1,right,['2'],5,0.07735049999973853,,,,,,,,37,0,Vrouw,Rechts,2,
,dotcolour,dotcolour,dotcolour,12,0,12,612,training,negativefb,65,easy,16,0.5336465999998836,['n'],1,right,['1'],6,0.08607900000015434,,,,,,,,37,0,Vrouw,Rechts,2,
,dotcolour,dotcolour,dotcolour,13,0,13,613,training,negativefb,65,hard,43,0.531844799999817,['n'],0,left,['2'],5,0.14105749999998807,,,,,,,,37,0,Vrouw,Rechts,2,
,dotcolour,dotcolour,dotcolour,14,0,14,614,training,negativefb,85,easy,62,0.6333591000002343,['c'],1,left,['1'],6,0.23049780000019382,,,,,,,,37,0,Vrouw,Rechts,2,
,dotcolour,dotcolour,dotcolour,15,0,15,615,training,negativefb,65,easy,62,0.683061600000201,['c'],1,left,['1'],6,0.10637190000034025,,,,,,,,37,0,Vrouw,Rechts,2,
,dotcolour,dotcolour,dotcolour,16,0,16,616,training,negativefb,48,easy,17,0.34897319999981846,['n'],1,right,['1'],6,0.03257489999987229,,,,,,,,37,0,Vrouw,Rechts,2,
,dotcolour,dotcolour,dotcolour,17,0,17,617,training,negativefb,53,average,28,0.4002049000000625,['n'],1,right,['1'],6,0.04669980000016949,,,,,,,,37,0,Vrouw,Rechts,2,
,dotcolour,dotcolour,dotcolour,18,0,18,618,training,negativefb,44,average,55,0.5004503999998633,['n'],0,left,['1'],6,0.08184149999988222,,,,,,,,37,0,Vrouw,Rechts,2,
