starttime,task,fbtask,firsttask,withinblocktrial,block,withintasktrial,trial,running,feedback,fbscore,difflevel,reddots,rt,resp,cor,cresp,conf_press,cj,RTconf,n_xes,post1,post2,post3,post4,post5,stoptime,sub,age,gender,handedness,session,
1715335038,dotcolour,dotcolour,xotask,0,0,0,0,training,positivefb,82,hard,43,2.617542699999831,['n'],0,left,['3'],4,0.15752380000049016,,,,,,,,6,18,Man,Links,2,
,dotcolour,dotcolour,xotask,1,0,1,1,training,positivefb,89,hard,43,1.3177396999999473,['n'],0,left,['3'],4,0.13949109999884968,,,,,,,,6,18,Man,Links,2,
,dotcolour,dotcolour,xotask,2,0,2,2,training,positivefb,91,hard,36,1.0161109000000579,['c'],0,right,['3'],4,0.09296360000007553,,,,,,,,6,18,Man,Links,2,
,dotcolour,dotcolour,xotask,3,0,3,3,training,positivefb,96,average,29,1.0176699000003282,['n'],1,right,['2'],5,0.137024300000121,,,,,,,,6,18,Man,Links,2,
,dotcolour,dotcolour,xotask,4,0,4,4,training,positivefb,92,average,54,0.8173870999999053,['c'],1,left,['2'],5,0.17973200000051293,,,,,,,,6,18,Man,Links,2,
,dotcolour,dotcolour,xotask,5,0,5,5,training,positivefb,93,average,55,0.6999820000000909,['c'],1,left,['3'],4,0.12093169999934616,,,,,,,,6,18,Man,Links,2,
,dotcolour,dotcolour,xotask,6,0,6,6,training,positivefb,93,average,54,0.7836857000002055,['c'],1,left,['2'],5,0.17282739999973273,,,,,,,,6,18,Man,Links,2,
,dotcolour,dotcolour,xotask,7,0,7,7,training,positivefb,92,average,55,0.7827425000014046,['c'],1,left,['1'],6,0.18273989999943296,,,,,,,,6,18,Man,Links,2,
,dotcolour,dotcolour,xotask,8,0,8,8,training,positivefb,95,average,28,0.6170531000007031,['n'],1,right,['1'],6,0.15091629999915313,,,,,,,,6,18,Man,Links,2,
,dotcolour,dotcolour,xotask,9,0,9,9,training,positivefb,98,easy,19,0.566456599999583,['n'],1,right,"['1', '2']",6,0.2020223999988957,,,,,,,,6,18,Man,Links,2,
,dotcolour,dotcolour,xotask,10,0,10,10,training,positivefb,91,average,26,0.6171283999992738,['n'],1,right,['1'],6,0.1295709000005445,,,,,,,,6,18,Man,Links,2,
,dotcolour,dotcolour,xotask,11,0,11,11,training,positivefb,86,hard,43,1.2663514000014402,['c'],1,left,['3'],4,0.1136157999990246,,,,,,,,6,18,Man,Links,2,
,dotcolour,dotcolour,xotask,12,0,12,12,training,positivefb,94,hard,39,0.8346693999992567,['c'],0,right,['3'],4,0.14087130000007164,,,,,,,,6,18,Man,Links,2,
,dotcolour,dotcolour,xotask,13,0,13,13,training,positivefb,94,hard,38,1.1334613999988505,['c'],0,right,['2'],5,0.17833489999975427,,,,,,,,6,18,Man,Links,2,
,dotcolour,dotcolour,xotask,14,0,14,14,training,positivefb,100,easy,19,0.48340099999950326,['n'],1,right,['1'],6,0.6242629999997007,,,,,,,,6,18,Man,Links,2,
,dotcolour,dotcolour,xotask,15,0,15,15,training,positivefb,87,hard,45,0.716573800000333,['c'],1,left,['1'],6,0.12276380000002973,,,,,,,,6,18,Man,Links,2,
,dotcolour,dotcolour,xotask,16,0,16,16,training,positivefb,90,average,53,0.8005056000001787,['c'],1,left,['1'],6,0.16648309999982303,,,,,,,,6,18,Man,Links,2,
,dotcolour,dotcolour,xotask,17,0,17,17,training,positivefb,98,easy,17,0.8179144000005181,['n'],1,right,['1'],6,0.24692849999883038,,,,,,,,6,18,Man,Links,2,
,dotcolour,dotcolour,xotask,18,0,18,18,training,positivefb,88,hard,41,0.7669915999995283,['c'],1,left,['1'],6,0.21491429999878164,,,,,,,,6,18,Man,Links,2,
,dotcolour,dotcolour,xotask,19,0,19,19,training,positivefb,68,hard,38,0.8835540000000037,['c'],0,right,['2'],5,0.18698030000086874,,,,,,,,6,18,Man,Links,2,
,dotcolour,dotcolour,xotask,20,0,20,20,training,positivefb,88,hard,45,0.8339083999999275,['c'],1,left,['2'],5,0.19365209999887156,,,,,,,,6,18,Man,Links,2,
,dotcolour,dotcolour,xotask,21,0,21,21,training,positivefb,99,average,27,0.5669957000009163,['n'],1,right,['1'],6,0.13243109999893932,,,,,,,,6,18,Man,Links,2,
,dotcolour,dotcolour,xotask,22,0,22,22,training,positivefb,95,average,53,0.6001603999993677,['c'],1,left,['1'],6,0.1667605000002368,,,,,,,,6,18,Man,Links,2,
,dotcolour,dotcolour,xotask,23,0,23,23,training,positivefb,96,easy,15,0.5836983999997756,['n'],1,right,['1'],6,0.12864559999979974,,,,,,,,6,18,Man,Links,2,
,dotcolour,dotcolour,xotask,24,0,24,24,training,positivefb,96,average,26,0.6667839999990974,['n'],1,right,['1'],6,0.16902400000071793,,,,,,,,6,18,Man,Links,2,
,dotcolour,dotcolour,xotask,25,0,25,25,training,positivefb,91,average,55,0.6167651000014303,['c'],1,left,['1'],6,0.17874570000094536,,,,,,,,6,18,Man,Links,2,
,dotcolour,dotcolour,xotask,26,0,26,26,training,positivefb,91,average,51,0.7512769999993907,['c'],1,left,['1'],6,0.1418599999997241,,,,,,,,6,18,Man,Links,2,
,dotcolour,dotcolour,xotask,27,0,27,27,training,positivefb,95,hard,45,0.8174979999985226,['c'],1,left,['2'],5,0.128012299999682,,,,,,,,6,18,Man,Links,2,
,dotcolour,dotcolour,xotask,28,0,28,28,training,positivefb,98,easy,64,0.5495373000012478,['c'],1,left,['1'],6,0.18162389999997686,,,,,,,,6,18,Man,Links,2,
,dotcolour,dotcolour,xotask,29,0,29,29,training,positivefb,57,hard,39,1.8008057000006374,['c'],0,right,['3'],4,0.253421100000196,,,,,,,,6,18,Man,Links,2,
,dotcolour,dotcolour,xotask,30,0,30,30,training,positivefb,92,hard,44,1.300582800000484,['n'],0,left,['2'],5,0.3832161999998789,,,,,,,,6,18,Man,Links,2,
,dotcolour,dotcolour,xotask,31,0,31,31,training,positivefb,97,hard,37,0.7335961000007956,['n'],1,right,['2'],5,0.14624489999914658,,,,,,,,6,18,Man,Links,2,
,dotcolour,dotcolour,xotask,32,0,32,32,training,positivefb,98,easy,64,0.7011702999989211,['c'],1,left,['1'],6,0.14555099999961385,,,,,,,,6,18,Man,Links,2,
,dotcolour,dotcolour,xotask,33,0,33,33,training,positivefb,92,easy,16,0.5329203999990568,['n'],1,right,['1'],6,0.13487639999948442,,,,,,,,6,18,Man,Links,2,
,dotcolour,dotcolour,xotask,34,0,34,34,training,positivefb,92,easy,17,0.532630199999403,['n'],1,right,['1'],6,0.13182640000013635,,,,,,,,6,18,Man,Links,2,
,dotcolour,dotcolour,xotask,35,0,35,35,training,positivefb,89,hard,39,1.167210100000375,['n'],1,right,['8'],3,0.03985370000009425,,,,,,,,6,18,Man,Links,2,
,dotcolour,dotcolour,xotask,36,0,36,36,training,positivefb,93,easy,62,0.8006705999996484,['c'],1,left,['2'],5,0.11101749999943422,,,,,,,,6,18,Man,Links,2,
,dotcolour,dotcolour,xotask,37,0,37,37,training,positivefb,98,average,29,0.5663344999993569,['n'],1,right,['1'],6,0.19601399999919522,,,,,,,,6,18,Man,Links,2,
,dotcolour,dotcolour,xotask,38,0,38,38,training,positivefb,92,easy,19,0.5171475999995891,['n'],1,right,['1'],6,0.09708859999955166,,,,,,,,6,18,Man,Links,2,
,dotcolour,dotcolour,xotask,39,0,39,39,training,positivefb,85,average,27,1.2986181000014767,['c'],0,right,['8'],3,0.08884500000021944,,,,,,,,6,18,Man,Links,2,
,dotcolour,dotcolour,xotask,40,0,40,40,training,positivefb,83,easy,62,1.2825764999997773,['c'],1,left,['2'],5,0.298298399999112,,,,,,,,6,18,Man,Links,2,
,dotcolour,dotcolour,xotask,41,0,41,41,training,positivefb,94,average,51,0.6671250999988843,['c'],1,left,['2'],5,0.1077356999994663,,,,,,,,6,18,Man,Links,2,
,dotcolour,dotcolour,xotask,42,0,42,42,training,positivefb,99,easy,63,0.6009477000006882,['c'],1,left,['1'],6,0.15091930000016873,,,,,,,,6,18,Man,Links,2,
,dotcolour,dotcolour,xotask,43,0,43,43,training,positivefb,84,hard,37,0.6998115000005782,['n'],1,right,['1'],6,0.09351450000031036,,,,,,,,6,18,Man,Links,2,
,dotcolour,dotcolour,xotask,44,0,44,44,training,positivefb,97,average,29,0.5678430999996635,['n'],1,right,['1'],6,0.09139780000077735,,,,,,,,6,18,Man,Links,2,
,dotcolour,dotcolour,xotask,45,0,45,45,training,positivefb,83,hard,44,0.9330511999996816,['n'],0,left,['2'],5,0.1310392999985197,,,,,,,,6,18,Man,Links,2,
,dotcolour,dotcolour,xotask,46,0,46,46,training,positivefb,89,easy,64,0.6998975999995309,['c'],1,left,['1'],6,0.1866349000010814,,,,,,,,6,18,Man,Links,2,
,dotcolour,dotcolour,xotask,47,0,47,47,training,positivefb,96,easy,62,0.61666409999998,['c'],1,left,['2'],5,0.1542070000014064,,,,,,,,6,18,Man,Links,2,
,dotcolour,dotcolour,xotask,48,0,48,48,training,positivefb,97,easy,62,0.7330043000001751,['c'],1,left,['1'],6,0.15933580000091752,,,,,,,,6,18,Man,Links,2,
,dotcolour,dotcolour,xotask,49,0,49,49,training,positivefb,95,easy,16,0.6995549000002939,['n'],1,right,['1'],6,0.21312159999979485,,,,,,,,6,18,Man,Links,2,
,dotcolour,dotcolour,xotask,50,0,50,50,training,positivefb,90,hard,35,0.7834676999991643,['n'],1,right,['1'],6,0.12524049999956333,,,,,,,,6,18,Man,Links,2,
,dotcolour,dotcolour,xotask,51,0,51,51,training,positivefb,97,easy,16,0.599622100000488,['n'],1,right,['1'],6,0.09654020000016317,,,,,,,,6,18,Man,Links,2,
,dotcolour,dotcolour,xotask,52,0,52,52,training,positivefb,90,average,51,0.7517270999996981,['n'],0,left,['2'],5,0.07201239999994868,,,,,,,,6,18,Man,Links,2,
,dotcolour,dotcolour,xotask,53,0,53,53,training,positivefb,93,easy,63,0.8996079999997164,['c'],1,left,['1'],6,0.16949270000077377,,,,,,,,6,18,Man,Links,2,
,dotcolour,dotcolour,xotask,54,0,54,54,training,positivefb,96,easy,16,0.5336936000003334,['n'],1,right,['1'],6,0.10891149999952177,,,,,,,,6,18,Man,Links,2,
,dotcolour,dotcolour,xotask,55,0,55,55,training,positivefb,93,hard,38,0.9161141000004136,['n'],1,right,['1'],6,0.11702000000150292,,,,,,,,6,18,Man,Links,2,
,dotcolour,dotcolour,xotask,56,0,56,56,training,positivefb,97,average,27,0.550998000000618,['n'],1,right,['1'],6,0.10584039999957895,,,,,,,,6,18,Man,Links,2,
,dotcolour,dotcolour,xotask,57,0,57,57,training,positivefb,96,hard,44,0.8336729000002379,['c'],1,left,['2'],5,0.14858969999841065,,,,,,,,6,18,Man,Links,2,
,dotcolour,dotcolour,xotask,58,0,58,58,training,positivefb,96,easy,64,0.7338976999999431,['c'],1,left,['2'],5,0.1369737000004534,,,,,,,,6,18,Man,Links,2,
,dotcolour,dotcolour,xotask,59,0,59,59,training,positivefb,98,average,26,0.6002951999998913,['n'],1,right,['1'],6,0.1001907999998366,,,,,,,,6,18,Man,Links,2,
,dotcolour,dotcolour,xotask,0,1,60,60,training,positivefb,91,hard,45,0.7177212000005966,['n'],0,left,['1'],6,0.0706054000002041,,,,,,,,6,18,Man,Links,2,
,dotcolour,dotcolour,xotask,1,1,61,61,training,positivefb,88,hard,36,1.050169400001323,['n'],1,right,['2'],5,0.0735939000005601,,,,,,,,6,18,Man,Links,2,
,dotcolour,dotcolour,xotask,2,1,62,62,training,positivefb,95,average,29,0.6169281000002229,['n'],1,right,['1'],6,0.06306620000032126,,,,,,,,6,18,Man,Links,2,
,dotcolour,dotcolour,xotask,3,1,63,63,training,positivefb,96,average,55,0.5998598000005586,['c'],1,left,['1'],6,0.12431969999852299,,,,,,,,6,18,Man,Links,2,
,dotcolour,dotcolour,xotask,4,1,64,64,training,positivefb,98,easy,65,0.5657828000003065,['c'],1,left,['1'],6,0.1452583999998751,,,,,,,,6,18,Man,Links,2,
,dotcolour,dotcolour,xotask,5,1,65,65,training,positivefb,75,average,52,0.7835639000004448,['c'],1,left,['1'],6,0.42037100000015926,,,,,,,,6,18,Man,Links,2,
,dotcolour,dotcolour,xotask,6,1,66,66,training,positivefb,87,hard,41,0.6999830000004295,['n'],0,left,['1'],6,0.09581299999990733,,,,,,,,6,18,Man,Links,2,
,dotcolour,dotcolour,xotask,7,1,67,67,training,positivefb,97,average,28,0.5506573999991815,['n'],1,right,['1'],6,0.0866277999994054,,,,,,,,6,18,Man,Links,2,
,dotcolour,dotcolour,xotask,8,1,68,68,training,positivefb,95,hard,36,0.6000588000006246,['n'],1,right,['1'],6,0.08332239999981539,,,,,,,,6,18,Man,Links,2,
,dotcolour,dotcolour,xotask,9,1,69,69,training,positivefb,93,hard,45,0.7675211999994644,['n'],0,left,['8'],3,0.04896569999982603,,,,,,,,6,18,Man,Links,2,
,dotcolour,dotcolour,xotask,10,1,70,70,training,positivefb,90,hard,35,0.6834339999986696,['n'],1,right,['1'],6,0.10015240000029735,,,,,,,,6,18,Man,Links,2,
,dotcolour,dotcolour,xotask,11,1,71,71,training,positivefb,87,average,54,0.7181795999986207,['c'],1,left,['1'],6,0.11498930000016117,,,,,,,,6,18,Man,Links,2,
,dotcolour,dotcolour,xotask,12,1,72,72,training,positivefb,94,easy,62,0.6327748000003339,['c'],1,left,['1'],6,0.12466219999987516,,,,,,,,6,18,Man,Links,2,
,dotcolour,dotcolour,xotask,13,1,73,73,training,positivefb,90,hard,42,0.6667583999987983,['n'],0,left,['1'],6,0.0779608000011649,,,,,,,,6,18,Man,Links,2,
,dotcolour,dotcolour,xotask,14,1,74,74,training,positivefb,92,average,54,0.6324182000007568,['c'],1,left,['1'],6,0.11413180000090506,,,,,,,,6,18,Man,Links,2,
,dotcolour,dotcolour,xotask,15,1,75,75,training,positivefb,94,easy,19,0.7004606999998941,['n'],1,right,['1'],6,0.08144419999916863,,,,,,,,6,18,Man,Links,2,
,dotcolour,dotcolour,xotask,16,1,76,76,training,positivefb,80,average,51,0.7497743000003538,['n'],0,left,['1'],6,0.05666659999951662,,,,,,,,6,18,Man,Links,2,
,dotcolour,dotcolour,xotask,17,1,77,77,training,positivefb,93,average,54,0.6180017999995471,['c'],1,left,['1'],6,0.1260147999983019,,,,,,,,6,18,Man,Links,2,
,dotcolour,dotcolour,xotask,18,1,78,78,training,positivefb,97,easy,18,0.5675418999999238,['n'],1,right,['1'],6,0.11448790000031295,,,,,,,,6,18,Man,Links,2,
,dotcolour,dotcolour,xotask,19,1,79,79,training,positivefb,98,easy,16,0.5172351000001072,['n'],1,right,['1'],6,0.08918999999877997,,,,,,,,6,18,Man,Links,2,
,dotcolour,dotcolour,xotask,20,1,80,80,training,positivefb,98,easy,17,0.5675902999992104,['n'],1,right,['1'],6,0.11879790000057255,,,,,,,,6,18,Man,Links,2,
,dotcolour,dotcolour,xotask,21,1,81,81,training,positivefb,96,hard,39,0.7175982999997359,['n'],1,right,['1'],6,0.08620359999986249,,,,,,,,6,18,Man,Links,2,
,dotcolour,dotcolour,xotask,22,1,82,82,training,positivefb,93,hard,43,0.749421300000904,['c'],1,left,['1'],6,0.10070679999989807,,,,,,,,6,18,Man,Links,2,
,dotcolour,dotcolour,xotask,23,1,83,83,training,positivefb,94,average,29,0.6827892999990581,['n'],1,right,['1'],6,0.0528969999995752,,,,,,,,6,18,Man,Links,2,
,dotcolour,dotcolour,xotask,24,1,84,84,training,positivefb,94,average,26,0.5493714999993244,['n'],1,right,['1'],6,0.11736519999976736,,,,,,,,6,18,Man,Links,2,
,dotcolour,dotcolour,xotask,25,1,85,85,training,positivefb,84,hard,43,2.1337913000006665,['c'],1,left,['8'],3,0.043532200001209276,,,,,,,,6,18,Man,Links,2,
,dotcolour,dotcolour,xotask,26,1,86,86,training,positivefb,95,hard,37,0.9163898000006157,['n'],1,right,['1'],6,0.0454598000014812,,,,,,,,6,18,Man,Links,2,
,dotcolour,dotcolour,xotask,27,1,87,87,training,positivefb,96,average,27,0.49923479999961273,['n'],1,right,['1'],6,0.08027009999932488,,,,,,,,6,18,Man,Links,2,
,dotcolour,dotcolour,xotask,28,1,88,88,training,positivefb,97,average,26,0.5328693999999814,['n'],1,right,['1'],6,0.07225090000065393,,,,,,,,6,18,Man,Links,2,
,dotcolour,dotcolour,xotask,29,1,89,89,training,positivefb,99,average,55,0.5674651999997877,['c'],1,left,['1'],6,0.1110463000004529,,,,,,,,6,18,Man,Links,2,
,dotcolour,dotcolour,xotask,30,1,90,90,training,positivefb,87,average,27,0.6673028000004706,['n'],1,right,['1'],6,0.06410620000133349,,,,,,,,6,18,Man,Links,2,
,dotcolour,dotcolour,xotask,31,1,91,91,training,positivefb,90,average,28,0.6001909999995405,['n'],1,right,['1'],6,0.06984420000117098,,,,,,,,6,18,Man,Links,2,
,dotcolour,dotcolour,xotask,32,1,92,92,training,positivefb,96,hard,41,0.6333353000009083,['c'],1,left,['1'],6,0.0819816000002902,,,,,,,,6,18,Man,Links,2,
,dotcolour,dotcolour,xotask,33,1,93,93,training,positivefb,96,easy,16,0.5167782000007719,['n'],1,right,['1'],6,0.0498795000003156,,,,,,,,6,18,Man,Links,2,
,dotcolour,dotcolour,xotask,34,1,94,94,training,positivefb,79,easy,18,2.016679899999872,['n'],1,right,['1'],6,0.08011619999888353,,,,,,,,6,18,Man,Links,2,
,dotcolour,dotcolour,xotask,35,1,95,95,training,positivefb,96,easy,61,0.46688240000003134,['c'],1,left,['1'],6,0.05001139999876614,,,,,,,,6,18,Man,Links,2,
,dotcolour,dotcolour,xotask,36,1,96,96,training,positivefb,96,easy,19,0.8173199000011664,['n'],1,right,['1'],6,0.06378000000040629,,,,,,,,6,18,Man,Links,2,
,dotcolour,dotcolour,xotask,37,1,97,97,training,positivefb,95,easy,63,0.9832538999999088,['c'],1,left,['2'],5,0.11827340000127151,,,,,,,,6,18,Man,Links,2,
,dotcolour,dotcolour,xotask,38,1,98,98,training,positivefb,96,average,27,0.5833013999999821,['n'],1,right,['1'],6,0.05865749999975378,,,,,,,,6,18,Man,Links,2,
,dotcolour,dotcolour,xotask,39,1,99,99,training,positivefb,85,easy,65,0.6498584000000847,['c'],1,left,['1'],6,0.09359609999955865,,,,,,,,6,18,Man,Links,2,
,dotcolour,dotcolour,xotask,40,1,100,100,training,positivefb,95,hard,45,0.7498051000002306,['c'],1,left,['1'],6,0.10928290000083507,,,,,,,,6,18,Man,Links,2,
,dotcolour,dotcolour,xotask,41,1,101,101,training,positivefb,95,easy,65,0.6833579000012833,['c'],1,left,['1'],6,0.09365249999973457,,,,,,,,6,18,Man,Links,2,
,dotcolour,dotcolour,xotask,42,1,102,102,training,positivefb,91,hard,41,0.7503286000010121,['n'],0,left,['1'],6,0.06862139999975625,,,,,,,,6,18,Man,Links,2,
,dotcolour,dotcolour,xotask,43,1,103,103,training,positivefb,87,average,52,1.8825759999999718,['c'],1,left,['8'],3,0.030498400001306436,,,,,,,,6,18,Man,Links,2,
,dotcolour,dotcolour,xotask,44,1,104,104,training,positivefb,95,hard,37,0.8496880999991845,['n'],1,right,['8'],3,0.05130040000040026,,,,,,,,6,18,Man,Links,2,
,dotcolour,dotcolour,xotask,45,1,105,105,training,positivefb,92,easy,18,0.6998215000003256,['c'],0,right,['1'],6,0.10129990000132238,,,,,,,,6,18,Man,Links,2,
,dotcolour,dotcolour,xotask,46,1,106,106,training,positivefb,86,hard,36,0.751522999998997,['c'],0,right,['1'],6,0.09222810000028403,,,,,,,,6,18,Man,Links,2,
,dotcolour,dotcolour,xotask,47,1,107,107,training,positivefb,91,easy,17,0.8997039000005316,['n'],1,right,['1'],6,0.1400897999992594,,,,,,,,6,18,Man,Links,2,
,dotcolour,dotcolour,xotask,48,1,108,108,training,positivefb,89,hard,43,1.2335184999992634,['c'],1,left,['0'],1,0.0383600999994087,,,,,,,,6,18,Man,Links,2,
,dotcolour,dotcolour,xotask,49,1,109,109,training,positivefb,95,easy,62,0.8998931000005541,['c'],1,left,['1'],6,0.09595330000047397,,,,,,,,6,18,Man,Links,2,
,dotcolour,dotcolour,xotask,50,1,110,110,training,positivefb,79,average,51,0.8163955999989412,['c'],1,left,['1'],6,0.116221600001154,,,,,,,,6,18,Man,Links,2,
,dotcolour,dotcolour,xotask,51,1,111,111,training,positivefb,85,hard,35,1.2831348999989132,['n'],1,right,['8'],3,0.044709600000715,,,,,,,,6,18,Man,Links,2,
,dotcolour,dotcolour,xotask,52,1,112,112,training,positivefb,91,easy,64,0.6322247999996762,['c'],1,left,['1'],6,0.0813216000005923,,,,,,,,6,18,Man,Links,2,
,dotcolour,dotcolour,xotask,53,1,113,113,training,positivefb,99,easy,62,0.483430700000099,['c'],1,left,['1'],6,0.106386499999644,,,,,,,,6,18,Man,Links,2,
,dotcolour,dotcolour,xotask,54,1,114,114,training,positivefb,96,hard,35,0.8008121000002575,['n'],1,right,['1'],6,0.49529360000087763,,,,,,,,6,18,Man,Links,2,
,dotcolour,dotcolour,xotask,55,1,115,115,training,positivefb,96,easy,19,0.6336977000009938,['n'],1,right,['1'],6,0.050517899999249494,,,,,,,,6,18,Man,Links,2,
,dotcolour,dotcolour,xotask,56,1,116,116,training,positivefb,98,average,54,0.5667014000009658,['c'],1,left,['1'],6,0.09738360000119428,,,,,,,,6,18,Man,Links,2,
,dotcolour,dotcolour,xotask,57,1,117,117,training,positivefb,93,average,25,0.6167503000015131,['n'],1,right,['1'],6,0.062043900001299335,,,,,,,,6,18,Man,Links,2,
,dotcolour,dotcolour,xotask,58,1,118,118,training,positivefb,94,hard,38,1.1333066999995935,['c'],0,right,['8'],3,0.11854700000003504,,,,,,,,6,18,Man,Links,2,
,dotcolour,dotcolour,xotask,59,1,119,119,training,positivefb,93,easy,65,1.23458810000011,['c'],1,left,['1'],6,0.10442420000072161,,,,,,,,6,18,Man,Links,2,
,xotask,dotcolour,xotask,0,2,120,120,main,positivefb,-99,easy,,0.8510138999990886,['n'],1,right,['1'],6,0.09942880000016885,9,,,,,,,6,18,Man,Links,2,
,xotask,dotcolour,xotask,1,2,121,121,main,positivefb,-99,hard,,0.8337239000011323,['n'],1,right,['1'],6,0.06300000000010186,26,,,,,,,6,18,Man,Links,2,
,xotask,dotcolour,xotask,2,2,122,122,main,positivefb,-99,average,,0.867938100000174,['c'],1,left,['1'],6,0.08348579999983485,60,,,,,,,6,18,Man,Links,2,
,xotask,dotcolour,xotask,3,2,123,123,main,positivefb,-99,average,,0.984687699999995,['c'],1,left,['1'],6,0.15276540000013483,62,,,,,,,6,18,Man,Links,2,
,xotask,dotcolour,xotask,4,2,124,124,main,positivefb,-99,average,,1.3841252000001987,['c'],1,left,['2'],5,0.3004505999997491,62,,,,,,,6,18,Man,Links,2,
,xotask,dotcolour,xotask,5,2,125,125,main,positivefb,-99,average,,1.067426700001306,['n'],1,right,['1'],6,0.08662530000037805,19,,,,,,,6,18,Man,Links,2,
,xotask,dotcolour,xotask,6,2,126,126,main,positivefb,-99,easy,,0.7013428999998723,['n'],1,right,['1'],6,0.09576319999905536,8,,,,,,,6,18,Man,Links,2,
,xotask,dotcolour,xotask,7,2,127,127,main,positivefb,-99,hard,,0.9498082000009163,['n'],1,right,['1'],6,0.078749099999186,26,,,,,,,6,18,Man,Links,2,
,xotask,dotcolour,xotask,8,2,128,128,main,positivefb,-99,hard,,0.9339357999997446,['c'],0,right,['1'],6,0.12034810000113794,28,,,,,,,6,18,Man,Links,2,
,xotask,dotcolour,xotask,9,2,129,129,main,positivefb,-99,easy,,0.90113620000011,['c'],1,left,['3'],4,0.13619549999930314,72,,,,,,,6,18,Man,Links,2,
,xotask,dotcolour,xotask,10,2,130,130,main,positivefb,-99,average,,1.0839440999989165,['n'],0,left,['1'],6,0.008362800001123105,61,,,,,,,6,18,Man,Links,2,
,xotask,dotcolour,xotask,11,2,131,131,main,positivefb,-99,easy,,0.9499436000005517,['c'],1,left,['1'],6,0.11392549999982293,72,,,,,,,6,18,Man,Links,2,
,xotask,dotcolour,xotask,12,2,132,132,main,positivefb,-99,hard,,1.217023799999879,['c'],0,right,['2'],5,0.11787939999885566,26,,,,,,,6,18,Man,Links,2,
,xotask,dotcolour,xotask,13,2,133,133,main,positivefb,-99,hard,,2.000803899998573,['c'],1,left,['3'],4,0.11451250000027358,50,,,,,,,6,18,Man,Links,2,
,xotask,dotcolour,xotask,14,2,134,134,main,positivefb,-99,average,,0.7518461999989086,['n'],1,right,['3'],4,0.2478640000008454,18,,,,,,,6,18,Man,Links,2,
,xotask,dotcolour,xotask,15,2,135,135,main,positivefb,-99,easy,,0.6839153000000806,['n'],1,right,['1'],6,0.12366099999962898,8,,,,,,,6,18,Man,Links,2,
,xotask,dotcolour,xotask,16,2,136,136,main,positivefb,-99,easy,,0.649882499999876,['n'],1,right,['1'],6,0.1501633000007132,9,,,,,,,6,18,Man,Links,2,
,xotask,dotcolour,xotask,17,2,137,137,main,positivefb,-99,average,,0.8174861000006786,['c'],1,left,['8'],3,0.07202869999855466,62,,,,,,,6,18,Man,Links,2,
,xotask,dotcolour,xotask,18,2,138,138,main,positivefb,-99,hard,,0.9000282999986666,['n'],1,right,['2'],5,0.1378538999997545,26,,,,,,,6,18,Man,Links,2,
,xotask,dotcolour,xotask,19,2,139,139,main,positivefb,-99,average,,1.4335603999988962,['c'],1,left,['1'],6,0.11613059999945108,64,,,,,,,6,18,Man,Links,2,
,xotask,dotcolour,xotask,20,2,140,140,main,positivefb,-99,hard,,1.5164406999992934,['c'],1,left,['1'],6,0.13911360000020068,53,,,,,,,6,18,Man,Links,2,
,xotask,dotcolour,xotask,21,2,141,141,main,positivefb,-99,hard,,2.0175794000006135,['n'],0,left,['8'],3,0.06187560000034864,53,,,,,,,6,18,Man,Links,2,
,xotask,dotcolour,xotask,22,2,142,142,main,positivefb,-99,easy,,1.0171960999996372,['c'],1,left,['1'],6,0.09275249999882362,70,,,,,,,6,18,Man,Links,2,
,xotask,dotcolour,xotask,23,2,143,143,main,positivefb,-99,easy,,0.9009752000001754,['c'],1,left,['1'],6,0.17369439999856695,70,,,,,,,6,18,Man,Links,2,
,xotask,dotcolour,xotask,24,2,144,144,main,positivefb,-99,average,,0.9840492000002996,['c'],1,left,['2'],5,0.18399049999970885,61,,,,,,,6,18,Man,Links,2,
,xotask,dotcolour,xotask,25,2,145,145,main,positivefb,-99,average,,0.9343337000009342,['n'],1,right,['2'],5,0.17984609999984968,19,,,,,,,6,18,Man,Links,2,
,xotask,dotcolour,xotask,26,2,146,146,main,positivefb,-99,hard,,1.1836885000011534,['c'],1,left,['2'],5,0.1744487999985722,53,,,,,,,6,18,Man,Links,2,
,xotask,dotcolour,xotask,27,2,147,147,main,positivefb,-99,easy,,0.801453500000207,['n'],1,right,['1'],6,0.21703689999958442,7,,,,,,,6,18,Man,Links,2,
,xotask,dotcolour,xotask,28,2,148,148,main,positivefb,-99,hard,,0.9008997999990243,['c'],1,left,['1'],6,0.2366624000005686,50,,,,,,,6,18,Man,Links,2,
,xotask,dotcolour,xotask,29,2,149,149,main,positivefb,-99,average,,0.8504928999991535,['c'],1,left,['1'],6,0.24200740000014775,64,,,,,,,6,18,Man,Links,2,
,xotask,dotcolour,xotask,30,2,150,150,main,positivefb,-99,hard,,0.6847358000013628,['c'],1,left,['1'],6,0.23823620000075607,54,,,,,,,6,18,Man,Links,2,
,xotask,dotcolour,xotask,31,2,151,151,main,positivefb,-99,hard,,1.8497896999997465,['c'],0,right,['8'],3,0.07500309999886667,29,,,,,,,6,18,Man,Links,2,
,xotask,dotcolour,xotask,32,2,152,152,main,positivefb,-99,easy,,0.8675273999997444,['n'],1,right,['1'],6,0.13437030000022787,6,,,,,,,6,18,Man,Links,2,
,xotask,dotcolour,xotask,33,2,153,153,main,positivefb,-99,average,,0.750910799999474,['n'],1,right,['1'],6,0.09987890000047628,17,,,,,,,6,18,Man,Links,2,
,xotask,dotcolour,xotask,34,2,154,154,main,positivefb,-99,easy,,0.7349874999999884,['n'],1,right,['1'],6,0.11489030000120692,6,,,,,,,6,18,Man,Links,2,
,xotask,dotcolour,xotask,35,2,155,155,main,positivefb,-99,easy,,0.8334049999994022,['n'],1,right,['1'],6,0.08585750000020198,8,,,,,,,6,18,Man,Links,2,
,xotask,dotcolour,xotask,36,2,156,156,main,positivefb,-99,average,,1.0001846000013757,['n'],1,right,['1'],6,0.11524850000023434,16,,,,,,,6,18,Man,Links,2,
,xotask,dotcolour,xotask,37,2,157,157,main,positivefb,-99,hard,,1.567027799999778,['c'],1,left,['2'],5,0.11260129999936908,54,,,,,,,6,18,Man,Links,2,
,xotask,dotcolour,xotask,38,2,158,158,main,positivefb,-99,easy,,0.7340444000001298,['c'],1,left,['2'],5,0.13612859999921056,74,,,,,,,6,18,Man,Links,2,
,xotask,dotcolour,xotask,39,2,159,159,main,positivefb,-99,average,,0.7165014999991399,['n'],1,right,['1'],6,0.11004899999898043,19,,,,,,,6,18,Man,Links,2,
,xotask,dotcolour,xotask,40,2,160,160,main,positivefb,-99,hard,,0.9331514999994397,['c'],1,left,['2'],5,0.12583559999984573,50,,,,,,,6,18,Man,Links,2,
,xotask,dotcolour,xotask,41,2,161,161,main,positivefb,-99,easy,,0.7679517000015039,['n'],1,right,['1'],6,0.11560540000027686,9,,,,,,,6,18,Man,Links,2,
,xotask,dotcolour,xotask,42,2,162,162,main,positivefb,-99,average,,0.6836265999991156,['n'],1,right,['1'],6,0.14008209999883547,16,,,,,,,6,18,Man,Links,2,
,xotask,dotcolour,xotask,43,2,163,163,main,positivefb,-99,hard,,0.700718500000221,['c'],1,left,['2'],5,0.17123329999958514,51,,,,,,,6,18,Man,Links,2,
,xotask,dotcolour,xotask,44,2,164,164,main,positivefb,-99,average,,0.9019380000008823,['c'],1,left,['1'],6,0.12114450000080978,64,,,,,,,6,18,Man,Links,2,
,xotask,dotcolour,xotask,45,2,165,165,main,positivefb,-99,easy,,0.7690480000001116,['n'],1,right,['1'],6,0.10261489999902551,5,,,,,,,6,18,Man,Links,2,
,xotask,dotcolour,xotask,46,2,166,166,main,positivefb,-99,easy,,0.8178607000008924,['c'],1,left,['2'],5,0.5305119000004197,70,,,,,,,6,18,Man,Links,2,
,xotask,dotcolour,xotask,47,2,167,167,main,positivefb,-99,easy,,0.7173369999982242,['c'],1,left,['1'],6,0.09795690000100876,71,,,,,,,6,18,Man,Links,2,
,xotask,dotcolour,xotask,48,2,168,168,main,positivefb,-99,average,,0.6677514999992127,['n'],1,right,['1'],6,0.07599419999860402,18,,,,,,,6,18,Man,Links,2,
,xotask,dotcolour,xotask,49,2,169,169,main,positivefb,-99,easy,,0.6491530999992392,['c'],1,left,['1'],6,0.12004549999983283,71,,,,,,,6,18,Man,Links,2,
,xotask,dotcolour,xotask,50,2,170,170,main,positivefb,-99,easy,,0.8673521000000619,['c'],1,left,['1'],6,0.08079870000074152,74,,,,,,,6,18,Man,Links,2,
,xotask,dotcolour,xotask,51,2,171,171,main,positivefb,-99,hard,,0.8515845999991143,['c'],1,left,['1'],6,0.10880349999933969,50,,,,,,,6,18,Man,Links,2,
,xotask,dotcolour,xotask,52,2,172,172,main,positivefb,-99,average,,0.7506487000009656,['n'],1,right,['1'],6,0.0919506000009278,16,,,,,,,6,18,Man,Links,2,
,xotask,dotcolour,xotask,53,2,173,173,main,positivefb,-99,hard,,0.7840857999999571,['n'],1,right,['1'],6,0.08961259999887261,26,,,,,,,6,18,Man,Links,2,
,xotask,dotcolour,xotask,54,2,174,174,main,positivefb,-99,easy,,0.8677999000010459,['c'],1,left,['1'],6,0.09225329999935639,70,,,,,,,6,18,Man,Links,2,
,xotask,dotcolour,xotask,55,2,175,175,main,positivefb,-99,average,,0.6347807999991346,['n'],1,right,['1'],6,0.08008370000061404,16,,,,,,,6,18,Man,Links,2,
,xotask,dotcolour,xotask,56,2,176,176,main,positivefb,-99,average,,0.9344060999992507,['n'],0,left,['1'],6,0.6406262000000424,64,,,,,,,6,18,Man,Links,2,
,xotask,dotcolour,xotask,57,2,177,177,main,positivefb,-99,hard,,1.4186779000010574,['c'],0,right,['9'],2,0.039469999999710126,29,,,,,,,6,18,Man,Links,2,
,xotask,dotcolour,xotask,58,2,178,178,main,positivefb,-99,hard,,1.150811799998337,['n'],1,right,['1'],6,0.7444694000005256,29,,,,,,,6,18,Man,Links,2,
,xotask,dotcolour,xotask,59,2,179,179,main,positivefb,-99,hard,,0.9506455999999162,['n'],1,right,['1'],6,0.08612320000065665,25,,,,,,,6,18,Man,Links,2,
,xotask,dotcolour,xotask,0,3,180,180,main,positivefb,-99,easy,,0.8841589000003296,['n'],1,right,['1'],6,0.067475400001058,5,,,,,,,6,18,Man,Links,2,
,xotask,dotcolour,xotask,1,3,181,181,main,positivefb,-99,easy,,0.7346790999999939,['c'],1,left,['1'],6,0.10780750000049011,74,,,,,,,6,18,Man,Links,2,
,xotask,dotcolour,xotask,2,3,182,182,main,positivefb,-99,average,,0.8515772999999172,['n'],1,right,['1'],6,0.05430290000003879,17,,,,,,,6,18,Man,Links,2,
,xotask,dotcolour,xotask,3,3,183,183,main,positivefb,-99,average,,0.7684397000011813,['n'],1,right,['1'],6,0.0709286000001157,18,,,,,,,6,18,Man,Links,2,
,xotask,dotcolour,xotask,4,3,184,184,main,positivefb,-99,average,,0.7013585999993666,['c'],1,left,['1'],6,0.11291429999982938,64,,,,,,,6,18,Man,Links,2,
,xotask,dotcolour,xotask,5,3,185,185,main,positivefb,-99,easy,,0.7684764999994513,['c'],1,left,['1'],6,0.11083429999962391,72,,,,,,,6,18,Man,Links,2,
,xotask,dotcolour,xotask,6,3,186,186,main,positivefb,-99,hard,,1.3669019999997545,['n'],0,left,['9'],2,0.06865809999908379,52,,,,,,,6,18,Man,Links,2,
,xotask,dotcolour,xotask,7,3,187,187,main,positivefb,-99,easy,,0.9169841000002634,['n'],1,right,['1'],6,0.08611960000052932,9,,,,,,,6,18,Man,Links,2,
,xotask,dotcolour,xotask,8,3,188,188,main,positivefb,-99,easy,,0.7346111000006204,['n'],1,right,['1'],6,0.0867500000003929,8,,,,,,,6,18,Man,Links,2,
,xotask,dotcolour,xotask,9,3,189,189,main,positivefb,-99,easy,,0.6843575000002602,['n'],1,right,['1'],6,0.040055999999822234,6,,,,,,,6,18,Man,Links,2,
,xotask,dotcolour,xotask,10,3,190,190,main,positivefb,-99,average,,0.8671701999992365,['c'],1,left,['1'],6,0.09291539999867382,62,,,,,,,6,18,Man,Links,2,
,xotask,dotcolour,xotask,11,3,191,191,main,positivefb,-99,average,,1.3174672000004648,['c'],1,left,['2'],5,0.061465400000088266,60,,,,,,,6,18,Man,Links,2,
,xotask,dotcolour,xotask,12,3,192,192,main,positivefb,-99,hard,,1.184163099998841,['c'],1,left,['2'],5,0.06917539999994915,50,,,,,,,6,18,Man,Links,2,
,xotask,dotcolour,xotask,13,3,193,193,main,positivefb,-99,hard,,1.2181710000004387,['c'],1,left,['1'],6,0.09832029999961378,51,,,,,,,6,18,Man,Links,2,
,xotask,dotcolour,xotask,14,3,194,194,main,positivefb,-99,easy,,0.6512890000012703,['n'],1,right,['1'],6,0.06870340000023134,6,,,,,,,6,18,Man,Links,2,
,xotask,dotcolour,xotask,15,3,195,195,main,positivefb,-99,hard,,2.401298200000383,['c'],0,right,['3'],4,0.7791889000000083,29,,,,,,,6,18,Man,Links,2,
,xotask,dotcolour,xotask,16,3,196,196,main,positivefb,-99,average,,1.0344086000004609,['c'],1,left,['2'],5,0.05974690000039118,60,,,,,,,6,18,Man,Links,2,
,xotask,dotcolour,xotask,17,3,197,197,main,positivefb,-99,average,,3.4665306999995664,['n'],1,right,['2'],5,0.055506599999716855,17,,,,,,,6,18,Man,Links,2,
,xotask,dotcolour,xotask,18,3,198,198,main,positivefb,-99,average,,0.934476899999936,['c'],1,left,['1'],6,0.11257579999983136,63,,,,,,,6,18,Man,Links,2,
,xotask,dotcolour,xotask,19,3,199,199,main,positivefb,-99,easy,,0.7827360000010231,['n'],1,right,['1'],6,0.046593400000347174,9,,,,,,,6,18,Man,Links,2,
,xotask,dotcolour,xotask,20,3,200,200,main,positivefb,-99,hard,,2.2501303000008193,['c'],1,left,['2'],5,0.07561280000118131,54,,,,,,,6,18,Man,Links,2,
,xotask,dotcolour,xotask,21,3,201,201,main,positivefb,-99,hard,,1.5677593999989767,['n'],1,right,['2'],5,0.07509840000057011,27,,,,,,,6,18,Man,Links,2,
,xotask,dotcolour,xotask,22,3,202,202,main,positivefb,-99,hard,,0.9171229000003223,['n'],1,right,['1'],6,0.17197159999886935,28,,,,,,,6,18,Man,Links,2,
,xotask,dotcolour,xotask,23,3,203,203,main,positivefb,-99,easy,,0.634602599999198,['c'],1,left,['1'],6,0.15729260000080103,73,,,,,,,6,18,Man,Links,2,
,xotask,dotcolour,xotask,24,3,204,204,main,positivefb,-99,hard,,1.4340783999996347,['c'],1,left,['1'],6,0.23780269999951997,54,,,,,,,6,18,Man,Links,2,
,xotask,dotcolour,xotask,25,3,205,205,main,positivefb,-99,hard,,1.0350479999997333,['n'],1,right,['1'],6,0.091808499999388,26,,,,,,,6,18,Man,Links,2,
,xotask,dotcolour,xotask,26,3,206,206,main,positivefb,-99,average,,0.5684032999997726,['n'],1,right,['1'],6,0.09139379999942321,17,,,,,,,6,18,Man,Links,2,
,xotask,dotcolour,xotask,27,3,207,207,main,positivefb,-99,hard,,1.168720800000301,['c'],0,right,['1'],6,0.11299669999971229,29,,,,,,,6,18,Man,Links,2,
,xotask,dotcolour,xotask,28,3,208,208,main,positivefb,-99,average,,0.9173135999990336,['n'],1,right,['1'],6,0.250140599999213,18,,,,,,,6,18,Man,Links,2,
,xotask,dotcolour,xotask,29,3,209,209,main,positivefb,-99,easy,,0.7020571999983076,['c'],1,left,['1'],6,0.1319357000011223,71,,,,,,,6,18,Man,Links,2,
,xotask,dotcolour,xotask,30,3,210,210,main,positivefb,-99,easy,,0.6350815000005241,['n'],1,right,['1'],6,0.09365930000058142,6,,,,,,,6,18,Man,Links,2,
,xotask,dotcolour,xotask,31,3,211,211,main,positivefb,-99,hard,,1.4850213999998232,['c'],1,left,['1'],6,0.1042674000000261,50,,,,,,,6,18,Man,Links,2,
,xotask,dotcolour,xotask,32,3,212,212,main,positivefb,-99,average,,0.8490550999995321,['n'],1,right,['1'],6,0.11513920000106737,16,,,,,,,6,18,Man,Links,2,
,xotask,dotcolour,xotask,33,3,213,213,main,positivefb,-99,hard,,2.0005051999996795,['n'],0,left,['9'],2,0.4865884000009828,54,,,,,,,6,18,Man,Links,2,
,xotask,dotcolour,xotask,34,3,214,214,main,positivefb,-99,average,,1.5515732999992906,['c'],0,right,['1'],6,0.254397799999424,15,,,,,,,6,18,Man,Links,2,
,xotask,dotcolour,xotask,35,3,215,215,main,positivefb,-99,easy,,0.9669462000001658,['c'],1,left,['1'],6,0.09421020000081626,71,,,,,,,6,18,Man,Links,2,
,xotask,dotcolour,xotask,36,3,216,216,main,positivefb,-99,average,,0.6666662999996333,['c'],1,left,['1'],6,0.10511779999978899,62,,,,,,,6,18,Man,Links,2,
,xotask,dotcolour,xotask,37,3,217,217,main,positivefb,-99,easy,,0.61775100000159,['n'],1,right,['1'],6,0.08463800000026822,9,,,,,,,6,18,Man,Links,2,
,xotask,dotcolour,xotask,38,3,218,218,main,positivefb,-99,hard,,1.2331664000012097,['n'],0,left,['1'],6,0.06543819999933476,50,,,,,,,6,18,Man,Links,2,
,xotask,dotcolour,xotask,39,3,219,219,main,positivefb,-99,average,,0.9513241999993625,['c'],1,left,['1'],6,0.04066640000019106,62,,,,,,,6,18,Man,Links,2,
,xotask,dotcolour,xotask,40,3,220,220,main,positivefb,-99,average,,0.7344491000003472,['n'],1,right,['1'],6,0.3952192000015202,18,,,,,,,6,18,Man,Links,2,
,xotask,dotcolour,xotask,41,3,221,221,main,positivefb,-99,average,,1.367235300000175,['c'],1,left,['2'],5,0.1417168000007223,61,,,,,,,6,18,Man,Links,2,
,xotask,dotcolour,xotask,42,3,222,222,main,positivefb,-99,easy,,0.9008749000004173,['n'],1,right,['3'],4,0.27662319999944884,5,,,,,,,6,18,Man,Links,2,
,xotask,dotcolour,xotask,43,3,223,223,main,positivefb,-99,hard,,0.8845667999994475,['n'],1,right,['2'],5,0.08812369999941438,27,,,,,,,6,18,Man,Links,2,
,xotask,dotcolour,xotask,44,3,224,224,main,positivefb,-99,easy,,0.6505689999994502,['c'],1,left,['1'],6,0.09101449999980105,74,,,,,,,6,18,Man,Links,2,
,xotask,dotcolour,xotask,45,3,225,225,main,positivefb,-99,hard,,0.8340191000006598,['c'],1,left,['1'],6,0.11056459999963408,54,,,,,,,6,18,Man,Links,2,
,xotask,dotcolour,xotask,46,3,226,226,main,positivefb,-99,hard,,0.6006617000002734,['n'],1,right,['1'],6,0.052361000000018976,26,,,,,,,6,18,Man,Links,2,
,xotask,dotcolour,xotask,47,3,227,227,main,positivefb,-99,average,,0.6672161000005872,['n'],1,right,['1'],6,0.03210829999989073,18,,,,,,,6,18,Man,Links,2,
,xotask,dotcolour,xotask,48,3,228,228,main,positivefb,-99,easy,,0.7333264999997482,['c'],1,left,['1'],6,0.10599640000145882,70,,,,,,,6,18,Man,Links,2,
,xotask,dotcolour,xotask,49,3,229,229,main,positivefb,-99,average,,0.567012400000749,['n'],1,right,['1'],6,0.0555026000001817,15,,,,,,,6,18,Man,Links,2,
,xotask,dotcolour,xotask,50,3,230,230,main,positivefb,-99,average,,1.8177023000007466,['c'],1,left,['8'],3,0.09360099999867089,63,,,,,,,6,18,Man,Links,2,
,xotask,dotcolour,xotask,51,3,231,231,main,positivefb,-99,easy,,0.9009406000004674,['n'],1,right,['1'],6,0.05539689999932307,9,,,,,,,6,18,Man,Links,2,
,xotask,dotcolour,xotask,52,3,232,232,main,positivefb,-99,hard,,1.2683699000008346,['c'],0,right,['8'],3,0.01922480000030191,29,,,,,,,6,18,Man,Links,2,
,xotask,dotcolour,xotask,53,3,233,233,main,positivefb,-99,hard,,0.8170814000004611,['n'],1,right,['1'],6,0.09033950000048208,26,,,,,,,6,18,Man,Links,2,
,xotask,dotcolour,xotask,54,3,234,234,main,positivefb,-99,easy,,1.0339905000000726,['c'],1,left,['1'],6,0.15894939999998314,73,,,,,,,6,18,Man,Links,2,
,xotask,dotcolour,xotask,55,3,235,235,main,positivefb,-99,hard,,1.434917000000496,['c'],1,left,['1'],6,0.11934069999915664,51,,,,,,,6,18,Man,Links,2,
,xotask,dotcolour,xotask,56,3,236,236,main,positivefb,-99,easy,,0.9496470000012778,['c'],1,left,['1'],6,0.15765770000143675,74,,,,,,,6,18,Man,Links,2,
,xotask,dotcolour,xotask,57,3,237,237,main,positivefb,-99,average,,1.1515882999992755,['c'],1,left,['1'],6,0.13013930000124674,62,,,,,,,6,18,Man,Links,2,
,xotask,dotcolour,xotask,58,3,238,238,main,positivefb,-99,easy,,0.9174265000001469,['c'],1,left,['2'],5,0.10582330000033835,73,,,,,,,6,18,Man,Links,2,
,xotask,dotcolour,xotask,59,3,239,239,main,positivefb,-99,hard,,1.7009092000007513,['n'],1,right,['3'],4,0.050227300000187824,29,,,,,,,6,18,Man,Links,2,
,xotask,dotcolour,xotask,0,4,240,240,main,positivefb,-99,average,,1.2182941000010032,['n'],1,right,['1'],6,0.07709629999953904,17,,,,,,,6,18,Man,Links,2,
,xotask,dotcolour,xotask,1,4,241,241,main,positivefb,-99,average,,0.8849114000004192,['n'],1,right,['1'],6,0.071936000000278,18,,,,,,,6,18,Man,Links,2,
,xotask,dotcolour,xotask,2,4,242,242,main,positivefb,-99,easy,,0.9853099000010843,['c'],1,left,['1'],6,0.12611800000013318,74,,,,,,,6,18,Man,Links,2,
,xotask,dotcolour,xotask,3,4,243,243,main,positivefb,-99,hard,,0.734343699999954,['c'],1,left,['1'],6,0.13286589999916032,52,,,,,,,6,18,Man,Links,2,
,xotask,dotcolour,xotask,4,4,244,244,main,positivefb,-99,easy,,0.8189167000000452,['c'],1,left,['1'],6,0.103857699999935,72,,,,,,,6,18,Man,Links,2,
,xotask,dotcolour,xotask,5,4,245,245,main,positivefb,-99,hard,,1.6179639999991196,['n'],0,left,['3'],4,0.04435449999982666,51,,,,,,,6,18,Man,Links,2,
,xotask,dotcolour,xotask,6,4,246,246,main,positivefb,-99,average,,0.8002422999998089,['c'],1,left,['1'],6,0.10739699999976438,61,,,,,,,6,18,Man,Links,2,
,xotask,dotcolour,xotask,7,4,247,247,main,positivefb,-99,hard,,0.9351722999999765,['c'],1,left,['1'],6,0.13868679999904998,50,,,,,,,6,18,Man,Links,2,
,xotask,dotcolour,xotask,8,4,248,248,main,positivefb,-99,easy,,0.7346124999985477,['c'],1,left,['1'],6,0.12026089999926626,74,,,,,,,6,18,Man,Links,2,
,xotask,dotcolour,xotask,9,4,249,249,main,positivefb,-99,hard,,0.7837565000008908,['c'],0,right,['1'],6,0.17362409999986994,29,,,,,,,6,18,Man,Links,2,
,xotask,dotcolour,xotask,10,4,250,250,main,positivefb,-99,average,,0.5680851999986771,['n'],1,right,['1'],6,0.09622500000114087,16,,,,,,,6,18,Man,Links,2,
,xotask,dotcolour,xotask,11,4,251,251,main,positivefb,-99,easy,,0.5844672999992326,['n'],1,right,['2'],5,0.12673139999969862,8,,,,,,,6,18,Man,Links,2,
,xotask,dotcolour,xotask,12,4,252,252,main,positivefb,-99,easy,,1.4016091000012239,['c'],1,left,['1'],6,0.12273629999981495,71,,,,,,,6,18,Man,Links,2,
,xotask,dotcolour,xotask,13,4,253,253,main,positivefb,-99,average,,0.8169073000008211,['n'],1,right,"['1', '2']",6,0.07031789999928151,16,,,,,,,6,18,Man,Links,2,
,xotask,dotcolour,xotask,14,4,254,254,main,positivefb,-99,hard,,0.9170267000008607,['c'],1,left,['3'],4,0.10287799999969138,54,,,,,,,6,18,Man,Links,2,
,xotask,dotcolour,xotask,15,4,255,255,main,positivefb,-99,easy,,0.7015255999995134,['c'],1,left,['1'],6,0.1444969999993191,72,,,,,,,6,18,Man,Links,2,
,xotask,dotcolour,xotask,16,4,256,256,main,positivefb,-99,hard,,0.7836157000001549,['c'],1,left,['1'],6,0.1002784000011161,54,,,,,,,6,18,Man,Links,2,
,xotask,dotcolour,xotask,17,4,257,257,main,positivefb,-99,hard,,0.7000234999995882,['n'],1,right,['1'],6,0.11676110000007611,27,,,,,,,6,18,Man,Links,2,
,xotask,dotcolour,xotask,18,4,258,258,main,positivefb,-99,average,,0.9516003999997338,['n'],0,left,['0'],1,3.0909007000009296,63,,,,,,,6,18,Man,Links,2,
,xotask,dotcolour,xotask,19,4,259,259,main,positivefb,-99,hard,,2.4674896000014996,['n'],1,right,['8'],3,0.029440700000122888,29,,,,,,,6,18,Man,Links,2,
,xotask,dotcolour,xotask,20,4,260,260,main,positivefb,-99,hard,,1.8166345999998157,['c'],0,right,['2'],5,0.26083959999959916,26,,,,,,,6,18,Man,Links,2,
,xotask,dotcolour,xotask,21,4,261,261,main,positivefb,-99,average,,0.7339468000009219,['c'],1,left,['2'],5,0.09450340000148572,62,,,,,,,6,18,Man,Links,2,
,xotask,dotcolour,xotask,22,4,262,262,main,positivefb,-99,hard,,1.6013562999996793,['c'],0,right,['1'],6,0.10715459999846644,26,,,,,,,6,18,Man,Links,2,
,xotask,dotcolour,xotask,23,4,263,263,main,positivefb,-99,easy,,0.5019355000003998,['n'],1,right,['1'],6,0.07621650000146474,8,,,,,,,6,18,Man,Links,2,
,xotask,dotcolour,xotask,24,4,264,264,main,positivefb,-99,easy,,0.5341373999999632,['c'],1,left,['1'],6,0.07608410000102594,74,,,,,,,6,18,Man,Links,2,
,xotask,dotcolour,xotask,25,4,265,265,main,positivefb,-99,hard,,0.9335618000004615,['c'],1,left,['1'],6,0.0771865999995498,54,,,,,,,6,18,Man,Links,2,
,xotask,dotcolour,xotask,26,4,266,266,main,positivefb,-99,hard,,0.5182587999988755,['n'],1,right,['1'],6,0.07855110000127752,28,,,,,,,6,18,Man,Links,2,
,xotask,dotcolour,xotask,27,4,267,267,main,positivefb,-99,average,,0.6499725000012404,['n'],1,right,['1'],6,0.05052270000123826,19,,,,,,,6,18,Man,Links,2,
,xotask,dotcolour,xotask,28,4,268,268,main,positivefb,-99,average,,0.5681707000003371,['n'],1,right,['1'],6,0.08320540000022447,18,,,,,,,6,18,Man,Links,2,
,xotask,dotcolour,xotask,29,4,269,269,main,positivefb,-99,hard,,0.8182455999995,['c'],1,left,['1'],6,0.04726180000034219,54,,,,,,,6,18,Man,Links,2,
,xotask,dotcolour,xotask,30,4,270,270,main,positivefb,-99,hard,,0.9003606000005675,['c'],0,right,['1'],6,0.0902977000005194,29,,,,,,,6,18,Man,Links,2,
,xotask,dotcolour,xotask,31,4,271,271,main,positivefb,-99,easy,,0.7174964000005275,['n'],1,right,['1'],6,0.09101919999920938,8,,,,,,,6,18,Man,Links,2,
,xotask,dotcolour,xotask,32,4,272,272,main,positivefb,-99,hard,,0.7677086000003328,['c'],1,left,['1'],6,0.12192829999912647,51,,,,,,,6,18,Man,Links,2,
,xotask,dotcolour,xotask,33,4,273,273,main,positivefb,-99,easy,,0.6000518000000739,['n'],1,right,['1'],6,0.08636630000000878,5,,,,,,,6,18,Man,Links,2,
,xotask,dotcolour,xotask,34,4,274,274,main,positivefb,-99,hard,,0.6506878000000142,['c'],1,left,['1'],6,0.07319229999848176,53,,,,,,,6,18,Man,Links,2,
,xotask,dotcolour,xotask,35,4,275,275,main,positivefb,-99,hard,,0.8670481999997719,['n'],1,right,['2'],5,0.13225529999908758,28,,,,,,,6,18,Man,Links,2,
,xotask,dotcolour,xotask,36,4,276,276,main,positivefb,-99,easy,,0.9346843999992416,['n'],1,right,['1'],6,0.12260999999853084,8,,,,,,,6,18,Man,Links,2,
,xotask,dotcolour,xotask,37,4,277,277,main,positivefb,-99,easy,,0.6668425000007119,['n'],1,right,['2'],5,0.10804540000026464,6,,,,,,,6,18,Man,Links,2,
,xotask,dotcolour,xotask,38,4,278,278,main,positivefb,-99,average,,0.6342077999997855,['n'],1,right,['2'],5,0.1028943999990588,15,,,,,,,6,18,Man,Links,2,
,xotask,dotcolour,xotask,39,4,279,279,main,positivefb,-99,average,,0.8500062000002799,['n'],1,right,['3'],4,0.4819266999984393,18,,,,,,,6,18,Man,Links,2,
,xotask,dotcolour,xotask,40,4,280,280,main,positivefb,-99,hard,,0.6843695999996271,['c'],1,left,['2'],5,0.10789699999986624,51,,,,,,,6,18,Man,Links,2,
,xotask,dotcolour,xotask,41,4,281,281,main,positivefb,-99,easy,,0.5344030000014754,['c'],1,left,['1'],6,0.1153018000004522,73,,,,,,,6,18,Man,Links,2,
,xotask,dotcolour,xotask,42,4,282,282,main,positivefb,-99,easy,,0.9009538999998767,['n'],1,right,['2'],5,0.0678170000010141,9,,,,,,,6,18,Man,Links,2,
,xotask,dotcolour,xotask,43,4,283,283,main,positivefb,-99,easy,,0.6179972999998427,['n'],1,right,['2'],5,0.08875660000012431,8,,,,,,,6,18,Man,Links,2,
,xotask,dotcolour,xotask,44,4,284,284,main,positivefb,-99,average,,1.0006865999985166,['c'],1,left,['1'],6,0.07857809999950405,63,,,,,,,6,18,Man,Links,2,
,xotask,dotcolour,xotask,45,4,285,285,main,positivefb,-99,hard,,1.4846882999991067,['n'],1,right,['1'],6,0.05656589999853168,26,,,,,,,6,18,Man,Links,2,
,xotask,dotcolour,xotask,46,4,286,286,main,positivefb,-99,average,,0.6843988999989961,['c'],1,left,['1'],6,0.11637430000155291,63,,,,,,,6,18,Man,Links,2,
,xotask,dotcolour,xotask,47,4,287,287,main,positivefb,-99,hard,,1.5171527000002243,['n'],1,right,['1'],6,0.5385466999996424,28,,,,,,,6,18,Man,Links,2,
,xotask,dotcolour,xotask,48,4,288,288,main,positivefb,-99,average,,0.7008776000002399,['c'],1,left,['1'],6,0.10628609999912442,60,,,,,,,6,18,Man,Links,2,
,xotask,dotcolour,xotask,49,4,289,289,main,positivefb,-99,average,,0.801386500001172,['n'],1,right,['2'],5,0.11138249999930849,16,,,,,,,6,18,Man,Links,2,
,xotask,dotcolour,xotask,50,4,290,290,main,positivefb,-99,easy,,0.7009219000010489,['n'],1,right,['1'],6,0.09562519999963115,5,,,,,,,6,18,Man,Links,2,
,xotask,dotcolour,xotask,51,4,291,291,main,positivefb,-99,average,,0.7350952000015241,['c'],1,left,['1'],6,0.12026089999926626,62,,,,,,,6,18,Man,Links,2,
,xotask,dotcolour,xotask,52,4,292,292,main,positivefb,-99,easy,,0.8181022999997367,['c'],1,left,['1'],6,0.12379940000028,73,,,,,,,6,18,Man,Links,2,
,xotask,dotcolour,xotask,53,4,293,293,main,positivefb,-99,easy,,0.8342013000001316,['c'],1,left,['1'],6,0.10961959999985993,71,,,,,,,6,18,Man,Links,2,
,xotask,dotcolour,xotask,54,4,294,294,main,positivefb,-99,easy,,0.8680342999996356,['n'],1,right,['1'],6,0.0720681999991939,7,,,,,,,6,18,Man,Links,2,
,xotask,dotcolour,xotask,55,4,295,295,main,positivefb,-99,easy,,1.067972799999552,['c'],1,left,['1'],6,0.10817760000099952,74,,,,,,,6,18,Man,Links,2,
,xotask,dotcolour,xotask,56,4,296,296,main,positivefb,-99,average,,1.8015629000001354,['c'],1,left,['8'],3,0.04029410000111966,63,,,,,,,6,18,Man,Links,2,
,xotask,dotcolour,xotask,57,4,297,297,main,positivefb,-99,average,,0.7835156000001007,['n'],1,right,['1'],6,0.0643763999996736,18,,,,,,,6,18,Man,Links,2,
,xotask,dotcolour,xotask,58,4,298,298,main,positivefb,-99,average,,0.7830168000000413,['c'],1,left,['1'],6,0.10386479999942821,61,,,,,,,6,18,Man,Links,2,
,xotask,dotcolour,xotask,59,4,299,299,main,positivefb,-99,average,,1.6515974999983882,['c'],1,left,['1'],6,0.0977381000011519,62,,,,,,,6,18,Man,Links,2,
,dotcolour,dotcolour,xotask,0,0,0,300,training,positivefb,97,easy,17,0.73347719999947,['n'],1,right,['1'],6,0.09078349999981583,,,,,,,,6,18,Man,Links,2,
,dotcolour,dotcolour,xotask,1,0,1,301,training,positivefb,96,easy,65,0.5992650000007416,['c'],1,left,['1'],6,0.10416840000107186,,,,,,,,6,18,Man,Links,2,
,dotcolour,dotcolour,xotask,2,0,2,302,training,positivefb,93,hard,38,0.7329200000003766,['n'],1,right,['1'],6,1.93456900000092,,,,,,,,6,18,Man,Links,2,
,dotcolour,dotcolour,xotask,3,0,3,303,training,positivefb,92,hard,42,0.7995938000003662,['n'],0,left,['2'],5,0.1769390999997995,,,,,,,,6,18,Man,Links,2,
,dotcolour,dotcolour,xotask,4,0,4,304,training,positivefb,95,easy,15,0.6995720999984769,['n'],1,right,['1'],6,0.03810210000119696,,,,,,,,6,18,Man,Links,2,
,dotcolour,dotcolour,xotask,5,0,5,305,training,positivefb,93,easy,18,1.2512487000003603,['n'],1,right,['8'],3,0.07499649999954272,,,,,,,,6,18,Man,Links,2,
,dotcolour,dotcolour,xotask,6,0,6,306,training,positivefb,94,easy,63,0.9680239000008442,['c'],1,left,['1'],6,0.06483839999964403,,,,,,,,6,18,Man,Links,2,
,dotcolour,dotcolour,xotask,7,0,7,307,training,positivefb,93,easy,61,0.6831803000004584,['c'],1,left,['1'],6,0.09052460000020801,,,,,,,,6,18,Man,Links,2,
,dotcolour,dotcolour,xotask,8,0,8,308,training,positivefb,80,average,53,1.3669413999996323,['n'],0,left,['8'],3,0.04126879999967059,,,,,,,,6,18,Man,Links,2,
,dotcolour,dotcolour,xotask,9,0,9,309,training,positivefb,96,average,26,0.7662333999996918,['n'],1,right,['1'],6,0.04151619999902323,,,,,,,,6,18,Man,Links,2,
,dotcolour,dotcolour,xotask,10,0,10,310,training,positivefb,92,hard,35,0.7329780999989453,['n'],1,right,['1'],6,0.05796179999924789,,,,,,,,6,18,Man,Links,2,
,dotcolour,dotcolour,xotask,11,0,11,311,training,positivefb,86,hard,38,0.6665788000009343,['n'],1,right,['1'],6,0.06125219999921683,,,,,,,,6,18,Man,Links,2,
,dotcolour,dotcolour,xotask,12,0,12,312,training,positivefb,94,hard,35,0.5658442999992985,['n'],1,right,['1'],6,0.05330620000131603,,,,,,,,6,18,Man,Links,2,
,dotcolour,dotcolour,xotask,13,0,13,313,training,positivefb,98,average,26,0.6490083999997296,['n'],1,right,['1'],6,0.06460539999898174,,,,,,,,6,18,Man,Links,2,
,dotcolour,dotcolour,xotask,14,0,14,314,training,positivefb,96,average,54,0.5344760999996652,['c'],1,left,['1'],6,0.10489429999870481,,,,,,,,6,18,Man,Links,2,
,dotcolour,dotcolour,xotask,15,0,15,315,training,positivefb,96,hard,37,0.5169210999993084,['n'],1,right,['1'],6,0.04071739999926649,,,,,,,,6,18,Man,Links,2,
,dotcolour,dotcolour,xotask,16,0,16,316,training,positivefb,97,average,51,0.4502340999988519,['c'],1,left,['1'],6,0.10088379999979225,,,,,,,,6,18,Man,Links,2,
,dotcolour,dotcolour,xotask,17,0,17,317,training,positivefb,97,easy,65,0.4665310000000318,['c'],1,left,['1'],6,0.08600619999924675,,,,,,,,6,18,Man,Links,2,
,dotcolour,dotcolour,xotask,18,0,18,318,training,positivefb,95,easy,16,0.6344032000015432,['c'],0,right,['1'],6,0.11374889999933657,,,,,,,,6,18,Man,Links,2,
,dotcolour,dotcolour,xotask,19,0,19,319,training,positivefb,87,hard,43,1.616932099999758,['c'],1,left,['9'],2,0.012675199999648612,,,,,,,,6,18,Man,Links,2,
,dotcolour,dotcolour,xotask,20,0,20,320,training,positivefb,94,hard,42,0.6004990000001271,['n'],0,left,['1'],6,0.06119580000085989,,,,,,,,6,18,Man,Links,2,
,dotcolour,dotcolour,xotask,21,0,21,321,training,positivefb,94,average,52,0.7012781000012183,['c'],1,left,['1'],6,0.08695609999995213,,,,,,,,6,18,Man,Links,2,
,dotcolour,dotcolour,xotask,22,0,22,322,training,positivefb,94,average,52,0.6495981000007305,['c'],1,left,['1'],6,0.08995949999916775,,,,,,,,6,18,Man,Links,2,
,dotcolour,dotcolour,xotask,23,0,23,323,training,positivefb,88,average,52,1.400275399999373,['c'],1,left,['3'],4,0.7025835999993433,,,,,,,,6,18,Man,Links,2,
,dotcolour,dotcolour,xotask,24,0,24,324,training,positivefb,98,easy,16,0.5501174000000901,['n'],1,right,['1'],6,0.06058190000112518,,,,,,,,6,18,Man,Links,2,
,dotcolour,dotcolour,xotask,25,0,25,325,training,positivefb,96,hard,42,0.6336318000012398,['c'],1,left,['1'],6,0.07320599999911792,,,,,,,,6,18,Man,Links,2,
,dotcolour,dotcolour,xotask,26,0,26,326,training,positivefb,96,easy,16,0.6166890999993484,['n'],1,right,['1'],6,0.013671900000190362,,,,,,,,6,18,Man,Links,2,
,dotcolour,dotcolour,xotask,27,0,27,327,training,positivefb,91,average,26,0.5670757000007143,['n'],1,right,['1'],6,0.03140569999959553,,,,,,,,6,18,Man,Links,2,
,dotcolour,dotcolour,xotask,28,0,28,328,training,positivefb,95,easy,18,0.6005722000008973,['n'],1,right,['1'],6,0.022194600000148057,,,,,,,,6,18,Man,Links,2,
,dotcolour,dotcolour,xotask,29,0,29,329,training,positivefb,91,easy,17,0.48300860000017565,['n'],1,right,['1'],6,0.04987059999984922,,,,,,,,6,18,Man,Links,2,
,dotcolour,dotcolour,xotask,30,0,30,330,training,positivefb,97,average,25,0.5847037000003183,['n'],1,right,['2'],5,0.04081909999877098,,,,,,,,6,18,Man,Links,2,
,dotcolour,dotcolour,xotask,31,0,31,331,training,positivefb,90,hard,42,0.833363300000201,['n'],0,left,['2'],5,0.021486600000571343,,,,,,,,6,18,Man,Links,2,
,dotcolour,dotcolour,xotask,32,0,32,332,training,positivefb,98,average,27,0.650583500000721,['n'],1,right,['1'],6,0.027466600000479957,,,,,,,,6,18,Man,Links,2,
,dotcolour,dotcolour,xotask,33,0,33,333,training,positivefb,97,average,26,0.5336790000001201,['n'],1,right,['1'],6,0.03728450000016892,,,,,,,,6,18,Man,Links,2,
,dotcolour,dotcolour,xotask,34,0,34,334,training,positivefb,91,average,54,0.6342382999991969,['c'],1,left,['1'],6,0.05038020000029064,,,,,,,,6,18,Man,Links,2,
,dotcolour,dotcolour,xotask,35,0,35,335,training,positivefb,87,hard,44,0.9158110000007582,['c'],1,left,['1'],6,0.09225040000092122,,,,,,,,6,18,Man,Links,2,
,dotcolour,dotcolour,xotask,36,0,36,336,training,positivefb,94,average,29,0.5499266999995598,['n'],1,right,['1'],6,0.026749200000267592,,,,,,,,6,18,Man,Links,2,
,dotcolour,dotcolour,xotask,37,0,37,337,training,positivefb,81,hard,43,0.8183305000002292,['n'],0,left,['3'],4,0.5934173999994528,,,,,,,,6,18,Man,Links,2,
,dotcolour,dotcolour,xotask,38,0,38,338,training,positivefb,95,easy,62,0.6491569999998319,['c'],1,left,['1'],6,0.05568900000071153,,,,,,,,6,18,Man,Links,2,
,dotcolour,dotcolour,xotask,39,0,39,339,training,positivefb,97,easy,65,0.6168710000001738,['c'],1,left,['1'],6,0.0855809999993653,,,,,,,,6,18,Man,Links,2,
,dotcolour,dotcolour,xotask,40,0,40,340,training,positivefb,94,average,25,0.5997084000009636,['n'],1,right,['1'],6,0.00941910000074131,,,,,,,,6,18,Man,Links,2,
,dotcolour,dotcolour,xotask,41,0,41,341,training,positivefb,94,hard,35,0.6336487999997189,['n'],1,right,['1'],6,0.01630219999969995,,,,,,,,6,18,Man,Links,2,
,dotcolour,dotcolour,xotask,42,0,42,342,training,positivefb,99,hard,35,0.6512194000006275,['n'],1,right,['1'],6,0.44629389999863633,,,,,,,,6,18,Man,Links,2,
,dotcolour,dotcolour,xotask,43,0,43,343,training,positivefb,94,hard,35,0.6503030999992916,['n'],1,right,['1'],6,0.026662000000214903,,,,,,,,6,18,Man,Links,2,
,dotcolour,dotcolour,xotask,44,0,44,344,training,positivefb,96,easy,15,0.5343078000005335,['n'],1,right,['1'],6,0.004863300000579329,,,,,,,,6,18,Man,Links,2,
,dotcolour,dotcolour,xotask,45,0,45,345,training,positivefb,96,easy,15,0.5332201000001078,['n'],1,right,['1'],6,0.0073945999993156875,,,,,,,,6,18,Man,Links,2,
,dotcolour,dotcolour,xotask,46,0,46,346,training,positivefb,98,easy,61,0.5503705999999511,['c'],1,left,['1'],6,0.08957390000068699,,,,,,,,6,18,Man,Links,2,
,dotcolour,dotcolour,xotask,47,0,47,347,training,positivefb,98,easy,63,0.4334165000000212,['c'],1,left,['1'],6,0.10880829999950947,,,,,,,,6,18,Man,Links,2,
,dotcolour,dotcolour,xotask,48,0,48,348,training,positivefb,94,hard,38,0.6019735999998375,['c'],0,right,['1'],6,0.3847957999987557,,,,,,,,6,18,Man,Links,2,
,dotcolour,dotcolour,xotask,49,0,49,349,training,positivefb,90,easy,61,0.700546400001258,['c'],1,left,['1'],6,0.09351040000001376,,,,,,,,6,18,Man,Links,2,
,dotcolour,dotcolour,xotask,50,0,50,350,training,positivefb,98,average,51,0.5670160999998188,['c'],1,left,['1'],6,0.08279579999907583,,,,,,,,6,18,Man,Links,2,
,dotcolour,dotcolour,xotask,51,0,51,351,training,positivefb,96,average,54,0.5337354999992385,['c'],1,left,['1'],6,0.10699470000145084,,,,,,,,6,18,Man,Links,2,
,dotcolour,dotcolour,xotask,52,0,52,352,training,positivefb,99,hard,44,0.5342863999994734,['c'],1,left,['1'],6,0.09750499999972817,,,,,,,,6,18,Man,Links,2,
,dotcolour,dotcolour,xotask,53,0,53,353,training,positivefb,90,hard,43,0.7514339000008476,['n'],0,left,['1'],6,0.023489900000640773,,,,,,,,6,18,Man,Links,2,
,dotcolour,dotcolour,xotask,54,0,54,354,training,positivefb,97,hard,35,0.7506343000004563,['n'],1,right,['1'],6,0.06526599999961036,,,,,,,,6,18,Man,Links,2,
,dotcolour,dotcolour,xotask,55,0,55,355,training,positivefb,98,easy,65,0.4840535999992426,['c'],1,left,['1'],6,0.1075686999993195,,,,,,,,6,18,Man,Links,2,
,dotcolour,dotcolour,xotask,56,0,56,356,training,positivefb,95,average,25,0.6165885999998864,['n'],1,right,['1'],6,0.0948009000003367,,,,,,,,6,18,Man,Links,2,
,dotcolour,dotcolour,xotask,57,0,57,357,training,positivefb,95,average,55,0.5489069000013842,['c'],1,left,['1'],6,0.09273209999992105,,,,,,,,6,18,Man,Links,2,
,dotcolour,dotcolour,xotask,58,0,58,358,training,positivefb,90,hard,42,0.9664381000002322,['n'],0,left,['8'],3,0.019470200000796467,,,,,,,,6,18,Man,Links,2,
,dotcolour,dotcolour,xotask,59,0,59,359,training,positivefb,89,average,28,0.5171477000003506,['c'],0,right,['0'],1,0.997787000000244,,,,,,,,6,18,Man,Links,2,
,dotcolour,dotcolour,xotask,0,1,60,360,training,positivefb,85,average,25,1.6177717999999004,['n'],1,right,['2'],5,0.0013679999992746161,,,,,,,,6,18,Man,Links,2,
,dotcolour,dotcolour,xotask,1,1,61,361,training,positivefb,97,average,25,0.5496777999996993,['n'],1,right,['1'],6,0.04337110000051325,,,,,,,,6,18,Man,Links,2,
,dotcolour,dotcolour,xotask,2,1,62,362,training,positivefb,97,easy,15,0.4671641999993881,['n'],1,right,['1'],6,0.07915549999961513,,,,,,,,6,18,Man,Links,2,
,dotcolour,dotcolour,xotask,3,1,63,363,training,positivefb,95,average,53,0.5496166000011726,['c'],1,left,['1'],6,0.08634500000152912,,,,,,,,6,18,Man,Links,2,
,dotcolour,dotcolour,xotask,4,1,64,364,training,positivefb,96,average,26,0.5329915000002075,['n'],1,right,['1'],6,0.04601649999858637,,,,,,,,6,18,Man,Links,2,
,dotcolour,dotcolour,xotask,5,1,65,365,training,positivefb,96,easy,64,0.49980179999874963,['c'],1,left,['1'],6,0.09714970000095491,,,,,,,,6,18,Man,Links,2,
,dotcolour,dotcolour,xotask,6,1,66,366,training,positivefb,92,average,26,0.5503489000002446,['n'],1,right,['1'],6,0.0794956000008824,,,,,,,,6,18,Man,Links,2,
,dotcolour,dotcolour,xotask,7,1,67,367,training,positivefb,86,easy,19,0.5502433000001474,['n'],1,right,['1'],6,0.06310329999905662,,,,,,,,6,18,Man,Links,2,
,dotcolour,dotcolour,xotask,8,1,68,368,training,positivefb,97,easy,61,0.5674586999994062,['c'],1,left,['1'],6,0.08653989999947953,,,,,,,,6,18,Man,Links,2,
,dotcolour,dotcolour,xotask,9,1,69,369,training,positivefb,42,hard,42,1.516180799999347,['n'],0,left,['1'],6,0.9904540999996243,,,,,,,,6,18,Man,Links,2,
,dotcolour,dotcolour,xotask,10,1,70,370,training,positivefb,92,easy,15,0.6335445999993681,['n'],1,right,['1'],6,0.07784650000030524,,,,,,,,6,18,Man,Links,2,
,dotcolour,dotcolour,xotask,11,1,71,371,training,positivefb,96,easy,19,0.7664664999992965,['n'],1,right,['1'],6,0.043616999999358086,,,,,,,,6,18,Man,Links,2,
,dotcolour,dotcolour,xotask,12,1,72,372,training,positivefb,86,hard,43,1.1677008000006026,['c'],1,left,['1'],6,0.06772780000028433,,,,,,,,6,18,Man,Links,2,
,dotcolour,dotcolour,xotask,13,1,73,373,training,positivefb,88,hard,44,1.2176951000001281,['n'],0,left,['8'],3,0.03282489999946847,,,,,,,,6,18,Man,Links,2,
,dotcolour,dotcolour,xotask,14,1,74,374,training,positivefb,95,average,55,0.5674775000006775,['c'],1,left,['1'],6,0.08910909999940486,,,,,,,,6,18,Man,Links,2,
,dotcolour,dotcolour,xotask,15,1,75,375,training,positivefb,88,hard,39,0.6669798999992054,['n'],1,right,['1'],6,0.05845199999930628,,,,,,,,6,18,Man,Links,2,
,dotcolour,dotcolour,xotask,16,1,76,376,training,positivefb,89,average,51,0.6840057000008528,['c'],1,left,['2'],5,0.09393389999968349,,,,,,,,6,18,Man,Links,2,
,dotcolour,dotcolour,xotask,17,1,77,377,training,positivefb,77,hard,39,1.1168508999999176,['c'],0,right,"['3', '2']",4,0.11762669999916398,,,,,,,,6,18,Man,Links,2,
,dotcolour,dotcolour,xotask,18,1,78,378,training,positivefb,87,hard,38,1.168187700000999,['n'],1,right,['1'],6,0.04999300000054063,,,,,,,,6,18,Man,Links,2,
,dotcolour,dotcolour,xotask,19,1,79,379,training,positivefb,95,easy,61,0.5171876999993401,['c'],1,left,['1'],6,0.0752859999993234,,,,,,,,6,18,Man,Links,2,
,dotcolour,dotcolour,xotask,20,1,80,380,training,positivefb,91,easy,63,0.5333066000002873,['c'],1,left,['1'],6,0.0837933000002522,,,,,,,,6,18,Man,Links,2,
,dotcolour,dotcolour,xotask,21,1,81,381,training,positivefb,97,average,25,0.6662376999993285,['n'],1,right,['1'],6,0.06163459999879706,,,,,,,,6,18,Man,Links,2,
,dotcolour,dotcolour,xotask,22,1,82,382,training,positivefb,98,average,55,0.4499010999988968,['c'],1,left,['1'],6,0.081984200000079,,,,,,,,6,18,Man,Links,2,
,dotcolour,dotcolour,xotask,23,1,83,383,training,positivefb,99,easy,65,0.4668519999995624,['c'],1,left,['1'],6,0.06017549999887706,,,,,,,,6,18,Man,Links,2,
,dotcolour,dotcolour,xotask,24,1,84,384,training,positivefb,98,average,25,0.4664878999992652,['n'],1,right,['1'],6,0.05496139999922889,,,,,,,,6,18,Man,Links,2,
,dotcolour,dotcolour,xotask,25,1,85,385,training,positivefb,94,easy,18,0.43358619999889925,['n'],1,right,['1'],6,0.02735269999902812,,,,,,,,6,18,Man,Links,2,
,dotcolour,dotcolour,xotask,26,1,86,386,training,positivefb,89,hard,39,0.6836815000006027,['n'],1,right,['1'],6,0.47143920000053186,,,,,,,,6,18,Man,Links,2,
,dotcolour,dotcolour,xotask,27,1,87,387,training,positivefb,91,average,27,0.4670186000003014,['n'],1,right,['1'],6,0.0906594000007317,,,,,,,,6,18,Man,Links,2,
,dotcolour,dotcolour,xotask,28,1,88,388,training,positivefb,96,hard,36,0.5000978999996732,['n'],1,right,['1'],6,0.02695769999991171,,,,,,,,6,18,Man,Links,2,
,dotcolour,dotcolour,xotask,29,1,89,389,training,positivefb,97,hard,42,0.5670090000003256,['c'],1,left,['1'],6,0.06766720000086934,,,,,,,,6,18,Man,Links,2,
,dotcolour,dotcolour,xotask,30,1,90,390,training,positivefb,95,easy,17,0.5333964000001288,['n'],1,right,['1'],6,0.12336580000010144,,,,,,,,6,18,Man,Links,2,
,dotcolour,dotcolour,xotask,31,1,91,391,training,positivefb,92,easy,61,0.5007522999985667,['c'],1,left,['1'],6,0.09911219999958121,,,,,,,,6,18,Man,Links,2,
,dotcolour,dotcolour,xotask,32,1,92,392,training,positivefb,94,hard,39,0.5842351999999664,['n'],1,right,['8'],3,0.05537980000008247,,,,,,,,6,18,Man,Links,2,
,dotcolour,dotcolour,xotask,33,1,93,393,training,positivefb,93,easy,63,0.7001532999984192,['c'],1,left,['9'],2,0.08929639999951178,,,,,,,,6,18,Man,Links,2,
,dotcolour,dotcolour,xotask,34,1,94,394,training,positivefb,96,average,28,0.3502723000001424,['c'],0,right,['1'],6,0.09595599999920523,,,,,,,,6,18,Man,Links,2,
,dotcolour,dotcolour,xotask,35,1,95,395,training,positivefb,93,easy,16,0.5842348999995011,['n'],1,right,['1'],6,0.06989749999956985,,,,,,,,6,18,Man,Links,2,
,dotcolour,dotcolour,xotask,36,1,96,396,training,positivefb,97,hard,45,0.5834899000001315,['c'],1,left,['1'],6,0.10739049999938288,,,,,,,,6,18,Man,Links,2,
,dotcolour,dotcolour,xotask,37,1,97,397,training,positivefb,94,average,51,0.5007331999986491,['c'],1,left,['1'],6,0.07592740000109188,,,,,,,,6,18,Man,Links,2,
,dotcolour,dotcolour,xotask,38,1,98,398,training,positivefb,97,easy,18,0.583529899999121,['n'],1,right,['1'],6,0.03327280000121391,,,,,,,,6,18,Man,Links,2,
,dotcolour,dotcolour,xotask,39,1,99,399,training,positivefb,87,hard,36,0.7000760000009905,['c'],0,right,['1'],6,0.10092149999945832,,,,,,,,6,18,Man,Links,2,
,dotcolour,dotcolour,xotask,40,1,100,400,training,positivefb,90,hard,37,0.6332006000011461,['c'],0,right,['1'],6,0.07932650000111607,,,,,,,,6,18,Man,Links,2,
,dotcolour,dotcolour,xotask,41,1,101,401,training,positivefb,98,hard,36,0.5344513000000006,['n'],1,right,['1'],6,0.07953070000075968,,,,,,,,6,18,Man,Links,2,
,dotcolour,dotcolour,xotask,42,1,102,402,training,positivefb,99,easy,61,0.5668970999995508,['c'],1,left,['2'],5,0.1173478000000614,,,,,,,,6,18,Man,Links,2,
,dotcolour,dotcolour,xotask,43,1,103,403,training,positivefb,97,easy,64,0.33336919999965176,['c'],1,left,['1'],6,0.08394009999938135,,,,,,,,6,18,Man,Links,2,
,dotcolour,dotcolour,xotask,44,1,104,404,training,positivefb,93,easy,19,0.48317259999930684,['n'],1,right,['1'],6,0.07670209999923827,,,,,,,,6,18,Man,Links,2,
,dotcolour,dotcolour,xotask,45,1,105,405,training,positivefb,93,easy,65,0.5166365999994014,['c'],1,left,['1'],6,0.06192360000022745,,,,,,,,6,18,Man,Links,2,
,dotcolour,dotcolour,xotask,46,1,106,406,training,positivefb,96,average,55,0.6832598000000871,['c'],1,left,['3'],4,0.040728099998887046,,,,,,,,6,18,Man,Links,2,
,dotcolour,dotcolour,xotask,47,1,107,407,training,positivefb,85,hard,41,0.6663214999989577,['c'],1,left,['1'],6,0.12398009999924398,,,,,,,,6,18,Man,Links,2,
,dotcolour,dotcolour,xotask,48,1,108,408,training,positivefb,98,average,53,0.5167688000001363,['c'],1,left,['1'],6,0.07506819999980507,,,,,,,,6,18,Man,Links,2,
,dotcolour,dotcolour,xotask,49,1,109,409,training,positivefb,94,average,25,0.3826013999987481,['c'],0,right,['1'],6,0.2729593999993085,,,,,,,,6,18,Man,Links,2,
,dotcolour,dotcolour,xotask,50,1,110,410,training,positivefb,89,average,25,0.6177079999997659,['n'],1,right,['1'],6,0.03824729999905685,,,,,,,,6,18,Man,Links,2,
,dotcolour,dotcolour,xotask,51,1,111,411,training,positivefb,98,average,53,0.5501453000015317,['c'],1,left,['1'],6,0.08641650000026857,,,,,,,,6,18,Man,Links,2,
,dotcolour,dotcolour,xotask,52,1,112,412,training,positivefb,96,average,54,0.49920669999846723,['c'],1,left,['1'],6,0.10371029999987513,,,,,,,,6,18,Man,Links,2,
,dotcolour,dotcolour,xotask,53,1,113,413,training,positivefb,94,hard,45,0.5993814000012208,['c'],1,left,['2'],5,0.06797390000065207,,,,,,,,6,18,Man,Links,2,
,dotcolour,dotcolour,xotask,54,1,114,414,training,positivefb,96,hard,39,0.5326492000003782,['c'],0,right,['2'],5,0.042847999999139574,,,,,,,,6,18,Man,Links,2,
,dotcolour,dotcolour,xotask,55,1,115,415,training,positivefb,94,hard,41,0.7334226000002673,['n'],0,left,['1'],6,0.0694205999989208,,,,,,,,6,18,Man,Links,2,
,dotcolour,dotcolour,xotask,56,1,116,416,training,positivefb,95,hard,45,0.7333373999990727,['c'],1,left,['2'],5,0.4372546999984479,,,,,,,,6,18,Man,Links,2,
,dotcolour,dotcolour,xotask,57,1,117,417,training,positivefb,94,average,51,0.6501549000004161,['n'],0,left,['2'],5,0.0018555000006017508,,,,,,,,6,18,Man,Links,2,
,dotcolour,dotcolour,xotask,58,1,118,418,training,positivefb,88,hard,43,0.5010959999999614,['c'],1,left,['2'],5,0.08466840000073717,,,,,,,,6,18,Man,Links,2,
,dotcolour,dotcolour,xotask,59,1,119,419,training,positivefb,97,easy,17,0.45070660000055796,['n'],1,right,['1'],6,0.00043550000009418,,,,,,,,6,18,Man,Links,2,
,dotcolour,dotcolour,xotask,0,2,120,420,main,positivefb,-99,easy,16,0.5833425000000716,['n'],1,right,['1'],6,0.060650100000202656,,,,,,,,6,18,Man,Links,2,
,dotcolour,dotcolour,xotask,1,2,121,421,main,positivefb,-99,hard,37,0.8172610999990866,['c'],0,right,['1'],6,0.09890870000162977,,,,,,,,6,18,Man,Links,2,
,dotcolour,dotcolour,xotask,2,2,122,422,main,positivefb,-99,average,26,0.5180608999999095,['n'],1,right,['1'],6,0.0586263000004692,,,,,,,,6,18,Man,Links,2,
,dotcolour,dotcolour,xotask,3,2,123,423,main,positivefb,-99,easy,64,0.6849606000014319,['c'],1,left,"['1', '2']",6,0.0786009000003105,,,,,,,,6,18,Man,Links,2,
,dotcolour,dotcolour,xotask,4,2,124,424,main,positivefb,-99,easy,15,0.5338585000008607,['n'],1,right,['1'],6,0.06262620000052266,,,,,,,,6,18,Man,Links,2,
,dotcolour,dotcolour,xotask,5,2,125,425,main,positivefb,-99,easy,15,0.5344942000010633,['n'],1,right,['1'],6,0.04064780000044266,,,,,,,,6,18,Man,Links,2,
,dotcolour,dotcolour,xotask,6,2,126,426,main,positivefb,-99,average,27,0.8009302999998908,['n'],1,right,['1'],6,0.06385939999927359,,,,,,,,6,18,Man,Links,2,
,dotcolour,dotcolour,xotask,7,2,127,427,main,positivefb,-99,average,55,0.5507534999997006,['c'],1,left,['1'],6,0.06453250000049593,,,,,,,,6,18,Man,Links,2,
,dotcolour,dotcolour,xotask,8,2,128,428,main,positivefb,-99,hard,41,0.6507521999992605,['n'],0,left,['1'],6,0.053094199998668046,,,,,,,,6,18,Man,Links,2,
,dotcolour,dotcolour,xotask,9,2,129,429,main,positivefb,-99,hard,45,0.5840571999997337,['c'],1,left,['1'],6,0.08498510000026727,,,,,,,,6,18,Man,Links,2,
,dotcolour,dotcolour,xotask,10,2,130,430,main,positivefb,-99,average,51,0.6351173000002746,['c'],1,left,['1'],6,0.08009690000108094,,,,,,,,6,18,Man,Links,2,
,dotcolour,dotcolour,xotask,11,2,131,431,main,positivefb,-99,easy,61,0.617517399999997,['c'],1,left,['1'],6,0.09354209999946761,,,,,,,,6,18,Man,Links,2,
,dotcolour,dotcolour,xotask,12,2,132,432,main,positivefb,-99,easy,16,0.5344389999991108,['n'],1,right,['1'],6,0.1248870999988867,,,,,,,,6,18,Man,Links,2,
,dotcolour,dotcolour,xotask,13,2,133,433,main,positivefb,-99,easy,16,0.4521628000002238,['n'],1,right,['1'],6,0.11116720000063651,,,,,,,,6,18,Man,Links,2,
,dotcolour,dotcolour,xotask,14,2,134,434,main,positivefb,-99,easy,62,0.48373199999878125,['c'],1,left,['1'],6,0.10466539999833913,,,,,,,,6,18,Man,Links,2,
,dotcolour,dotcolour,xotask,15,2,135,435,main,positivefb,-99,average,26,0.51814849999937,['n'],1,right,['1'],6,0.1369278000001941,,,,,,,,6,18,Man,Links,2,
,dotcolour,dotcolour,xotask,16,2,136,436,main,positivefb,-99,hard,41,0.5838442999993276,['c'],1,left,['1'],6,0.020640099999582162,,,,,,,,6,18,Man,Links,2,
,dotcolour,dotcolour,xotask,17,2,137,437,main,positivefb,-99,hard,36,0.7839268000006996,['n'],1,right,['2'],5,0.07773810000071535,,,,,,,,6,18,Man,Links,2,
,dotcolour,dotcolour,xotask,18,2,138,438,main,positivefb,-99,easy,15,0.6680938999998034,['c'],0,right,['0'],1,0.761024899999029,,,,,,,,6,18,Man,Links,2,
,dotcolour,dotcolour,xotask,19,2,139,439,main,positivefb,-99,hard,36,0.6841705999995611,['n'],1,right,['1'],6,0.07229910000023665,,,,,,,,6,18,Man,Links,2,
,dotcolour,dotcolour,xotask,20,2,140,440,main,positivefb,-99,hard,44,0.9844689999990806,['n'],0,left,['1'],6,0.06280450000122073,,,,,,,,6,18,Man,Links,2,
,dotcolour,dotcolour,xotask,21,2,141,441,main,positivefb,-99,average,27,0.6337554999990971,['n'],1,right,['1'],6,0.10767010000017763,,,,,,,,6,18,Man,Links,2,
,dotcolour,dotcolour,xotask,22,2,142,442,main,positivefb,-99,hard,43,0.9511724999993021,['n'],0,left,['1'],6,0.059084700000312296,,,,,,,,6,18,Man,Links,2,
,dotcolour,dotcolour,xotask,23,2,143,443,main,positivefb,-99,easy,65,1.1008368999991944,['c'],1,left,['1'],6,0.08528779999869585,,,,,,,,6,18,Man,Links,2,
,dotcolour,dotcolour,xotask,24,2,144,444,main,positivefb,-99,easy,16,0.5504022000004625,['n'],1,right,['1'],6,0.028929000000061933,,,,,,,,6,18,Man,Links,2,
,dotcolour,dotcolour,xotask,25,2,145,445,main,positivefb,-99,hard,42,1.0000249999993684,['n'],0,left,['2'],5,0.05320600000050035,,,,,,,,6,18,Man,Links,2,
,dotcolour,dotcolour,xotask,26,2,146,446,main,positivefb,-99,hard,38,1.633476500001052,['n'],1,right,['3'],4,0.09804740000072343,,,,,,,,6,18,Man,Links,2,
,dotcolour,dotcolour,xotask,27,2,147,447,main,positivefb,-99,average,53,0.5853457000011986,['c'],1,left,['1'],6,0.07982409999931406,,,,,,,,6,18,Man,Links,2,
,dotcolour,dotcolour,xotask,28,2,148,448,main,positivefb,-99,hard,38,0.9009463999991567,['n'],1,right,['2'],5,0.06499369999983173,,,,,,,,6,18,Man,Links,2,
,dotcolour,dotcolour,xotask,29,2,149,449,main,positivefb,-99,easy,62,0.6339215000007243,['c'],1,left,['1'],6,0.06210839999948803,,,,,,,,6,18,Man,Links,2,
,dotcolour,dotcolour,xotask,30,2,150,450,main,positivefb,-99,easy,62,0.5833115999994334,['c'],1,left,['1'],6,0.07741770000029646,,,,,,,,6,18,Man,Links,2,
,dotcolour,dotcolour,xotask,31,2,151,451,main,positivefb,-99,average,29,0.5345572999995056,['n'],1,right,['1'],6,0.07038330000068527,,,,,,,,6,18,Man,Links,2,
,dotcolour,dotcolour,xotask,32,2,152,452,main,positivefb,-99,average,53,0.4513007000005018,['c'],1,left,['1'],6,0.06576189999941562,,,,,,,,6,18,Man,Links,2,
,dotcolour,dotcolour,xotask,33,2,153,453,main,positivefb,-99,hard,42,1.317546800000855,['n'],0,left,['3'],4,0.05129759999908856,,,,,,,,6,18,Man,Links,2,
,dotcolour,dotcolour,xotask,34,2,154,454,main,positivefb,-99,average,53,0.5012754999988829,['c'],1,left,['1'],6,0.10225929999978689,,,,,,,,6,18,Man,Links,2,
,dotcolour,dotcolour,xotask,35,2,155,455,main,positivefb,-99,hard,41,0.6016834000001836,['n'],0,left,['1'],6,0.05894049999915296,,,,,,,,6,18,Man,Links,2,
,dotcolour,dotcolour,xotask,36,2,156,456,main,positivefb,-99,average,28,0.6672538000002532,['n'],1,right,['1'],6,0.05526339999960328,,,,,,,,6,18,Man,Links,2,
,dotcolour,dotcolour,xotask,37,2,157,457,main,positivefb,-99,hard,35,0.6498004999994009,['c'],0,right,['1'],6,0.09132369999861112,,,,,,,,6,18,Man,Links,2,
,dotcolour,dotcolour,xotask,38,2,158,458,main,positivefb,-99,average,52,0.5848767000006774,['c'],1,left,['1'],6,0.11365189999924041,,,,,,,,6,18,Man,Links,2,
,dotcolour,dotcolour,xotask,39,2,159,459,main,positivefb,-99,average,26,0.5678618000001734,['n'],1,right,['1'],6,0.07125129999985802,,,,,,,,6,18,Man,Links,2,
,dotcolour,dotcolour,xotask,40,2,160,460,main,positivefb,-99,average,28,0.7354129000013927,['n'],1,right,['1'],6,0.03195939999932307,,,,,,,,6,18,Man,Links,2,
,dotcolour,dotcolour,xotask,41,2,161,461,main,positivefb,-99,easy,61,0.5012446000000637,['c'],1,left,['1'],6,0.10715329999948153,,,,,,,,6,18,Man,Links,2,
,dotcolour,dotcolour,xotask,42,2,162,462,main,positivefb,-99,easy,61,0.5839677000003576,['c'],1,left,['1'],6,0.09718489999977464,,,,,,,,6,18,Man,Links,2,
,dotcolour,dotcolour,xotask,43,2,163,463,main,positivefb,-99,easy,62,0.501265400000193,['c'],1,left,['1'],6,0.10664490000090154,,,,,,,,6,18,Man,Links,2,
,dotcolour,dotcolour,xotask,44,2,164,464,main,positivefb,-99,hard,35,0.9682001000001037,['n'],1,right,['3'],4,0.01616459999968356,,,,,,,,6,18,Man,Links,2,
,dotcolour,dotcolour,xotask,45,2,165,465,main,positivefb,-99,average,54,0.5331337999996322,['c'],1,left,['1'],6,0.09911580000152753,,,,,,,,6,18,Man,Links,2,
,dotcolour,dotcolour,xotask,46,2,166,466,main,positivefb,-99,average,51,0.6683931999996275,['c'],1,left,['2'],5,0.12452080000002752,,,,,,,,6,18,Man,Links,2,
,dotcolour,dotcolour,xotask,47,2,167,467,main,positivefb,-99,hard,37,0.7680821000012656,['n'],1,right,['1'],6,0.09847230000013951,,,,,,,,6,18,Man,Links,2,
,dotcolour,dotcolour,xotask,48,2,168,468,main,positivefb,-99,hard,36,1.0003813000002992,['n'],1,right,['1'],6,0.3670767000003252,,,,,,,,6,18,Man,Links,2,
,dotcolour,dotcolour,xotask,49,2,169,469,main,positivefb,-99,easy,19,0.6343097999997553,['n'],1,right,['1'],6,0.03923700000086683,,,,,,,,6,18,Man,Links,2,
,dotcolour,dotcolour,xotask,50,2,170,470,main,positivefb,-99,hard,37,0.4517003000000841,['c'],0,right,['1'],6,0.077325700000074,,,,,,,,6,18,Man,Links,2,
,dotcolour,dotcolour,xotask,51,2,171,471,main,positivefb,-99,hard,44,1.517558099998496,['c'],1,left,['3'],4,0.07871559999875899,,,,,,,,6,18,Man,Links,2,
,dotcolour,dotcolour,xotask,52,2,172,472,main,positivefb,-99,average,55,0.5846521999992547,['c'],1,left,['1'],6,0.09262060000037309,,,,,,,,6,18,Man,Links,2,
,dotcolour,dotcolour,xotask,53,2,173,473,main,positivefb,-99,easy,15,0.6836542000000918,['n'],1,right,['1'],6,0.030617399999755435,,,,,,,,6,18,Man,Links,2,
,dotcolour,dotcolour,xotask,54,2,174,474,main,positivefb,-99,easy,18,0.7330075000008947,['n'],1,right,['1'],6,0.105197799999587,,,,,,,,6,18,Man,Links,2,
,dotcolour,dotcolour,xotask,55,2,175,475,main,positivefb,-99,easy,64,0.7841376000014861,['c'],1,left,['1'],6,0.13452870000037365,,,,,,,,6,18,Man,Links,2,
,dotcolour,dotcolour,xotask,56,2,176,476,main,positivefb,-99,average,53,0.7676627000000735,['c'],1,left,['1'],6,0.11448149999887391,,,,,,,,6,18,Man,Links,2,
,dotcolour,dotcolour,xotask,57,2,177,477,main,positivefb,-99,average,29,0.6330492000015511,['n'],1,right,['1'],6,0.08546839999871736,,,,,,,,6,18,Man,Links,2,
,dotcolour,dotcolour,xotask,58,2,178,478,main,positivefb,-99,hard,43,1.6680551000008563,['n'],0,left,['1'],6,0.08035569999992731,,,,,,,,6,18,Man,Links,2,
,dotcolour,dotcolour,xotask,59,2,179,479,main,positivefb,-99,average,26,0.5510721999999078,['n'],1,right,['1'],6,0.06414829999994254,,,,,,,,6,18,Man,Links,2,
,dotcolour,dotcolour,xotask,0,3,180,480,main,positivefb,-99,hard,36,0.8009512999997241,['n'],1,right,['1'],6,0.035446300000330666,,,,,,,,6,18,Man,Links,2,
,dotcolour,dotcolour,xotask,1,3,181,481,main,positivefb,-99,easy,61,0.7176915999989433,['c'],1,left,['1'],6,0.14987370000017108,,,,,,,,6,18,Man,Links,2,
,dotcolour,dotcolour,xotask,2,3,182,482,main,positivefb,-99,average,28,0.4682847000003676,['n'],1,right,['1'],6,0.08517319999918982,,,,,,,,6,18,Man,Links,2,
,dotcolour,dotcolour,xotask,3,3,183,483,main,positivefb,-99,easy,15,0.7674664999995002,['n'],1,right,['1'],6,0.08416910000050848,,,,,,,,6,18,Man,Links,2,
,dotcolour,dotcolour,xotask,4,3,184,484,main,positivefb,-99,average,29,1.1016767999990407,['n'],1,right,['1'],6,0.6623111000008066,,,,,,,,6,18,Man,Links,2,
,dotcolour,dotcolour,xotask,5,3,185,485,main,positivefb,-99,average,54,0.4509598000004189,['c'],1,left,['1'],6,0.09835990000101447,,,,,,,,6,18,Man,Links,2,
,dotcolour,dotcolour,xotask,6,3,186,486,main,positivefb,-99,hard,44,0.9516980000007607,['n'],0,left,['1'],6,0.057205099999919184,,,,,,,,6,18,Man,Links,2,
,dotcolour,dotcolour,xotask,7,3,187,487,main,positivefb,-99,easy,18,0.9182498999998643,['n'],1,right,['3'],4,0.05098970000108238,,,,,,,,6,18,Man,Links,2,
,dotcolour,dotcolour,xotask,8,3,188,488,main,positivefb,-99,average,52,0.8183141999998043,['c'],1,left,['1'],6,0.08118150000154856,,,,,,,,6,18,Man,Links,2,
,dotcolour,dotcolour,xotask,9,3,189,489,main,positivefb,-99,easy,17,0.5174408999992011,['n'],1,right,['1'],6,0.10562009999921429,,,,,,,,6,18,Man,Links,2,
,dotcolour,dotcolour,xotask,10,3,190,490,main,positivefb,-99,hard,36,1.0845838000004733,['n'],1,right,['1'],6,0.12321779999911087,,,,,,,,6,18,Man,Links,2,
,dotcolour,dotcolour,xotask,11,3,191,491,main,positivefb,-99,hard,42,0.5502920999988419,['c'],1,left,['1'],6,0.16085079999902518,,,,,,,,6,18,Man,Links,2,
,dotcolour,dotcolour,xotask,12,3,192,492,main,positivefb,-99,easy,61,0.5850945000001957,['c'],1,left,['1'],6,0.14052249999986088,,,,,,,,6,18,Man,Links,2,
,dotcolour,dotcolour,xotask,13,3,193,493,main,positivefb,-99,hard,35,1.2344567999989522,['n'],1,right,['3'],4,0.0704810000006546,,,,,,,,6,18,Man,Links,2,
,dotcolour,dotcolour,xotask,14,3,194,494,main,positivefb,-99,easy,61,0.6184603999990941,['c'],1,left,['1'],6,0.059962900000755326,,,,,,,,6,18,Man,Links,2,
,dotcolour,dotcolour,xotask,15,3,195,495,main,positivefb,-99,easy,61,0.9673714000000473,['c'],1,left,['1'],6,0.11587690000123985,,,,,,,,6,18,Man,Links,2,
,dotcolour,dotcolour,xotask,16,3,196,496,main,positivefb,-99,easy,65,0.5845316000013554,['c'],1,left,['1'],6,0.10434820000045875,,,,,,,,6,18,Man,Links,2,
,dotcolour,dotcolour,xotask,17,3,197,497,main,positivefb,-99,average,25,0.733754200000476,['n'],1,right,['1'],6,0.06347679999998945,,,,,,,,6,18,Man,Links,2,
,dotcolour,dotcolour,xotask,18,3,198,498,main,positivefb,-99,average,27,1.3178117999996175,['n'],1,right,['2'],5,0.08173790000000736,,,,,,,,6,18,Man,Links,2,
,dotcolour,dotcolour,xotask,19,3,199,499,main,positivefb,-99,easy,64,0.6498171999992337,['c'],1,left,['1'],6,0.09241439999823342,,,,,,,,6,18,Man,Links,2,
,dotcolour,dotcolour,xotask,20,3,200,500,main,positivefb,-99,average,53,0.7511928000003536,['c'],1,left,['1'],6,0.07657719999951951,,,,,,,,6,18,Man,Links,2,
,dotcolour,dotcolour,xotask,21,3,201,501,main,positivefb,-99,average,55,0.8671715000000404,['c'],1,left,['1'],6,0.09585659999902418,,,,,,,,6,18,Man,Links,2,
,dotcolour,dotcolour,xotask,22,3,202,502,main,positivefb,-99,easy,63,0.5018295000008948,['c'],1,left,['1'],6,0.12951799999973446,,,,,,,,6,18,Man,Links,2,
,dotcolour,dotcolour,xotask,23,3,203,503,main,positivefb,-99,hard,36,1.3677931999991415,['n'],1,right,['3'],4,0.15832570000020496,,,,,,,,6,18,Man,Links,2,
,dotcolour,dotcolour,xotask,24,3,204,504,main,positivefb,-99,average,54,0.6338417000006302,['c'],1,left,['1'],6,0.10339329999987967,,,,,,,,6,18,Man,Links,2,
,dotcolour,dotcolour,xotask,25,3,205,505,main,positivefb,-99,average,55,0.5507383999993181,['c'],1,left,['1'],6,0.09487319999971078,,,,,,,,6,18,Man,Links,2,
,dotcolour,dotcolour,xotask,26,3,206,506,main,positivefb,-99,easy,15,0.6181672000002436,['n'],1,right,['1'],6,0.05066450000049372,,,,,,,,6,18,Man,Links,2,
,dotcolour,dotcolour,xotask,27,3,207,507,main,positivefb,-99,average,26,0.4846182000001136,['n'],1,right,['1'],6,0.1503988999993453,,,,,,,,6,18,Man,Links,2,
,dotcolour,dotcolour,xotask,28,3,208,508,main,positivefb,-99,easy,15,0.5177700000003824,['n'],1,right,['1'],6,0.07641749999856984,,,,,,,,6,18,Man,Links,2,
,dotcolour,dotcolour,xotask,29,3,209,509,main,positivefb,-99,easy,15,0.5844722999991063,['n'],1,right,['1'],6,0.05925370000113617,,,,,,,,6,18,Man,Links,2,
,dotcolour,dotcolour,xotask,30,3,210,510,main,positivefb,-99,average,29,0.6686525999994046,['n'],1,right,['1'],6,0.04668459999993502,,,,,,,,6,18,Man,Links,2,
,dotcolour,dotcolour,xotask,31,3,211,511,main,positivefb,-99,easy,65,0.6014250999996875,['c'],1,left,['1'],6,0.19031709999944724,,,,,,,,6,18,Man,Links,2,
,dotcolour,dotcolour,xotask,32,3,212,512,main,positivefb,-99,hard,37,1.2509114000004047,['n'],1,right,['0'],1,1.06189330000052,,,,,,,,6,18,Man,Links,2,
,dotcolour,dotcolour,xotask,33,3,213,513,main,positivefb,-99,easy,17,0.7673331000005419,['c'],0,right,['1'],6,0.1014617000000726,,,,,,,,6,18,Man,Links,2,
,dotcolour,dotcolour,xotask,34,3,214,514,main,positivefb,-99,easy,62,0.5339368999993894,['c'],1,left,['1'],6,0.09350529999937862,,,,,,,,6,18,Man,Links,2,
,dotcolour,dotcolour,xotask,35,3,215,515,main,positivefb,-99,average,26,0.7339480000009644,['n'],1,right,['1'],6,0.04507960000046296,,,,,,,,6,18,Man,Links,2,
,dotcolour,dotcolour,xotask,36,3,216,516,main,positivefb,-99,hard,41,1.383521900001142,['c'],1,left,['8'],3,0.053272999999535386,,,,,,,,6,18,Man,Links,2,
,dotcolour,dotcolour,xotask,37,3,217,517,main,positivefb,-99,hard,35,1.0165302000004885,['n'],1,right,['8'],3,0.050873300000603194,,,,,,,,6,18,Man,Links,2,
,dotcolour,dotcolour,xotask,38,3,218,518,main,positivefb,-99,hard,39,1.4342148999985511,['c'],0,right,['3'],4,0.04874480000034964,,,,,,,,6,18,Man,Links,2,
,dotcolour,dotcolour,xotask,39,3,219,519,main,positivefb,-99,easy,18,1.7513378000003286,['n'],1,right,['1'],6,0.07306890000108979,,,,,,,,6,18,Man,Links,2,
,dotcolour,dotcolour,xotask,40,3,220,520,main,positivefb,-99,average,52,0.9172559999988152,['c'],1,left,['1'],6,0.08266419999927166,,,,,,,,6,18,Man,Links,2,
,dotcolour,dotcolour,xotask,41,3,221,521,main,positivefb,-99,easy,62,0.5343836000010924,['c'],1,left,['1'],6,0.09056690000033996,,,,,,,,6,18,Man,Links,2,
,dotcolour,dotcolour,xotask,42,3,222,522,main,positivefb,-99,hard,42,1.4836950000008073,['c'],1,left,['1'],6,0.1008598999997048,,,,,,,,6,18,Man,Links,2,
,dotcolour,dotcolour,xotask,43,3,223,523,main,positivefb,-99,hard,39,1.5843982999995205,['c'],0,right,['2'],5,0.10597930000039923,,,,,,,,6,18,Man,Links,2,
,dotcolour,dotcolour,xotask,44,3,224,524,main,positivefb,-99,average,54,1.2511206999988644,['c'],1,left,['2'],5,0.1488364000015281,,,,,,,,6,18,Man,Links,2,
,dotcolour,dotcolour,xotask,45,3,225,525,main,positivefb,-99,hard,42,1.235087700000804,['n'],0,left,['2'],5,0.046266899998954614,,,,,,,,6,18,Man,Links,2,
,dotcolour,dotcolour,xotask,46,3,226,526,main,positivefb,-99,hard,36,1.0510137000001123,['c'],0,right,['2'],5,0.09100599999874248,,,,,,,,6,18,Man,Links,2,
,dotcolour,dotcolour,xotask,47,3,227,527,main,positivefb,-99,hard,45,2.4343260000005102,['c'],1,left,['3'],4,0.07172689999970316,,,,,,,,6,18,Man,Links,2,
,dotcolour,dotcolour,xotask,48,3,228,528,main,positivefb,-99,hard,36,1.2020978000000468,['n'],1,right,['1'],6,0.061206400001537986,,,,,,,,6,18,Man,Links,2,
,dotcolour,dotcolour,xotask,49,3,229,529,main,positivefb,-99,hard,41,0.900442899999689,['c'],1,left,['1'],6,0.09578770000007353,,,,,,,,6,18,Man,Links,2,
,dotcolour,dotcolour,xotask,50,3,230,530,main,positivefb,-99,hard,41,1.7512813000012102,['c'],1,left,['3'],4,0.07088789999943401,,,,,,,,6,18,Man,Links,2,
,dotcolour,dotcolour,xotask,51,3,231,531,main,positivefb,-99,easy,18,0.7004818999994313,['n'],1,right,['1'],6,0.05689189999975497,,,,,,,,6,18,Man,Links,2,
,dotcolour,dotcolour,xotask,52,3,232,532,main,positivefb,-99,hard,43,1.0175082000005204,['c'],1,left,['1'],6,0.07095209999897634,,,,,,,,6,18,Man,Links,2,
,dotcolour,dotcolour,xotask,53,3,233,533,main,positivefb,-99,average,29,1.2503772000000026,['n'],1,right,['1'],6,0.058501900000919704,,,,,,,,6,18,Man,Links,2,
,dotcolour,dotcolour,xotask,54,3,234,534,main,positivefb,-99,average,27,1.3507847000000766,['n'],1,right,['3'],4,0.0841684000006353,,,,,,,,6,18,Man,Links,2,
,dotcolour,dotcolour,xotask,55,3,235,535,main,positivefb,-99,average,53,0.6341271000001143,['c'],1,left,['1'],6,0.0956279000001814,,,,,,,,6,18,Man,Links,2,
,dotcolour,dotcolour,xotask,56,3,236,536,main,positivefb,-99,easy,16,0.5345061000007263,['n'],1,right,['1'],6,0.06343650000053458,,,,,,,,6,18,Man,Links,2,
,dotcolour,dotcolour,xotask,57,3,237,537,main,positivefb,-99,average,51,0.9000897000005352,['c'],1,left,['1'],6,0.0980306000001292,,,,,,,,6,18,Man,Links,2,
,dotcolour,dotcolour,xotask,58,3,238,538,main,positivefb,-99,average,25,0.9334369999996852,['n'],1,right,['1'],6,0.057971700000052806,,,,,,,,6,18,Man,Links,2,
,dotcolour,dotcolour,xotask,59,3,239,539,main,positivefb,-99,hard,42,1.050934099999722,['c'],1,left,['2'],5,0.11993860000075074,,,,,,,,6,18,Man,Links,2,
,dotcolour,dotcolour,xotask,0,4,240,540,main,positivefb,-99,average,54,0.7837481000005937,['c'],1,left,['1'],6,0.04790809999940393,,,,,,,,6,18,Man,Links,2,
,dotcolour,dotcolour,xotask,1,4,241,541,main,positivefb,-99,easy,19,0.583978599999682,['n'],1,right,['1'],6,0.04725449999932607,,,,,,,,6,18,Man,Links,2,
,dotcolour,dotcolour,xotask,2,4,242,542,main,positivefb,-99,hard,36,0.9010710000002291,['n'],1,right,['1'],6,0.05075270000088494,,,,,,,,6,18,Man,Links,2,
,dotcolour,dotcolour,xotask,3,4,243,543,main,positivefb,-99,average,54,0.5166685999993206,['c'],1,left,['1'],6,0.10927850000007311,,,,,,,,6,18,Man,Links,2,
,dotcolour,dotcolour,xotask,4,4,244,544,main,positivefb,-99,hard,38,1.301044699999693,['c'],0,right,['2'],5,0.06976669999858132,,,,,,,,6,18,Man,Links,2,
,dotcolour,dotcolour,xotask,5,4,245,545,main,positivefb,-99,average,29,0.5327615999995032,['n'],1,right,['1'],6,0.04643399999986286,,,,,,,,6,18,Man,Links,2,
,dotcolour,dotcolour,xotask,6,4,246,546,main,positivefb,-99,hard,37,0.4842975999999908,['c'],0,right,['1'],6,0.09819389999938721,,,,,,,,6,18,Man,Links,2,
,dotcolour,dotcolour,xotask,7,4,247,547,main,positivefb,-99,average,53,0.5020074999993085,['c'],1,left,['1'],6,0.08296359999985725,,,,,,,,6,18,Man,Links,2,
,dotcolour,dotcolour,xotask,8,4,248,548,main,positivefb,-99,easy,16,0.4663992000005237,['n'],1,right,['1'],6,0.045168200000262004,,,,,,,,6,18,Man,Links,2,
,dotcolour,dotcolour,xotask,9,4,249,549,main,positivefb,-99,hard,38,0.634327800000392,['c'],0,right,['1'],6,0.0761051999998017,,,,,,,,6,18,Man,Links,2,
,dotcolour,dotcolour,xotask,10,4,250,550,main,positivefb,-99,easy,64,0.5014959999989514,['n'],0,left,['0'],1,0.7171613000009529,,,,,,,,6,18,Man,Links,2,
,dotcolour,dotcolour,xotask,11,4,251,551,main,positivefb,-99,easy,62,0.6512313000002905,['c'],1,left,['1'],6,0.08728469999914523,,,,,,,,6,18,Man,Links,2,
,dotcolour,dotcolour,xotask,12,4,252,552,main,positivefb,-99,average,26,1.016274900001008,['n'],1,right,['1'],6,0.08422369999971124,,,,,,,,6,18,Man,Links,2,
,dotcolour,dotcolour,xotask,13,4,253,553,main,positivefb,-99,hard,45,0.7847863000006328,['c'],1,left,['1'],6,0.12200930000108201,,,,,,,,6,18,Man,Links,2,
,dotcolour,dotcolour,xotask,14,4,254,554,main,positivefb,-99,average,54,0.5176516999999876,['c'],1,left,['1'],6,0.0974763999984134,,,,,,,,6,18,Man,Links,2,
,dotcolour,dotcolour,xotask,15,4,255,555,main,positivefb,-99,average,29,0.8008753000012803,['n'],1,right,['1'],6,0.13459530000000086,,,,,,,,6,18,Man,Links,2,
,dotcolour,dotcolour,xotask,16,4,256,556,main,positivefb,-99,average,51,0.7339484000003722,['c'],1,left,['2'],5,0.09270350000042527,,,,,,,,6,18,Man,Links,2,
,dotcolour,dotcolour,xotask,17,4,257,557,main,positivefb,-99,hard,39,1.4509471000001213,['n'],1,right,['2'],5,0.0648139999993873,,,,,,,,6,18,Man,Links,2,
,dotcolour,dotcolour,xotask,18,4,258,558,main,positivefb,-99,easy,65,0.6006751999993867,['c'],1,left,['1'],6,0.07836159999897063,,,,,,,,6,18,Man,Links,2,
,dotcolour,dotcolour,xotask,19,4,259,559,main,positivefb,-99,easy,16,0.5506913999997778,['n'],1,right,['1'],6,0.07772320000003674,,,,,,,,6,18,Man,Links,2,
,dotcolour,dotcolour,xotask,20,4,260,560,main,positivefb,-99,average,28,1.299559400000362,['n'],1,right,['1'],6,0.06342489999951795,,,,,,,,6,18,Man,Links,2,
,dotcolour,dotcolour,xotask,21,4,261,561,main,positivefb,-99,easy,18,0.9004690000001574,['n'],1,right,['1'],6,0.8989436000010755,,,,,,,,6,18,Man,Links,2,
,dotcolour,dotcolour,xotask,22,4,262,562,main,positivefb,-99,easy,65,0.6673203999998805,['c'],1,left,['1'],6,0.10090449999916018,,,,,,,,6,18,Man,Links,2,
,dotcolour,dotcolour,xotask,23,4,263,563,main,positivefb,-99,easy,17,0.6019326999994519,['n'],1,right,['1'],6,0.06546209999942221,,,,,,,,6,18,Man,Links,2,
,dotcolour,dotcolour,xotask,24,4,264,564,main,positivefb,-99,average,51,0.6661185000011756,['c'],1,left,['1'],6,0.09302269999898272,,,,,,,,6,18,Man,Links,2,
,dotcolour,dotcolour,xotask,25,4,265,565,main,positivefb,-99,easy,61,0.5168802000007418,['c'],1,left,['1'],6,0.11712049999914598,,,,,,,,6,18,Man,Links,2,
,dotcolour,dotcolour,xotask,26,4,266,566,main,positivefb,-99,easy,17,0.4842877999999473,['n'],1,right,['1'],6,0.04657940000106464,,,,,,,,6,18,Man,Links,2,
,dotcolour,dotcolour,xotask,27,4,267,567,main,positivefb,-99,hard,44,0.48380510000060895,['c'],1,left,['1'],6,0.09045359999981883,,,,,,,,6,18,Man,Links,2,
,dotcolour,dotcolour,xotask,28,4,268,568,main,positivefb,-99,hard,35,1.1845670000002428,['n'],1,right,['2'],5,0.09578009999859205,,,,,,,,6,18,Man,Links,2,
,dotcolour,dotcolour,xotask,29,4,269,569,main,positivefb,-99,hard,43,1.0013581000002887,['n'],0,left,['3'],4,0.11799390000123822,,,,,,,,6,18,Man,Links,2,
,dotcolour,dotcolour,xotask,30,4,270,570,main,positivefb,-99,easy,16,1.4340047000005143,['n'],1,right,['3'],4,0.032516799999939394,,,,,,,,6,18,Man,Links,2,
,dotcolour,dotcolour,xotask,31,4,271,571,main,positivefb,-99,hard,38,1.0494344999988243,['n'],1,right,['2'],5,0.3975562000014179,,,,,,,,6,18,Man,Links,2,
,dotcolour,dotcolour,xotask,32,4,272,572,main,positivefb,-99,easy,19,0.6175275999994483,['n'],1,right,['1'],6,0.18114040000000386,,,,,,,,6,18,Man,Links,2,
,dotcolour,dotcolour,xotask,33,4,273,573,main,positivefb,-99,hard,45,1.316518100000394,['n'],0,left,['2'],5,0.2102173999992374,,,,,,,,6,18,Man,Links,2,
,dotcolour,dotcolour,xotask,34,4,274,574,main,positivefb,-99,hard,41,0.6009305000006862,['c'],1,left,['1'],6,0.09899390000100539,,,,,,,,6,18,Man,Links,2,
,dotcolour,dotcolour,xotask,35,4,275,575,main,positivefb,-99,hard,41,0.6340126999984932,['c'],1,left,['1'],6,0.086290100000042,,,,,,,,6,18,Man,Links,2,
,dotcolour,dotcolour,xotask,36,4,276,576,main,positivefb,-99,hard,35,1.3177763999992749,['n'],1,right,['1'],6,0.06257619999996678,,,,,,,,6,18,Man,Links,2,
,dotcolour,dotcolour,xotask,37,4,277,577,main,positivefb,-99,hard,41,1.7999258999989252,['c'],1,left,['2'],5,0.06217870000000403,,,,,,,,6,18,Man,Links,2,
,dotcolour,dotcolour,xotask,38,4,278,578,main,positivefb,-99,average,28,0.9674663999994664,['c'],0,right,['2'],5,0.7099776000013662,,,,,,,,6,18,Man,Links,2,
,dotcolour,dotcolour,xotask,39,4,279,579,main,positivefb,-99,easy,19,0.7849134000007325,['n'],1,right,['1'],6,0.07486810000045807,,,,,,,,6,18,Man,Links,2,
,dotcolour,dotcolour,xotask,40,4,280,580,main,positivefb,-99,easy,65,0.46750400000019,['c'],1,left,['1'],6,0.08631009999953676,,,,,,,,6,18,Man,Links,2,
,dotcolour,dotcolour,xotask,41,4,281,581,main,positivefb,-99,hard,39,1.51790610000171,['n'],1,right,['3'],4,0.054712799999833805,,,,,,,,6,18,Man,Links,2,
,dotcolour,dotcolour,xotask,42,4,282,582,main,positivefb,-99,average,51,1.150795300000027,['c'],1,left,['3'],4,0.031677000000854605,,,,,,,,6,18,Man,Links,2,
,dotcolour,dotcolour,xotask,43,4,283,583,main,positivefb,-99,hard,44,0.7006798000002163,['c'],1,left,['3'],4,0.05064430000129505,,,,,,,,6,18,Man,Links,2,
,dotcolour,dotcolour,xotask,44,4,284,584,main,positivefb,-99,easy,18,0.7179359999990993,['n'],1,right,['0'],1,0.10846239999955287,,,,,,,,6,18,Man,Links,2,
,dotcolour,dotcolour,xotask,45,4,285,585,main,positivefb,-99,hard,36,1.1008378000005905,['n'],1,right,['1'],6,0.037156700000196,,,,,,,,6,18,Man,Links,2,
,dotcolour,dotcolour,xotask,46,4,286,586,main,positivefb,-99,average,55,0.700442600000315,['c'],1,left,['1'],6,0.09755750000113039,,,,,,,,6,18,Man,Links,2,
,dotcolour,dotcolour,xotask,47,4,287,587,main,positivefb,-99,easy,61,0.6342885999983991,['c'],1,left,['1'],6,0.10090809999928751,,,,,,,,6,18,Man,Links,2,
,dotcolour,dotcolour,xotask,48,4,288,588,main,positivefb,-99,easy,64,0.58457670000098,['c'],1,left,['1'],6,0.17006770000079996,,,,,,,,6,18,Man,Links,2,
,dotcolour,dotcolour,xotask,49,4,289,589,main,positivefb,-99,average,29,1.0349139999998442,['n'],1,right,['1'],6,0.03465390000019397,,,,,,,,6,18,Man,Links,2,
,dotcolour,dotcolour,xotask,50,4,290,590,main,positivefb,-99,easy,65,0.634603700000298,['c'],1,left,['1'],6,0.09651990000020305,,,,,,,,6,18,Man,Links,2,
,dotcolour,dotcolour,xotask,51,4,291,591,main,positivefb,-99,hard,44,1.5512455000007321,['c'],1,left,['2'],5,1.271885199999815,,,,,,,,6,18,Man,Links,2,
,dotcolour,dotcolour,xotask,52,4,292,592,main,positivefb,-99,average,29,0.8998400000000402,['n'],1,right,['2'],5,0.08252429999993183,,,,,,,,6,18,Man,Links,2,
,dotcolour,dotcolour,xotask,53,4,293,593,main,positivefb,-99,easy,63,0.5496506000017689,['c'],1,left,['1'],6,0.0574097000007896,,,,,,,,6,18,Man,Links,2,
,dotcolour,dotcolour,xotask,54,4,294,594,main,positivefb,-99,hard,44,1.8506218999991688,['c'],1,left,['1'],6,0.0546466000014334,,,,,,,,6,18,Man,Links,2,
,dotcolour,dotcolour,xotask,55,4,295,595,main,positivefb,-99,average,28,3.6679848000003403,['n'],1,right,['2'],5,0.09094639999966603,,,,,,,,6,18,Man,Links,2,
,dotcolour,dotcolour,xotask,56,4,296,596,main,positivefb,-99,average,55,0.6339633999996295,['c'],1,left,['1'],6,0.1027230999989115,,,,,,,,6,18,Man,Links,2,
,dotcolour,dotcolour,xotask,57,4,297,597,main,positivefb,-99,average,28,0.6348887000003742,['c'],0,right,['0'],1,0.6736624999994092,,,,,,,,6,18,Man,Links,2,
,dotcolour,dotcolour,xotask,58,4,298,598,main,positivefb,-99,average,51,0.7351046999992832,['c'],1,left,['1'],6,0.09876850000000559,,,,,,,,6,18,Man,Links,2,
,dotcolour,dotcolour,xotask,59,4,299,599,main,positivefb,-99,average,25,0.6170732000009593,['n'],1,right,['1'],6,0.10218300000087766,,,,,,,,6,18,Man,Links,2,
,dotcolour,dotcolour,xotask,0,0,0,600,training,positivefb,92,hard,45,0.7676549000007071,['c'],1,left,['1'],6,0.9198218999990786,,,,,,,,6,18,Man,Links,2,
,dotcolour,dotcolour,xotask,1,0,1,601,training,positivefb,95,average,26,0.7323381999995036,['n'],1,right,['1'],6,0.06278159999965283,,,,,,,,6,18,Man,Links,2,
,dotcolour,dotcolour,xotask,2,0,2,602,training,positivefb,91,hard,44,1.0502531999991334,['n'],0,left,['3'],4,0.033702400000038324,,,,,,,,6,18,Man,Links,2,
,dotcolour,dotcolour,xotask,3,0,3,603,training,positivefb,94,hard,45,0.5161855000005744,['c'],1,left,['2'],5,0.07614749999993364,,,,,,,,6,18,Man,Links,2,
,dotcolour,dotcolour,xotask,4,0,4,604,training,positivefb,86,hard,44,0.8669494000005216,['c'],1,left,['2'],5,0.17432159999953,,,,,,,,6,18,Man,Links,2,
,dotcolour,dotcolour,xotask,5,0,5,605,training,positivefb,97,easy,61,0.850675699999556,['c'],1,left,['0'],1,0.4059063000004244,,,,,,,,6,18,Man,Links,2,
,dotcolour,dotcolour,xotask,6,0,6,606,training,positivefb,89,hard,37,0.6666368000005605,['c'],0,right,['2'],5,0.16280019999976503,,,,,,,,6,18,Man,Links,2,
,dotcolour,dotcolour,xotask,7,0,7,607,training,positivefb,93,hard,43,0.7341290000003937,['n'],0,left,['3'],4,0.02423130000170204,,,,,,,,6,18,Man,Links,2,
,dotcolour,dotcolour,xotask,8,0,8,608,training,positivefb,79,hard,36,2.5999511999998504,['n'],1,right,['2'],5,0.046687699999893084,,,,,,,,6,18,Man,Links,2,
,dotcolour,dotcolour,xotask,9,0,9,609,training,positivefb,88,average,55,1.4666933999997127,['c'],1,left,['3'],4,0.04274299999997311,,,,,,,,6,18,Man,Links,2,
,dotcolour,dotcolour,xotask,10,0,10,610,training,positivefb,83,hard,36,1.4834711999992578,['c'],0,right,['2'],5,0.6064360999989731,,,,,,,,6,18,Man,Links,2,
,dotcolour,dotcolour,xotask,11,0,11,611,training,positivefb,92,hard,39,0.7004369999995106,['n'],1,right,['2'],5,0.018131099999664002,,,,,,,,6,18,Man,Links,2,
,dotcolour,dotcolour,xotask,12,0,12,612,training,positivefb,94,easy,64,0.533152500000142,['c'],1,left,['2'],5,0.06811430000016117,,,,,,,,6,18,Man,Links,2,
,dotcolour,dotcolour,xotask,13,0,13,613,training,positivefb,99,average,52,0.5997385000009672,['c'],1,left,['1'],6,0.31400140000005194,,,,,,,,6,18,Man,Links,2,
,dotcolour,dotcolour,xotask,14,0,14,614,training,positivefb,96,hard,41,0.5835333999984869,['n'],0,left,['1'],6,0.06258119999984046,,,,,,,,6,18,Man,Links,2,
,dotcolour,dotcolour,xotask,15,0,15,615,training,positivefb,95,average,25,0.6502263000002131,['n'],1,right,['1'],6,0.06639940000059141,,,,,,,,6,18,Man,Links,2,
,dotcolour,dotcolour,xotask,16,0,16,616,training,positivefb,93,average,28,0.7333749999997963,['n'],1,right,['1'],6,0.07470229999853473,,,,,,,,6,18,Man,Links,2,
,dotcolour,dotcolour,xotask,17,0,17,617,training,positivefb,96,average,51,0.6499167999991187,['c'],1,left,['1'],6,0.09391469999900437,,,,,,,,6,18,Man,Links,2,
,dotcolour,dotcolour,xotask,18,0,18,618,training,positivefb,95,average,25,0.5332027000004018,['n'],1,right,['1'],6,0.06923679999999877,,,,,,,,6,18,Man,Links,2,
,dotcolour,dotcolour,xotask,19,0,19,619,training,positivefb,96,easy,15,0.5004766999991261,['n'],1,right,['1'],6,0.06253780000042752,,,,,,,,6,18,Man,Links,2,
,dotcolour,dotcolour,xotask,20,0,20,620,training,positivefb,96,average,52,0.6165897000009863,['c'],1,left,['2'],5,0.10812710000027437,,,,,,,,6,18,Man,Links,2,
,dotcolour,dotcolour,xotask,21,0,21,621,training,positivefb,99,easy,16,0.41669270000056713,['n'],1,right,['1'],6,0.08710539999992761,,,,,,,,6,18,Man,Links,2,
,dotcolour,dotcolour,xotask,22,0,22,622,training,positivefb,98,average,53,0.5673485999996046,['c'],1,left,['1'],6,0.1090198000001692,,,,,,,,6,18,Man,Links,2,
,dotcolour,dotcolour,xotask,23,0,23,623,training,positivefb,95,average,55,0.7510619000004226,['c'],1,left,['2'],5,0.09874330000093323,,,,,,,,6,18,Man,Links,2,
,dotcolour,dotcolour,xotask,24,0,24,624,training,positivefb,94,easy,63,0.6670939000014187,['c'],1,left,['2'],5,0.0043786000005638925,,,,,,,,6,18,Man,Links,2,
,dotcolour,dotcolour,xotask,25,0,25,625,training,positivefb,95,hard,45,0.6173214000009466,['c'],1,left,['2'],5,0.09986019999996643,,,,,,,,6,18,Man,Links,2,
,dotcolour,dotcolour,xotask,26,0,26,626,training,positivefb,98,easy,15,0.617345300001034,['n'],1,right,['2'],5,0.06318149999970046,,,,,,,,6,18,Man,Links,2,
,dotcolour,dotcolour,xotask,27,0,27,627,training,positivefb,78,average,53,0.550126400001318,['c'],1,left,"['3', '2']",4,0.08769810000012512,,,,,,,,6,18,Man,Links,2,
,dotcolour,dotcolour,xotask,28,0,28,628,training,positivefb,87,hard,44,0.5328430000008666,['n'],0,left,['2'],5,0.0544886999996379,,,,,,,,6,18,Man,Links,2,
,dotcolour,dotcolour,xotask,29,0,29,629,training,positivefb,96,easy,65,0.6667517000005319,['c'],1,left,['2'],5,0.13799649999964458,,,,,,,,6,18,Man,Links,2,
,dotcolour,dotcolour,xotask,30,0,30,630,training,positivefb,95,average,28,0.5664551000008942,['n'],1,right,['2'],5,0.06986030000007304,,,,,,,,6,18,Man,Links,2,
,dotcolour,dotcolour,xotask,31,0,31,631,training,positivefb,96,average,25,0.5673540999996476,['n'],1,right,['1'],6,0.061122400000385824,,,,,,,,6,18,Man,Links,2,
,dotcolour,dotcolour,xotask,32,0,32,632,training,positivefb,99,average,28,0.5012778000000253,['n'],1,right,['2'],5,0.07050560000061523,,,,,,,,6,18,Man,Links,2,
,dotcolour,dotcolour,xotask,33,0,33,633,training,positivefb,93,average,26,0.6847025000006397,['n'],1,right,['2'],5,0.05675799999880837,,,,,,,,6,18,Man,Links,2,
,dotcolour,dotcolour,xotask,34,0,34,634,training,positivefb,96,easy,18,0.6499435000005178,['n'],1,right,['2'],5,0.04446829999869806,,,,,,,,6,18,Man,Links,2,
,dotcolour,dotcolour,xotask,35,0,35,635,training,positivefb,98,easy,19,0.48322790000020177,['n'],1,right,['2'],5,0.06421020000016142,,,,,,,,6,18,Man,Links,2,
,dotcolour,dotcolour,xotask,36,0,36,636,training,positivefb,98,easy,63,0.5833591999999044,['c'],1,left,['1'],6,0.11817979999977979,,,,,,,,6,18,Man,Links,2,
,dotcolour,dotcolour,xotask,37,0,37,637,training,positivefb,96,easy,15,0.4496187999993708,['n'],1,right,['2'],5,0.05589189999955124,,,,,,,,6,18,Man,Links,2,
,dotcolour,dotcolour,xotask,38,0,38,638,training,positivefb,93,average,52,0.6003942000006646,['c'],1,left,['2'],5,0.062348999999812804,,,,,,,,6,18,Man,Links,2,
,dotcolour,dotcolour,xotask,39,0,39,639,training,positivefb,98,hard,38,0.4839711000004172,['n'],1,right,['2'],5,0.35271370000009483,,,,,,,,6,18,Man,Links,2,
,dotcolour,dotcolour,xotask,40,0,40,640,training,positivefb,94,hard,39,0.6333780999993905,['n'],1,right,['2'],5,0.025656800000433577,,,,,,,,6,18,Man,Links,2,
,dotcolour,dotcolour,xotask,41,0,41,641,training,positivefb,94,hard,43,0.5339461000003212,['n'],0,left,['2'],5,0.03562950000014098,,,,,,,,6,18,Man,Links,2,
,dotcolour,dotcolour,xotask,42,0,42,642,training,positivefb,93,easy,62,0.4673524999998335,['c'],1,left,['2'],5,0.07967219999954978,,,,,,,,6,18,Man,Links,2,
