starttime,task,fbtask,firsttask,withinblocktrial,block,withintasktrial,trial,running,feedback,fbscore,difflevel,reddots,rt,resp,cor,cresp,conf_press,cj,RTconf,n_xes,stoptime,sub,age,gender,handedness,session,
1715588949,dotcolour,dotcolour,dotcolour,0,0,0,0,training,positivefb,100,easy,64,0.7996667999996134,['c'],1,left,['8'],4,1.1182644000000437,,,13,19,Vrouw,Rechts,1,
,dotcolour,dotcolour,dotcolour,1,0,1,1,training,positivefb,94,average,53,0.5667661999996199,['c'],1,left,['9'],5,0.33145370000056573,,,13,19,Vrouw,Rechts,1,
,dotcolour,dotcolour,dotcolour,2,0,2,2,training,positivefb,89,easy,19,0.5668283999993946,['n'],1,right,['9'],5,0.3120666999993773,,,13,19,Vrouw,Rechts,1,
,dotcolour,dotcolour,dotcolour,3,0,3,3,training,positivefb,99,easy,63,0.5668729999997595,['c'],1,left,['9'],5,0.26151219999974273,,,13,19,Vrouw,Rechts,1,
,dotcolour,dotcolour,dotcolour,4,0,4,4,training,positivefb,97,hard,44,0.6004593999996359,['n'],0,left,['9'],5,0.2836795000002894,,,13,19,Vrouw,Rechts,1,
,dotcolour,dotcolour,dotcolour,5,0,5,5,training,positivefb,98,hard,42,0.7169646000002103,['c'],1,left,['8'],4,0.3794336999999359,,,13,19,Vrouw,Rechts,1,
,dotcolour,dotcolour,dotcolour,6,0,6,6,training,positivefb,94,hard,37,0.6173806000006152,['n'],1,right,['8'],4,0.2598740999992515,,,13,19,Vrouw,Rechts,1,
,dotcolour,dotcolour,dotcolour,7,0,7,7,training,positivefb,97,easy,61,0.7500275000002148,['c'],1,left,['9'],5,0.26847970000017085,,,13,19,Vrouw,Rechts,1,
,dotcolour,dotcolour,dotcolour,8,0,8,8,training,positivefb,92,hard,45,0.7993604000002961,['n'],0,left,['8'],4,0.2899414000003162,,,13,19,Vrouw,Rechts,1,
,dotcolour,dotcolour,dotcolour,9,0,9,9,training,positivefb,99,hard,43,0.5665543000004618,['c'],1,left,['8'],4,0.23195720000057918,,,13,19,Vrouw,Rechts,1,
,dotcolour,dotcolour,dotcolour,10,0,10,10,training,positivefb,97,average,54,0.5002623999998832,['c'],1,left,['8'],4,0.21910299999944982,,,13,19,Vrouw,Rechts,1,
,dotcolour,dotcolour,dotcolour,11,0,11,11,training,positivefb,99,hard,37,0.5179659000004904,['n'],1,right,['9'],5,0.21365289999994275,,,13,19,Vrouw,Rechts,1,
,dotcolour,dotcolour,dotcolour,12,0,12,12,training,positivefb,97,easy,64,0.4669749000004231,['c'],1,left,['0'],6,0.20315759999994043,,,13,19,Vrouw,Rechts,1,
,dotcolour,dotcolour,dotcolour,13,0,13,13,training,positivefb,99,easy,19,0.6001850000002378,['n'],1,right,['0'],6,0.24241629999960423,,,13,19,Vrouw,Rechts,1,
,dotcolour,dotcolour,dotcolour,14,0,14,14,training,positivefb,93,easy,15,0.5841718000001492,['n'],1,right,['0'],6,0.22610069999973348,,,13,19,Vrouw,Rechts,1,
,dotcolour,dotcolour,dotcolour,15,0,15,15,training,positivefb,97,average,28,0.7495853999998872,['n'],1,right,['0'],6,0.25185160000000906,,,13,19,Vrouw,Rechts,1,
,dotcolour,dotcolour,dotcolour,16,0,16,16,training,positivefb,88,easy,65,0.466687300000558,['c'],1,left,['9'],5,0.3113923999999315,,,13,19,Vrouw,Rechts,1,
,dotcolour,dotcolour,dotcolour,17,0,17,17,training,positivefb,78,hard,36,0.616863999999623,['n'],1,right,['9'],5,0.2589672000003702,,,13,19,Vrouw,Rechts,1,
,dotcolour,dotcolour,dotcolour,18,0,18,18,training,positivefb,97,average,25,0.5168493999999555,['n'],1,right,['9'],5,0.31626409999989846,,,13,19,Vrouw,Rechts,1,
,dotcolour,dotcolour,dotcolour,19,0,19,19,training,positivefb,92,easy,18,0.5661331999999675,['n'],1,right,['9'],5,0.200760600000649,,,13,19,Vrouw,Rechts,1,
,dotcolour,dotcolour,dotcolour,20,0,20,20,training,positivefb,93,hard,39,0.6496789000002536,['c'],0,right,['9'],5,0.12579490000007354,,,13,19,Vrouw,Rechts,1,
,dotcolour,dotcolour,dotcolour,21,0,21,21,training,positivefb,86,hard,37,0.9669788999999582,['c'],0,right,['9'],5,0.12354730000060954,,,13,19,Vrouw,Rechts,1,
,dotcolour,dotcolour,dotcolour,22,0,22,22,training,positivefb,96,average,51,0.5834893000001102,['c'],1,left,['8'],4,0.3280193999999028,,,13,19,Vrouw,Rechts,1,
,dotcolour,dotcolour,dotcolour,23,0,23,23,training,positivefb,94,hard,41,0.5338260999997146,['n'],0,left,['8'],4,0.27779480000026524,,,13,19,Vrouw,Rechts,1,
,dotcolour,dotcolour,dotcolour,24,0,24,24,training,positivefb,98,average,54,0.5330846999995629,['c'],1,left,['9'],5,0.1659061999998812,,,13,19,Vrouw,Rechts,1,
,dotcolour,dotcolour,dotcolour,25,0,25,25,training,positivefb,91,easy,63,0.6826066000003266,['c'],1,left,['9'],5,0.21113929999955872,,,13,19,Vrouw,Rechts,1,
,dotcolour,dotcolour,dotcolour,26,0,26,26,training,positivefb,83,hard,36,0.5507357999995293,['n'],1,right,['9'],5,0.19721930000014254,,,13,19,Vrouw,Rechts,1,
,dotcolour,dotcolour,dotcolour,27,0,27,27,training,positivefb,94,easy,15,0.5336612000000969,['n'],1,right,['9'],5,0.22551199999998062,,,13,19,Vrouw,Rechts,1,
,dotcolour,dotcolour,dotcolour,28,0,28,28,training,positivefb,81,average,29,0.8174213000002055,['c'],0,right,['9'],5,0.18324440000014874,,,13,19,Vrouw,Rechts,1,
,dotcolour,dotcolour,dotcolour,29,0,29,29,training,positivefb,93,hard,36,0.550487599999542,['n'],1,right,['0'],6,0.2508873000006133,,,13,19,Vrouw,Rechts,1,
,dotcolour,dotcolour,dotcolour,30,0,30,30,training,positivefb,74,hard,38,0.6176415999998426,['c'],0,right,['9'],5,0.2486298000003444,,,13,19,Vrouw,Rechts,1,
,dotcolour,dotcolour,dotcolour,31,0,31,31,training,positivefb,97,average,28,0.6160792000000583,['n'],1,right,['9'],5,0.2380316999997376,,,13,19,Vrouw,Rechts,1,
,dotcolour,dotcolour,dotcolour,32,0,32,32,training,positivefb,81,average,26,0.8165431999996144,['c'],0,right,['8'],4,0.6847305999999662,,,13,19,Vrouw,Rechts,1,
,dotcolour,dotcolour,dotcolour,33,0,33,33,training,positivefb,93,hard,44,0.8174187999993592,['c'],1,left,['8'],4,0.24780719999944267,,,13,19,Vrouw,Rechts,1,
,dotcolour,dotcolour,dotcolour,34,0,34,34,training,positivefb,88,average,25,0.6157752999997683,['n'],1,right,['0'],6,0.1903159000003143,,,13,19,Vrouw,Rechts,1,
,dotcolour,dotcolour,dotcolour,35,0,35,35,training,positivefb,91,easy,16,0.6166935000001104,['n'],1,right,['0'],6,0.19892110000000685,,,13,19,Vrouw,Rechts,1,
,dotcolour,dotcolour,dotcolour,36,0,36,36,training,positivefb,79,hard,41,0.4995834000001196,['c'],1,left,['0'],6,0.2345415999998295,,,13,19,Vrouw,Rechts,1,
,dotcolour,dotcolour,dotcolour,37,0,37,37,training,positivefb,89,hard,37,0.6159672000003411,['n'],1,right,['8'],4,0.30397329999959766,,,13,19,Vrouw,Rechts,1,
,dotcolour,dotcolour,dotcolour,38,0,38,38,training,positivefb,99,hard,41,0.566407799999979,['c'],1,left,['8'],4,0.3338870000006864,,,13,19,Vrouw,Rechts,1,
,dotcolour,dotcolour,dotcolour,39,0,39,39,training,positivefb,90,easy,61,0.4827320000003965,['c'],1,left,['0'],6,0.31785039999977016,,,13,19,Vrouw,Rechts,1,
,dotcolour,dotcolour,dotcolour,40,0,40,40,training,positivefb,91,easy,18,0.6179584999999861,['n'],1,right,['0'],6,0.183541299999888,,,13,19,Vrouw,Rechts,1,
,dotcolour,dotcolour,dotcolour,41,0,41,41,training,positivefb,94,average,53,0.5675185000000056,['c'],1,left,['0'],6,0.18637980000039533,,,13,19,Vrouw,Rechts,1,
,dotcolour,dotcolour,dotcolour,42,0,42,42,training,positivefb,89,hard,42,0.549122699999316,['n'],0,left,['9'],5,0.24464069999976346,,,13,19,Vrouw,Rechts,1,
,dotcolour,dotcolour,dotcolour,43,0,43,43,training,positivefb,98,easy,19,0.48300210000070365,['n'],1,right,['0'],6,0.22462139999970532,,,13,19,Vrouw,Rechts,1,
,dotcolour,dotcolour,dotcolour,44,0,44,44,training,positivefb,94,average,29,0.5344224000000395,['c'],0,right,['8'],4,0.2580982999998014,,,13,19,Vrouw,Rechts,1,
,dotcolour,dotcolour,dotcolour,45,0,45,45,training,positivefb,94,average,27,0.5658614000003581,['n'],1,right,['0'],6,0.1861736999999266,,,13,19,Vrouw,Rechts,1,
,dotcolour,dotcolour,dotcolour,46,0,46,46,training,positivefb,94,easy,62,0.4998615000004065,['c'],1,left,['0'],6,0.18192280000039318,,,13,19,Vrouw,Rechts,1,
,dotcolour,dotcolour,dotcolour,47,0,47,47,training,positivefb,87,hard,42,0.5649405000003753,['n'],0,left,['9'],5,0.32823910000024625,,,13,19,Vrouw,Rechts,1,
,dotcolour,dotcolour,dotcolour,48,0,48,48,training,positivefb,91,average,52,0.5829742999994778,['c'],1,left,['0'],6,0.2374681999999666,,,13,19,Vrouw,Rechts,1,
,dotcolour,dotcolour,dotcolour,49,0,49,49,training,positivefb,96,easy,16,0.48382610000044224,['n'],1,right,['0'],6,0.2085187999991831,,,13,19,Vrouw,Rechts,1,
,dotcolour,dotcolour,dotcolour,50,0,50,50,training,positivefb,86,average,54,0.8508708999997907,['c'],1,left,['8'],4,0.21426420000079816,,,13,19,Vrouw,Rechts,1,
,dotcolour,dotcolour,dotcolour,51,0,51,51,training,positivefb,99,average,51,0.6339625000000524,['c'],1,left,['9'],5,0.18903550000050018,,,13,19,Vrouw,Rechts,1,
,dotcolour,dotcolour,dotcolour,52,0,52,52,training,positivefb,94,easy,17,0.5837627000000793,['n'],1,right,['0'],6,0.18278149999969173,,,13,19,Vrouw,Rechts,1,
,dotcolour,dotcolour,dotcolour,53,0,53,53,training,positivefb,75,hard,39,0.7158151000003272,['c'],0,right,['9'],5,0.2747394999996686,,,13,19,Vrouw,Rechts,1,
,dotcolour,dotcolour,dotcolour,54,0,54,54,training,positivefb,96,average,28,0.5511277000005066,['n'],1,right,['0'],6,0.23455729999932373,,,13,19,Vrouw,Rechts,1,
,dotcolour,dotcolour,dotcolour,55,0,55,55,training,positivefb,95,average,53,0.5168008999999074,['c'],1,left,['0'],6,0.22788209999998799,,,13,19,Vrouw,Rechts,1,
,dotcolour,dotcolour,dotcolour,56,0,56,56,training,positivefb,87,average,29,0.5161883999999191,['n'],1,right,['0'],6,0.3272988999997324,,,13,19,Vrouw,Rechts,1,
,dotcolour,dotcolour,dotcolour,57,0,57,57,training,positivefb,95,easy,65,0.5666135999999824,['c'],1,left,['0'],6,0.17869210000026214,,,13,19,Vrouw,Rechts,1,
,dotcolour,dotcolour,dotcolour,58,0,58,58,training,positivefb,98,easy,62,0.4667005000001154,['c'],1,left,['0'],6,0.17797719999998662,,,13,19,Vrouw,Rechts,1,
,dotcolour,dotcolour,dotcolour,59,0,59,59,training,positivefb,97,average,54,0.4671723999999813,['c'],1,left,['0'],6,0.1369023000006564,,,13,19,Vrouw,Rechts,1,
,dotcolour,dotcolour,dotcolour,0,1,60,60,training,positivefb,93,hard,36,0.8511250000001382,['n'],1,right,['0'],6,0.17768159999923228,,,13,19,Vrouw,Rechts,1,
,dotcolour,dotcolour,dotcolour,1,1,61,61,training,positivefb,97,easy,62,0.5508076000005531,['c'],1,left,['0'],6,0.16352329999972426,,,13,19,Vrouw,Rechts,1,
,dotcolour,dotcolour,dotcolour,2,1,62,62,training,positivefb,91,easy,15,0.5172429999993255,['n'],1,right,['0'],6,0.16157399999974587,,,13,19,Vrouw,Rechts,1,
,dotcolour,dotcolour,dotcolour,3,1,63,63,training,positivefb,99,average,27,0.6670866000004025,['n'],1,right,['9'],5,0.24101100000007136,,,13,19,Vrouw,Rechts,1,
,dotcolour,dotcolour,dotcolour,4,1,64,64,training,positivefb,96,hard,42,0.5342747000004238,['c'],1,left,['9'],5,0.2980203999995865,,,13,19,Vrouw,Rechts,1,
,dotcolour,dotcolour,dotcolour,5,1,65,65,training,positivefb,87,hard,37,0.6994272000001729,['n'],1,right,['9'],5,0.36268359999940003,,,13,19,Vrouw,Rechts,1,
,dotcolour,dotcolour,dotcolour,6,1,66,66,training,positivefb,97,easy,65,0.48355979999996634,['c'],1,left,['0'],6,0.20964160000039556,,,13,19,Vrouw,Rechts,1,
,dotcolour,dotcolour,dotcolour,7,1,67,67,training,positivefb,89,average,52,0.5013393999997788,['c'],1,left,['0'],6,0.21339050000005955,,,13,19,Vrouw,Rechts,1,
,dotcolour,dotcolour,dotcolour,8,1,68,68,training,positivefb,93,average,29,0.91660309999952,['n'],1,right,['8'],4,0.472411299999294,,,13,19,Vrouw,Rechts,1,
,dotcolour,dotcolour,dotcolour,9,1,69,69,training,positivefb,97,easy,17,0.7845588999998654,['n'],1,right,['8'],4,0.2624581999998554,,,13,19,Vrouw,Rechts,1,
,dotcolour,dotcolour,dotcolour,10,1,70,70,training,positivefb,96,hard,43,0.649391399999331,['c'],1,left,['0'],6,0.21850840000024618,,,13,19,Vrouw,Rechts,1,
,dotcolour,dotcolour,dotcolour,11,1,71,71,training,positivefb,97,hard,42,0.700713000000178,['c'],1,left,['9'],5,0.2466125999999349,,,13,19,Vrouw,Rechts,1,
,dotcolour,dotcolour,dotcolour,12,1,72,72,training,positivefb,92,easy,19,0.5172429000003831,['n'],1,right,['0'],6,0.3848189000000275,,,13,19,Vrouw,Rechts,1,
,dotcolour,dotcolour,dotcolour,13,1,73,73,training,positivefb,94,hard,41,0.765878000000157,['c'],1,left,['9'],5,0.5462460999997347,,,13,19,Vrouw,Rechts,1,
,dotcolour,dotcolour,dotcolour,14,1,74,74,training,positivefb,98,easy,18,0.5668884999995498,['n'],1,right,['0'],6,0.17459629999939352,,,13,19,Vrouw,Rechts,1,
,dotcolour,dotcolour,dotcolour,15,1,75,75,training,positivefb,87,average,26,0.8171819999997751,['n'],1,right,['9'],5,0.28664949999983946,,,13,19,Vrouw,Rechts,1,
,dotcolour,dotcolour,dotcolour,16,1,76,76,training,positivefb,75,average,26,0.533379800000148,['n'],1,right,['0'],6,0.15073729999949137,,,13,19,Vrouw,Rechts,1,
,dotcolour,dotcolour,dotcolour,17,1,77,77,training,positivefb,94,easy,18,0.6347279000001436,['n'],1,right,['0'],6,0.2234959000006711,,,13,19,Vrouw,Rechts,1,
,dotcolour,dotcolour,dotcolour,18,1,78,78,training,positivefb,96,hard,41,0.6168499000004886,['c'],1,left,['8'],4,0.3346398000003319,,,13,19,Vrouw,Rechts,1,
,dotcolour,dotcolour,dotcolour,19,1,79,79,training,positivefb,96,average,25,0.5494212000003245,['n'],1,right,['0'],6,0.3066775000006601,,,13,19,Vrouw,Rechts,1,
,dotcolour,dotcolour,dotcolour,20,1,80,80,training,positivefb,93,average,53,0.48433659999955125,['c'],1,left,['0'],6,0.22788840000066557,,,13,19,Vrouw,Rechts,1,
,dotcolour,dotcolour,dotcolour,21,1,81,81,training,positivefb,73,hard,39,1.0500330000004396,['c'],0,right,['9'],5,0.3534360999992714,,,13,19,Vrouw,Rechts,1,
,dotcolour,dotcolour,dotcolour,22,1,82,82,training,positivefb,95,easy,18,0.5331279000001814,['n'],1,right,['0'],6,0.1740552999999636,,,13,19,Vrouw,Rechts,1,
,dotcolour,dotcolour,dotcolour,23,1,83,83,training,positivefb,98,easy,19,0.6997439000006125,['n'],1,right,['0'],6,0.16327709999950457,,,13,19,Vrouw,Rechts,1,
,dotcolour,dotcolour,dotcolour,24,1,84,84,training,positivefb,96,easy,19,0.48240200000054756,['n'],1,right,['0'],6,0.1614542999996047,,,13,19,Vrouw,Rechts,1,
,dotcolour,dotcolour,dotcolour,25,1,85,85,training,positivefb,94,hard,43,0.5668869000000996,['c'],1,left,['9'],5,0.2138029000007009,,,13,19,Vrouw,Rechts,1,
,dotcolour,dotcolour,dotcolour,26,1,86,86,training,positivefb,59,hard,39,0.7673162999999477,['n'],1,right,['9'],5,0.3103125999996337,,,13,19,Vrouw,Rechts,1,
,dotcolour,dotcolour,dotcolour,27,1,87,87,training,positivefb,98,average,26,0.749821499999598,['n'],1,right,['0'],6,0.31723760000022594,,,13,19,Vrouw,Rechts,1,
,dotcolour,dotcolour,dotcolour,28,1,88,88,training,positivefb,97,hard,41,0.5679513999994015,['c'],1,left,['9'],5,0.20977659999971365,,,13,19,Vrouw,Rechts,1,
,dotcolour,dotcolour,dotcolour,29,1,89,89,training,positivefb,96,easy,64,0.5995891000002302,['c'],1,left,['9'],5,0.2817176999997173,,,13,19,Vrouw,Rechts,1,
,dotcolour,dotcolour,dotcolour,30,1,90,90,training,positivefb,98,average,52,0.6161474000000453,['c'],1,left,['9'],5,0.21480410000003758,,,13,19,Vrouw,Rechts,1,
,dotcolour,dotcolour,dotcolour,31,1,91,91,training,positivefb,94,easy,16,0.6849086000001989,['n'],1,right,['0'],6,0.1958703999998761,,,13,19,Vrouw,Rechts,1,
,dotcolour,dotcolour,dotcolour,32,1,92,92,training,positivefb,97,easy,62,0.5506064000001061,['c'],1,left,['0'],6,0.26220530000045983,,,13,19,Vrouw,Rechts,1,
,dotcolour,dotcolour,dotcolour,33,1,93,93,training,positivefb,97,hard,36,0.6340181000005032,['n'],1,right,['9'],5,0.32241010000052484,,,13,19,Vrouw,Rechts,1,
,dotcolour,dotcolour,dotcolour,34,1,94,94,training,positivefb,84,average,27,0.5998211999994965,['n'],1,right,['9'],5,0.25394349999987753,,,13,19,Vrouw,Rechts,1,
,dotcolour,dotcolour,dotcolour,35,1,95,95,training,positivefb,98,easy,61,0.5671040000006542,['c'],1,left,['9'],5,0.1656412000002092,,,13,19,Vrouw,Rechts,1,
,dotcolour,dotcolour,dotcolour,36,1,96,96,training,positivefb,96,hard,35,0.5663281999995888,['n'],1,right,['9'],5,0.27240310000070167,,,13,19,Vrouw,Rechts,1,
,dotcolour,dotcolour,dotcolour,37,1,97,97,training,positivefb,97,easy,61,0.5837539999993169,['c'],1,left,['0'],6,0.18949930000053428,,,13,19,Vrouw,Rechts,1,
,dotcolour,dotcolour,dotcolour,38,1,98,98,training,positivefb,83,average,52,0.6164679000003161,['c'],1,left,['9'],5,0.26248089999990043,,,13,19,Vrouw,Rechts,1,
,dotcolour,dotcolour,dotcolour,39,1,99,99,training,positivefb,91,average,51,0.5681783999998515,['c'],1,left,['8'],4,0.46181280000018887,,,13,19,Vrouw,Rechts,1,
,dotcolour,dotcolour,dotcolour,40,1,100,100,training,positivefb,95,easy,61,0.5505139999995663,['c'],1,left,['9'],5,0.1497231000003012,,,13,19,Vrouw,Rechts,1,
,dotcolour,dotcolour,dotcolour,41,1,101,101,training,positivefb,98,easy,62,0.5670859000001656,['c'],1,left,['9'],5,0.24900609999986045,,,13,19,Vrouw,Rechts,1,
,dotcolour,dotcolour,dotcolour,42,1,102,102,training,positivefb,91,average,29,0.632868700000472,['n'],1,right,['9'],5,0.28636009999991074,,,13,19,Vrouw,Rechts,1,
,dotcolour,dotcolour,dotcolour,43,1,103,103,training,positivefb,88,hard,38,0.999332599999434,['n'],1,right,['9'],5,0.6421433999994406,,,13,19,Vrouw,Rechts,1,
,dotcolour,dotcolour,dotcolour,44,1,104,104,training,positivefb,95,average,55,0.9327321000000666,['c'],1,left,['0'],6,0.2919307000001936,,,13,19,Vrouw,Rechts,1,
,dotcolour,dotcolour,dotcolour,45,1,105,105,training,positivefb,95,easy,19,0.565835800000059,['n'],1,right,['0'],6,0.2022426000003179,,,13,19,Vrouw,Rechts,1,
,dotcolour,dotcolour,dotcolour,46,1,106,106,training,positivefb,93,easy,61,0.6844234000000142,['c'],1,left,['9'],5,0.23086779999994178,,,13,19,Vrouw,Rechts,1,
,dotcolour,dotcolour,dotcolour,47,1,107,107,training,positivefb,86,hard,42,0.6663943000003201,['n'],0,left,['9'],5,0.28352579999955196,,,13,19,Vrouw,Rechts,1,
,dotcolour,dotcolour,dotcolour,48,1,108,108,training,positivefb,95,average,52,0.4992956000005506,['c'],1,left,['9'],5,0.283948600000258,,,13,19,Vrouw,Rechts,1,
,dotcolour,dotcolour,dotcolour,49,1,109,109,training,positivefb,93,hard,36,0.6330754999999044,['n'],1,right,['9'],5,0.27154849999988073,,,13,19,Vrouw,Rechts,1,
,dotcolour,dotcolour,dotcolour,50,1,110,110,training,positivefb,92,hard,41,0.600461400000313,['c'],1,left,['0'],6,0.2766781999998784,,,13,19,Vrouw,Rechts,1,
,dotcolour,dotcolour,dotcolour,51,1,111,111,training,positivefb,10,easy,64,0.6834596999997302,['n'],0,left,['3'],3,1.159910200000013,,,13,19,Vrouw,Rechts,1,
,dotcolour,dotcolour,dotcolour,52,1,112,112,training,positivefb,89,hard,39,0.6995127999998658,['n'],1,right,['9'],5,0.18063310000070487,,,13,19,Vrouw,Rechts,1,
,dotcolour,dotcolour,dotcolour,53,1,113,113,training,positivefb,96,average,54,0.5990819000007832,['c'],1,left,['0'],6,0.19121309999991354,,,13,19,Vrouw,Rechts,1,
,dotcolour,dotcolour,dotcolour,54,1,114,114,training,positivefb,99,average,27,0.5680744000001141,['n'],1,right,['0'],6,0.27251479999995354,,,13,19,Vrouw,Rechts,1,
,dotcolour,dotcolour,dotcolour,55,1,115,115,training,positivefb,79,hard,39,1.1341948000008415,['c'],0,right,['9'],5,0.280501500000355,,,13,19,Vrouw,Rechts,1,
,dotcolour,dotcolour,dotcolour,56,1,116,116,training,positivefb,95,average,54,0.6510350999997172,['c'],1,left,['0'],6,0.2126245999997991,,,13,19,Vrouw,Rechts,1,
,dotcolour,dotcolour,dotcolour,57,1,117,117,training,positivefb,97,average,27,0.6830101000005016,['n'],1,right,['0'],6,0.28122310000071593,,,13,19,Vrouw,Rechts,1,
,dotcolour,dotcolour,dotcolour,58,1,118,118,training,positivefb,83,hard,42,0.816563500000484,['c'],1,left,['9'],5,0.2613960999997289,,,13,19,Vrouw,Rechts,1,
,dotcolour,dotcolour,dotcolour,59,1,119,119,training,positivefb,97,average,53,0.5653799000001527,['c'],1,left,['0'],6,0.2363950000008117,,,13,19,Vrouw,Rechts,1,
,dotcolour,dotcolour,dotcolour,0,2,120,120,main,positivefb,-99,hard,35,0.8999547999992501,['n'],1,right,['9'],5,0.30075459999989107,,,13,19,Vrouw,Rechts,1,
,dotcolour,dotcolour,dotcolour,1,2,121,121,main,positivefb,-99,easy,64,0.6503174999998009,['c'],1,left,['0'],6,0.1990853999996034,,,13,19,Vrouw,Rechts,1,
,dotcolour,dotcolour,dotcolour,2,2,122,122,main,positivefb,-99,easy,19,0.5844059999999445,['n'],1,right,['9'],5,0.2249738000000434,,,13,19,Vrouw,Rechts,1,
,dotcolour,dotcolour,dotcolour,3,2,123,123,main,positivefb,-99,average,26,0.6856913999999961,['n'],1,right,['0'],6,0.25339359999998123,,,13,19,Vrouw,Rechts,1,
,dotcolour,dotcolour,dotcolour,4,2,124,124,main,positivefb,-99,easy,65,0.46819679999953223,['c'],1,left,['0'],6,0.2170826000001398,,,13,19,Vrouw,Rechts,1,
,dotcolour,dotcolour,dotcolour,5,2,125,125,main,positivefb,-99,hard,45,0.7670734000002994,['n'],0,left,['8'],4,0.31439829999999347,,,13,19,Vrouw,Rechts,1,
,dotcolour,dotcolour,dotcolour,6,2,126,126,main,positivefb,-99,average,51,0.5168481000000611,['c'],1,left,['9'],5,0.29909779999979946,,,13,19,Vrouw,Rechts,1,
,dotcolour,dotcolour,dotcolour,7,2,127,127,main,positivefb,-99,average,28,0.4676224999993792,['n'],1,right,['9'],5,0.2853581999997914,,,13,19,Vrouw,Rechts,1,
,dotcolour,dotcolour,dotcolour,8,2,128,128,main,positivefb,-99,average,27,1.1518211000002339,['n'],1,right,['8'],4,0.47615139999925304,,,13,19,Vrouw,Rechts,1,
,dotcolour,dotcolour,dotcolour,9,2,129,129,main,positivefb,-99,easy,18,0.6169591999996555,['n'],1,right,['0'],6,0.21808430000055523,,,13,19,Vrouw,Rechts,1,
,dotcolour,dotcolour,dotcolour,10,2,130,130,main,positivefb,-99,average,53,0.46708420000049955,['c'],1,left,['0'],6,0.24750399999993533,,,13,19,Vrouw,Rechts,1,
,dotcolour,dotcolour,dotcolour,11,2,131,131,main,positivefb,-99,easy,61,0.5001775999999154,['c'],1,left,['0'],6,0.2026507999999012,,,13,19,Vrouw,Rechts,1,
,dotcolour,dotcolour,dotcolour,12,2,132,132,main,positivefb,-99,hard,44,0.7503848000005746,['n'],0,left,['9'],5,0.3006793000004109,,,13,19,Vrouw,Rechts,1,
,dotcolour,dotcolour,dotcolour,13,2,133,133,main,positivefb,-99,easy,65,0.6506278000006205,['c'],1,left,['0'],6,0.2155878000003213,,,13,19,Vrouw,Rechts,1,
,dotcolour,dotcolour,dotcolour,14,2,134,134,main,positivefb,-99,easy,65,0.5001329000006081,['c'],1,left,['0'],6,0.34721190000072966,,,13,19,Vrouw,Rechts,1,
,dotcolour,dotcolour,dotcolour,15,2,135,135,main,positivefb,-99,hard,44,0.5504617999995389,['n'],0,left,['8'],4,0.7695749000004071,,,13,19,Vrouw,Rechts,1,
,dotcolour,dotcolour,dotcolour,16,2,136,136,main,positivefb,-99,hard,41,1.1177874000004522,['c'],1,left,['9'],5,0.4865477000003011,,,13,19,Vrouw,Rechts,1,
,dotcolour,dotcolour,dotcolour,17,2,137,137,main,positivefb,-99,hard,45,0.8669541999997818,['n'],0,left,['9'],5,0.23361320000003616,,,13,19,Vrouw,Rechts,1,
,dotcolour,dotcolour,dotcolour,18,2,138,138,main,positivefb,-99,average,51,0.5834743000004892,['c'],1,left,['9'],5,0.2980629999992743,,,13,19,Vrouw,Rechts,1,
,dotcolour,dotcolour,dotcolour,19,2,139,139,main,positivefb,-99,average,25,0.5841816000001927,['n'],1,right,['0'],6,0.2791949000002205,,,13,19,Vrouw,Rechts,1,
,dotcolour,dotcolour,dotcolour,20,2,140,140,main,positivefb,-99,hard,38,0.9005922999995164,['n'],1,right,['8'],4,0.6657794000002468,,,13,19,Vrouw,Rechts,1,
,dotcolour,dotcolour,dotcolour,21,2,141,141,main,positivefb,-99,average,54,0.5504877999992459,['c'],1,left,['0'],6,0.2095352999995157,,,13,19,Vrouw,Rechts,1,
,dotcolour,dotcolour,dotcolour,22,2,142,142,main,positivefb,-99,easy,16,0.6346724000004542,['n'],1,right,['0'],6,0.18523050000021613,,,13,19,Vrouw,Rechts,1,
,dotcolour,dotcolour,dotcolour,23,2,143,143,main,positivefb,-99,hard,41,0.6841844999999012,['c'],1,left,['9'],5,0.48674560000017664,,,13,19,Vrouw,Rechts,1,
,dotcolour,dotcolour,dotcolour,24,2,144,144,main,positivefb,-99,average,29,1.1505520000000615,['n'],1,right,['9'],5,0.3029717999997956,,,13,19,Vrouw,Rechts,1,
,dotcolour,dotcolour,dotcolour,25,2,145,145,main,positivefb,-99,hard,36,0.8167765999996845,['n'],1,right,['9'],5,0.3058320999998614,,,13,19,Vrouw,Rechts,1,
,dotcolour,dotcolour,dotcolour,26,2,146,146,main,positivefb,-99,average,52,0.6511819999996078,['c'],1,left,['9'],5,0.21319930000026943,,,13,19,Vrouw,Rechts,1,
,dotcolour,dotcolour,dotcolour,27,2,147,147,main,positivefb,-99,hard,43,1.234867999999551,['c'],1,left,['9'],5,0.30847930000072665,,,13,19,Vrouw,Rechts,1,
,dotcolour,dotcolour,dotcolour,28,2,148,148,main,positivefb,-99,easy,16,0.7001770999995642,['n'],1,right,['0'],6,0.3326682000006258,,,13,19,Vrouw,Rechts,1,
,dotcolour,dotcolour,dotcolour,29,2,149,149,main,positivefb,-99,hard,42,0.7677397999996174,['c'],1,left,['9'],5,0.21015489999990677,,,13,19,Vrouw,Rechts,1,
,dotcolour,dotcolour,dotcolour,30,2,150,150,main,positivefb,-99,easy,62,0.6674477000005936,['c'],1,left,['0'],6,0.15285820000008243,,,13,19,Vrouw,Rechts,1,
,dotcolour,dotcolour,dotcolour,31,2,151,151,main,positivefb,-99,hard,36,0.6674235999998928,['n'],1,right,['9'],5,0.2973317000005409,,,13,19,Vrouw,Rechts,1,
,dotcolour,dotcolour,dotcolour,32,2,152,152,main,positivefb,-99,average,29,0.7005447000001368,['n'],1,right,['9'],5,0.17790419999982987,,,13,19,Vrouw,Rechts,1,
,dotcolour,dotcolour,dotcolour,33,2,153,153,main,positivefb,-99,hard,36,0.6999046000000817,['c'],0,right,['9'],5,0.28680789999998524,,,13,19,Vrouw,Rechts,1,
,dotcolour,dotcolour,dotcolour,34,2,154,154,main,positivefb,-99,easy,65,0.5670899000006102,['c'],1,left,['0'],6,0.17432359999929758,,,13,19,Vrouw,Rechts,1,
,dotcolour,dotcolour,dotcolour,35,2,155,155,main,positivefb,-99,easy,64,0.5339578000002803,['c'],1,left,['0'],6,0.19565549999970244,,,13,19,Vrouw,Rechts,1,
,dotcolour,dotcolour,dotcolour,36,2,156,156,main,positivefb,-99,hard,43,0.9004771999998411,['c'],1,left,['0'],6,0.18420760000026348,,,13,19,Vrouw,Rechts,1,
,dotcolour,dotcolour,dotcolour,37,2,157,157,main,positivefb,-99,easy,18,0.5170771000002787,['n'],1,right,['0'],6,0.1808049999999639,,,13,19,Vrouw,Rechts,1,
,dotcolour,dotcolour,dotcolour,38,2,158,158,main,positivefb,-99,average,51,0.5500842000001285,['c'],1,left,['0'],6,0.1530880000000252,,,13,19,Vrouw,Rechts,1,
,dotcolour,dotcolour,dotcolour,39,2,159,159,main,positivefb,-99,easy,65,0.9004322999999204,['c'],1,left,['0'],6,0.19131209999977727,,,13,19,Vrouw,Rechts,1,
,dotcolour,dotcolour,dotcolour,40,2,160,160,main,positivefb,-99,hard,38,0.9676333999996132,['c'],0,right,['9'],5,0.17817190000005212,,,13,19,Vrouw,Rechts,1,
,dotcolour,dotcolour,dotcolour,41,2,161,161,main,positivefb,-99,hard,37,0.9338087000005544,['c'],0,right,['8'],4,0.19920639999963896,,,13,19,Vrouw,Rechts,1,
,dotcolour,dotcolour,dotcolour,42,2,162,162,main,positivefb,-99,average,27,0.7000081999995018,['n'],1,right,['9'],5,0.23534579999977723,,,13,19,Vrouw,Rechts,1,
,dotcolour,dotcolour,dotcolour,43,2,163,163,main,positivefb,-99,average,54,0.5509679000006145,['c'],1,left,['9'],5,0.2127714999996897,,,13,19,Vrouw,Rechts,1,
,dotcolour,dotcolour,dotcolour,44,2,164,164,main,positivefb,-99,easy,18,0.6501005000000077,['n'],1,right,['0'],6,0.21194040000045788,,,13,19,Vrouw,Rechts,1,
,dotcolour,dotcolour,dotcolour,45,2,165,165,main,positivefb,-99,easy,65,0.5176510000001144,['c'],1,left,['0'],6,0.15918840000085765,,,13,19,Vrouw,Rechts,1,
,dotcolour,dotcolour,dotcolour,46,2,166,166,main,positivefb,-99,average,53,0.717598100000032,['c'],1,left,['0'],6,0.19039020000036544,,,13,19,Vrouw,Rechts,1,
,dotcolour,dotcolour,dotcolour,47,2,167,167,main,positivefb,-99,easy,15,0.6669946000001801,['n'],1,right,['0'],6,0.19664790000024368,,,13,19,Vrouw,Rechts,1,
,dotcolour,dotcolour,dotcolour,48,2,168,168,main,positivefb,-99,hard,39,0.6009119999998802,['c'],0,right,['9'],5,0.3016907999999603,,,13,19,Vrouw,Rechts,1,
,dotcolour,dotcolour,dotcolour,49,2,169,169,main,positivefb,-99,hard,35,0.8679320000001098,['n'],1,right,['0'],6,0.22365799999988667,,,13,19,Vrouw,Rechts,1,
,dotcolour,dotcolour,dotcolour,50,2,170,170,main,positivefb,-99,easy,18,0.4834424000000581,['n'],1,right,['0'],6,0.25293340000007447,,,13,19,Vrouw,Rechts,1,
,dotcolour,dotcolour,dotcolour,51,2,171,171,main,positivefb,-99,average,53,0.5843283000003794,['c'],1,left,['0'],6,0.3721923999992214,,,13,19,Vrouw,Rechts,1,
,dotcolour,dotcolour,dotcolour,52,2,172,172,main,positivefb,-99,hard,41,0.5836977000008119,['c'],1,left,['0'],6,0.1675452999998015,,,13,19,Vrouw,Rechts,1,
,dotcolour,dotcolour,dotcolour,53,2,173,173,main,positivefb,-99,average,26,0.5998441000001549,['n'],1,right,['0'],6,0.1773302000001422,,,13,19,Vrouw,Rechts,1,
,dotcolour,dotcolour,dotcolour,54,2,174,174,main,positivefb,-99,easy,18,0.5185001999998349,['n'],1,right,['0'],6,0.18981589999930293,,,13,19,Vrouw,Rechts,1,
,dotcolour,dotcolour,dotcolour,55,2,175,175,main,positivefb,-99,hard,36,0.651619600000231,['n'],1,right,['0'],6,0.25323910000042815,,,13,19,Vrouw,Rechts,1,
,dotcolour,dotcolour,dotcolour,56,2,176,176,main,positivefb,-99,average,25,0.533297500000117,['n'],1,right,['0'],6,0.1752040000001216,,,13,19,Vrouw,Rechts,1,
,dotcolour,dotcolour,dotcolour,57,2,177,177,main,positivefb,-99,easy,19,0.5675492999998824,['n'],1,right,['9'],5,0.23405260000072303,,,13,19,Vrouw,Rechts,1,
,dotcolour,dotcolour,dotcolour,58,2,178,178,main,positivefb,-99,average,28,0.4340002999997523,['n'],1,right,['9'],5,0.2087876999994478,,,13,19,Vrouw,Rechts,1,
,dotcolour,dotcolour,dotcolour,59,2,179,179,main,positivefb,-99,average,51,0.5171312000002217,['c'],1,left,['9'],5,0.22825470000043424,,,13,19,Vrouw,Rechts,1,
,dotcolour,dotcolour,dotcolour,0,3,180,180,main,positivefb,-99,hard,43,0.6671525000001566,['c'],1,left,['0'],6,0.1772512999996252,,,13,19,Vrouw,Rechts,1,
,dotcolour,dotcolour,dotcolour,1,3,181,181,main,positivefb,-99,average,51,0.48537880000003497,['c'],1,left,['9'],5,0.16829520000010234,,,13,19,Vrouw,Rechts,1,
,dotcolour,dotcolour,dotcolour,2,3,182,182,main,positivefb,-99,hard,36,0.7671406999997998,['n'],1,right,['9'],5,0.17932620000010502,,,13,19,Vrouw,Rechts,1,
,dotcolour,dotcolour,dotcolour,3,3,183,183,main,positivefb,-99,average,54,0.5005873999998585,['c'],1,left,['9'],5,0.46582129999933386,,,13,19,Vrouw,Rechts,1,
,dotcolour,dotcolour,dotcolour,4,3,184,184,main,positivefb,-99,average,28,0.934695400000237,['n'],1,right,['9'],5,0.2663489999995363,,,13,19,Vrouw,Rechts,1,
,dotcolour,dotcolour,dotcolour,5,3,185,185,main,positivefb,-99,average,51,0.5011696999999913,['c'],1,left,['9'],5,0.23693439999988186,,,13,19,Vrouw,Rechts,1,
,dotcolour,dotcolour,dotcolour,6,3,186,186,main,positivefb,-99,easy,65,0.6001872999995612,['c'],1,left,['0'],6,0.2599774000000252,,,13,19,Vrouw,Rechts,1,
,dotcolour,dotcolour,dotcolour,7,3,187,187,main,positivefb,-99,hard,35,0.683763999999428,['n'],1,right,['9'],5,0.24739989999943646,,,13,19,Vrouw,Rechts,1,
,dotcolour,dotcolour,dotcolour,8,3,188,188,main,positivefb,-99,average,51,0.5170655000001716,['c'],1,left,['8'],4,0.4496495000003051,,,13,19,Vrouw,Rechts,1,
,dotcolour,dotcolour,dotcolour,9,3,189,189,main,positivefb,-99,easy,19,0.6504407000002175,['n'],1,right,['9'],5,0.22997010000017326,,,13,19,Vrouw,Rechts,1,
,dotcolour,dotcolour,dotcolour,10,3,190,190,main,positivefb,-99,easy,64,0.5678134999998292,['c'],1,left,['9'],5,0.1517359999998007,,,13,19,Vrouw,Rechts,1,
,dotcolour,dotcolour,dotcolour,11,3,191,191,main,positivefb,-99,easy,18,0.6506079000000682,['c'],0,right,['8'],4,1.0722675999995772,,,13,19,Vrouw,Rechts,1,
,dotcolour,dotcolour,dotcolour,12,3,192,192,main,positivefb,-99,hard,43,0.6835810000002311,['c'],1,left,['9'],5,0.25919770000018616,,,13,19,Vrouw,Rechts,1,
,dotcolour,dotcolour,dotcolour,13,3,193,193,main,positivefb,-99,hard,42,0.9344068000000334,['n'],0,left,['9'],5,0.3645778000000064,,,13,19,Vrouw,Rechts,1,
,dotcolour,dotcolour,dotcolour,14,3,194,194,main,positivefb,-99,easy,64,0.5332695999995849,['c'],1,left,['0'],6,0.2581819999995787,,,13,19,Vrouw,Rechts,1,
,dotcolour,dotcolour,dotcolour,15,3,195,195,main,positivefb,-99,average,29,0.6163429999996879,['n'],1,right,['0'],6,0.320276799999192,,,13,19,Vrouw,Rechts,1,
,dotcolour,dotcolour,dotcolour,16,3,196,196,main,positivefb,-99,average,52,0.58512410000003,['c'],1,left,['0'],6,0.468065399999432,,,13,19,Vrouw,Rechts,1,
,dotcolour,dotcolour,dotcolour,17,3,197,197,main,positivefb,-99,average,55,0.5665898999995989,['c'],1,left,['0'],6,0.18794049999996787,,,13,19,Vrouw,Rechts,1,
,dotcolour,dotcolour,dotcolour,18,3,198,198,main,positivefb,-99,average,25,0.568347200000062,['n'],1,right,['0'],6,0.5669114000002082,,,13,19,Vrouw,Rechts,1,
,dotcolour,dotcolour,dotcolour,19,3,199,199,main,positivefb,-99,easy,62,0.5505484999994223,['c'],1,left,['0'],6,0.18601760000001377,,,13,19,Vrouw,Rechts,1,
,dotcolour,dotcolour,dotcolour,20,3,200,200,main,positivefb,-99,average,27,0.6161508999994112,['n'],1,right,['0'],6,0.2115642000007938,,,13,19,Vrouw,Rechts,1,
,dotcolour,dotcolour,dotcolour,21,3,201,201,main,positivefb,-99,average,53,1.0171549999995477,['c'],1,left,['0'],6,0.18713800000023184,,,13,19,Vrouw,Rechts,1,
,dotcolour,dotcolour,dotcolour,22,3,202,202,main,positivefb,-99,hard,41,0.6677306999999928,['n'],0,left,['9'],5,0.48174659999949654,,,13,19,Vrouw,Rechts,1,
,dotcolour,dotcolour,dotcolour,23,3,203,203,main,positivefb,-99,hard,36,1.3844800000006217,['n'],1,right,['9'],5,0.6489548999998078,,,13,19,Vrouw,Rechts,1,
,dotcolour,dotcolour,dotcolour,24,3,204,204,main,positivefb,-99,average,28,0.6348127000001114,['n'],1,right,['9'],5,0.2377823000006174,,,13,19,Vrouw,Rechts,1,
,dotcolour,dotcolour,dotcolour,25,3,205,205,main,positivefb,-99,average,29,0.6009482999997999,['n'],1,right,['9'],5,0.22970290000012028,,,13,19,Vrouw,Rechts,1,
,dotcolour,dotcolour,dotcolour,26,3,206,206,main,positivefb,-99,hard,44,0.650451399999838,['c'],1,left,['9'],5,0.2030360999997356,,,13,19,Vrouw,Rechts,1,
,dotcolour,dotcolour,dotcolour,27,3,207,207,main,positivefb,-99,easy,63,0.4848121999993964,['c'],1,left,['9'],5,0.24893730000076175,,,13,19,Vrouw,Rechts,1,
,dotcolour,dotcolour,dotcolour,28,3,208,208,main,positivefb,-99,easy,61,0.583549399999356,['c'],1,left,['9'],5,0.20016140000007,,,13,19,Vrouw,Rechts,1,
,dotcolour,dotcolour,dotcolour,29,3,209,209,main,positivefb,-99,easy,63,0.5853907999999137,['c'],1,left,['9'],5,0.20091920000049868,,,13,19,Vrouw,Rechts,1,
,dotcolour,dotcolour,dotcolour,30,3,210,210,main,positivefb,-99,average,28,0.7508731000007174,['n'],1,right,['0'],6,0.2114081999998234,,,13,19,Vrouw,Rechts,1,
,dotcolour,dotcolour,dotcolour,31,3,211,211,main,positivefb,-99,hard,44,0.8505235000002358,['c'],1,left,['0'],6,0.2824361000002682,,,13,19,Vrouw,Rechts,1,
,dotcolour,dotcolour,dotcolour,32,3,212,212,main,positivefb,-99,average,55,0.4674312999995891,['c'],1,left,['0'],6,0.21385520000058023,,,13,19,Vrouw,Rechts,1,
,dotcolour,dotcolour,dotcolour,33,3,213,213,main,positivefb,-99,hard,36,0.6166370999999344,['n'],1,right,['9'],5,0.26913730000069336,,,13,19,Vrouw,Rechts,1,
,dotcolour,dotcolour,dotcolour,34,3,214,214,main,positivefb,-99,easy,65,0.6348250000000917,['c'],1,left,['0'],6,0.2014297000005172,,,13,19,Vrouw,Rechts,1,
,dotcolour,dotcolour,dotcolour,35,3,215,215,main,positivefb,-99,hard,39,0.6846265000003768,['n'],1,right,['9'],5,0.3188913000003595,,,13,19,Vrouw,Rechts,1,
,dotcolour,dotcolour,dotcolour,36,3,216,216,main,positivefb,-99,easy,17,0.6348172999996677,['n'],1,right,['0'],6,0.7787401999994472,,,13,19,Vrouw,Rechts,1,
,dotcolour,dotcolour,dotcolour,37,3,217,217,main,positivefb,-99,easy,18,0.5682776000003287,['n'],1,right,['0'],6,0.2537259999999151,,,13,19,Vrouw,Rechts,1,
,dotcolour,dotcolour,dotcolour,38,3,218,218,main,positivefb,-99,hard,37,0.533769000000575,['c'],0,right,['9'],5,0.2310719999995854,,,13,19,Vrouw,Rechts,1,
,dotcolour,dotcolour,dotcolour,39,3,219,219,main,positivefb,-99,average,52,0.8156950000002325,['c'],1,left,['0'],6,0.23793889999979,,,13,19,Vrouw,Rechts,1,
,dotcolour,dotcolour,dotcolour,40,3,220,220,main,positivefb,-99,hard,42,0.7683353000002171,['c'],1,left,['9'],5,0.19138240000029327,,,13,19,Vrouw,Rechts,1,
,dotcolour,dotcolour,dotcolour,41,3,221,221,main,positivefb,-99,hard,36,0.7178659999999581,['n'],1,right,['9'],5,0.2190921999999773,,,13,19,Vrouw,Rechts,1,
,dotcolour,dotcolour,dotcolour,42,3,222,222,main,positivefb,-99,hard,36,0.5172018000002936,['c'],0,right,['0'],6,0.5435835999996925,,,13,19,Vrouw,Rechts,1,
,dotcolour,dotcolour,dotcolour,43,3,223,223,main,positivefb,-99,hard,43,1.6169497000000774,['c'],1,left,['9'],5,0.4662880000005316,,,13,19,Vrouw,Rechts,1,
,dotcolour,dotcolour,dotcolour,44,3,224,224,main,positivefb,-99,easy,17,0.6846902999996018,['n'],1,right,['0'],6,0.26815029999943363,,,13,19,Vrouw,Rechts,1,
,dotcolour,dotcolour,dotcolour,45,3,225,225,main,positivefb,-99,easy,16,0.6330100000004677,['n'],1,right,['0'],6,0.24928799999997864,,,13,19,Vrouw,Rechts,1,
,dotcolour,dotcolour,dotcolour,46,3,226,226,main,positivefb,-99,easy,61,0.6495621999993091,['c'],1,left,['0'],6,0.1575818999999683,,,13,19,Vrouw,Rechts,1,
,dotcolour,dotcolour,dotcolour,47,3,227,227,main,positivefb,-99,easy,19,0.6839232000002085,['n'],1,right,['0'],6,0.22181110000019544,,,13,19,Vrouw,Rechts,1,
,dotcolour,dotcolour,dotcolour,48,3,228,228,main,positivefb,-99,hard,39,0.7495507000003272,['c'],0,right,['9'],5,0.20768829999997251,,,13,19,Vrouw,Rechts,1,
,dotcolour,dotcolour,dotcolour,49,3,229,229,main,positivefb,-99,easy,17,0.6165628999997352,['n'],1,right,['0'],6,0.43974549999984447,,,13,19,Vrouw,Rechts,1,
,dotcolour,dotcolour,dotcolour,50,3,230,230,main,positivefb,-99,hard,41,1.134319400000095,['c'],1,left,['9'],5,0.40168199999970966,,,13,19,Vrouw,Rechts,1,
,dotcolour,dotcolour,dotcolour,51,3,231,231,main,positivefb,-99,easy,64,0.6507134999992559,['c'],1,left,['0'],6,0.24866199999996752,,,13,19,Vrouw,Rechts,1,
,dotcolour,dotcolour,dotcolour,52,3,232,232,main,positivefb,-99,average,29,0.7336673999998311,['n'],1,right,['0'],6,0.25810980000005657,,,13,19,Vrouw,Rechts,1,
,dotcolour,dotcolour,dotcolour,53,3,233,233,main,positivefb,-99,hard,37,0.8509414000000106,['c'],0,right,['9'],5,0.6227336000001742,,,13,19,Vrouw,Rechts,1,
,dotcolour,dotcolour,dotcolour,54,3,234,234,main,positivefb,-99,easy,19,0.5842128000003868,['n'],1,right,['0'],6,0.2225362999997742,,,13,19,Vrouw,Rechts,1,
,dotcolour,dotcolour,dotcolour,55,3,235,235,main,positivefb,-99,average,26,0.5837065999994593,['n'],1,right,['0'],6,0.18335010000009788,,,13,19,Vrouw,Rechts,1,
,dotcolour,dotcolour,dotcolour,56,3,236,236,main,positivefb,-99,average,54,0.5177210000001651,['c'],1,left,['0'],6,0.2520942000001014,,,13,19,Vrouw,Rechts,1,
,dotcolour,dotcolour,dotcolour,57,3,237,237,main,positivefb,-99,average,28,0.668065600000773,['n'],1,right,['9'],5,0.25688910000008036,,,13,19,Vrouw,Rechts,1,
,dotcolour,dotcolour,dotcolour,58,3,238,238,main,positivefb,-99,easy,15,0.8509392000005391,['n'],1,right,['0'],6,0.2209285999997519,,,13,19,Vrouw,Rechts,1,
,dotcolour,dotcolour,dotcolour,59,3,239,239,main,positivefb,-99,hard,41,0.682866300000569,['c'],1,left,['0'],6,0.2103466999997181,,,13,19,Vrouw,Rechts,1,
,dotcolour,dotcolour,dotcolour,0,4,240,240,main,positivefb,-99,easy,19,0.9004224999998769,['n'],1,right,['0'],6,0.28918979999980365,,,13,19,Vrouw,Rechts,1,
,dotcolour,dotcolour,dotcolour,1,4,241,241,main,positivefb,-99,easy,18,0.4832730999996784,['n'],1,right,['0'],6,0.18740809999962948,,,13,19,Vrouw,Rechts,1,
,dotcolour,dotcolour,dotcolour,2,4,242,242,main,positivefb,-99,average,29,0.5000183000001925,['n'],1,right,['0'],6,0.2576660000004267,,,13,19,Vrouw,Rechts,1,
,dotcolour,dotcolour,dotcolour,3,4,243,243,main,positivefb,-99,easy,16,0.46676579999984824,['n'],1,right,['0'],6,0.23715609999999288,,,13,19,Vrouw,Rechts,1,
,dotcolour,dotcolour,dotcolour,4,4,244,244,main,positivefb,-99,hard,36,0.5845904999996492,['c'],0,right,['9'],5,0.15713770000002114,,,13,19,Vrouw,Rechts,1,
,dotcolour,dotcolour,dotcolour,5,4,245,245,main,positivefb,-99,easy,65,0.6339501000002201,['c'],1,left,['0'],6,0.1981086999994659,,,13,19,Vrouw,Rechts,1,
,dotcolour,dotcolour,dotcolour,6,4,246,246,main,positivefb,-99,hard,37,0.9333186000003479,['c'],0,right,['8'],4,0.2982712000002721,,,13,19,Vrouw,Rechts,1,
,dotcolour,dotcolour,dotcolour,7,4,247,247,main,positivefb,-99,hard,41,0.749387800000477,['c'],1,left,['9'],5,0.18585979999988922,,,13,19,Vrouw,Rechts,1,
,dotcolour,dotcolour,dotcolour,8,4,248,248,main,positivefb,-99,average,52,0.5004697000003944,['c'],1,left,['9'],5,0.23958279999988008,,,13,19,Vrouw,Rechts,1,
,dotcolour,dotcolour,dotcolour,9,4,249,249,main,positivefb,-99,average,54,0.5661990999997215,['c'],1,left,['8'],4,0.15153800000007323,,,13,19,Vrouw,Rechts,1,
,dotcolour,dotcolour,dotcolour,10,4,250,250,main,positivefb,-99,hard,36,0.6830851999993683,['n'],1,right,['9'],5,0.20655509999960486,,,13,19,Vrouw,Rechts,1,
,dotcolour,dotcolour,dotcolour,11,4,251,251,main,positivefb,-99,hard,41,0.6509519999999611,['c'],1,left,['8'],4,0.20556719999967754,,,13,19,Vrouw,Rechts,1,
,dotcolour,dotcolour,dotcolour,12,4,252,252,main,positivefb,-99,average,54,0.5509414999996807,['c'],1,left,['8'],4,0.20851299999958428,,,13,19,Vrouw,Rechts,1,
,dotcolour,dotcolour,dotcolour,13,4,253,253,main,positivefb,-99,average,25,0.85121750000053,['n'],1,right,['8'],4,0.263110300000335,,,13,19,Vrouw,Rechts,1,
,dotcolour,dotcolour,dotcolour,14,4,254,254,main,positivefb,-99,easy,15,0.9184904000003371,['n'],1,right,['0'],6,0.19363650000013877,,,13,19,Vrouw,Rechts,1,
,dotcolour,dotcolour,dotcolour,15,4,255,255,main,positivefb,-99,hard,35,0.6502203999998528,['c'],0,right,['9'],5,0.2801969000001918,,,13,19,Vrouw,Rechts,1,
,dotcolour,dotcolour,dotcolour,16,4,256,256,main,positivefb,-99,easy,19,0.6335986999993111,['n'],1,right,['0'],6,0.34900259999994887,,,13,19,Vrouw,Rechts,1,
,dotcolour,dotcolour,dotcolour,17,4,257,257,main,positivefb,-99,average,29,0.6496800000004441,['n'],1,right,['0'],6,0.21345910000036383,,,13,19,Vrouw,Rechts,1,
,dotcolour,dotcolour,dotcolour,18,4,258,258,main,positivefb,-99,easy,61,0.5340851000000839,['c'],1,left,['0'],6,0.21750449999944976,,,13,19,Vrouw,Rechts,1,
,dotcolour,dotcolour,dotcolour,19,4,259,259,main,positivefb,-99,average,54,0.5171808000004603,['c'],1,left,['9'],5,0.23652810000021418,,,13,19,Vrouw,Rechts,1,
,dotcolour,dotcolour,dotcolour,20,4,260,260,main,positivefb,-99,hard,37,0.7341710999999123,['n'],1,right,['9'],5,0.23095419999935984,,,13,19,Vrouw,Rechts,1,
,dotcolour,dotcolour,dotcolour,21,4,261,261,main,positivefb,-99,hard,44,1.0349498000005042,['c'],1,left,['9'],5,0.2053209000005154,,,13,19,Vrouw,Rechts,1,
,dotcolour,dotcolour,dotcolour,22,4,262,262,main,positivefb,-99,average,26,0.6330668999999034,['n'],1,right,['9'],5,0.20514289999937318,,,13,19,Vrouw,Rechts,1,
,dotcolour,dotcolour,dotcolour,23,4,263,263,main,positivefb,-99,average,25,1.4173848000000362,['n'],1,right,['9'],5,0.5571198000006916,,,13,19,Vrouw,Rechts,1,
,dotcolour,dotcolour,dotcolour,24,4,264,264,main,positivefb,-99,easy,19,0.8344919000001028,['n'],1,right,['0'],6,0.28624330000002374,,,13,19,Vrouw,Rechts,1,
,dotcolour,dotcolour,dotcolour,25,4,265,265,main,positivefb,-99,hard,43,0.68342869999924,['c'],1,left,['9'],5,0.21594780000032188,,,13,19,Vrouw,Rechts,1,
,dotcolour,dotcolour,dotcolour,26,4,266,266,main,positivefb,-99,average,55,0.7503554000004442,['c'],1,left,['9'],5,0.4432722999999896,,,13,19,Vrouw,Rechts,1,
,dotcolour,dotcolour,dotcolour,27,4,267,267,main,positivefb,-99,hard,45,1.467228200000136,['n'],0,left,['8'],4,0.24657480000041687,,,13,19,Vrouw,Rechts,1,
,dotcolour,dotcolour,dotcolour,28,4,268,268,main,positivefb,-99,hard,39,0.6514987000000474,['c'],0,right,['8'],4,0.5652847000001202,,,13,19,Vrouw,Rechts,1,
,dotcolour,dotcolour,dotcolour,29,4,269,269,main,positivefb,-99,easy,63,0.6167009000000689,['c'],1,left,['9'],5,0.2056603000000905,,,13,19,Vrouw,Rechts,1,
,dotcolour,dotcolour,dotcolour,30,4,270,270,main,positivefb,-99,average,55,0.9667718999999124,['c'],1,left,['8'],4,0.23284209999928862,,,13,19,Vrouw,Rechts,1,
,dotcolour,dotcolour,dotcolour,31,4,271,271,main,positivefb,-99,hard,45,0.6507566000000224,['c'],1,left,['8'],4,0.1410555000002205,,,13,19,Vrouw,Rechts,1,
,dotcolour,dotcolour,dotcolour,32,4,272,272,main,positivefb,-99,average,28,0.9172208999998475,['n'],1,right,['9'],5,0.14933159999964118,,,13,19,Vrouw,Rechts,1,
,dotcolour,dotcolour,dotcolour,33,4,273,273,main,positivefb,-99,hard,44,0.7839551000006395,['c'],1,left,['8'],4,0.1756629999999859,,,13,19,Vrouw,Rechts,1,
,dotcolour,dotcolour,dotcolour,34,4,274,274,main,positivefb,-99,hard,43,1.5508267999994132,['n'],0,left,['8'],4,0.44454570000016247,,,13,19,Vrouw,Rechts,1,
,dotcolour,dotcolour,dotcolour,35,4,275,275,main,positivefb,-99,easy,18,0.6006176000000778,['n'],1,right,['0'],6,0.2351528999997754,,,13,19,Vrouw,Rechts,1,
,dotcolour,dotcolour,dotcolour,36,4,276,276,main,positivefb,-99,average,27,0.7669616000002861,['n'],1,right,['8'],4,0.35641839999971126,,,13,19,Vrouw,Rechts,1,
,dotcolour,dotcolour,dotcolour,37,4,277,277,main,positivefb,-99,average,26,0.5995348999995258,['n'],1,right,['9'],5,0.2876839000000473,,,13,19,Vrouw,Rechts,1,
,dotcolour,dotcolour,dotcolour,38,4,278,278,main,positivefb,-99,hard,35,0.7672316999996838,['n'],1,right,['8'],4,0.301817999999912,,,13,19,Vrouw,Rechts,1,
,dotcolour,dotcolour,dotcolour,39,4,279,279,main,positivefb,-99,hard,36,0.7337023000000045,['c'],0,right,['8'],4,0.22093179999956192,,,13,19,Vrouw,Rechts,1,
,dotcolour,dotcolour,dotcolour,40,4,280,280,main,positivefb,-99,average,54,0.7658048000002964,['c'],1,left,['9'],5,0.15939160000016273,,,13,19,Vrouw,Rechts,1,
,dotcolour,dotcolour,dotcolour,41,4,281,281,main,positivefb,-99,easy,65,0.5175734000004013,['c'],1,left,['0'],6,0.1884251999999833,,,13,19,Vrouw,Rechts,1,
,dotcolour,dotcolour,dotcolour,42,4,282,282,main,positivefb,-99,easy,17,0.5351110000001427,['n'],1,right,['0'],6,0.20809540000027482,,,13,19,Vrouw,Rechts,1,
,dotcolour,dotcolour,dotcolour,43,4,283,283,main,positivefb,-99,average,53,0.5848943999999392,['c'],1,left,['9'],5,0.24999029999980849,,,13,19,Vrouw,Rechts,1,
,dotcolour,dotcolour,dotcolour,44,4,284,284,main,positivefb,-99,hard,36,0.7014393999997992,['n'],1,right,['8'],4,0.21260050000000774,,,13,19,Vrouw,Rechts,1,
,dotcolour,dotcolour,dotcolour,45,4,285,285,main,positivefb,-99,average,52,0.5497156999999788,['c'],1,left,['9'],5,0.20726310000009107,,,13,19,Vrouw,Rechts,1,
,dotcolour,dotcolour,dotcolour,46,4,286,286,main,positivefb,-99,hard,44,0.65050760000031,['c'],1,left,['8'],4,0.2373966000004657,,,13,19,Vrouw,Rechts,1,
,dotcolour,dotcolour,dotcolour,47,4,287,287,main,positivefb,-99,easy,61,0.6015944000000673,['c'],1,left,['9'],5,0.245170600000165,,,13,19,Vrouw,Rechts,1,
,dotcolour,dotcolour,dotcolour,48,4,288,288,main,positivefb,-99,average,27,0.8173350999995819,['n'],1,right,['9'],5,0.24451719999979105,,,13,19,Vrouw,Rechts,1,
,dotcolour,dotcolour,dotcolour,49,4,289,289,main,positivefb,-99,easy,64,0.5183511000004728,['c'],1,left,['0'],6,0.47141409999949246,,,13,19,Vrouw,Rechts,1,
,dotcolour,dotcolour,dotcolour,50,4,290,290,main,positivefb,-99,easy,62,0.5174205000002985,['c'],1,left,['0'],6,0.23170329999993555,,,13,19,Vrouw,Rechts,1,
,dotcolour,dotcolour,dotcolour,51,4,291,291,main,positivefb,-99,easy,62,0.4827354999997624,['c'],1,left,['0'],6,0.17971200000010867,,,13,19,Vrouw,Rechts,1,
,dotcolour,dotcolour,dotcolour,52,4,292,292,main,positivefb,-99,easy,63,0.3841568999996525,['c'],1,left,['0'],6,0.20642060000045603,,,13,19,Vrouw,Rechts,1,
,dotcolour,dotcolour,dotcolour,53,4,293,293,main,positivefb,-99,easy,19,0.7677657000003819,['n'],1,right,['0'],6,0.8566023000003042,,,13,19,Vrouw,Rechts,1,
,dotcolour,dotcolour,dotcolour,54,4,294,294,main,positivefb,-99,hard,45,0.7007095999997546,['c'],1,left,['9'],5,0.22777880000012374,,,13,19,Vrouw,Rechts,1,
,dotcolour,dotcolour,dotcolour,55,4,295,295,main,positivefb,-99,easy,17,1.2510443999999552,['n'],1,right,['9'],5,0.25010070000007545,,,13,19,Vrouw,Rechts,1,
,dotcolour,dotcolour,dotcolour,56,4,296,296,main,positivefb,-99,hard,39,1.2507491999995182,['n'],1,right,['8'],4,0.2060751999997592,,,13,19,Vrouw,Rechts,1,
,dotcolour,dotcolour,dotcolour,57,4,297,297,main,positivefb,-99,average,26,1.0501096999996662,['n'],1,right,['9'],5,0.34942080000018905,,,13,19,Vrouw,Rechts,1,
,dotcolour,dotcolour,dotcolour,58,4,298,298,main,positivefb,-99,easy,62,0.48411399999986315,['c'],1,left,['9'],5,0.2047859000003882,,,13,19,Vrouw,Rechts,1,
,dotcolour,dotcolour,dotcolour,59,4,299,299,main,positivefb,-99,average,51,0.549901399999726,['c'],1,left,['9'],5,0.23870129999977507,,,13,19,Vrouw,Rechts,1,
,dotcolour,dotcolour,dotcolour,0,0,0,300,training,positivefb,99,hard,42,0.8340697000003274,['c'],1,left,['8'],4,0.470066300000326,,,13,19,Vrouw,Rechts,1,
,dotcolour,dotcolour,dotcolour,1,0,1,301,training,positivefb,84,hard,43,0.7678655999998227,['n'],0,left,['8'],4,0.24451369999951567,,,13,19,Vrouw,Rechts,1,
,dotcolour,dotcolour,dotcolour,2,0,2,302,training,positivefb,82,average,29,0.6166907999995601,['n'],1,right,['9'],5,0.2107689999993454,,,13,19,Vrouw,Rechts,1,
,dotcolour,dotcolour,dotcolour,3,0,3,303,training,positivefb,96,average,28,0.6335550000003423,['n'],1,right,['9'],5,0.13790900000003603,,,13,19,Vrouw,Rechts,1,
,dotcolour,dotcolour,dotcolour,4,0,4,304,training,positivefb,91,hard,35,0.6666580000000977,['n'],1,right,['9'],5,0.17726149999998597,,,13,19,Vrouw,Rechts,1,
,dotcolour,dotcolour,dotcolour,5,0,5,305,training,positivefb,97,hard,36,0.7503403999999136,['c'],0,right,['8'],4,0.2056736999993518,,,13,19,Vrouw,Rechts,1,
,dotcolour,dotcolour,dotcolour,6,0,6,306,training,positivefb,94,average,25,0.5515341000000262,['n'],1,right,['9'],5,0.15944720000061352,,,13,19,Vrouw,Rechts,1,
,dotcolour,dotcolour,dotcolour,7,0,7,307,training,positivefb,98,hard,42,0.6998190000003888,['c'],1,left,['8'],4,0.18183920000046783,,,13,19,Vrouw,Rechts,1,
,dotcolour,dotcolour,dotcolour,8,0,8,308,training,positivefb,90,easy,64,0.5662209000001894,['c'],1,left,['0'],6,0.19184229999973468,,,13,19,Vrouw,Rechts,1,
,dotcolour,dotcolour,dotcolour,9,0,9,309,training,positivefb,91,average,27,0.5994438999996419,['n'],1,right,['9'],5,0.16070490000038262,,,13,19,Vrouw,Rechts,1,
,dotcolour,dotcolour,dotcolour,10,0,10,310,training,positivefb,98,hard,45,0.6659008000005997,['c'],1,left,['9'],5,0.2167540000000372,,,13,19,Vrouw,Rechts,1,
,dotcolour,dotcolour,dotcolour,11,0,11,311,training,positivefb,96,hard,35,0.8005118000000948,['n'],1,right,['9'],5,0.2236042999993515,,,13,19,Vrouw,Rechts,1,
,dotcolour,dotcolour,dotcolour,12,0,12,312,training,positivefb,97,average,28,0.5838837000001149,['n'],1,right,['9'],5,0.1750056000000768,,,13,19,Vrouw,Rechts,1,
,dotcolour,dotcolour,dotcolour,13,0,13,313,training,positivefb,97,average,29,0.5823949999994511,['n'],1,right,['9'],5,0.18614909999996598,,,13,19,Vrouw,Rechts,1,
,dotcolour,dotcolour,dotcolour,14,0,14,314,training,positivefb,99,easy,62,0.5329182000004948,['c'],1,left,['0'],6,0.18164249999972526,,,13,19,Vrouw,Rechts,1,
,dotcolour,dotcolour,dotcolour,15,0,15,315,training,positivefb,94,hard,44,0.6501732000006086,['n'],0,left,['9'],5,0.16496020000067801,,,13,19,Vrouw,Rechts,1,
,dotcolour,dotcolour,dotcolour,16,0,16,316,training,positivefb,94,easy,17,0.5826930999992328,['n'],1,right,['9'],5,0.20775110000067798,,,13,19,Vrouw,Rechts,1,
,dotcolour,dotcolour,dotcolour,17,0,17,317,training,positivefb,94,hard,42,0.7165199999999459,['c'],1,left,['9'],5,0.1619358000007196,,,13,19,Vrouw,Rechts,1,
,dotcolour,dotcolour,dotcolour,18,0,18,318,training,positivefb,90,hard,35,0.9993064000000231,['n'],1,right,['9'],5,0.18814349999956903,,,13,19,Vrouw,Rechts,1,
,dotcolour,dotcolour,dotcolour,19,0,19,319,training,positivefb,92,hard,35,0.5829583000004277,['c'],0,right,['9'],5,0.23797279999962484,,,13,19,Vrouw,Rechts,1,
,dotcolour,dotcolour,dotcolour,20,0,20,320,training,positivefb,86,hard,38,0.6995772000000215,['c'],0,right,['9'],5,0.22434630000043398,,,13,19,Vrouw,Rechts,1,
,dotcolour,dotcolour,dotcolour,21,0,21,321,training,positivefb,99,easy,17,0.7332849000003989,['n'],1,right,['0'],6,0.4595796000003247,,,13,19,Vrouw,Rechts,1,
,dotcolour,dotcolour,dotcolour,22,0,22,322,training,positivefb,93,average,51,0.5166397000002689,['c'],1,left,['0'],6,0.1639949999998862,,,13,19,Vrouw,Rechts,1,
,dotcolour,dotcolour,dotcolour,23,0,23,323,training,positivefb,97,easy,64,0.5654757000002064,['c'],1,left,['0'],6,0.1043736000001445,,,13,19,Vrouw,Rechts,1,
,dotcolour,dotcolour,dotcolour,24,0,24,324,training,positivefb,97,average,52,0.5172416000004887,['c'],1,left,['0'],6,0.10273469999992813,,,13,19,Vrouw,Rechts,1,
,dotcolour,dotcolour,dotcolour,25,0,25,325,training,positivefb,97,easy,61,0.48287119999986317,['c'],1,left,['0'],6,0.07214899999962654,,,13,19,Vrouw,Rechts,1,
,dotcolour,dotcolour,dotcolour,26,0,26,326,training,positivefb,88,average,29,0.582621300000028,['n'],1,right,['9'],5,0.16612250000071072,,,13,19,Vrouw,Rechts,1,
,dotcolour,dotcolour,dotcolour,27,0,27,327,training,positivefb,96,hard,43,0.6166450000000623,['c'],1,left,['9'],5,0.19090150000010908,,,13,19,Vrouw,Rechts,1,
,dotcolour,dotcolour,dotcolour,28,0,28,328,training,positivefb,93,average,52,0.5661671999996543,['c'],1,left,['9'],5,0.17613369999980932,,,13,19,Vrouw,Rechts,1,
,dotcolour,dotcolour,dotcolour,29,0,29,329,training,positivefb,98,easy,17,0.5830176999998002,['n'],1,right,['9'],5,0.16290619999927003,,,13,19,Vrouw,Rechts,1,
,dotcolour,dotcolour,dotcolour,30,0,30,330,training,positivefb,97,easy,16,0.5828995000001669,['n'],1,right,['0'],6,0.18111399999997957,,,13,19,Vrouw,Rechts,1,
,dotcolour,dotcolour,dotcolour,31,0,31,331,training,positivefb,97,hard,41,0.5997308000005432,['c'],1,left,['8'],4,0.2557078999998339,,,13,19,Vrouw,Rechts,1,
,dotcolour,dotcolour,dotcolour,32,0,32,332,training,positivefb,93,hard,41,1.10062360000029,['c'],1,left,['9'],5,0.15285469999980705,,,13,19,Vrouw,Rechts,1,
,dotcolour,dotcolour,dotcolour,33,0,33,333,training,positivefb,98,easy,19,0.550470299999688,['n'],1,right,['9'],5,0.2534808000000339,,,13,19,Vrouw,Rechts,1,
,dotcolour,dotcolour,dotcolour,34,0,34,334,training,positivefb,99,average,51,0.5662886000000071,['c'],1,left,['0'],6,0.1888307999997778,,,13,19,Vrouw,Rechts,1,
,dotcolour,dotcolour,dotcolour,35,0,35,335,training,positivefb,97,easy,19,0.6496054999997796,['n'],1,right,['0'],6,0.19529979999970237,,,13,19,Vrouw,Rechts,1,
,dotcolour,dotcolour,dotcolour,36,0,36,336,training,positivefb,84,average,52,0.5495265999998082,['c'],1,left,['0'],6,0.1578960000006191,,,13,19,Vrouw,Rechts,1,
,dotcolour,dotcolour,dotcolour,37,0,37,337,training,positivefb,14,easy,61,0.5339262999996208,['n'],0,left,['8'],4,0.9228635999998005,,,13,19,Vrouw,Rechts,1,
,dotcolour,dotcolour,dotcolour,38,0,38,338,training,positivefb,97,average,55,0.6505864000000656,['c'],1,left,['0'],6,0.10763029999998253,,,13,19,Vrouw,Rechts,1,
,dotcolour,dotcolour,dotcolour,39,0,39,339,training,positivefb,49,average,25,0.650286099999903,['c'],0,right,['8'],4,0.8701690000007147,,,13,19,Vrouw,Rechts,1,
,dotcolour,dotcolour,dotcolour,40,0,40,340,training,positivefb,93,average,51,0.566930400000274,['c'],1,left,['0'],6,0.18086370000037277,,,13,19,Vrouw,Rechts,1,
,dotcolour,dotcolour,dotcolour,41,0,41,341,training,positivefb,91,easy,61,0.616814300000442,['c'],1,left,['0'],6,0.17381810000006226,,,13,19,Vrouw,Rechts,1,
,dotcolour,dotcolour,dotcolour,42,0,42,342,training,positivefb,86,easy,62,0.5162917999996353,['c'],1,left,['9'],5,0.354799799999455,,,13,19,Vrouw,Rechts,1,
,dotcolour,dotcolour,dotcolour,43,0,43,343,training,positivefb,92,hard,39,0.9828647999993336,['n'],1,right,['9'],5,0.157351099999687,,,13,19,Vrouw,Rechts,1,
,dotcolour,dotcolour,dotcolour,44,0,44,344,training,positivefb,98,average,54,0.683240499999556,['c'],1,left,['0'],6,0.2840129000005618,,,13,19,Vrouw,Rechts,1,
,dotcolour,dotcolour,dotcolour,45,0,45,345,training,positivefb,94,average,27,0.6667109999998502,['n'],1,right,['9'],5,0.21352250000018103,,,13,19,Vrouw,Rechts,1,
,dotcolour,dotcolour,dotcolour,46,0,46,346,training,positivefb,97,easy,16,0.6343047999998817,['n'],1,right,['9'],5,0.2611288999996759,,,13,19,Vrouw,Rechts,1,
,dotcolour,dotcolour,dotcolour,47,0,47,347,training,positivefb,77,hard,39,0.834057600000051,['c'],0,right,['9'],5,0.15338030000020808,,,13,19,Vrouw,Rechts,1,
,dotcolour,dotcolour,dotcolour,48,0,48,348,training,positivefb,100,easy,61,0.41687439999986964,['c'],1,left,['0'],6,0.330766300000505,,,13,19,Vrouw,Rechts,1,
,dotcolour,dotcolour,dotcolour,49,0,49,349,training,positivefb,99,average,27,0.5342485000001034,['n'],1,right,['0'],6,0.1293241000003036,,,13,19,Vrouw,Rechts,1,
,dotcolour,dotcolour,dotcolour,50,0,50,350,training,positivefb,95,easy,15,0.5329760000004171,['n'],1,right,['0'],6,0.16709129999981087,,,13,19,Vrouw,Rechts,1,
,dotcolour,dotcolour,dotcolour,51,0,51,351,training,positivefb,66,hard,35,1.0493716999999378,['c'],0,right,['9'],5,0.16603979999945295,,,13,19,Vrouw,Rechts,1,
,dotcolour,dotcolour,dotcolour,52,0,52,352,training,positivefb,96,easy,19,0.5502851999999621,['n'],1,right,['9'],5,0.1781052999995154,,,13,19,Vrouw,Rechts,1,
,dotcolour,dotcolour,dotcolour,53,0,53,353,training,positivefb,81,hard,38,0.7000421000002461,['c'],0,right,['9'],5,0.1267535000006319,,,13,19,Vrouw,Rechts,1,
,dotcolour,dotcolour,dotcolour,54,0,54,354,training,positivefb,99,average,51,0.5336785999998028,['c'],1,left,['0'],6,0.18148719999953755,,,13,19,Vrouw,Rechts,1,
,dotcolour,dotcolour,dotcolour,55,0,55,355,training,positivefb,96,easy,61,0.5826850000003105,['c'],1,left,['0'],6,0.1269945000003645,,,13,19,Vrouw,Rechts,1,
,dotcolour,dotcolour,dotcolour,56,0,56,356,training,positivefb,96,easy,62,0.499991300000147,['c'],1,left,['0'],6,0.12655009999980393,,,13,19,Vrouw,Rechts,1,
,dotcolour,dotcolour,dotcolour,57,0,57,357,training,positivefb,99,average,55,0.4497418999999354,['c'],1,left,['0'],6,0.14384350000000268,,,13,19,Vrouw,Rechts,1,
,dotcolour,dotcolour,dotcolour,58,0,58,358,training,positivefb,95,easy,16,0.5662319000002753,['n'],1,right,['0'],6,0.14041160000033415,,,13,19,Vrouw,Rechts,1,
,dotcolour,dotcolour,dotcolour,59,0,59,359,training,positivefb,93,hard,44,0.9153741999998601,['c'],1,left,['9'],5,0.12300129999948695,,,13,19,Vrouw,Rechts,1,
,dotcolour,dotcolour,dotcolour,0,1,60,360,training,positivefb,94,average,53,0.7671351999997569,['c'],1,left,['0'],6,0.2688353999992614,,,13,19,Vrouw,Rechts,1,
,dotcolour,dotcolour,dotcolour,1,1,61,361,training,positivefb,94,easy,18,0.5841768999998749,['n'],1,right,['9'],5,0.17883960000017396,,,13,19,Vrouw,Rechts,1,
,dotcolour,dotcolour,dotcolour,2,1,62,362,training,positivefb,94,average,55,0.5338266999997359,['c'],1,left,['0'],6,0.17481810000026599,,,13,19,Vrouw,Rechts,1,
,dotcolour,dotcolour,dotcolour,3,1,63,363,training,positivefb,97,easy,62,0.5161545999999362,['c'],1,left,['0'],6,0.13977500000055443,,,13,19,Vrouw,Rechts,1,
,dotcolour,dotcolour,dotcolour,4,1,64,364,training,positivefb,84,hard,43,0.4834382999997615,['c'],1,left,['9'],5,0.35505430000011984,,,13,19,Vrouw,Rechts,1,
,dotcolour,dotcolour,dotcolour,5,1,65,365,training,positivefb,93,hard,37,0.682904199999939,['c'],0,right,['9'],5,0.1139459000005445,,,13,19,Vrouw,Rechts,1,
,dotcolour,dotcolour,dotcolour,6,1,66,366,training,positivefb,95,average,55,0.48144870000032824,['c'],1,left,['9'],5,0.1150617000002967,,,13,19,Vrouw,Rechts,1,
,dotcolour,dotcolour,dotcolour,7,1,67,367,training,positivefb,98,easy,19,0.7003101000000242,['n'],1,right,['0'],6,0.2829076999996687,,,13,19,Vrouw,Rechts,1,
,dotcolour,dotcolour,dotcolour,8,1,68,368,training,positivefb,95,easy,18,0.5827355000001262,['n'],1,right,['0'],6,0.20861890000014682,,,13,19,Vrouw,Rechts,1,
,dotcolour,dotcolour,dotcolour,9,1,69,369,training,positivefb,86,hard,41,0.66706830000021,['c'],1,left,['9'],5,0.1411179999995511,,,13,19,Vrouw,Rechts,1,
,dotcolour,dotcolour,dotcolour,10,1,70,370,training,positivefb,97,hard,37,1.3008170000002792,['n'],1,right,['9'],5,0.18811379999988276,,,13,19,Vrouw,Rechts,1,
,dotcolour,dotcolour,dotcolour,11,1,71,371,training,positivefb,88,hard,42,0.48348559999976715,['c'],1,left,['9'],5,0.16980100000000675,,,13,19,Vrouw,Rechts,1,
,dotcolour,dotcolour,dotcolour,12,1,72,372,training,positivefb,95,average,25,0.7004086000006282,['n'],1,right,['9'],5,0.20746909999979835,,,13,19,Vrouw,Rechts,1,
,dotcolour,dotcolour,dotcolour,13,1,73,373,training,positivefb,97,average,29,0.5674014000005627,['n'],1,right,['9'],5,0.2568678000006912,,,13,19,Vrouw,Rechts,1,
,dotcolour,dotcolour,dotcolour,14,1,74,374,training,positivefb,93,average,53,0.4990397000001394,['c'],1,left,['9'],5,0.16274260000045615,,,13,19,Vrouw,Rechts,1,
,dotcolour,dotcolour,dotcolour,15,1,75,375,training,positivefb,94,average,55,0.6677869000004648,['c'],1,left,['0'],6,0.18598110000039014,,,13,19,Vrouw,Rechts,1,
,dotcolour,dotcolour,dotcolour,16,1,76,376,training,positivefb,87,hard,36,0.5658830000002126,['n'],1,right,['9'],5,0.16352150000057009,,,13,19,Vrouw,Rechts,1,
,dotcolour,dotcolour,dotcolour,17,1,77,377,training,positivefb,97,easy,18,0.5333606000003783,['n'],1,right,['0'],6,0.25651960000050167,,,13,19,Vrouw,Rechts,1,
,dotcolour,dotcolour,dotcolour,18,1,78,378,training,positivefb,85,easy,61,0.5175310000004174,['c'],1,left,['0'],6,0.15417559999968944,,,13,19,Vrouw,Rechts,1,
,dotcolour,dotcolour,dotcolour,19,1,79,379,training,positivefb,96,hard,39,0.6833199000002423,['n'],1,right,['9'],5,0.14555819999986852,,,13,19,Vrouw,Rechts,1,
,dotcolour,dotcolour,dotcolour,20,1,80,380,training,positivefb,81,hard,38,0.8166946999999709,['c'],0,right,['9'],5,0.13144780000038736,,,13,19,Vrouw,Rechts,1,
,dotcolour,dotcolour,dotcolour,21,1,81,381,training,positivefb,98,easy,61,0.5663155000002007,['c'],1,left,['0'],6,0.18436670000028244,,,13,19,Vrouw,Rechts,1,
,dotcolour,dotcolour,dotcolour,22,1,82,382,training,positivefb,98,average,26,0.5668269000007058,['n'],1,right,['9'],5,0.16224919999967824,,,13,19,Vrouw,Rechts,1,
,dotcolour,dotcolour,dotcolour,23,1,83,383,training,positivefb,81,hard,42,0.6175123000002714,['c'],1,left,['9'],5,0.15533239999967918,,,13,19,Vrouw,Rechts,1,
,dotcolour,dotcolour,dotcolour,24,1,84,384,training,positivefb,94,hard,38,0.6661942000000636,['c'],0,right,['9'],5,0.12287130000004254,,,13,19,Vrouw,Rechts,1,
,dotcolour,dotcolour,dotcolour,25,1,85,385,training,positivefb,97,average,53,0.5332620999997744,['c'],1,left,['9'],5,0.14462339999954565,,,13,19,Vrouw,Rechts,1,
,dotcolour,dotcolour,dotcolour,26,1,86,386,training,positivefb,93,easy,17,0.5504524999996647,['n'],1,right,['9'],5,0.19000340000002325,,,13,19,Vrouw,Rechts,1,
,dotcolour,dotcolour,dotcolour,27,1,87,387,training,positivefb,98,easy,61,0.4989752999999837,['c'],1,left,['0'],6,0.1059717999996792,,,13,19,Vrouw,Rechts,1,
,dotcolour,dotcolour,dotcolour,28,1,88,388,training,positivefb,98,easy,61,0.5008692000001247,['c'],1,left,['0'],6,0.15486310000051162,,,13,19,Vrouw,Rechts,1,
,dotcolour,dotcolour,dotcolour,29,1,89,389,training,positivefb,88,easy,19,0.6171808000008241,['n'],1,right,['0'],6,0.14786089999961405,,,13,19,Vrouw,Rechts,1,
,dotcolour,dotcolour,dotcolour,30,1,90,390,training,positivefb,92,hard,45,0.5333411000001433,['c'],1,left,['0'],6,0.32917819999966014,,,13,19,Vrouw,Rechts,1,
,dotcolour,dotcolour,dotcolour,31,1,91,391,training,positivefb,77,hard,41,0.8332487999996374,['n'],0,left,['9'],5,0.16243450000001758,,,13,19,Vrouw,Rechts,1,
,dotcolour,dotcolour,dotcolour,32,1,92,392,training,positivefb,94,hard,36,0.566533399999571,['c'],0,right,['9'],5,0.1497298000003866,,,13,19,Vrouw,Rechts,1,
,dotcolour,dotcolour,dotcolour,33,1,93,393,training,positivefb,97,average,51,0.5666114000005109,['c'],1,left,['0'],6,0.17790820000027452,,,13,19,Vrouw,Rechts,1,
,dotcolour,dotcolour,dotcolour,34,1,94,394,training,positivefb,91,hard,45,0.6167120000000068,['n'],0,left,['9'],5,0.18648389999998471,,,13,19,Vrouw,Rechts,1,
,dotcolour,dotcolour,dotcolour,35,1,95,395,training,positivefb,90,average,52,0.6669994000003499,['c'],1,left,['0'],6,0.20872099999996863,,,13,19,Vrouw,Rechts,1,
,dotcolour,dotcolour,dotcolour,36,1,96,396,training,positivefb,96,average,53,0.8660327999996298,['c'],1,left,['9'],5,0.13420469999982743,,,13,19,Vrouw,Rechts,1,
,dotcolour,dotcolour,dotcolour,37,1,97,397,training,positivefb,96,easy,65,0.49936040000011417,['c'],1,left,['0'],6,0.17325199999959295,,,13,19,Vrouw,Rechts,1,
,dotcolour,dotcolour,dotcolour,38,1,98,398,training,positivefb,97,average,28,0.5828246999999465,['n'],1,right,['9'],5,0.17443199999979697,,,13,19,Vrouw,Rechts,1,
,dotcolour,dotcolour,dotcolour,39,1,99,399,training,positivefb,98,average,51,0.5505144999997356,['c'],1,left,['9'],5,0.1386104000002888,,,13,19,Vrouw,Rechts,1,
,dotcolour,dotcolour,dotcolour,40,1,100,400,training,positivefb,95,easy,62,0.5333626999999979,['c'],1,left,['0'],6,0.104062100000192,,,13,19,Vrouw,Rechts,1,
,dotcolour,dotcolour,dotcolour,41,1,101,401,training,positivefb,91,hard,39,0.7839616999999635,['n'],1,right,['9'],5,0.15648199999941426,,,13,19,Vrouw,Rechts,1,
,dotcolour,dotcolour,dotcolour,42,1,102,402,training,positivefb,56,easy,17,0.434007500000007,['c'],0,right,['9'],5,1.2852013000001534,,,13,19,Vrouw,Rechts,1,
,dotcolour,dotcolour,dotcolour,43,1,103,403,training,positivefb,98,easy,17,0.5836531999993895,['n'],1,right,['0'],6,0.4030291999997644,,,13,19,Vrouw,Rechts,1,
,dotcolour,dotcolour,dotcolour,44,1,104,404,training,positivefb,99,average,27,0.8664440000002287,['n'],1,right,['9'],5,0.44042499999977736,,,13,19,Vrouw,Rechts,1,
,dotcolour,dotcolour,dotcolour,45,1,105,405,training,positivefb,94,easy,16,0.5654751000001852,['n'],1,right,['0'],6,0.28826810000009573,,,13,19,Vrouw,Rechts,1,
,dotcolour,dotcolour,dotcolour,46,1,106,406,training,positivefb,90,hard,43,0.6837224999999307,['c'],1,left,['9'],5,0.32985009999993053,,,13,19,Vrouw,Rechts,1,
,dotcolour,dotcolour,dotcolour,47,1,107,407,training,positivefb,90,easy,63,0.5509263000003557,['c'],1,left,['0'],6,0.16722639999989042,,,13,19,Vrouw,Rechts,1,
,dotcolour,dotcolour,dotcolour,48,1,108,408,training,positivefb,98,easy,64,0.7329370000006747,['c'],1,left,['0'],6,0.20250820000001113,,,13,19,Vrouw,Rechts,1,
,dotcolour,dotcolour,dotcolour,49,1,109,409,training,positivefb,93,hard,38,0.5659323999998378,['n'],1,right,['9'],5,0.2364437000005637,,,13,19,Vrouw,Rechts,1,
,dotcolour,dotcolour,dotcolour,50,1,110,410,training,positivefb,94,average,29,0.6001636000000872,['n'],1,right,['9'],5,0.24362070000006497,,,13,19,Vrouw,Rechts,1,
,dotcolour,dotcolour,dotcolour,51,1,111,411,training,positivefb,92,hard,36,0.6832401000001482,['c'],0,right,['9'],5,0.17442800000026182,,,13,19,Vrouw,Rechts,1,
,dotcolour,dotcolour,dotcolour,52,1,112,412,training,positivefb,97,easy,15,0.5503423999998631,['n'],1,right,['9'],5,0.1857278999996197,,,13,19,Vrouw,Rechts,1,
,dotcolour,dotcolour,dotcolour,53,1,113,413,training,positivefb,91,average,28,0.8161768999998458,['n'],1,right,['9'],5,0.2410859999999957,,,13,19,Vrouw,Rechts,1,
,dotcolour,dotcolour,dotcolour,54,1,114,414,training,positivefb,91,average,26,0.5494777000003523,['n'],1,right,['9'],5,0.21058909999919706,,,13,19,Vrouw,Rechts,1,
,dotcolour,dotcolour,dotcolour,55,1,115,415,training,positivefb,76,easy,65,0.6000348999996277,['c'],1,left,['0'],6,0.21818230000008043,,,13,19,Vrouw,Rechts,1,
,dotcolour,dotcolour,dotcolour,56,1,116,416,training,positivefb,94,hard,42,1.0833703999996942,['c'],1,left,['9'],5,0.15823379999983445,,,13,19,Vrouw,Rechts,1,
,dotcolour,dotcolour,dotcolour,57,1,117,417,training,positivefb,96,average,27,0.6656071999996129,['n'],1,right,['0'],6,0.22243669999988924,,,13,19,Vrouw,Rechts,1,
,dotcolour,dotcolour,dotcolour,58,1,118,418,training,positivefb,99,hard,43,0.6823672999998962,['c'],1,left,['9'],5,0.15459379999992962,,,13,19,Vrouw,Rechts,1,
,dotcolour,dotcolour,dotcolour,59,1,119,419,training,positivefb,85,average,25,0.5339171000005081,['n'],1,right,['9'],5,0.23861200000010285,,,13,19,Vrouw,Rechts,1,
,xotask,dotcolour,dotcolour,0,2,120,420,main,positivefb,-99,easy,,1.3010454000004756,['c'],1,left,['9'],5,1.1750449000001026,73,,13,19,Vrouw,Rechts,1,
,xotask,dotcolour,dotcolour,1,2,121,421,main,positivefb,-99,hard,,1.4175701000003755,['n'],1,right,['8'],4,0.8644469999999274,29,,13,19,Vrouw,Rechts,1,
,xotask,dotcolour,dotcolour,2,2,122,422,main,positivefb,-99,hard,,0.817011299999649,['c'],0,right,['8'],4,0.2707293999992544,29,,13,19,Vrouw,Rechts,1,
,xotask,dotcolour,dotcolour,3,2,123,423,main,positivefb,-99,hard,,0.6500017999996999,['c'],0,right,['8'],4,0.2504951999999321,26,,13,19,Vrouw,Rechts,1,
,xotask,dotcolour,dotcolour,4,2,124,424,main,positivefb,-99,hard,,0.9667264999998224,['c'],0,right,['8'],4,0.15395400000033987,26,,13,19,Vrouw,Rechts,1,
,xotask,dotcolour,dotcolour,5,2,125,425,main,positivefb,-99,hard,,0.9339395999995759,['n'],0,left,['8'],4,0.23900999999932537,52,,13,19,Vrouw,Rechts,1,
,xotask,dotcolour,dotcolour,6,2,126,426,main,positivefb,-99,easy,,0.6332335000006424,['c'],1,left,['8'],4,0.17397520000031363,72,,13,19,Vrouw,Rechts,1,
,xotask,dotcolour,dotcolour,7,2,127,427,main,positivefb,-99,easy,,0.6164505000006102,['n'],1,right,['8'],4,0.2473655999992843,9,,13,19,Vrouw,Rechts,1,
,xotask,dotcolour,dotcolour,8,2,128,428,main,positivefb,-99,average,,0.8004989000000933,['n'],1,right,['8'],4,0.22221540000009554,16,,13,19,Vrouw,Rechts,1,
,xotask,dotcolour,dotcolour,9,2,129,429,main,positivefb,-99,average,,0.5332036999998309,['n'],1,right,['8'],4,0.2334844000006342,18,,13,19,Vrouw,Rechts,1,
,xotask,dotcolour,dotcolour,10,2,130,430,main,positivefb,-99,hard,,0.5996129000004657,['c'],1,left,['8'],4,0.2246869999999035,53,,13,19,Vrouw,Rechts,1,
,xotask,dotcolour,dotcolour,11,2,131,431,main,positivefb,-99,hard,,0.9161542000001646,['n'],1,right,['8'],4,0.2602344000006269,28,,13,19,Vrouw,Rechts,1,
,xotask,dotcolour,dotcolour,12,2,132,432,main,positivefb,-99,average,,0.6345575999994253,['n'],1,right,['8'],4,0.23274769999989076,19,,13,19,Vrouw,Rechts,1,
,xotask,dotcolour,dotcolour,13,2,133,433,main,positivefb,-99,average,,0.6506380999999237,['c'],1,left,['8'],4,0.2549706999998307,62,,13,19,Vrouw,Rechts,1,
,xotask,dotcolour,dotcolour,14,2,134,434,main,positivefb,-99,easy,,0.733972700000777,['n'],1,right,['8'],4,0.26427979999971285,6,,13,19,Vrouw,Rechts,1,
,xotask,dotcolour,dotcolour,15,2,135,435,main,positivefb,-99,hard,,0.5662804000003234,['n'],1,right,['8'],4,0.4163133000001835,29,,13,19,Vrouw,Rechts,1,
,xotask,dotcolour,dotcolour,16,2,136,436,main,positivefb,-99,easy,,0.5838911000000735,['c'],1,left,['8'],4,0.20871320000060223,73,,13,19,Vrouw,Rechts,1,
,xotask,dotcolour,dotcolour,17,2,137,437,main,positivefb,-99,hard,,0.6678124000000025,['c'],0,right,['8'],4,0.22328939999988506,26,,13,19,Vrouw,Rechts,1,
,xotask,dotcolour,dotcolour,18,2,138,438,main,positivefb,-99,average,,0.5677081999992879,['n'],1,right,['8'],4,0.20041810000020632,18,,13,19,Vrouw,Rechts,1,
,xotask,dotcolour,dotcolour,19,2,139,439,main,positivefb,-99,easy,,0.4512464999997974,['c'],1,left,['8'],4,0.13513199999943026,74,,13,19,Vrouw,Rechts,1,
,xotask,dotcolour,dotcolour,20,2,140,440,main,positivefb,-99,easy,,0.6343477000000348,['n'],1,right,['8'],4,0.17731600000024628,6,,13,19,Vrouw,Rechts,1,
,xotask,dotcolour,dotcolour,21,2,141,441,main,positivefb,-99,average,,0.6330686000001151,['n'],1,right,['8'],4,0.2578510000003007,19,,13,19,Vrouw,Rechts,1,
,xotask,dotcolour,dotcolour,22,2,142,442,main,positivefb,-99,easy,,0.7338009000004604,['c'],1,left,['8'],4,0.20310160000008182,71,,13,19,Vrouw,Rechts,1,
,xotask,dotcolour,dotcolour,23,2,143,443,main,positivefb,-99,hard,,0.7006953000000067,['c'],1,left,['8'],4,0.24759369999992487,52,,13,19,Vrouw,Rechts,1,
,xotask,dotcolour,dotcolour,24,2,144,444,main,positivefb,-99,hard,,1.2167255000003934,['c'],1,left,['8'],4,0.2220685999991474,51,,13,19,Vrouw,Rechts,1,
,xotask,dotcolour,dotcolour,25,2,145,445,main,positivefb,-99,average,,0.7004250999998476,['c'],1,left,['8'],4,0.17076300000007905,63,,13,19,Vrouw,Rechts,1,
,xotask,dotcolour,dotcolour,26,2,146,446,main,positivefb,-99,average,,1.900701399999889,['n'],1,right,['8'],4,0.20847799999955896,15,,13,19,Vrouw,Rechts,1,
,xotask,dotcolour,dotcolour,27,2,147,447,main,positivefb,-99,average,,0.6329523000003974,['c'],1,left,['8'],4,0.1924488000004203,60,,13,19,Vrouw,Rechts,1,
,xotask,dotcolour,dotcolour,28,2,148,448,main,positivefb,-99,average,,0.9679970000006506,['c'],1,left,['8'],4,0.18648540000049252,63,,13,19,Vrouw,Rechts,1,
,xotask,dotcolour,dotcolour,29,2,149,449,main,positivefb,-99,easy,,0.5840373999999429,['c'],1,left,['8'],4,0.15653219999967405,72,,13,19,Vrouw,Rechts,1,
,xotask,dotcolour,dotcolour,30,2,150,450,main,positivefb,-99,hard,,1.599551899999824,['n'],0,left,['8'],4,0.18431409999993775,53,,13,19,Vrouw,Rechts,1,
,xotask,dotcolour,dotcolour,31,2,151,451,main,positivefb,-99,average,,0.7831661000000167,['c'],1,left,['8'],4,0.17779590000009193,62,,13,19,Vrouw,Rechts,1,
,xotask,dotcolour,dotcolour,32,2,152,452,main,positivefb,-99,hard,,0.6167615000003934,['n'],0,left,['8'],4,0.13934000000062952,50,,13,19,Vrouw,Rechts,1,
,xotask,dotcolour,dotcolour,33,2,153,453,main,positivefb,-99,average,,0.465661999999611,['c'],1,left,['8'],4,0.18010049999975308,62,,13,19,Vrouw,Rechts,1,
,xotask,dotcolour,dotcolour,34,2,154,454,main,positivefb,-99,hard,,0.5175388999996358,['n'],1,right,['8'],4,0.2818321000004289,27,,13,19,Vrouw,Rechts,1,
,xotask,dotcolour,dotcolour,35,2,155,455,main,positivefb,-99,easy,,0.6815989999995509,['n'],1,right,['8'],4,0.14015250000011292,9,,13,19,Vrouw,Rechts,1,
,xotask,dotcolour,dotcolour,36,2,156,456,main,positivefb,-99,average,,0.9837762999995903,['c'],1,left,['8'],4,0.12846520000039163,62,,13,19,Vrouw,Rechts,1,
,xotask,dotcolour,dotcolour,37,2,157,457,main,positivefb,-99,average,,0.5506436000005124,['c'],1,left,['8'],4,0.12652359999992768,62,,13,19,Vrouw,Rechts,1,
,xotask,dotcolour,dotcolour,38,2,158,458,main,positivefb,-99,hard,,0.6506711000001815,['n'],0,left,['8'],4,0.1524904999996579,52,,13,19,Vrouw,Rechts,1,
,xotask,dotcolour,dotcolour,39,2,159,459,main,positivefb,-99,easy,,0.6656832999997278,['c'],1,left,['8'],4,0.13636230000065552,73,,13,19,Vrouw,Rechts,1,
,xotask,dotcolour,dotcolour,40,2,160,460,main,positivefb,-99,average,,0.7674105999994936,['n'],1,right,['8'],4,0.15684499999952095,19,,13,19,Vrouw,Rechts,1,
,xotask,dotcolour,dotcolour,41,2,161,461,main,positivefb,-99,easy,,0.649416399999609,['n'],1,right,['8'],4,0.333604500000547,9,,13,19,Vrouw,Rechts,1,
,xotask,dotcolour,dotcolour,42,2,162,462,main,positivefb,-99,easy,,0.6825963999999658,['n'],1,right,['8'],4,0.15820329999951355,7,,13,19,Vrouw,Rechts,1,
,xotask,dotcolour,dotcolour,43,2,163,463,main,positivefb,-99,easy,,0.484565400000065,['n'],1,right,['8'],4,0.15718769999966753,8,,13,19,Vrouw,Rechts,1,
,xotask,dotcolour,dotcolour,44,2,164,464,main,positivefb,-99,hard,,0.6837375000004613,['c'],0,right,['8'],4,0.11686920000011014,29,,13,19,Vrouw,Rechts,1,
,xotask,dotcolour,dotcolour,45,2,165,465,main,positivefb,-99,easy,,0.6833083999999872,['n'],1,right,['8'],4,0.14125799999965238,7,,13,19,Vrouw,Rechts,1,
,xotask,dotcolour,dotcolour,46,2,166,466,main,positivefb,-99,easy,,0.7001378000004479,['n'],1,right,['8'],4,0.1566434999995181,7,,13,19,Vrouw,Rechts,1,
,xotask,dotcolour,dotcolour,47,2,167,467,main,positivefb,-99,easy,,0.5327028000001519,['c'],1,left,['8'],4,0.14599120000002586,74,,13,19,Vrouw,Rechts,1,
,xotask,dotcolour,dotcolour,48,2,168,468,main,positivefb,-99,hard,,0.7325182000004133,['c'],1,left,['8'],4,0.14387390000047162,54,,13,19,Vrouw,Rechts,1,
,xotask,dotcolour,dotcolour,49,2,169,469,main,positivefb,-99,hard,,0.6990437000004022,['n'],1,right,['8'],4,0.13542010000037408,26,,13,19,Vrouw,Rechts,1,
,xotask,dotcolour,dotcolour,50,2,170,470,main,positivefb,-99,hard,,0.8842537999998967,['n'],0,left,['8'],4,0.18366289999994478,50,,13,19,Vrouw,Rechts,1,
,xotask,dotcolour,dotcolour,51,2,171,471,main,positivefb,-99,average,,0.7174348999997164,['c'],1,left,['8'],4,0.11601919999975507,60,,13,19,Vrouw,Rechts,1,
,xotask,dotcolour,dotcolour,52,2,172,472,main,positivefb,-99,easy,,0.550840299999436,['c'],1,left,['8'],4,0.16204970000035246,74,,13,19,Vrouw,Rechts,1,
,xotask,dotcolour,dotcolour,53,2,173,473,main,positivefb,-99,easy,,0.8000952000002144,['c'],0,right,['8'],4,0.14094639999984793,9,,13,19,Vrouw,Rechts,1,
,xotask,dotcolour,dotcolour,54,2,174,474,main,positivefb,-99,average,,0.567630200000167,['n'],1,right,['8'],4,0.16962710000007064,17,,13,19,Vrouw,Rechts,1,
,xotask,dotcolour,dotcolour,55,2,175,475,main,positivefb,-99,average,,0.5494276999997965,['n'],1,right,['8'],4,0.18971810000039113,17,,13,19,Vrouw,Rechts,1,
,xotask,dotcolour,dotcolour,56,2,176,476,main,positivefb,-99,average,,0.701759000000493,['n'],1,right,['8'],4,0.17846359999930428,17,,13,19,Vrouw,Rechts,1,
,xotask,dotcolour,dotcolour,57,2,177,477,main,positivefb,-99,easy,,0.9663422000003266,['c'],1,left,['8'],4,0.14211239999985992,74,,13,19,Vrouw,Rechts,1,
,xotask,dotcolour,dotcolour,58,2,178,478,main,positivefb,-99,hard,,0.7013547999995353,['c'],1,left,['8'],4,0.11718380000002071,50,,13,19,Vrouw,Rechts,1,
,xotask,dotcolour,dotcolour,59,2,179,479,main,positivefb,-99,average,,0.6332578000001376,['c'],1,left,['8'],4,0.11131070000010368,64,,13,19,Vrouw,Rechts,1,
,xotask,dotcolour,dotcolour,0,3,180,480,main,positivefb,-99,easy,,0.734509199999593,['n'],1,right,['8'],4,0.16048790000058943,9,,13,19,Vrouw,Rechts,1,
,xotask,dotcolour,dotcolour,1,3,181,481,main,positivefb,-99,easy,,0.5840971999996327,['c'],1,left,['8'],4,0.14023420000012266,71,,13,19,Vrouw,Rechts,1,
,xotask,dotcolour,dotcolour,2,3,182,482,main,positivefb,-99,average,,0.5174881000002642,['n'],1,right,['8'],4,0.14698990000033518,16,,13,19,Vrouw,Rechts,1,
,xotask,dotcolour,dotcolour,3,3,183,483,main,positivefb,-99,average,,0.6007448000000295,['c'],1,left,['8'],4,0.11025210000025254,63,,13,19,Vrouw,Rechts,1,
,xotask,dotcolour,dotcolour,4,3,184,484,main,positivefb,-99,average,,0.6337609000001976,['c'],1,left,['8'],4,0.12952940000013768,62,,13,19,Vrouw,Rechts,1,
,xotask,dotcolour,dotcolour,5,3,185,485,main,positivefb,-99,hard,,0.6675398999996105,['n'],1,right,['8'],4,0.14673429999947984,25,,13,19,Vrouw,Rechts,1,
,xotask,dotcolour,dotcolour,6,3,186,486,main,positivefb,-99,hard,,0.5999852999993891,['c'],0,right,['8'],4,0.13405710000006366,28,,13,19,Vrouw,Rechts,1,
,xotask,dotcolour,dotcolour,7,3,187,487,main,positivefb,-99,hard,,0.45147780000024795,['n'],1,right,['8'],4,0.15973159999975906,27,,13,19,Vrouw,Rechts,1,
,xotask,dotcolour,dotcolour,8,3,188,488,main,positivefb,-99,hard,,0.7507395000002361,['c'],0,right,['8'],4,0.16382029999931547,29,,13,19,Vrouw,Rechts,1,
,xotask,dotcolour,dotcolour,9,3,189,489,main,positivefb,-99,easy,,0.6003040000005058,['c'],1,left,['8'],4,0.13508550000005926,72,,13,19,Vrouw,Rechts,1,
,xotask,dotcolour,dotcolour,10,3,190,490,main,positivefb,-99,hard,,0.7836948000003758,['c'],1,left,['8'],4,0.13903769999978977,53,,13,19,Vrouw,Rechts,1,
,xotask,dotcolour,dotcolour,11,3,191,491,main,positivefb,-99,easy,,0.5005616999997073,['c'],1,left,['8'],4,0.13925430000017514,70,,13,19,Vrouw,Rechts,1,
,xotask,dotcolour,dotcolour,12,3,192,492,main,positivefb,-99,hard,,0.5846996999998737,['c'],1,left,['8'],4,0.15866060000007565,52,,13,19,Vrouw,Rechts,1,
,xotask,dotcolour,dotcolour,13,3,193,493,main,positivefb,-99,easy,,0.767183699999805,['n'],1,right,['8'],4,0.17806850000033592,9,,13,19,Vrouw,Rechts,1,
,xotask,dotcolour,dotcolour,14,3,194,494,main,positivefb,-99,easy,,0.9501867999997557,['n'],1,right,['8'],4,0.15870149999955174,8,,13,19,Vrouw,Rechts,1,
,xotask,dotcolour,dotcolour,15,3,195,495,main,positivefb,-99,average,,0.6506247000006624,['n'],1,right,['8'],4,0.15927649999957794,17,,13,19,Vrouw,Rechts,1,
,xotask,dotcolour,dotcolour,16,3,196,496,main,positivefb,-99,average,,0.5345419999994192,['n'],1,right,['8'],4,0.14064970000072208,16,,13,19,Vrouw,Rechts,1,
,xotask,dotcolour,dotcolour,17,3,197,497,main,positivefb,-99,hard,,0.8663930999991862,['c'],1,left,['8'],4,0.11772410000048694,52,,13,19,Vrouw,Rechts,1,
,xotask,dotcolour,dotcolour,18,3,198,498,main,positivefb,-99,average,,0.5844682999995712,['n'],1,right,['8'],4,0.10645430000022316,17,,13,19,Vrouw,Rechts,1,
,xotask,dotcolour,dotcolour,19,3,199,499,main,positivefb,-99,average,,0.801729400000113,['c'],0,right,['8'],4,0.15142939999986993,18,,13,19,Vrouw,Rechts,1,
,xotask,dotcolour,dotcolour,20,3,200,500,main,positivefb,-99,hard,,1.0173801000000822,['n'],1,right,['8'],4,0.12849550000009913,25,,13,19,Vrouw,Rechts,1,
,xotask,dotcolour,dotcolour,21,3,201,501,main,positivefb,-99,average,,0.6504703999999037,['c'],0,right,['8'],4,0.17821120000007795,16,,13,19,Vrouw,Rechts,1,
,xotask,dotcolour,dotcolour,22,3,202,502,main,positivefb,-99,easy,,0.5672859999995126,['n'],1,right,['8'],4,0.11826059999930294,9,,13,19,Vrouw,Rechts,1,
,xotask,dotcolour,dotcolour,23,3,203,503,main,positivefb,-99,hard,,1.1346806999999899,['c'],1,left,['8'],4,0.11669929999970918,54,,13,19,Vrouw,Rechts,1,
,xotask,dotcolour,dotcolour,24,3,204,504,main,positivefb,-99,average,,0.46731999999974505,['n'],0,left,['8'],4,0.16584899999998015,64,,13,19,Vrouw,Rechts,1,
,xotask,dotcolour,dotcolour,25,3,205,505,main,positivefb,-99,hard,,0.6500084999997853,['c'],1,left,['8'],4,0.1342274999997244,54,,13,19,Vrouw,Rechts,1,
,xotask,dotcolour,dotcolour,26,3,206,506,main,positivefb,-99,hard,,0.7175793000005797,['n'],0,left,['8'],4,0.1486667999997735,54,,13,19,Vrouw,Rechts,1,
,xotask,dotcolour,dotcolour,27,3,207,507,main,positivefb,-99,easy,,0.6837546000006114,['n'],1,right,['8'],4,0.13999560000047495,6,,13,19,Vrouw,Rechts,1,
,xotask,dotcolour,dotcolour,28,3,208,508,main,positivefb,-99,average,,0.83520850000059,['c'],0,right,['8'],4,0.2066291999999521,16,,13,19,Vrouw,Rechts,1,
,xotask,dotcolour,dotcolour,29,3,209,509,main,positivefb,-99,average,,0.7007983999992575,['c'],1,left,['8'],4,0.1471908000003168,62,,13,19,Vrouw,Rechts,1,
,xotask,dotcolour,dotcolour,30,3,210,510,main,positivefb,-99,average,,0.6002809999999954,['n'],1,right,['8'],4,0.18296529999952327,16,,13,19,Vrouw,Rechts,1,
,xotask,dotcolour,dotcolour,31,3,211,511,main,positivefb,-99,easy,,0.6009517000002234,['n'],1,right,['8'],4,0.13625750000028347,8,,13,19,Vrouw,Rechts,1,
,xotask,dotcolour,dotcolour,32,3,212,512,main,positivefb,-99,average,,0.6170621999999639,['c'],1,left,['8'],4,0.1622949000002336,62,,13,19,Vrouw,Rechts,1,
,xotask,dotcolour,dotcolour,33,3,213,513,main,positivefb,-99,hard,,0.9337914999996428,['c'],0,right,['8'],4,0.10489359999974113,28,,13,19,Vrouw,Rechts,1,
,xotask,dotcolour,dotcolour,34,3,214,514,main,positivefb,-99,average,,0.5336109999998371,['n'],1,right,['8'],4,0.11123440000028495,17,,13,19,Vrouw,Rechts,1,
,xotask,dotcolour,dotcolour,35,3,215,515,main,positivefb,-99,easy,,0.6003795999995418,['c'],1,left,['8'],4,0.10024960000009742,71,,13,19,Vrouw,Rechts,1,
,xotask,dotcolour,dotcolour,36,3,216,516,main,positivefb,-99,average,,0.5843805000004068,['c'],1,left,['8'],4,0.0980688999998165,62,,13,19,Vrouw,Rechts,1,
,xotask,dotcolour,dotcolour,37,3,217,517,main,positivefb,-99,easy,,0.5824321000000054,['c'],1,left,['8'],4,0.030925800000659365,73,,13,19,Vrouw,Rechts,1,
,xotask,dotcolour,dotcolour,38,3,218,518,main,positivefb,-99,easy,,0.5676258000003145,['n'],1,right,['8'],4,0.16016060000038124,8,,13,19,Vrouw,Rechts,1,
,xotask,dotcolour,dotcolour,39,3,219,519,main,positivefb,-99,hard,,0.8167229000000589,['c'],0,right,['8'],4,0.09831329999997251,29,,13,19,Vrouw,Rechts,1,
,xotask,dotcolour,dotcolour,40,3,220,520,main,positivefb,-99,hard,,0.649526700000024,['c'],1,left,['8'],4,0.141148499999872,54,,13,19,Vrouw,Rechts,1,
,xotask,dotcolour,dotcolour,41,3,221,521,main,positivefb,-99,easy,,0.6673023000003013,['c'],1,left,['8'],4,0.11055860000033135,73,,13,19,Vrouw,Rechts,1,
,xotask,dotcolour,dotcolour,42,3,222,522,main,positivefb,-99,easy,,0.5679100000006656,['c'],1,left,['8'],4,0.10052159999941068,70,,13,19,Vrouw,Rechts,1,
,xotask,dotcolour,dotcolour,43,3,223,523,main,positivefb,-99,easy,,0.6010433000001285,['n'],1,right,['8'],4,0.16871770000034303,9,,13,19,Vrouw,Rechts,1,
,xotask,dotcolour,dotcolour,44,3,224,524,main,positivefb,-99,hard,,0.515863999999965,['n'],1,right,['8'],4,0.17428900000049907,27,,13,19,Vrouw,Rechts,1,
,xotask,dotcolour,dotcolour,45,3,225,525,main,positivefb,-99,average,,0.7672891000001982,['c'],1,left,['8'],4,0.11313169999993988,62,,13,19,Vrouw,Rechts,1,
,xotask,dotcolour,dotcolour,46,3,226,526,main,positivefb,-99,easy,,0.6172480000004725,['c'],1,left,['8'],4,0.1255165999991732,71,,13,19,Vrouw,Rechts,1,
,xotask,dotcolour,dotcolour,47,3,227,527,main,positivefb,-99,easy,,0.5327608000006876,['c'],1,left,['8'],4,0.11629790000006324,73,,13,19,Vrouw,Rechts,1,
,xotask,dotcolour,dotcolour,48,3,228,528,main,positivefb,-99,hard,,0.6176638000006278,['c'],1,left,['8'],4,0.07185860000026878,51,,13,19,Vrouw,Rechts,1,
,xotask,dotcolour,dotcolour,49,3,229,529,main,positivefb,-99,average,,0.5175576999999976,['n'],1,right,['8'],4,0.1367556000004697,17,,13,19,Vrouw,Rechts,1,
,xotask,dotcolour,dotcolour,50,3,230,530,main,positivefb,-99,average,,0.6665827000006175,['c'],1,left,['8'],4,0.13752179999937653,63,,13,19,Vrouw,Rechts,1,
,xotask,dotcolour,dotcolour,51,3,231,531,main,positivefb,-99,hard,,0.46764919999986887,['n'],0,left,['8'],4,1.0433004000005894,53,,13,19,Vrouw,Rechts,1,
,xotask,dotcolour,dotcolour,52,3,232,532,main,positivefb,-99,hard,,0.7017451000001529,['n'],1,right,['8'],4,0.13403290000042034,28,,13,19,Vrouw,Rechts,1,
,xotask,dotcolour,dotcolour,53,3,233,533,main,positivefb,-99,hard,,0.7839075000001685,['c'],1,left,['8'],4,0.09793730000001233,50,,13,19,Vrouw,Rechts,1,
,xotask,dotcolour,dotcolour,54,3,234,534,main,positivefb,-99,average,,0.7163752999995268,['c'],1,left,['8'],4,0.11523179999949207,60,,13,19,Vrouw,Rechts,1,
,xotask,dotcolour,dotcolour,55,3,235,535,main,positivefb,-99,average,,0.6505535999995118,['c'],1,left,['8'],4,0.14975909999975556,63,,13,19,Vrouw,Rechts,1,
,xotask,dotcolour,dotcolour,56,3,236,536,main,positivefb,-99,easy,,0.7332376000003933,['c'],1,left,['8'],4,0.11437580000074377,70,,13,19,Vrouw,Rechts,1,
,xotask,dotcolour,dotcolour,57,3,237,537,main,positivefb,-99,easy,,0.4999130999995032,['n'],1,right,['8'],4,0.13139380000029632,7,,13,19,Vrouw,Rechts,1,
,xotask,dotcolour,dotcolour,58,3,238,538,main,positivefb,-99,hard,,0.7496790999994118,['c'],0,right,['8'],4,0.13755309999942256,26,,13,19,Vrouw,Rechts,1,
,xotask,dotcolour,dotcolour,59,3,239,539,main,positivefb,-99,easy,,0.6684162000001379,['n'],1,right,['8'],4,0.1224962999995114,8,,13,19,Vrouw,Rechts,1,
,xotask,dotcolour,dotcolour,0,4,240,540,main,positivefb,-99,hard,,0.7177623999996285,['c'],0,right,['8'],4,0.1420047000001432,28,,13,19,Vrouw,Rechts,1,
,xotask,dotcolour,dotcolour,1,4,241,541,main,positivefb,-99,easy,,0.5339250999995784,['n'],1,right,['8'],4,0.15615369999977702,8,,13,19,Vrouw,Rechts,1,
,xotask,dotcolour,dotcolour,2,4,242,542,main,positivefb,-99,average,,0.5672789999998713,['n'],0,left,['8'],4,0.19930889999977808,60,,13,19,Vrouw,Rechts,1,
,xotask,dotcolour,dotcolour,3,4,243,543,main,positivefb,-99,hard,,0.6342537999998967,['n'],0,left,['8'],4,0.14368970000032277,52,,13,19,Vrouw,Rechts,1,
,xotask,dotcolour,dotcolour,4,4,244,544,main,positivefb,-99,hard,,0.600364100000661,['n'],1,right,['8'],4,0.1301395999998931,26,,13,19,Vrouw,Rechts,1,
,xotask,dotcolour,dotcolour,5,4,245,545,main,positivefb,-99,easy,,0.4666990999994596,['c'],1,left,['8'],4,0.10029890000078012,70,,13,19,Vrouw,Rechts,1,
,xotask,dotcolour,dotcolour,6,4,246,546,main,positivefb,-99,average,,0.5509211999997206,['c'],1,left,['8'],4,0.14622509999935573,60,,13,19,Vrouw,Rechts,1,
,xotask,dotcolour,dotcolour,7,4,247,547,main,positivefb,-99,hard,,0.500892400000339,['c'],1,left,['8'],4,0.2017191000004459,51,,13,19,Vrouw,Rechts,1,
,xotask,dotcolour,dotcolour,8,4,248,548,main,positivefb,-99,average,,0.5015811000002941,['c'],1,left,['8'],4,0.1589293999995789,61,,13,19,Vrouw,Rechts,1,
,xotask,dotcolour,dotcolour,9,4,249,549,main,positivefb,-99,easy,,0.5674175000003743,['n'],1,right,['8'],4,0.15551270000014483,5,,13,19,Vrouw,Rechts,1,
,xotask,dotcolour,dotcolour,10,4,250,550,main,positivefb,-99,hard,,0.4670097000007445,['c'],1,left,['8'],4,0.17877219999991212,54,,13,19,Vrouw,Rechts,1,
,xotask,dotcolour,dotcolour,11,4,251,551,main,positivefb,-99,hard,,0.6002151000002414,['c'],0,right,['8'],4,1.228965999999673,27,,13,19,Vrouw,Rechts,1,
,xotask,dotcolour,dotcolour,12,4,252,552,main,positivefb,-99,average,,0.8502924000003986,['n'],1,right,['8'],4,0.16343330000017886,19,,13,19,Vrouw,Rechts,1,
,xotask,dotcolour,dotcolour,13,4,253,553,main,positivefb,-99,hard,,1.9177825999995548,['n'],1,right,['8'],4,0.2727476000000024,29,,13,19,Vrouw,Rechts,1,
,xotask,dotcolour,dotcolour,14,4,254,554,main,positivefb,-99,hard,,1.1004124999999476,['c'],1,left,['8'],4,0.13069409999934578,53,,13,19,Vrouw,Rechts,1,
,xotask,dotcolour,dotcolour,15,4,255,555,main,positivefb,-99,easy,,1.1501634000005652,['c'],1,left,['8'],4,1.3285624000000098,74,,13,19,Vrouw,Rechts,1,
,xotask,dotcolour,dotcolour,16,4,256,556,main,positivefb,-99,easy,,1.0498520000001008,['c'],1,left,['8'],4,0.17871439999998984,72,,13,19,Vrouw,Rechts,1,
,xotask,dotcolour,dotcolour,17,4,257,557,main,positivefb,-99,hard,,3.017697799999951,['c'],0,right,['8'],4,0.10892550000062329,28,,13,19,Vrouw,Rechts,1,
,xotask,dotcolour,dotcolour,18,4,258,558,main,positivefb,-99,hard,,0.7179163000000699,['c'],1,left,['8'],4,0.09231520000048477,51,,13,19,Vrouw,Rechts,1,
,xotask,dotcolour,dotcolour,19,4,259,559,main,positivefb,-99,easy,,0.5164629999999306,['n'],1,right,['8'],4,0.2045243999991726,8,,13,19,Vrouw,Rechts,1,
,xotask,dotcolour,dotcolour,20,4,260,560,main,positivefb,-99,easy,,0.4672870000003968,['c'],1,left,['8'],4,0.13143849999960366,72,,13,19,Vrouw,Rechts,1,
,xotask,dotcolour,dotcolour,21,4,261,561,main,positivefb,-99,average,,0.4839524999997593,['c'],1,left,['8'],4,0.11541220000071917,63,,13,19,Vrouw,Rechts,1,
,xotask,dotcolour,dotcolour,22,4,262,562,main,positivefb,-99,average,,0.5843480999992607,['n'],1,right,['8'],4,0.1533195000001797,19,,13,19,Vrouw,Rechts,1,
,xotask,dotcolour,dotcolour,23,4,263,563,main,positivefb,-99,easy,,0.5165736999997534,['n'],1,right,['8'],4,0.13533370000004652,7,,13,19,Vrouw,Rechts,1,
,xotask,dotcolour,dotcolour,24,4,264,564,main,positivefb,-99,hard,,0.6344616999995196,['c'],1,left,['8'],4,0.1449705000004542,52,,13,19,Vrouw,Rechts,1,
,xotask,dotcolour,dotcolour,25,4,265,565,main,positivefb,-99,average,,0.6173308000006728,['c'],1,left,['8'],4,0.123076900000342,61,,13,19,Vrouw,Rechts,1,
,xotask,dotcolour,dotcolour,26,4,266,566,main,positivefb,-99,average,,0.5672382000002472,['c'],1,left,['8'],4,0.08016160000079253,60,,13,19,Vrouw,Rechts,1,
,xotask,dotcolour,dotcolour,27,4,267,567,main,positivefb,-99,easy,,0.5499648999993951,['c'],1,left,['8'],4,0.06486560000030295,72,,13,19,Vrouw,Rechts,1,
,xotask,dotcolour,dotcolour,28,4,268,568,main,positivefb,-99,average,,0.8825019999994765,['n'],1,right,['8'],4,0.16387399999985064,15,,13,19,Vrouw,Rechts,1,
,xotask,dotcolour,dotcolour,29,4,269,569,main,positivefb,-99,easy,,0.6996521999999459,['n'],1,right,['8'],4,0.16220420000081504,6,,13,19,Vrouw,Rechts,1,
,xotask,dotcolour,dotcolour,30,4,270,570,main,positivefb,-99,easy,,0.567340300000069,['c'],1,left,['8'],4,0.08679389999997511,70,,13,19,Vrouw,Rechts,1,
,xotask,dotcolour,dotcolour,31,4,271,571,main,positivefb,-99,easy,,0.5501375000003463,['n'],1,right,['8'],4,0.1416531999993822,7,,13,19,Vrouw,Rechts,1,
,xotask,dotcolour,dotcolour,32,4,272,572,main,positivefb,-99,easy,,0.5008320000006279,['c'],1,left,['8'],4,0.10123409999960131,72,,13,19,Vrouw,Rechts,1,
,xotask,dotcolour,dotcolour,33,4,273,573,main,positivefb,-99,average,,0.5013614999998026,['n'],1,right,['8'],4,0.16587869999966642,17,,13,19,Vrouw,Rechts,1,
,xotask,dotcolour,dotcolour,34,4,274,574,main,positivefb,-99,hard,,0.5511303000002954,['n'],0,left,['8'],4,0.6178879999997662,51,,13,19,Vrouw,Rechts,1,
,xotask,dotcolour,dotcolour,35,4,275,575,main,positivefb,-99,hard,,0.5009440000003451,['c'],1,left,['8'],4,0.1091855000004216,51,,13,19,Vrouw,Rechts,1,
,xotask,dotcolour,dotcolour,36,4,276,576,main,positivefb,-99,hard,,0.5502615999994305,['n'],0,left,['3'],3,0.8211091000002853,54,,13,19,Vrouw,Rechts,1,
,xotask,dotcolour,dotcolour,37,4,277,577,main,positivefb,-99,average,,0.5344076000001223,['c'],1,left,['8'],4,0.12738579999950161,64,,13,19,Vrouw,Rechts,1,
,xotask,dotcolour,dotcolour,38,4,278,578,main,positivefb,-99,easy,,0.6012307000000874,['c'],1,left,['8'],4,0.17086859999926673,71,,13,19,Vrouw,Rechts,1,
,xotask,dotcolour,dotcolour,39,4,279,579,main,positivefb,-99,hard,,0.5843924000000698,['n'],1,right,['8'],4,0.2543157999998584,26,,13,19,Vrouw,Rechts,1,
,xotask,dotcolour,dotcolour,40,4,280,580,main,positivefb,-99,easy,,0.5344178000004831,['c'],1,left,['8'],4,0.15090719999989233,74,,13,19,Vrouw,Rechts,1,
,xotask,dotcolour,dotcolour,41,4,281,581,main,positivefb,-99,average,,1.134158099999695,['c'],1,left,['8'],4,0.14106019999962882,63,,13,19,Vrouw,Rechts,1,
,xotask,dotcolour,dotcolour,42,4,282,582,main,positivefb,-99,hard,,0.8839295999996466,['c'],0,right,['8'],4,0.11660810000012134,28,,13,19,Vrouw,Rechts,1,
,xotask,dotcolour,dotcolour,43,4,283,583,main,positivefb,-99,easy,,0.5338900000006106,['n'],1,right,['8'],4,0.171604600000137,6,,13,19,Vrouw,Rechts,1,
,xotask,dotcolour,dotcolour,44,4,284,584,main,positivefb,-99,average,,0.801408100000117,['n'],1,right,['8'],4,0.14155630000004749,18,,13,19,Vrouw,Rechts,1,
,xotask,dotcolour,dotcolour,45,4,285,585,main,positivefb,-99,easy,,0.6178313000000344,['n'],1,right,['8'],4,0.19244700000035664,5,,13,19,Vrouw,Rechts,1,
,xotask,dotcolour,dotcolour,46,4,286,586,main,positivefb,-99,hard,,0.567849699999897,['n'],1,right,['8'],4,0.20322529999975814,26,,13,19,Vrouw,Rechts,1,
,xotask,dotcolour,dotcolour,47,4,287,587,main,positivefb,-99,average,,0.5839128000006895,['c'],1,left,['8'],4,0.15665730000000622,61,,13,19,Vrouw,Rechts,1,
,xotask,dotcolour,dotcolour,48,4,288,588,main,positivefb,-99,hard,,0.7002026000000114,['c'],0,right,['8'],4,0.10783700000047247,25,,13,19,Vrouw,Rechts,1,
,xotask,dotcolour,dotcolour,49,4,289,589,main,positivefb,-99,average,,0.8335833999999522,['n'],1,right,['8'],4,0.1746978000001036,18,,13,19,Vrouw,Rechts,1,
,xotask,dotcolour,dotcolour,50,4,290,590,main,positivefb,-99,easy,,0.9497504999999364,['n'],1,right,['8'],4,0.17825339999944845,9,,13,19,Vrouw,Rechts,1,
,xotask,dotcolour,dotcolour,51,4,291,591,main,positivefb,-99,hard,,0.8505598000001555,['n'],1,right,['8'],4,0.17817009999998845,25,,13,19,Vrouw,Rechts,1,
,xotask,dotcolour,dotcolour,52,4,292,592,main,positivefb,-99,hard,,0.88413970000056,['c'],1,left,['8'],4,0.136696600000505,54,,13,19,Vrouw,Rechts,1,
,xotask,dotcolour,dotcolour,53,4,293,593,main,positivefb,-99,average,,0.600492700000359,['n'],1,right,['8'],4,0.2049635000003036,15,,13,19,Vrouw,Rechts,1,
,xotask,dotcolour,dotcolour,54,4,294,594,main,positivefb,-99,average,,1.1508901999995942,['n'],1,right,['8'],4,0.09546959999988758,17,,13,19,Vrouw,Rechts,1,
,xotask,dotcolour,dotcolour,55,4,295,595,main,positivefb,-99,average,,2.7675469999994675,['n'],1,right,['8'],4,0.18172000000049593,19,,13,19,Vrouw,Rechts,1,
,xotask,dotcolour,dotcolour,56,4,296,596,main,positivefb,-99,average,,0.5329854999999952,['n'],1,right,['8'],4,0.1139753000006749,18,,13,19,Vrouw,Rechts,1,
,xotask,dotcolour,dotcolour,57,4,297,597,main,positivefb,-99,average,,0.6182375999997021,['c'],1,left,['8'],4,0.117688299999827,61,,13,19,Vrouw,Rechts,1,
,xotask,dotcolour,dotcolour,58,4,298,598,main,positivefb,-99,easy,,0.6337246000002779,['c'],1,left,['8'],4,0.13693309999962366,71,,13,19,Vrouw,Rechts,1,
,xotask,dotcolour,dotcolour,59,4,299,599,main,positivefb,-99,easy,,0.6012415999994118,['n'],1,right,['8'],4,0.15571989999989455,9,,13,19,Vrouw,Rechts,1,
,dotcolour,dotcolour,dotcolour,0,0,0,600,training,positivefb,76,average,28,1.0664681999996901,['n'],1,right,['9'],5,0.2560292999996818,,,13,19,Vrouw,Rechts,1,
,dotcolour,dotcolour,dotcolour,1,0,1,601,training,positivefb,93,hard,36,0.9006939999999304,['n'],1,right,['9'],5,0.322479999999814,,,13,19,Vrouw,Rechts,1,
,dotcolour,dotcolour,dotcolour,2,0,2,602,training,positivefb,98,easy,19,0.5332695000006424,['n'],1,right,['9'],5,0.29681540000001405,,,13,19,Vrouw,Rechts,1,
,dotcolour,dotcolour,dotcolour,3,0,3,603,training,positivefb,93,easy,62,0.46668119999958435,['c'],1,left,['0'],6,0.13022610000007262,,,13,19,Vrouw,Rechts,1,
,dotcolour,dotcolour,dotcolour,4,0,4,604,training,positivefb,96,easy,18,0.4671808000002784,['n'],1,right,['0'],6,0.15548490000037418,,,13,19,Vrouw,Rechts,1,
,dotcolour,dotcolour,dotcolour,5,0,5,605,training,positivefb,97,average,28,0.5672905000001265,['n'],1,right,['9'],5,0.18970040000021982,,,13,19,Vrouw,Rechts,1,
,dotcolour,dotcolour,dotcolour,6,0,6,606,training,positivefb,90,average,26,0.5657178000001295,['n'],1,right,['9'],5,0.16034719999970548,,,13,19,Vrouw,Rechts,1,
,dotcolour,dotcolour,dotcolour,7,0,7,607,training,positivefb,93,easy,16,0.5669840999998996,['n'],1,right,['0'],6,0.1873446999998123,,,13,19,Vrouw,Rechts,1,
,dotcolour,dotcolour,dotcolour,8,0,8,608,training,positivefb,96,hard,35,0.6334292000001369,['c'],0,right,['9'],5,0.12304350000067643,,,13,19,Vrouw,Rechts,1,
,dotcolour,dotcolour,dotcolour,9,0,9,609,training,positivefb,39,hard,41,0.5005251000002318,['n'],0,left,['9'],5,0.4504143000003751,,,13,19,Vrouw,Rechts,1,
,dotcolour,dotcolour,dotcolour,10,0,10,610,training,positivefb,97,average,54,0.5668313000005583,['c'],1,left,['0'],6,0.2739618999994491,,,13,19,Vrouw,Rechts,1,
,dotcolour,dotcolour,dotcolour,11,0,11,611,training,positivefb,95,average,28,0.534538099999736,['n'],1,right,['9'],5,0.1700133000003916,,,13,19,Vrouw,Rechts,1,
,dotcolour,dotcolour,dotcolour,12,0,12,612,training,positivefb,85,hard,38,1.2006052999995518,['c'],0,right,['9'],5,0.17905549999977666,,,13,19,Vrouw,Rechts,1,
,dotcolour,dotcolour,dotcolour,13,0,13,613,training,positivefb,97,easy,65,0.4996470000005502,['c'],1,left,['0'],6,0.13629020000007586,,,13,19,Vrouw,Rechts,1,
,dotcolour,dotcolour,dotcolour,14,0,14,614,training,positivefb,93,average,51,0.7668293000006088,['c'],1,left,['0'],6,0.1567293999996764,,,13,19,Vrouw,Rechts,1,
,dotcolour,dotcolour,dotcolour,15,0,15,615,training,positivefb,94,hard,44,0.9167899000003672,['c'],1,left,['9'],5,0.17021139999997104,,,13,19,Vrouw,Rechts,1,
,dotcolour,dotcolour,dotcolour,16,0,16,616,training,positivefb,96,hard,43,0.666898599999513,['c'],1,left,['9'],5,0.1211581000006845,,,13,19,Vrouw,Rechts,1,
,dotcolour,dotcolour,dotcolour,17,0,17,617,training,positivefb,90,hard,36,0.5993115999999645,['n'],1,right,['9'],5,0.3888094000003548,,,13,19,Vrouw,Rechts,1,
,dotcolour,dotcolour,dotcolour,18,0,18,618,training,positivefb,97,average,51,0.6336475999996765,['c'],1,left,['9'],5,0.11551580000013928,,,13,19,Vrouw,Rechts,1,
,dotcolour,dotcolour,dotcolour,19,0,19,619,training,positivefb,81,average,28,1.6172579999993104,['n'],1,right,['9'],5,0.13446550000026036,,,13,19,Vrouw,Rechts,1,
,dotcolour,dotcolour,dotcolour,20,0,20,620,training,positivefb,92,hard,43,0.699284200000875,['c'],1,left,['9'],5,0.06150999999954365,,,13,19,Vrouw,Rechts,1,
,dotcolour,dotcolour,dotcolour,21,0,21,621,training,positivefb,98,easy,63,0.5495616000007431,['c'],1,left,['0'],6,0.13349339999967924,,,13,19,Vrouw,Rechts,1,
,dotcolour,dotcolour,dotcolour,22,0,22,622,training,positivefb,94,hard,35,0.7337367000000086,['n'],1,right,['0'],6,0.1628547999998773,,,13,19,Vrouw,Rechts,1,
,dotcolour,dotcolour,dotcolour,23,0,23,623,training,positivefb,96,hard,45,0.8662046999997983,['n'],0,left,['9'],5,0.1784152999998696,,,13,19,Vrouw,Rechts,1,
,dotcolour,dotcolour,dotcolour,24,0,24,624,training,positivefb,99,easy,17,0.43291669999962323,['n'],1,right,['0'],6,0.16182599999956437,,,13,19,Vrouw,Rechts,1,
,dotcolour,dotcolour,dotcolour,25,0,25,625,training,positivefb,96,average,27,0.533695500000249,['n'],1,right,['9'],5,0.1348735999999917,,,13,19,Vrouw,Rechts,1,
,dotcolour,dotcolour,dotcolour,26,0,26,626,training,positivefb,88,easy,62,0.5000081000007413,['c'],1,left,['0'],6,0.1417710999994597,,,13,19,Vrouw,Rechts,1,
,dotcolour,dotcolour,dotcolour,27,0,27,627,training,positivefb,98,average,55,0.5828596000001198,['c'],1,left,['0'],6,0.13737459999993007,,,13,19,Vrouw,Rechts,1,
,dotcolour,dotcolour,dotcolour,28,0,28,628,training,positivefb,90,average,52,0.7340358000001288,['c'],1,left,['9'],5,0.20677770000020246,,,13,19,Vrouw,Rechts,1,
,dotcolour,dotcolour,dotcolour,29,0,29,629,training,positivefb,98,easy,15,0.4822732000002361,['n'],1,right,['0'],6,0.2039335999998002,,,13,19,Vrouw,Rechts,1,
,dotcolour,dotcolour,dotcolour,30,0,30,630,training,positivefb,96,easy,18,0.6162366999997175,['n'],1,right,['0'],6,0.15385059999971418,,,13,19,Vrouw,Rechts,1,
,dotcolour,dotcolour,dotcolour,31,0,31,631,training,positivefb,98,average,52,0.5502565999995568,['c'],1,left,['0'],6,0.16637069999978849,,,13,19,Vrouw,Rechts,1,
,dotcolour,dotcolour,dotcolour,32,0,32,632,training,positivefb,96,easy,17,0.5167564999992464,['n'],1,right,['9'],5,0.15533109999978478,,,13,19,Vrouw,Rechts,1,
,dotcolour,dotcolour,dotcolour,33,0,33,633,training,positivefb,98,average,25,0.7337285000003249,['n'],1,right,['0'],6,0.21564159999979893,,,13,19,Vrouw,Rechts,1,
,dotcolour,dotcolour,dotcolour,34,0,34,634,training,positivefb,88,easy,62,0.5339935000001788,['c'],1,left,['0'],6,0.13858479999998963,,,13,19,Vrouw,Rechts,1,
,dotcolour,dotcolour,dotcolour,35,0,35,635,training,positivefb,94,easy,15,0.48229300000002695,['n'],1,right,['0'],6,0.177209500000572,,,13,19,Vrouw,Rechts,1,
,dotcolour,dotcolour,dotcolour,36,0,36,636,training,positivefb,99,easy,64,0.4666812999994363,['c'],1,left,['0'],6,0.11985080000067683,,,13,19,Vrouw,Rechts,1,
