starttime,task,fbtask,firsttask,withinblocktrial,block,withintasktrial,trial,running,feedback,fbscore,difflevel,reddots,rt,resp,cor,cresp,conf_press,cj,RTconf,n_xes,post1,post2,post3,post4,post5,stoptime,sub,age,gender,handedness,session,
1715589321,dotcolour,dotcolour,xotask,0,0,0,0,training,positivefb,99,easy,64,0.6674579000000449,['c'],1,left,['2'],5,1.1669585999998162,,,,,,,,22,20,Vrouw,Rechts,2,
,dotcolour,dotcolour,xotask,1,0,1,1,training,positivefb,96,average,25,0.5667817000003197,['n'],1,right,['2'],5,0.29765130000032514,,,,,,,,22,20,Vrouw,Rechts,2,
,dotcolour,dotcolour,xotask,2,0,2,2,training,positivefb,100,easy,62,0.5162353999994593,['c'],1,left,['2'],5,0.34543370000028517,,,,,,,,22,20,Vrouw,Rechts,2,
,dotcolour,dotcolour,xotask,3,0,3,3,training,positivefb,89,easy,63,0.6170517999998992,['c'],1,left,['1'],6,0.30709999999999127,,,,,,,,22,20,Vrouw,Rechts,2,
,dotcolour,dotcolour,xotask,4,0,4,4,training,positivefb,84,easy,64,0.784156400000029,['c'],1,left,['2'],5,0.4082849000005808,,,,,,,,22,20,Vrouw,Rechts,2,
,dotcolour,dotcolour,xotask,5,0,5,5,training,positivefb,19,hard,45,1.316570099999808,['n'],0,left,['3'],4,6.291071500000726,,,,,,,,22,20,Vrouw,Rechts,2,
,dotcolour,dotcolour,xotask,6,0,6,6,training,positivefb,98,average,53,0.7831204000003709,['c'],1,left,['3'],4,0.5198190999999497,,,,,,,,22,20,Vrouw,Rechts,2,
,dotcolour,dotcolour,xotask,7,0,7,7,training,positivefb,96,average,26,0.6656985999998142,['n'],1,right,['3'],4,0.4722959999999148,,,,,,,,22,20,Vrouw,Rechts,2,
,dotcolour,dotcolour,xotask,8,0,8,8,training,positivefb,30,hard,39,1.0828016000004936,['n'],1,right,['3'],4,0.779062999999951,,,,,,,,22,20,Vrouw,Rechts,2,
,dotcolour,dotcolour,xotask,9,0,9,9,training,positivefb,70,hard,39,1.0823646999997436,['c'],0,right,['3'],4,0.24789160000000265,,,,,,,,22,20,Vrouw,Rechts,2,
,dotcolour,dotcolour,xotask,10,0,10,10,training,positivefb,84,hard,39,1.000895600000149,['n'],1,right,['3'],4,0.2708923000000141,,,,,,,,22,20,Vrouw,Rechts,2,
,dotcolour,dotcolour,xotask,11,0,11,11,training,positivefb,94,average,54,0.7997222000003603,['c'],1,left,['3'],4,0.316822100000536,,,,,,,,22,20,Vrouw,Rechts,2,
,dotcolour,dotcolour,xotask,12,0,12,12,training,positivefb,97,easy,19,0.5333108000004358,['n'],1,right,['2'],5,0.3387717999994493,,,,,,,,22,20,Vrouw,Rechts,2,
,dotcolour,dotcolour,xotask,13,0,13,13,training,positivefb,84,average,53,0.9009949999999662,['n'],0,left,['3'],4,0.2728210000004765,,,,,,,,22,20,Vrouw,Rechts,2,
,dotcolour,dotcolour,xotask,14,0,14,14,training,positivefb,92,easy,19,0.6501469000004363,['n'],1,right,['2'],5,0.4135827000000063,,,,,,,,22,20,Vrouw,Rechts,2,
,dotcolour,dotcolour,xotask,15,0,15,15,training,positivefb,98,easy,61,0.6489142999998876,['c'],1,left,['2'],5,0.3071265999997195,,,,,,,,22,20,Vrouw,Rechts,2,
,dotcolour,dotcolour,xotask,16,0,16,16,training,positivefb,96,average,27,0.7503041999998459,['n'],1,right,['2'],5,0.2723814000000857,,,,,,,,22,20,Vrouw,Rechts,2,
,dotcolour,dotcolour,xotask,17,0,17,17,training,positivefb,70,hard,42,0.7329438000006121,['n'],0,left,['3'],4,0.39337220000015805,,,,,,,,22,20,Vrouw,Rechts,2,
,dotcolour,dotcolour,xotask,18,0,18,18,training,positivefb,99,easy,15,0.5332496999999421,['n'],1,right,['1'],6,0.588578800000505,,,,,,,,22,20,Vrouw,Rechts,2,
,dotcolour,dotcolour,xotask,19,0,19,19,training,positivefb,94,easy,18,0.5003447999997661,['n'],1,right,['2'],5,0.35316249999959837,,,,,,,,22,20,Vrouw,Rechts,2,
,dotcolour,dotcolour,xotask,20,0,20,20,training,positivefb,97,hard,41,1.0664282000007006,['n'],0,left,['3'],4,0.23206949999985227,,,,,,,,22,20,Vrouw,Rechts,2,
,dotcolour,dotcolour,xotask,21,0,21,21,training,positivefb,97,average,26,0.5663888999997653,['n'],1,right,['3'],4,0.2960457999997743,,,,,,,,22,20,Vrouw,Rechts,2,
,dotcolour,dotcolour,xotask,22,0,22,22,training,positivefb,98,average,55,0.7000540999997611,['c'],1,left,['3'],4,0.36898399999972753,,,,,,,,22,20,Vrouw,Rechts,2,
,dotcolour,dotcolour,xotask,23,0,23,23,training,positivefb,94,hard,44,1.1662544999999227,['n'],0,left,['3'],4,0.34033610000005865,,,,,,,,22,20,Vrouw,Rechts,2,
,dotcolour,dotcolour,xotask,24,0,24,24,training,positivefb,95,easy,61,0.5670195000002423,['c'],1,left,['2'],5,0.38477720000082627,,,,,,,,22,20,Vrouw,Rechts,2,
,dotcolour,dotcolour,xotask,25,0,25,25,training,positivefb,79,hard,39,1.0179482999992615,['n'],1,right,['3'],4,0.20868020000034448,,,,,,,,22,20,Vrouw,Rechts,2,
,dotcolour,dotcolour,xotask,26,0,26,26,training,positivefb,95,easy,17,0.5665208000000348,['n'],1,right,['1'],6,0.289074399999663,,,,,,,,22,20,Vrouw,Rechts,2,
,dotcolour,dotcolour,xotask,27,0,27,27,training,positivefb,94,average,51,0.7674878999996508,['c'],1,left,['3'],4,0.33550689999992755,,,,,,,,22,20,Vrouw,Rechts,2,
,dotcolour,dotcolour,xotask,28,0,28,28,training,positivefb,88,average,29,0.633512399999745,['n'],1,right,['2'],5,0.3846813000000111,,,,,,,,22,20,Vrouw,Rechts,2,
,dotcolour,dotcolour,xotask,29,0,29,29,training,positivefb,97,average,53,0.8999998999997842,['c'],1,left,['3'],4,0.30939910000051896,,,,,,,,22,20,Vrouw,Rechts,2,
,dotcolour,dotcolour,xotask,30,0,30,30,training,positivefb,98,average,29,0.5828497000002244,['n'],1,right,['2'],5,0.31420239999988553,,,,,,,,22,20,Vrouw,Rechts,2,
,dotcolour,dotcolour,xotask,31,0,31,31,training,positivefb,70,easy,63,0.5834033999999519,['n'],0,left,['0'],1,1.1670049000003928,,,,,,,,22,20,Vrouw,Rechts,2,
,dotcolour,dotcolour,xotask,32,0,32,32,training,positivefb,95,average,53,0.9500237000002016,['c'],1,left,['2'],5,0.458443299999999,,,,,,,,22,20,Vrouw,Rechts,2,
,dotcolour,dotcolour,xotask,33,0,33,33,training,positivefb,88,hard,39,1.2497127000006003,['n'],1,right,['3'],4,0.23113379999995232,,,,,,,,22,20,Vrouw,Rechts,2,
,dotcolour,dotcolour,xotask,34,0,34,34,training,positivefb,89,average,52,0.916052700000364,['c'],1,left,['2'],5,0.39375959999961196,,,,,,,,22,20,Vrouw,Rechts,2,
,dotcolour,dotcolour,xotask,35,0,35,35,training,positivefb,96,average,53,0.9000325999995766,['c'],1,left,['2'],5,0.3346502000003966,,,,,,,,22,20,Vrouw,Rechts,2,
,dotcolour,dotcolour,xotask,36,0,36,36,training,positivefb,81,hard,44,0.8330969999997251,['n'],0,left,['2'],5,0.3996150000002672,,,,,,,,22,20,Vrouw,Rechts,2,
,dotcolour,dotcolour,xotask,37,0,37,37,training,positivefb,90,average,26,0.7995836000000054,['n'],1,right,['1'],6,0.3520760000001246,,,,,,,,22,20,Vrouw,Rechts,2,
,dotcolour,dotcolour,xotask,38,0,38,38,training,positivefb,95,average,28,0.6504869999998846,['n'],1,right,['1'],6,0.2959974000004877,,,,,,,,22,20,Vrouw,Rechts,2,
,dotcolour,dotcolour,xotask,39,0,39,39,training,positivefb,90,hard,43,1.4169358999997712,['c'],1,left,['3'],4,0.25978810000015073,,,,,,,,22,20,Vrouw,Rechts,2,
,dotcolour,dotcolour,xotask,40,0,40,40,training,positivefb,86,easy,64,0.7169150999998237,['c'],1,left,['2'],5,0.4527989999996862,,,,,,,,22,20,Vrouw,Rechts,2,
,dotcolour,dotcolour,xotask,41,0,41,41,training,positivefb,93,hard,38,1.1828822999996191,['n'],1,right,['3'],4,0.1633360999994693,,,,,,,,22,20,Vrouw,Rechts,2,
,dotcolour,dotcolour,xotask,42,0,42,42,training,positivefb,98,average,55,0.7347071999993204,['c'],1,left,['2'],5,0.2969609000001583,,,,,,,,22,20,Vrouw,Rechts,2,
,dotcolour,dotcolour,xotask,43,0,43,43,training,positivefb,96,easy,18,0.7164274999995541,['n'],1,right,['1'],6,0.2571955000003072,,,,,,,,22,20,Vrouw,Rechts,2,
,dotcolour,dotcolour,xotask,44,0,44,44,training,positivefb,98,easy,65,0.6158113000001322,['c'],1,left,['1'],6,0.3581196999994063,,,,,,,,22,20,Vrouw,Rechts,2,
,dotcolour,dotcolour,xotask,45,0,45,45,training,positivefb,96,easy,16,0.6000135000003866,['n'],1,right,['1'],6,0.29640160000053584,,,,,,,,22,20,Vrouw,Rechts,2,
,dotcolour,dotcolour,xotask,46,0,46,46,training,positivefb,94,easy,16,0.6326201000001674,['c'],0,right,['1'],6,0.3150665000002846,,,,,,,,22,20,Vrouw,Rechts,2,
,dotcolour,dotcolour,xotask,47,0,47,47,training,positivefb,50,average,27,0.6830325999999332,['c'],0,right,['0'],1,0.7880611000000499,,,,,,,,22,20,Vrouw,Rechts,2,
,dotcolour,dotcolour,xotask,48,0,48,48,training,positivefb,81,hard,37,1.266950899999756,['c'],0,right,['3'],4,0.3292393000001539,,,,,,,,22,20,Vrouw,Rechts,2,
,dotcolour,dotcolour,xotask,49,0,49,49,training,positivefb,91,hard,44,1.4655296000000817,['n'],0,left,['3'],4,0.2097961999998006,,,,,,,,22,20,Vrouw,Rechts,2,
,dotcolour,dotcolour,xotask,50,0,50,50,training,positivefb,93,hard,36,0.8658805000004577,['n'],1,right,['3'],4,0.4235635999993974,,,,,,,,22,20,Vrouw,Rechts,2,
,dotcolour,dotcolour,xotask,51,0,51,51,training,positivefb,79,hard,42,1.350105400000757,['n'],0,left,['3'],4,0.22531500000059168,,,,,,,,22,20,Vrouw,Rechts,2,
,dotcolour,dotcolour,xotask,52,0,52,52,training,positivefb,91,easy,15,0.9001786999997421,['n'],1,right,['1'],6,0.2850850000004357,,,,,,,,22,20,Vrouw,Rechts,2,
,dotcolour,dotcolour,xotask,53,0,53,53,training,positivefb,88,hard,41,0.9167680999998993,['n'],0,left,['3'],4,0.2925789999999324,,,,,,,,22,20,Vrouw,Rechts,2,
,dotcolour,dotcolour,xotask,54,0,54,54,training,positivefb,96,average,28,0.9161828000005698,['n'],1,right,['2'],5,0.31630669999958627,,,,,,,,22,20,Vrouw,Rechts,2,
,dotcolour,dotcolour,xotask,55,0,55,55,training,positivefb,72,hard,43,1.233424300000479,['n'],0,left,['2'],5,0.3430671000005532,,,,,,,,22,20,Vrouw,Rechts,2,
,dotcolour,dotcolour,xotask,56,0,56,56,training,positivefb,96,easy,16,0.732347000000118,['n'],1,right,['1'],6,0.17967189999944821,,,,,,,,22,20,Vrouw,Rechts,2,
,dotcolour,dotcolour,xotask,57,0,57,57,training,positivefb,95,hard,38,0.8010939999994662,['n'],1,right,['3'],4,0.19714550000026065,,,,,,,,22,20,Vrouw,Rechts,2,
,dotcolour,dotcolour,xotask,58,0,58,58,training,positivefb,99,easy,63,0.6336392000002888,['c'],1,left,['3'],4,0.2445383000003858,,,,,,,,22,20,Vrouw,Rechts,2,
,dotcolour,dotcolour,xotask,59,0,59,59,training,positivefb,96,hard,38,0.6503532999995514,['n'],1,right,['3'],4,0.21018110000022716,,,,,,,,22,20,Vrouw,Rechts,2,
,dotcolour,dotcolour,xotask,0,1,60,60,training,positivefb,94,easy,18,0.8177717999997185,['n'],1,right,['1'],6,0.16590159999941534,,,,,,,,22,20,Vrouw,Rechts,2,
,dotcolour,dotcolour,xotask,1,1,61,61,training,positivefb,94,hard,35,1.1508272999999463,['n'],1,right,['3'],4,0.1699060000000827,,,,,,,,22,20,Vrouw,Rechts,2,
,dotcolour,dotcolour,xotask,2,1,62,62,training,positivefb,95,average,26,0.616311400000086,['n'],1,right,['2'],5,0.25089180000031774,,,,,,,,22,20,Vrouw,Rechts,2,
,dotcolour,dotcolour,xotask,3,1,63,63,training,positivefb,98,easy,64,0.5839761000006547,['c'],1,left,['2'],5,0.28108049999991636,,,,,,,,22,20,Vrouw,Rechts,2,
,dotcolour,dotcolour,xotask,4,1,64,64,training,positivefb,74,hard,43,1.2831809999997859,['n'],0,left,['3'],4,0.2276612000005116,,,,,,,,22,20,Vrouw,Rechts,2,
,dotcolour,dotcolour,xotask,5,1,65,65,training,positivefb,96,easy,63,0.6489253999998255,['c'],1,left,['1'],6,0.44847369999934017,,,,,,,,22,20,Vrouw,Rechts,2,
,dotcolour,dotcolour,xotask,6,1,66,66,training,positivefb,96,hard,45,0.8494656000002578,['c'],1,left,['3'],4,0.21319240000048012,,,,,,,,22,20,Vrouw,Rechts,2,
,dotcolour,dotcolour,xotask,7,1,67,67,training,positivefb,92,easy,64,0.832735999999386,['c'],1,left,['2'],5,0.22834449999936623,,,,,,,,22,20,Vrouw,Rechts,2,
,dotcolour,dotcolour,xotask,8,1,68,68,training,positivefb,99,easy,61,0.9656076000001121,['c'],1,left,['3'],4,0.26134670000010374,,,,,,,,22,20,Vrouw,Rechts,2,
,dotcolour,dotcolour,xotask,9,1,69,69,training,positivefb,79,average,52,1.467476799999531,['c'],1,left,['3'],4,0.2314116000006834,,,,,,,,22,20,Vrouw,Rechts,2,
,dotcolour,dotcolour,xotask,10,1,70,70,training,positivefb,87,hard,38,1.067037199999504,['n'],1,right,['3'],4,0.2282869999999093,,,,,,,,22,20,Vrouw,Rechts,2,
,dotcolour,dotcolour,xotask,11,1,71,71,training,positivefb,95,hard,45,0.6997136999998474,['c'],1,left,['3'],4,0.2550660999995671,,,,,,,,22,20,Vrouw,Rechts,2,
,dotcolour,dotcolour,xotask,12,1,72,72,training,positivefb,95,hard,35,0.8824806000002354,['n'],1,right,['3'],4,0.242176699999618,,,,,,,,22,20,Vrouw,Rechts,2,
,dotcolour,dotcolour,xotask,13,1,73,73,training,positivefb,92,hard,43,0.8164364000003843,['n'],0,left,['3'],4,0.2800311999999394,,,,,,,,22,20,Vrouw,Rechts,2,
,dotcolour,dotcolour,xotask,14,1,74,74,training,positivefb,99,hard,36,0.6340003999994224,['n'],1,right,['2'],5,0.3235839999997552,,,,,,,,22,20,Vrouw,Rechts,2,
,dotcolour,dotcolour,xotask,15,1,75,75,training,positivefb,89,average,54,1.1328635999998369,['c'],1,left,['3'],4,0.26708099999996193,,,,,,,,22,20,Vrouw,Rechts,2,
,dotcolour,dotcolour,xotask,16,1,76,76,training,positivefb,94,average,51,0.8838847999995778,['c'],1,left,['3'],4,0.348500399999466,,,,,,,,22,20,Vrouw,Rechts,2,
,dotcolour,dotcolour,xotask,17,1,77,77,training,positivefb,99,average,25,0.6504436000004716,['n'],1,right,['3'],4,0.3001304000008531,,,,,,,,22,20,Vrouw,Rechts,2,
,dotcolour,dotcolour,xotask,18,1,78,78,training,positivefb,99,easy,16,0.49965179999981046,['n'],1,right,['1'],6,0.2682811999993646,,,,,,,,22,20,Vrouw,Rechts,2,
,dotcolour,dotcolour,xotask,19,1,79,79,training,positivefb,91,average,29,0.5662891000001764,['n'],1,right,['2'],5,0.2508842999995977,,,,,,,,22,20,Vrouw,Rechts,2,
,dotcolour,dotcolour,xotask,20,1,80,80,training,positivefb,83,average,51,0.900308700000096,['c'],1,left,['3'],4,0.18970220000028348,,,,,,,,22,20,Vrouw,Rechts,2,
,dotcolour,dotcolour,xotask,21,1,81,81,training,positivefb,91,easy,19,0.5995837999998912,['n'],1,right,['1'],6,0.19801929999994172,,,,,,,,22,20,Vrouw,Rechts,2,
,dotcolour,dotcolour,xotask,22,1,82,82,training,positivefb,98,easy,65,0.6162825999999768,['c'],1,left,['2'],5,0.262673299999733,,,,,,,,22,20,Vrouw,Rechts,2,
,dotcolour,dotcolour,xotask,23,1,83,83,training,positivefb,84,average,53,0.9168510999998034,['c'],1,left,['3'],4,0.29577320000043983,,,,,,,,22,20,Vrouw,Rechts,2,
,dotcolour,dotcolour,xotask,24,1,84,84,training,positivefb,93,hard,45,0.7346195999998599,['n'],0,left,['3'],4,0.2547690000001239,,,,,,,,22,20,Vrouw,Rechts,2,
,dotcolour,dotcolour,xotask,25,1,85,85,training,positivefb,99,average,55,0.5995444000000134,['c'],1,left,['3'],4,0.24539000000004307,,,,,,,,22,20,Vrouw,Rechts,2,
,dotcolour,dotcolour,xotask,26,1,86,86,training,positivefb,86,easy,62,0.7843087999999625,['c'],1,left,['2'],5,0.32414889999927254,,,,,,,,22,20,Vrouw,Rechts,2,
,dotcolour,dotcolour,xotask,27,1,87,87,training,positivefb,96,average,53,1.0993965000006938,['c'],1,left,['3'],4,0.24342780000006314,,,,,,,,22,20,Vrouw,Rechts,2,
,dotcolour,dotcolour,xotask,28,1,88,88,training,positivefb,96,average,25,0.6165468999997756,['n'],1,right,['1'],6,0.7143223000002763,,,,,,,,22,20,Vrouw,Rechts,2,
,dotcolour,dotcolour,xotask,29,1,89,89,training,positivefb,69,average,52,0.8502963999999338,['c'],1,left,['3'],4,0.20386779999989812,,,,,,,,22,20,Vrouw,Rechts,2,
,dotcolour,dotcolour,xotask,30,1,90,90,training,positivefb,83,average,29,0.5664108000000851,['n'],1,right,['3'],4,0.4365181000002849,,,,,,,,22,20,Vrouw,Rechts,2,
,dotcolour,dotcolour,xotask,31,1,91,91,training,positivefb,87,average,25,0.5678267999992386,['n'],1,right,['1'],6,0.261500800000249,,,,,,,,22,20,Vrouw,Rechts,2,
,dotcolour,dotcolour,xotask,32,1,92,92,training,positivefb,94,average,29,0.5158102999994298,['n'],1,right,['2'],5,0.2783262000002651,,,,,,,,22,20,Vrouw,Rechts,2,
,dotcolour,dotcolour,xotask,33,1,93,93,training,positivefb,99,easy,15,0.4825518000006923,['n'],1,right,['2'],5,0.30439489999935176,,,,,,,,22,20,Vrouw,Rechts,2,
,dotcolour,dotcolour,xotask,34,1,94,94,training,positivefb,98,hard,36,0.5839692999998078,['n'],1,right,['2'],5,0.3256550000005518,,,,,,,,22,20,Vrouw,Rechts,2,
,dotcolour,dotcolour,xotask,35,1,95,95,training,positivefb,69,hard,39,1.5172298000006776,['n'],1,right,['3'],4,0.1804513000006409,,,,,,,,22,20,Vrouw,Rechts,2,
,dotcolour,dotcolour,xotask,36,1,96,96,training,positivefb,96,hard,35,1.1489345000009052,['n'],1,right,['3'],4,0.17549890000009327,,,,,,,,22,20,Vrouw,Rechts,2,
,dotcolour,dotcolour,xotask,37,1,97,97,training,positivefb,94,hard,45,0.6001053999998476,['c'],1,left,['3'],4,0.19267459999991843,,,,,,,,22,20,Vrouw,Rechts,2,
,dotcolour,dotcolour,xotask,38,1,98,98,training,positivefb,97,easy,16,0.49975780000022496,['n'],1,right,['2'],5,0.4052357000000484,,,,,,,,22,20,Vrouw,Rechts,2,
,dotcolour,dotcolour,xotask,39,1,99,99,training,positivefb,93,easy,64,0.5506312999996226,['c'],1,left,['2'],5,0.23918940000021394,,,,,,,,22,20,Vrouw,Rechts,2,
,dotcolour,dotcolour,xotask,40,1,100,100,training,positivefb,87,average,55,0.8153525000006994,['c'],1,left,['3'],4,0.25311450000026525,,,,,,,,22,20,Vrouw,Rechts,2,
,dotcolour,dotcolour,xotask,41,1,101,101,training,positivefb,98,average,28,0.6152635999997074,['n'],1,right,['2'],5,0.25924510000004375,,,,,,,,22,20,Vrouw,Rechts,2,
,dotcolour,dotcolour,xotask,42,1,102,102,training,positivefb,98,easy,63,1.116814400000294,['c'],1,left,['1'],6,0.5647798999998486,,,,,,,,22,20,Vrouw,Rechts,2,
,dotcolour,dotcolour,xotask,43,1,103,103,training,positivefb,84,hard,42,0.816330999999991,['n'],0,left,['3'],4,0.22927509999954054,,,,,,,,22,20,Vrouw,Rechts,2,
,dotcolour,dotcolour,xotask,44,1,104,104,training,positivefb,90,hard,36,0.6664500000006228,['n'],1,right,['3'],4,0.3063807000007728,,,,,,,,22,20,Vrouw,Rechts,2,
,dotcolour,dotcolour,xotask,45,1,105,105,training,positivefb,88,easy,19,0.7824563999993188,['n'],1,right,['2'],5,0.35069930000008753,,,,,,,,22,20,Vrouw,Rechts,2,
,dotcolour,dotcolour,xotask,46,1,106,106,training,positivefb,85,easy,18,0.5500703999996404,['n'],1,right,['1'],6,0.27494230000047537,,,,,,,,22,20,Vrouw,Rechts,2,
,dotcolour,dotcolour,xotask,47,1,107,107,training,positivefb,96,easy,61,0.5333338999998887,['c'],1,left,['2'],5,0.27492419999998674,,,,,,,,22,20,Vrouw,Rechts,2,
,dotcolour,dotcolour,xotask,48,1,108,108,training,positivefb,94,hard,37,0.565883300000678,['n'],1,right,['2'],5,0.33778089999941585,,,,,,,,22,20,Vrouw,Rechts,2,
,dotcolour,dotcolour,xotask,49,1,109,109,training,positivefb,96,easy,19,0.5654051000001346,['n'],1,right,['1'],6,0.2542732000001706,,,,,,,,22,20,Vrouw,Rechts,2,
,dotcolour,dotcolour,xotask,50,1,110,110,training,positivefb,94,easy,63,0.6002326999996512,['c'],1,left,['2'],5,0.3074218000001565,,,,,,,,22,20,Vrouw,Rechts,2,
,dotcolour,dotcolour,xotask,51,1,111,111,training,positivefb,98,easy,18,0.5829442999993262,['n'],1,right,['2'],5,0.27230880000024626,,,,,,,,22,20,Vrouw,Rechts,2,
,dotcolour,dotcolour,xotask,52,1,112,112,training,positivefb,99,average,29,0.5499487999995836,['n'],1,right,['1'],6,0.24859839999953692,,,,,,,,22,20,Vrouw,Rechts,2,
,dotcolour,dotcolour,xotask,53,1,113,113,training,positivefb,73,hard,41,0.9844217999998364,['n'],0,left,['2'],5,0.343529299999318,,,,,,,,22,20,Vrouw,Rechts,2,
,dotcolour,dotcolour,xotask,54,1,114,114,training,positivefb,88,hard,35,0.9326975000003586,['n'],1,right,['3'],4,0.1564304000003176,,,,,,,,22,20,Vrouw,Rechts,2,
,dotcolour,dotcolour,xotask,55,1,115,115,training,positivefb,84,average,29,0.583491000000322,['n'],1,right,['3'],4,0.2474512999997387,,,,,,,,22,20,Vrouw,Rechts,2,
,dotcolour,dotcolour,xotask,56,1,116,116,training,positivefb,96,hard,45,0.9162993999998434,['c'],1,left,['3'],4,0.18562780000047496,,,,,,,,22,20,Vrouw,Rechts,2,
,dotcolour,dotcolour,xotask,57,1,117,117,training,positivefb,82,hard,45,1.149293899999975,['n'],0,left,['3'],4,0.1235897999995359,,,,,,,,22,20,Vrouw,Rechts,2,
,dotcolour,dotcolour,xotask,58,1,118,118,training,positivefb,72,average,51,0.9487811000008151,['n'],0,left,['3'],4,0.1526995000003808,,,,,,,,22,20,Vrouw,Rechts,2,
,dotcolour,dotcolour,xotask,59,1,119,119,training,positivefb,99,easy,19,0.6330926999999065,['n'],1,right,['1'],6,0.21024390000002313,,,,,,,,22,20,Vrouw,Rechts,2,
,xotask,dotcolour,xotask,0,2,120,120,main,positivefb,-99,easy,,1.1344745000005787,['n'],1,right,['2'],5,0.7235119999995732,6,,,,,,,22,20,Vrouw,Rechts,2,
,xotask,dotcolour,xotask,1,2,121,121,main,positivefb,-99,easy,,0.8494069999997009,['n'],1,right,['2'],5,0.16604349999943224,7,,,,,,,22,20,Vrouw,Rechts,2,
,xotask,dotcolour,xotask,2,2,122,122,main,positivefb,-99,hard,,1.135131399999409,['c'],0,right,['2'],5,0.3142477000001236,25,,,,,,,22,20,Vrouw,Rechts,2,
,xotask,dotcolour,xotask,3,2,123,123,main,positivefb,-99,hard,,1.2335624000006646,['c'],1,left,['3'],4,0.2301063000004433,50,,,,,,,22,20,Vrouw,Rechts,2,
,xotask,dotcolour,xotask,4,2,124,124,main,positivefb,-99,average,,0.7671925000004194,['c'],1,left,['1'],6,0.3120838000004369,61,,,,,,,22,20,Vrouw,Rechts,2,
,xotask,dotcolour,xotask,5,2,125,125,main,positivefb,-99,average,,0.7843954999998459,['c'],1,left,['2'],5,0.38820750000013504,62,,,,,,,22,20,Vrouw,Rechts,2,
,xotask,dotcolour,xotask,6,2,126,126,main,positivefb,-99,hard,,1.7352621,['n'],0,left,['3'],4,0.12897940000038943,51,,,,,,,22,20,Vrouw,Rechts,2,
,xotask,dotcolour,xotask,7,2,127,127,main,positivefb,-99,average,,0.7845231999999669,['c'],1,left,['2'],5,0.3089635999995153,64,,,,,,,22,20,Vrouw,Rechts,2,
,xotask,dotcolour,xotask,8,2,128,128,main,positivefb,-99,hard,,0.9170557999996163,['c'],1,left,['3'],4,0.3336632999998983,53,,,,,,,22,20,Vrouw,Rechts,2,
,xotask,dotcolour,xotask,9,2,129,129,main,positivefb,-99,average,,1.1334376999993765,['c'],1,left,['3'],4,0.33188109999991866,60,,,,,,,22,20,Vrouw,Rechts,2,
,xotask,dotcolour,xotask,10,2,130,130,main,positivefb,-99,easy,,0.9331877999993594,['c'],1,left,['2'],5,0.33785209999950894,71,,,,,,,22,20,Vrouw,Rechts,2,
,xotask,dotcolour,xotask,11,2,131,131,main,positivefb,-99,hard,,1.199874899999486,['c'],0,right,['3'],4,0.2777893000002223,28,,,,,,,22,20,Vrouw,Rechts,2,
,xotask,dotcolour,xotask,12,2,132,132,main,positivefb,-99,easy,,0.717140499999914,['c'],1,left,['2'],5,0.33474670000032347,74,,,,,,,22,20,Vrouw,Rechts,2,
,xotask,dotcolour,xotask,13,2,133,133,main,positivefb,-99,hard,,0.5347351999998864,['n'],1,right,['3'],4,0.3327761999998984,28,,,,,,,22,20,Vrouw,Rechts,2,
,xotask,dotcolour,xotask,14,2,134,134,main,positivefb,-99,hard,,0.8169841999997516,['c'],1,left,['2'],5,0.3196448999997301,54,,,,,,,22,20,Vrouw,Rechts,2,
,xotask,dotcolour,xotask,15,2,135,135,main,positivefb,-99,average,,0.6684263999995892,['c'],1,left,['3'],4,0.36965260000033595,60,,,,,,,22,20,Vrouw,Rechts,2,
,xotask,dotcolour,xotask,16,2,136,136,main,positivefb,-99,average,,0.5845337999999174,['n'],1,right,['3'],4,0.35612960000071325,19,,,,,,,22,20,Vrouw,Rechts,2,
,xotask,dotcolour,xotask,17,2,137,137,main,positivefb,-99,easy,,0.4668062999999165,['n'],1,right,['2'],5,0.3072565000002214,7,,,,,,,22,20,Vrouw,Rechts,2,
,xotask,dotcolour,xotask,18,2,138,138,main,positivefb,-99,hard,,0.6673654000005627,['c'],1,left,['2'],5,0.3174545000001672,52,,,,,,,22,20,Vrouw,Rechts,2,
,xotask,dotcolour,xotask,19,2,139,139,main,positivefb,-99,hard,,0.7170994999996765,['c'],1,left,['2'],5,0.38085880000016914,52,,,,,,,22,20,Vrouw,Rechts,2,
,xotask,dotcolour,xotask,20,2,140,140,main,positivefb,-99,hard,,0.6335552999998981,['c'],1,left,['2'],5,0.3977033000001029,53,,,,,,,22,20,Vrouw,Rechts,2,
,xotask,dotcolour,xotask,21,2,141,141,main,positivefb,-99,average,,0.7004282999996576,['c'],1,left,['2'],5,0.403121999999712,63,,,,,,,22,20,Vrouw,Rechts,2,
,xotask,dotcolour,xotask,22,2,142,142,main,positivefb,-99,easy,,0.6172715000002427,['n'],1,right,['3'],4,0.33028790000025765,9,,,,,,,22,20,Vrouw,Rechts,2,
,xotask,dotcolour,xotask,23,2,143,143,main,positivefb,-99,easy,,0.5670690999995713,['c'],1,left,['2'],5,0.3119243999999526,74,,,,,,,22,20,Vrouw,Rechts,2,
,xotask,dotcolour,xotask,24,2,144,144,main,positivefb,-99,average,,0.6001177000007374,['c'],1,left,['3'],4,0.3644322000000102,63,,,,,,,22,20,Vrouw,Rechts,2,
,xotask,dotcolour,xotask,25,2,145,145,main,positivefb,-99,hard,,0.5673525000001973,['n'],1,right,['3'],4,0.36043549999976676,28,,,,,,,22,20,Vrouw,Rechts,2,
,xotask,dotcolour,xotask,26,2,146,146,main,positivefb,-99,easy,,0.4338953999995283,['n'],1,right,['2'],5,0.2979278999991948,5,,,,,,,22,20,Vrouw,Rechts,2,
,xotask,dotcolour,xotask,27,2,147,147,main,positivefb,-99,easy,,0.6177592000003642,['c'],1,left,['1'],6,0.302042999999685,74,,,,,,,22,20,Vrouw,Rechts,2,
,xotask,dotcolour,xotask,28,2,148,148,main,positivefb,-99,average,,0.4839762999999948,['n'],1,right,['3'],4,0.33529559999988123,18,,,,,,,22,20,Vrouw,Rechts,2,
,xotask,dotcolour,xotask,29,2,149,149,main,positivefb,-99,easy,,0.6013824999999997,['c'],1,left,['2'],5,0.32256710000001476,73,,,,,,,22,20,Vrouw,Rechts,2,
,xotask,dotcolour,xotask,30,2,150,150,main,positivefb,-99,easy,,0.5170090000001437,['c'],1,left,['2'],5,0.45041179999952874,74,,,,,,,22,20,Vrouw,Rechts,2,
,xotask,dotcolour,xotask,31,2,151,151,main,positivefb,-99,hard,,0.566877399999612,['n'],1,right,['3'],4,0.3463995000001887,26,,,,,,,22,20,Vrouw,Rechts,2,
,xotask,dotcolour,xotask,32,2,152,152,main,positivefb,-99,easy,,0.5009426999995412,['n'],1,right,['2'],5,0.39349979999951756,6,,,,,,,22,20,Vrouw,Rechts,2,
,xotask,dotcolour,xotask,33,2,153,153,main,positivefb,-99,average,,0.5005864999993719,['n'],1,right,['2'],5,0.3429089000001113,15,,,,,,,22,20,Vrouw,Rechts,2,
,xotask,dotcolour,xotask,34,2,154,154,main,positivefb,-99,hard,,0.48356450000028417,['n'],1,right,['3'],4,0.3189999000005628,26,,,,,,,22,20,Vrouw,Rechts,2,
,xotask,dotcolour,xotask,35,2,155,155,main,positivefb,-99,average,,0.5173905000001469,['n'],1,right,['3'],4,0.3668481000004249,16,,,,,,,22,20,Vrouw,Rechts,2,
,xotask,dotcolour,xotask,36,2,156,156,main,positivefb,-99,easy,,0.63341599999967,['c'],1,left,['1'],6,0.3517433000006349,71,,,,,,,22,20,Vrouw,Rechts,2,
,xotask,dotcolour,xotask,37,2,157,157,main,positivefb,-99,average,,0.5174060000008467,['n'],1,right,['3'],4,0.3247658999998748,15,,,,,,,22,20,Vrouw,Rechts,2,
,xotask,dotcolour,xotask,38,2,158,158,main,positivefb,-99,hard,,0.7169870000006995,['c'],1,left,['2'],5,0.3568951000006564,53,,,,,,,22,20,Vrouw,Rechts,2,
,xotask,dotcolour,xotask,39,2,159,159,main,positivefb,-99,average,,0.6164306000000579,['n'],0,left,['0'],1,1.0631923999999344,64,,,,,,,22,20,Vrouw,Rechts,2,
,xotask,dotcolour,xotask,40,2,160,160,main,positivefb,-99,hard,,0.9338433000002624,['c'],0,right,['2'],5,0.3364528000001883,29,,,,,,,22,20,Vrouw,Rechts,2,
,xotask,dotcolour,xotask,41,2,161,161,main,positivefb,-99,average,,1.8172146999995675,['c'],0,right,['3'],4,0.3468660999997155,16,,,,,,,22,20,Vrouw,Rechts,2,
,xotask,dotcolour,xotask,42,2,162,162,main,positivefb,-99,average,,0.5849258999996891,['n'],1,right,['3'],4,0.3504458999996132,15,,,,,,,22,20,Vrouw,Rechts,2,
,xotask,dotcolour,xotask,43,2,163,163,main,positivefb,-99,easy,,0.6672230000003765,['c'],1,left,['2'],5,0.351101700000072,71,,,,,,,22,20,Vrouw,Rechts,2,
,xotask,dotcolour,xotask,44,2,164,164,main,positivefb,-99,easy,,0.4502028999995673,['n'],1,right,['2'],5,0.3435858000002554,9,,,,,,,22,20,Vrouw,Rechts,2,
,xotask,dotcolour,xotask,45,2,165,165,main,positivefb,-99,easy,,0.6834388000006584,['c'],1,left,['2'],5,0.3604376000002958,70,,,,,,,22,20,Vrouw,Rechts,2,
,xotask,dotcolour,xotask,46,2,166,166,main,positivefb,-99,hard,,0.6998494999998002,['c'],1,left,['2'],5,0.3824377999999342,52,,,,,,,22,20,Vrouw,Rechts,2,
,xotask,dotcolour,xotask,47,2,167,167,main,positivefb,-99,average,,0.7345505000002959,['c'],1,left,['3'],4,0.4180097000007663,61,,,,,,,22,20,Vrouw,Rechts,2,
,xotask,dotcolour,xotask,48,2,168,168,main,positivefb,-99,hard,,0.51730790000056,['n'],1,right,['3'],4,0.6213153999997303,28,,,,,,,22,20,Vrouw,Rechts,2,
,xotask,dotcolour,xotask,49,2,169,169,main,positivefb,-99,easy,,0.5672191000003295,['c'],1,left,['2'],5,0.36668920000010985,72,,,,,,,22,20,Vrouw,Rechts,2,
,xotask,dotcolour,xotask,50,2,170,170,main,positivefb,-99,easy,,0.6668315999995684,['n'],1,right,['3'],4,0.35775480000029347,8,,,,,,,22,20,Vrouw,Rechts,2,
,xotask,dotcolour,xotask,51,2,171,171,main,positivefb,-99,hard,,0.6174277999998594,['c'],1,left,['3'],4,0.41636879999987286,52,,,,,,,22,20,Vrouw,Rechts,2,
,xotask,dotcolour,xotask,52,2,172,172,main,positivefb,-99,average,,0.417642600000363,['n'],1,right,['2'],5,0.34389850000025035,15,,,,,,,22,20,Vrouw,Rechts,2,
,xotask,dotcolour,xotask,53,2,173,173,main,positivefb,-99,hard,,0.5345517000005202,['n'],1,right,['3'],4,0.4301293999997142,25,,,,,,,22,20,Vrouw,Rechts,2,
,xotask,dotcolour,xotask,54,2,174,174,main,positivefb,-99,average,,0.3843522999995912,['n'],1,right,['3'],4,0.406722699999591,17,,,,,,,22,20,Vrouw,Rechts,2,
,xotask,dotcolour,xotask,55,2,175,175,main,positivefb,-99,easy,,0.6187361000002056,['n'],1,right,['2'],5,0.43021950000002107,7,,,,,,,22,20,Vrouw,Rechts,2,
,xotask,dotcolour,xotask,56,2,176,176,main,positivefb,-99,average,,0.451338200000464,['n'],1,right,['3'],4,0.6682737999999517,16,,,,,,,22,20,Vrouw,Rechts,2,
,xotask,dotcolour,xotask,57,2,177,177,main,positivefb,-99,hard,,0.4681289000000106,['n'],1,right,['3'],4,0.4244227999997747,25,,,,,,,22,20,Vrouw,Rechts,2,
,xotask,dotcolour,xotask,58,2,178,178,main,positivefb,-99,easy,,0.7008458999998766,['n'],1,right,['1'],6,0.29947290000018256,7,,,,,,,22,20,Vrouw,Rechts,2,
,xotask,dotcolour,xotask,59,2,179,179,main,positivefb,-99,average,,0.8004641000006814,['c'],1,left,['2'],5,0.36032369999975344,61,,,,,,,22,20,Vrouw,Rechts,2,
,xotask,dotcolour,xotask,0,3,180,180,main,positivefb,-99,easy,,1.050637800000004,['c'],1,left,['2'],5,0.4821888999995281,72,,,,,,,22,20,Vrouw,Rechts,2,
,xotask,dotcolour,xotask,1,3,181,181,main,positivefb,-99,average,,1.2182990000001155,['n'],1,right,['3'],4,0.2708259999999427,18,,,,,,,22,20,Vrouw,Rechts,2,
,xotask,dotcolour,xotask,2,3,182,182,main,positivefb,-99,average,,0.5671624999995402,['c'],1,left,['3'],4,0.30175280000003113,62,,,,,,,22,20,Vrouw,Rechts,2,
,xotask,dotcolour,xotask,3,3,183,183,main,positivefb,-99,average,,0.5843833999997514,['n'],1,right,['3'],4,0.3389695000005304,15,,,,,,,22,20,Vrouw,Rechts,2,
,xotask,dotcolour,xotask,4,3,184,184,main,positivefb,-99,hard,,0.5682156000002578,['n'],0,left,['8'],3,0.7200760000005175,53,,,,,,,22,20,Vrouw,Rechts,2,
,xotask,dotcolour,xotask,5,3,185,185,main,positivefb,-99,average,,0.6178113000005396,['n'],1,right,['3'],4,0.2837880999995832,19,,,,,,,22,20,Vrouw,Rechts,2,
,xotask,dotcolour,xotask,6,3,186,186,main,positivefb,-99,average,,0.583431400000336,['c'],1,left,['2'],5,0.47418539999944187,64,,,,,,,22,20,Vrouw,Rechts,2,
,xotask,dotcolour,xotask,7,3,187,187,main,positivefb,-99,hard,,0.5683536000005915,['n'],1,right,['3'],4,0.289101400000618,26,,,,,,,22,20,Vrouw,Rechts,2,
,xotask,dotcolour,xotask,8,3,188,188,main,positivefb,-99,hard,,0.8017800999996325,['c'],1,left,['3'],4,0.3590416000006371,50,,,,,,,22,20,Vrouw,Rechts,2,
,xotask,dotcolour,xotask,9,3,189,189,main,positivefb,-99,easy,,0.5178990999993403,['n'],1,right,['2'],5,0.34091450000050827,7,,,,,,,22,20,Vrouw,Rechts,2,
,xotask,dotcolour,xotask,10,3,190,190,main,positivefb,-99,average,,0.6170928999999887,['c'],0,right,['8'],3,0.6868801000000531,16,,,,,,,22,20,Vrouw,Rechts,2,
,xotask,dotcolour,xotask,11,3,191,191,main,positivefb,-99,average,,0.7004817999995794,['n'],0,left,['8'],3,0.5360000000000582,60,,,,,,,22,20,Vrouw,Rechts,2,
,xotask,dotcolour,xotask,12,3,192,192,main,positivefb,-99,average,,0.9521286999997756,['c'],1,left,['3'],4,0.6623802000003707,62,,,,,,,22,20,Vrouw,Rechts,2,
,xotask,dotcolour,xotask,13,3,193,193,main,positivefb,-99,hard,,0.5500022999995053,['n'],1,right,['3'],4,0.3193840000003547,26,,,,,,,22,20,Vrouw,Rechts,2,
,xotask,dotcolour,xotask,14,3,194,194,main,positivefb,-99,easy,,0.5005886999997529,['n'],1,right,['2'],5,0.33427040000060515,5,,,,,,,22,20,Vrouw,Rechts,2,
,xotask,dotcolour,xotask,15,3,195,195,main,positivefb,-99,easy,,0.45056409999961033,['n'],1,right,['2'],5,0.328179099999943,6,,,,,,,22,20,Vrouw,Rechts,2,
,xotask,dotcolour,xotask,16,3,196,196,main,positivefb,-99,average,,0.8176923000000897,['n'],1,right,['3'],4,0.2590251999999964,16,,,,,,,22,20,Vrouw,Rechts,2,
,xotask,dotcolour,xotask,17,3,197,197,main,positivefb,-99,easy,,0.5845626999998785,['c'],1,left,['2'],5,0.3062415000003966,70,,,,,,,22,20,Vrouw,Rechts,2,
,xotask,dotcolour,xotask,18,3,198,198,main,positivefb,-99,easy,,0.5008464000002277,['n'],1,right,['2'],5,0.37988940000013827,6,,,,,,,22,20,Vrouw,Rechts,2,
,xotask,dotcolour,xotask,19,3,199,199,main,positivefb,-99,easy,,0.4846285000003263,['n'],1,right,['3'],4,0.4023904000005132,9,,,,,,,22,20,Vrouw,Rechts,2,
,xotask,dotcolour,xotask,20,3,200,200,main,positivefb,-99,hard,,0.5009595000001354,['n'],0,left,['8'],3,0.5110565000004499,50,,,,,,,22,20,Vrouw,Rechts,2,
,xotask,dotcolour,xotask,21,3,201,201,main,positivefb,-99,easy,,0.5845225000002756,['c'],1,left,['2'],5,0.3242157999993651,74,,,,,,,22,20,Vrouw,Rechts,2,
,xotask,dotcolour,xotask,22,3,202,202,main,positivefb,-99,average,,0.45128740000018297,['c'],1,left,['3'],4,0.374811800000316,60,,,,,,,22,20,Vrouw,Rechts,2,
,xotask,dotcolour,xotask,23,3,203,203,main,positivefb,-99,average,,0.550993699999708,['c'],1,left,['2'],5,0.4021370999998908,64,,,,,,,22,20,Vrouw,Rechts,2,
,xotask,dotcolour,xotask,24,3,204,204,main,positivefb,-99,average,,0.5347201000004134,['n'],1,right,['3'],4,0.4301252999994176,17,,,,,,,22,20,Vrouw,Rechts,2,
,xotask,dotcolour,xotask,25,3,205,205,main,positivefb,-99,easy,,0.4509760000000824,['n'],1,right,['2'],5,0.40406609999990906,7,,,,,,,22,20,Vrouw,Rechts,2,
,xotask,dotcolour,xotask,26,3,206,206,main,positivefb,-99,average,,0.6170280999995157,['c'],1,left,['3'],4,0.45212829999945825,61,,,,,,,22,20,Vrouw,Rechts,2,
,xotask,dotcolour,xotask,27,3,207,207,main,positivefb,-99,hard,,0.5332811000007496,['n'],1,right,['3'],4,0.42889460000060353,25,,,,,,,22,20,Vrouw,Rechts,2,
,xotask,dotcolour,xotask,28,3,208,208,main,positivefb,-99,hard,,0.46722630000022036,['n'],1,right,['2'],5,0.4187547000001359,27,,,,,,,22,20,Vrouw,Rechts,2,
,xotask,dotcolour,xotask,29,3,209,209,main,positivefb,-99,average,,0.5340047000008781,['c'],1,left,['3'],4,0.43714920000002166,62,,,,,,,22,20,Vrouw,Rechts,2,
,xotask,dotcolour,xotask,30,3,210,210,main,positivefb,-99,easy,,1.1000616000001173,['c'],1,left,['2'],5,0.753450399999565,71,,,,,,,22,20,Vrouw,Rechts,2,
,xotask,dotcolour,xotask,31,3,211,211,main,positivefb,-99,hard,,1.2848697999997967,['c'],1,left,['3'],4,0.3921466000001601,50,,,,,,,22,20,Vrouw,Rechts,2,
,xotask,dotcolour,xotask,32,3,212,212,main,positivefb,-99,hard,,0.6007013999997071,['n'],1,right,['3'],4,0.3929043999996793,26,,,,,,,22,20,Vrouw,Rechts,2,
,xotask,dotcolour,xotask,33,3,213,213,main,positivefb,-99,hard,,1.1012854999999035,['c'],1,left,['3'],4,0.3833857999998145,50,,,,,,,22,20,Vrouw,Rechts,2,
,xotask,dotcolour,xotask,34,3,214,214,main,positivefb,-99,hard,,0.6340591999996832,['n'],1,right,['2'],5,0.39818470000045636,26,,,,,,,22,20,Vrouw,Rechts,2,
,xotask,dotcolour,xotask,35,3,215,215,main,positivefb,-99,hard,,0.6183348999993541,['c'],1,left,['3'],4,0.4472051000002466,51,,,,,,,22,20,Vrouw,Rechts,2,
,xotask,dotcolour,xotask,36,3,216,216,main,positivefb,-99,hard,,0.5012451000002329,['n'],1,right,['3'],4,0.45012880000012956,27,,,,,,,22,20,Vrouw,Rechts,2,
,xotask,dotcolour,xotask,37,3,217,217,main,positivefb,-99,hard,,0.6503935000000638,['c'],1,left,['3'],4,0.3664774999997462,52,,,,,,,22,20,Vrouw,Rechts,2,
,xotask,dotcolour,xotask,38,3,218,218,main,positivefb,-99,average,,1.0020073999994565,['c'],1,left,['3'],4,0.4336849000001166,61,,,,,,,22,20,Vrouw,Rechts,2,
,xotask,dotcolour,xotask,39,3,219,219,main,positivefb,-99,easy,,0.7507321000002776,['c'],1,left,['2'],5,0.4261790000000474,71,,,,,,,22,20,Vrouw,Rechts,2,
,xotask,dotcolour,xotask,40,3,220,220,main,positivefb,-99,easy,,0.5840598999993745,['n'],1,right,['3'],4,0.4196996000000581,5,,,,,,,22,20,Vrouw,Rechts,2,
,xotask,dotcolour,xotask,41,3,221,221,main,positivefb,-99,average,,0.5498835999997027,['n'],1,right,['3'],4,0.4288354000000254,18,,,,,,,22,20,Vrouw,Rechts,2,
,xotask,dotcolour,xotask,42,3,222,222,main,positivefb,-99,easy,,0.7011758999997255,['c'],1,left,['3'],4,0.38461649999953806,72,,,,,,,22,20,Vrouw,Rechts,2,
,xotask,dotcolour,xotask,43,3,223,223,main,positivefb,-99,easy,,0.6502559999998994,['c'],1,left,['2'],5,0.40015609999954904,71,,,,,,,22,20,Vrouw,Rechts,2,
,xotask,dotcolour,xotask,44,3,224,224,main,positivefb,-99,average,,1.1837021000001187,['c'],1,left,['3'],4,0.40942119999999704,63,,,,,,,22,20,Vrouw,Rechts,2,
,xotask,dotcolour,xotask,45,3,225,225,main,positivefb,-99,easy,,0.5504094000007171,['n'],1,right,['3'],4,0.5006318000005194,9,,,,,,,22,20,Vrouw,Rechts,2,
,xotask,dotcolour,xotask,46,3,226,226,main,positivefb,-99,hard,,0.6179140999993251,['c'],1,left,['3'],4,0.46437299999979587,52,,,,,,,22,20,Vrouw,Rechts,2,
,xotask,dotcolour,xotask,47,3,227,227,main,positivefb,-99,average,,0.48350120000031893,['n'],1,right,['3'],4,0.40442590000020573,17,,,,,,,22,20,Vrouw,Rechts,2,
,xotask,dotcolour,xotask,48,3,228,228,main,positivefb,-99,hard,,0.6171660999998494,['c'],1,left,['3'],4,0.40459780000037426,51,,,,,,,22,20,Vrouw,Rechts,2,
,xotask,dotcolour,xotask,49,3,229,229,main,positivefb,-99,hard,,1.3001823999993576,['c'],0,right,['3'],4,0.36051039999983914,25,,,,,,,22,20,Vrouw,Rechts,2,
,xotask,dotcolour,xotask,50,3,230,230,main,positivefb,-99,hard,,0.6170197000001281,['c'],1,left,['2'],5,0.3861464999999953,54,,,,,,,22,20,Vrouw,Rechts,2,
,xotask,dotcolour,xotask,51,3,231,231,main,positivefb,-99,easy,,0.8344442000006893,['c'],1,left,['3'],4,0.40334080000047834,71,,,,,,,22,20,Vrouw,Rechts,2,
,xotask,dotcolour,xotask,52,3,232,232,main,positivefb,-99,average,,1.2155917000000045,['c'],0,right,['3'],4,0.3383595000004789,19,,,,,,,22,20,Vrouw,Rechts,2,
,xotask,dotcolour,xotask,53,3,233,233,main,positivefb,-99,average,,0.46785349999936443,['n'],1,right,['3'],4,0.42749300000014046,15,,,,,,,22,20,Vrouw,Rechts,2,
,xotask,dotcolour,xotask,54,3,234,234,main,positivefb,-99,easy,,0.6185545999996975,['c'],1,left,['2'],5,0.3632540999997218,74,,,,,,,22,20,Vrouw,Rechts,2,
,xotask,dotcolour,xotask,55,3,235,235,main,positivefb,-99,hard,,1.2011470999996163,['c'],0,right,['3'],4,0.35733890000028623,29,,,,,,,22,20,Vrouw,Rechts,2,
,xotask,dotcolour,xotask,56,3,236,236,main,positivefb,-99,easy,,0.6180358000001434,['c'],1,left,['2'],5,0.3917096999994101,72,,,,,,,22,20,Vrouw,Rechts,2,
,xotask,dotcolour,xotask,57,3,237,237,main,positivefb,-99,easy,,0.5014043999999558,['n'],1,right,['2'],5,0.42921239999941463,8,,,,,,,22,20,Vrouw,Rechts,2,
,xotask,dotcolour,xotask,58,3,238,238,main,positivefb,-99,hard,,0.9496452999992471,['c'],0,right,['3'],4,0.350413799999842,29,,,,,,,22,20,Vrouw,Rechts,2,
,xotask,dotcolour,xotask,59,3,239,239,main,positivefb,-99,easy,,0.533732200000486,['n'],1,right,['2'],5,0.40455130000009376,9,,,,,,,22,20,Vrouw,Rechts,2,
,xotask,dotcolour,xotask,0,4,240,240,main,positivefb,-99,hard,,0.8848288999997749,['c'],0,right,['3'],4,0.4622966999995697,29,,,,,,,22,20,Vrouw,Rechts,2,
,xotask,dotcolour,xotask,1,4,241,241,main,positivefb,-99,hard,,0.5521967000004224,['c'],1,left,['2'],5,0.3828490999994756,52,,,,,,,22,20,Vrouw,Rechts,2,
,xotask,dotcolour,xotask,2,4,242,242,main,positivefb,-99,easy,,0.4507573999999295,['n'],1,right,['3'],4,0.43805760000032024,9,,,,,,,22,20,Vrouw,Rechts,2,
,xotask,dotcolour,xotask,3,4,243,243,main,positivefb,-99,hard,,0.8845682999999553,['n'],1,right,['3'],4,0.3530769999997574,28,,,,,,,22,20,Vrouw,Rechts,2,
,xotask,dotcolour,xotask,4,4,244,244,main,positivefb,-99,easy,,0.4680097999998907,['n'],1,right,['2'],5,0.39446379999935743,7,,,,,,,22,20,Vrouw,Rechts,2,
,xotask,dotcolour,xotask,5,4,245,245,main,positivefb,-99,easy,,0.48409950000041135,['n'],1,right,['1'],6,0.3760322999996788,5,,,,,,,22,20,Vrouw,Rechts,2,
,xotask,dotcolour,xotask,6,4,246,246,main,positivefb,-99,average,,1.1008217999997214,['c'],1,left,['3'],4,0.33336340000005293,60,,,,,,,22,20,Vrouw,Rechts,2,
,xotask,dotcolour,xotask,7,4,247,247,main,positivefb,-99,average,,0.5516397999999754,['n'],1,right,['3'],4,0.3717506000002686,15,,,,,,,22,20,Vrouw,Rechts,2,
,xotask,dotcolour,xotask,8,4,248,248,main,positivefb,-99,hard,,0.8675986999996894,['c'],1,left,['3'],4,0.37869769999997516,51,,,,,,,22,20,Vrouw,Rechts,2,
,xotask,dotcolour,xotask,9,4,249,249,main,positivefb,-99,easy,,0.5512394999996104,['c'],1,left,['3'],4,0.38265099999989616,74,,,,,,,22,20,Vrouw,Rechts,2,
,xotask,dotcolour,xotask,10,4,250,250,main,positivefb,-99,hard,,0.8684810999993715,['c'],1,left,['3'],4,0.36608979999982694,52,,,,,,,22,20,Vrouw,Rechts,2,
,xotask,dotcolour,xotask,11,4,251,251,main,positivefb,-99,hard,,0.6340946000000258,['c'],1,left,['3'],4,0.38225749999946856,50,,,,,,,22,20,Vrouw,Rechts,2,
,xotask,dotcolour,xotask,12,4,252,252,main,positivefb,-99,average,,0.5677170999997543,['n'],1,right,['2'],5,0.520873099999335,15,,,,,,,22,20,Vrouw,Rechts,2,
,xotask,dotcolour,xotask,13,4,253,253,main,positivefb,-99,hard,,0.48418190000029426,['n'],1,right,['3'],4,0.3622611999999208,26,,,,,,,22,20,Vrouw,Rechts,2,
,xotask,dotcolour,xotask,14,4,254,254,main,positivefb,-99,easy,,0.6011269000000539,['c'],1,left,['2'],5,0.34831690000009985,72,,,,,,,22,20,Vrouw,Rechts,2,
,xotask,dotcolour,xotask,15,4,255,255,main,positivefb,-99,easy,,0.5665446000002703,['n'],1,right,['2'],5,0.3372185000007448,7,,,,,,,22,20,Vrouw,Rechts,2,
,xotask,dotcolour,xotask,16,4,256,256,main,positivefb,-99,average,,0.4837846000000354,['n'],1,right,['2'],5,0.3607852000004641,16,,,,,,,22,20,Vrouw,Rechts,2,
,xotask,dotcolour,xotask,17,4,257,257,main,positivefb,-99,average,,0.4343466999998782,['n'],1,right,['3'],4,0.4100478000000294,18,,,,,,,22,20,Vrouw,Rechts,2,
,xotask,dotcolour,xotask,18,4,258,258,main,positivefb,-99,average,,0.951621499999419,['c'],1,left,['3'],4,0.35766940000030445,62,,,,,,,22,20,Vrouw,Rechts,2,
,xotask,dotcolour,xotask,19,4,259,259,main,positivefb,-99,average,,0.716538199999377,['c'],1,left,['3'],4,0.4432522999995854,62,,,,,,,22,20,Vrouw,Rechts,2,
,xotask,dotcolour,xotask,20,4,260,260,main,positivefb,-99,average,,0.6011425999995481,['c'],1,left,['3'],4,0.38604490000034275,62,,,,,,,22,20,Vrouw,Rechts,2,
,xotask,dotcolour,xotask,21,4,261,261,main,positivefb,-99,hard,,0.9016687000003003,['c'],1,left,['3'],4,0.3762434000000212,50,,,,,,,22,20,Vrouw,Rechts,2,
,xotask,dotcolour,xotask,22,4,262,262,main,positivefb,-99,hard,,0.6340283999998064,['n'],1,right,['3'],4,0.3842750000003434,27,,,,,,,22,20,Vrouw,Rechts,2,
,xotask,dotcolour,xotask,23,4,263,263,main,positivefb,-99,easy,,0.6348774000007325,['c'],1,left,['2'],5,0.3289044000002832,74,,,,,,,22,20,Vrouw,Rechts,2,
,xotask,dotcolour,xotask,24,4,264,264,main,positivefb,-99,hard,,0.6168094000004203,['c'],1,left,['2'],5,0.37165249999998196,54,,,,,,,22,20,Vrouw,Rechts,2,
,xotask,dotcolour,xotask,25,4,265,265,main,positivefb,-99,easy,,0.5509544000005917,['n'],1,right,['2'],5,0.33559260000038194,8,,,,,,,22,20,Vrouw,Rechts,2,
,xotask,dotcolour,xotask,26,4,266,266,main,positivefb,-99,easy,,0.6166959000001953,['c'],1,left,['2'],5,0.379191300000457,73,,,,,,,22,20,Vrouw,Rechts,2,
,xotask,dotcolour,xotask,27,4,267,267,main,positivefb,-99,easy,,0.5680124999998952,['c'],0,right,['0'],1,0.8062318000002051,9,,,,,,,22,20,Vrouw,Rechts,2,
,xotask,dotcolour,xotask,28,4,268,268,main,positivefb,-99,easy,,0.7178233999993608,['n'],1,right,['2'],5,0.48232649999954447,6,,,,,,,22,20,Vrouw,Rechts,2,
,xotask,dotcolour,xotask,29,4,269,269,main,positivefb,-99,easy,,0.434024799999861,['n'],1,right,['1'],6,0.3899643000004289,6,,,,,,,22,20,Vrouw,Rechts,2,
,xotask,dotcolour,xotask,30,4,270,270,main,positivefb,-99,hard,,0.9844829000003301,['n'],1,right,['3'],4,0.35179059999973106,26,,,,,,,22,20,Vrouw,Rechts,2,
,xotask,dotcolour,xotask,31,4,271,271,main,positivefb,-99,hard,,0.6836179000001721,['c'],1,left,['3'],4,0.38319659999979194,51,,,,,,,22,20,Vrouw,Rechts,2,
,xotask,dotcolour,xotask,32,4,272,272,main,positivefb,-99,hard,,0.5838042000004862,['n'],1,right,['3'],4,0.49778969999988476,29,,,,,,,22,20,Vrouw,Rechts,2,
,xotask,dotcolour,xotask,33,4,273,273,main,positivefb,-99,average,,0.49957830000039394,['n'],1,right,['3'],4,0.402637400000458,19,,,,,,,22,20,Vrouw,Rechts,2,
,xotask,dotcolour,xotask,34,4,274,274,main,positivefb,-99,average,,0.6177894000002198,['c'],1,left,['3'],4,0.4510683999997127,62,,,,,,,22,20,Vrouw,Rechts,2,
,xotask,dotcolour,xotask,35,4,275,275,main,positivefb,-99,hard,,0.8836062000000311,['n'],0,left,['8'],3,1.0704363999993802,54,,,,,,,22,20,Vrouw,Rechts,2,
,xotask,dotcolour,xotask,36,4,276,276,main,positivefb,-99,average,,0.9512389000001349,['n'],1,right,['3'],4,0.3348580000001675,19,,,,,,,22,20,Vrouw,Rechts,2,
,xotask,dotcolour,xotask,37,4,277,277,main,positivefb,-99,average,,0.5668725999994422,['c'],1,left,['3'],4,0.42737840000063443,63,,,,,,,22,20,Vrouw,Rechts,2,
,xotask,dotcolour,xotask,38,4,278,278,main,positivefb,-99,average,,0.7172470999994403,['c'],1,left,['2'],5,0.35900779999974475,62,,,,,,,22,20,Vrouw,Rechts,2,
,xotask,dotcolour,xotask,39,4,279,279,main,positivefb,-99,average,,0.5015774000003148,['c'],1,left,['2'],5,0.4211392999995951,64,,,,,,,22,20,Vrouw,Rechts,2,
,xotask,dotcolour,xotask,40,4,280,280,main,positivefb,-99,hard,,0.5004468999995879,['n'],1,right,['3'],4,0.44094530000074883,29,,,,,,,22,20,Vrouw,Rechts,2,
,xotask,dotcolour,xotask,41,4,281,281,main,positivefb,-99,easy,,0.5509186999997837,['n'],1,right,['2'],5,0.3707555000000866,7,,,,,,,22,20,Vrouw,Rechts,2,
,xotask,dotcolour,xotask,42,4,282,282,main,positivefb,-99,average,,0.38425009999991744,['n'],1,right,['2'],5,0.41344110000045475,15,,,,,,,22,20,Vrouw,Rechts,2,
,xotask,dotcolour,xotask,43,4,283,283,main,positivefb,-99,easy,,0.5182681999995111,['c'],1,left,['2'],5,0.3295506000004025,70,,,,,,,22,20,Vrouw,Rechts,2,
,xotask,dotcolour,xotask,44,4,284,284,main,positivefb,-99,hard,,0.6507387999999992,['c'],0,right,['3'],4,0.4113313999996535,26,,,,,,,22,20,Vrouw,Rechts,2,
,xotask,dotcolour,xotask,45,4,285,285,main,positivefb,-99,hard,,0.5514515000004394,['n'],0,left,['3'],4,0.45447760000024573,50,,,,,,,22,20,Vrouw,Rechts,2,
,xotask,dotcolour,xotask,46,4,286,286,main,positivefb,-99,average,,0.7332790000000386,['c'],1,left,['2'],5,0.43200419999993755,60,,,,,,,22,20,Vrouw,Rechts,2,
,xotask,dotcolour,xotask,47,4,287,287,main,positivefb,-99,easy,,0.5661459000002651,['c'],1,left,['2'],5,0.3685058000000936,73,,,,,,,22,20,Vrouw,Rechts,2,
,xotask,dotcolour,xotask,48,4,288,288,main,positivefb,-99,easy,,0.4678350000003775,['c'],1,left,['2'],5,0.37631249999958527,71,,,,,,,22,20,Vrouw,Rechts,2,
,xotask,dotcolour,xotask,49,4,289,289,main,positivefb,-99,easy,,0.6671926999997595,['c'],1,left,['3'],4,0.3836400999998659,70,,,,,,,22,20,Vrouw,Rechts,2,
,xotask,dotcolour,xotask,50,4,290,290,main,positivefb,-99,hard,,0.5505089999996926,['n'],1,right,['3'],4,0.3553109000004042,28,,,,,,,22,20,Vrouw,Rechts,2,
,xotask,dotcolour,xotask,51,4,291,291,main,positivefb,-99,easy,,0.48471080000035727,['n'],1,right,['2'],5,0.29792040000029374,7,,,,,,,22,20,Vrouw,Rechts,2,
,xotask,dotcolour,xotask,52,4,292,292,main,positivefb,-99,easy,,0.516700199999832,['c'],1,left,['1'],6,0.3627074999994875,72,,,,,,,22,20,Vrouw,Rechts,2,
,xotask,dotcolour,xotask,53,4,293,293,main,positivefb,-99,average,,0.4673290000000634,['n'],1,right,['2'],5,0.33879239999987476,18,,,,,,,22,20,Vrouw,Rechts,2,
,xotask,dotcolour,xotask,54,4,294,294,main,positivefb,-99,average,,0.500627400000667,['c'],1,left,['2'],5,0.3461277999995218,63,,,,,,,22,20,Vrouw,Rechts,2,
,xotask,dotcolour,xotask,55,4,295,295,main,positivefb,-99,hard,,0.6669420999996873,['c'],1,left,['3'],4,0.34684139999990293,50,,,,,,,22,20,Vrouw,Rechts,2,
,xotask,dotcolour,xotask,56,4,296,296,main,positivefb,-99,average,,0.5015051000000312,['n'],1,right,['3'],4,0.3542218000002322,18,,,,,,,22,20,Vrouw,Rechts,2,
,xotask,dotcolour,xotask,57,4,297,297,main,positivefb,-99,hard,,0.4003863000007186,['n'],1,right,['2'],5,0.373328899999251,25,,,,,,,22,20,Vrouw,Rechts,2,
,xotask,dotcolour,xotask,58,4,298,298,main,positivefb,-99,average,,0.36722659999941243,['n'],1,right,['3'],4,0.41648609999992914,19,,,,,,,22,20,Vrouw,Rechts,2,
,xotask,dotcolour,xotask,59,4,299,299,main,positivefb,-99,easy,,0.6668773000001238,['c'],1,left,['3'],4,0.38151990000005753,71,,,,,,,22,20,Vrouw,Rechts,2,
,dotcolour,dotcolour,xotask,0,0,0,300,training,positivefb,97,average,55,0.6839690000006158,['c'],1,left,['3'],4,0.33590619999995397,,,,,,,,22,20,Vrouw,Rechts,2,
,dotcolour,dotcolour,xotask,1,0,1,301,training,positivefb,91,hard,42,0.8507122000000891,['n'],0,left,['3'],4,0.2240614000002097,,,,,,,,22,20,Vrouw,Rechts,2,
,dotcolour,dotcolour,xotask,2,0,2,302,training,positivefb,83,average,28,0.8657941999999821,['n'],1,right,['3'],4,0.33285220000016125,,,,,,,,22,20,Vrouw,Rechts,2,
,dotcolour,dotcolour,xotask,3,0,3,303,training,positivefb,97,average,52,0.6334816999997201,['c'],1,left,['3'],4,0.2938018999993801,,,,,,,,22,20,Vrouw,Rechts,2,
,dotcolour,dotcolour,xotask,4,0,4,304,training,positivefb,93,easy,19,0.5492174000000887,['n'],1,right,['2'],5,0.3569376999994347,,,,,,,,22,20,Vrouw,Rechts,2,
,dotcolour,dotcolour,xotask,5,0,5,305,training,positivefb,84,easy,15,0.6505808000001707,['n'],1,right,['2'],5,0.3248009999997521,,,,,,,,22,20,Vrouw,Rechts,2,
,dotcolour,dotcolour,xotask,6,0,6,306,training,positivefb,91,hard,45,1.3511140999999043,['c'],1,left,['3'],4,0.25068410000039876,,,,,,,,22,20,Vrouw,Rechts,2,
,dotcolour,dotcolour,xotask,7,0,7,307,training,positivefb,79,average,51,1.1834899000004953,['n'],0,left,['3'],4,0.18559079999977257,,,,,,,,22,20,Vrouw,Rechts,2,
,dotcolour,dotcolour,xotask,8,0,8,308,training,positivefb,95,easy,15,0.6676983999996082,['n'],1,right,['2'],5,0.3030060000000958,,,,,,,,22,20,Vrouw,Rechts,2,
,dotcolour,dotcolour,xotask,9,0,9,309,training,positivefb,99,easy,61,0.5334617000007711,['c'],1,left,['2'],5,0.30168809999941004,,,,,,,,22,20,Vrouw,Rechts,2,
,dotcolour,dotcolour,xotask,10,0,10,310,training,positivefb,96,easy,18,0.5328663999998753,['n'],1,right,['1'],6,0.31705690000035247,,,,,,,,22,20,Vrouw,Rechts,2,
,dotcolour,dotcolour,xotask,11,0,11,311,training,positivefb,76,easy,18,0.6326584999997067,['n'],1,right,['2'],5,0.2542924999997922,,,,,,,,22,20,Vrouw,Rechts,2,
,dotcolour,dotcolour,xotask,12,0,12,312,training,positivefb,93,hard,44,0.7829312999992908,['c'],1,left,['3'],4,0.35706719999961933,,,,,,,,22,20,Vrouw,Rechts,2,
,dotcolour,dotcolour,xotask,13,0,13,313,training,positivefb,75,hard,43,1.2496261999995113,['c'],1,left,['3'],4,0.17402990000027785,,,,,,,,22,20,Vrouw,Rechts,2,
,dotcolour,dotcolour,xotask,14,0,14,314,training,positivefb,93,hard,43,1.0492928000003303,['n'],0,left,['3'],4,0.1411686000001282,,,,,,,,22,20,Vrouw,Rechts,2,
,dotcolour,dotcolour,xotask,15,0,15,315,training,positivefb,73,average,28,0.6325499000004129,['n'],1,right,['2'],5,0.23802340000020195,,,,,,,,22,20,Vrouw,Rechts,2,
,dotcolour,dotcolour,xotask,16,0,16,316,training,positivefb,95,average,27,0.5497928000004322,['n'],1,right,['2'],5,0.19876320000003034,,,,,,,,22,20,Vrouw,Rechts,2,
,dotcolour,dotcolour,xotask,17,0,17,317,training,positivefb,96,easy,64,0.5493081999993592,['c'],1,left,['2'],5,0.25779290000082256,,,,,,,,22,20,Vrouw,Rechts,2,
,dotcolour,dotcolour,xotask,18,0,18,318,training,positivefb,87,average,51,1.100376999999753,['c'],1,left,['3'],4,0.2027618000001894,,,,,,,,22,20,Vrouw,Rechts,2,
,dotcolour,dotcolour,xotask,19,0,19,319,training,positivefb,94,average,28,0.6159456000004866,['n'],1,right,['3'],4,0.17071620000024268,,,,,,,,22,20,Vrouw,Rechts,2,
,dotcolour,dotcolour,xotask,20,0,20,320,training,positivefb,90,hard,42,0.9840917999999874,['c'],1,left,['3'],4,0.23698749999948632,,,,,,,,22,20,Vrouw,Rechts,2,
,dotcolour,dotcolour,xotask,21,0,21,321,training,positivefb,90,easy,62,0.599426400000084,['c'],1,left,['2'],5,0.339552200000071,,,,,,,,22,20,Vrouw,Rechts,2,
,dotcolour,dotcolour,xotask,22,0,22,322,training,positivefb,94,easy,15,0.46745690000079776,['n'],1,right,['1'],6,0.40324819999932515,,,,,,,,22,20,Vrouw,Rechts,2,
,dotcolour,dotcolour,xotask,23,0,23,323,training,positivefb,98,hard,36,0.7334333999997398,['n'],1,right,['3'],4,0.21389910000016243,,,,,,,,22,20,Vrouw,Rechts,2,
,dotcolour,dotcolour,xotask,24,0,24,324,training,positivefb,94,hard,35,0.5847929000001386,['n'],1,right,['2'],5,0.2863625999998476,,,,,,,,22,20,Vrouw,Rechts,2,
,dotcolour,dotcolour,xotask,25,0,25,325,training,positivefb,80,hard,38,0.7172860000000583,['n'],1,right,['3'],4,0.20681779999995342,,,,,,,,22,20,Vrouw,Rechts,2,
,dotcolour,dotcolour,xotask,26,0,26,326,training,positivefb,94,easy,63,0.5335659000002124,['c'],1,left,['1'],6,0.3702322999997705,,,,,,,,22,20,Vrouw,Rechts,2,
,dotcolour,dotcolour,xotask,27,0,27,327,training,positivefb,92,hard,39,0.549580199999582,['n'],1,right,['2'],5,0.38044319999971776,,,,,,,,22,20,Vrouw,Rechts,2,
,dotcolour,dotcolour,xotask,28,0,28,328,training,positivefb,93,easy,16,0.600250500000584,['n'],1,right,['1'],6,0.25419789999978093,,,,,,,,22,20,Vrouw,Rechts,2,
,dotcolour,dotcolour,xotask,29,0,29,329,training,positivefb,97,average,54,0.6158245999995415,['c'],1,left,['3'],4,0.2361971000000267,,,,,,,,22,20,Vrouw,Rechts,2,
,dotcolour,dotcolour,xotask,30,0,30,330,training,positivefb,90,average,54,0.532899499999985,['c'],1,left,['3'],4,0.2688866999997117,,,,,,,,22,20,Vrouw,Rechts,2,
,dotcolour,dotcolour,xotask,31,0,31,331,training,positivefb,90,hard,39,1.4500778000001446,['c'],0,right,['3'],4,0.18490049999945768,,,,,,,,22,20,Vrouw,Rechts,2,
,dotcolour,dotcolour,xotask,32,0,32,332,training,positivefb,89,hard,37,0.5832416000002922,['n'],1,right,['3'],4,0.18564010000045528,,,,,,,,22,20,Vrouw,Rechts,2,
,dotcolour,dotcolour,xotask,33,0,33,333,training,positivefb,98,easy,64,0.5167774999999892,['c'],1,left,['2'],5,0.2536657999999079,,,,,,,,22,20,Vrouw,Rechts,2,
,dotcolour,dotcolour,xotask,34,0,34,334,training,positivefb,98,easy,65,0.499411599999803,['c'],1,left,['2'],5,0.24806050000006508,,,,,,,,22,20,Vrouw,Rechts,2,
,dotcolour,dotcolour,xotask,35,0,35,335,training,positivefb,83,hard,44,1.1333858999996664,['c'],1,left,['3'],4,0.1695305000002918,,,,,,,,22,20,Vrouw,Rechts,2,
,dotcolour,dotcolour,xotask,36,0,36,336,training,positivefb,93,easy,64,0.6493393999999171,['c'],1,left,['2'],5,0.23320089999924676,,,,,,,,22,20,Vrouw,Rechts,2,
,dotcolour,dotcolour,xotask,37,0,37,337,training,positivefb,98,average,28,0.5826256000000285,['n'],1,right,['2'],5,0.20847439999943163,,,,,,,,22,20,Vrouw,Rechts,2,
,dotcolour,dotcolour,xotask,38,0,38,338,training,positivefb,96,easy,17,0.5495130999997855,['n'],1,right,['1'],6,0.35386299999936455,,,,,,,,22,20,Vrouw,Rechts,2,
,dotcolour,dotcolour,xotask,39,0,39,339,training,positivefb,90,hard,43,0.7664881000000605,['c'],1,left,['3'],4,0.3255343000000721,,,,,,,,22,20,Vrouw,Rechts,2,
,dotcolour,dotcolour,xotask,40,0,40,340,training,positivefb,96,average,27,0.6004213999995045,['n'],1,right,['2'],5,0.5053164000000834,,,,,,,,22,20,Vrouw,Rechts,2,
,dotcolour,dotcolour,xotask,41,0,41,341,training,positivefb,95,easy,61,0.5828670999999304,['c'],1,left,['2'],5,0.2612298000003648,,,,,,,,22,20,Vrouw,Rechts,2,
,dotcolour,dotcolour,xotask,42,0,42,342,training,positivefb,84,easy,62,0.6508025000002817,['c'],1,left,['1'],6,0.506069999999454,,,,,,,,22,20,Vrouw,Rechts,2,
,dotcolour,dotcolour,xotask,43,0,43,343,training,positivefb,96,easy,15,0.5350399999997535,['n'],1,right,['2'],5,0.33638369999971474,,,,,,,,22,20,Vrouw,Rechts,2,
,dotcolour,dotcolour,xotask,44,0,44,344,training,positivefb,87,hard,42,0.9005049000006693,['n'],0,left,['3'],4,0.21522940000068047,,,,,,,,22,20,Vrouw,Rechts,2,
,dotcolour,dotcolour,xotask,45,0,45,345,training,positivefb,96,hard,36,0.616829399999915,['n'],1,right,['3'],4,0.3909628999999768,,,,,,,,22,20,Vrouw,Rechts,2,
,dotcolour,dotcolour,xotask,46,0,46,346,training,positivefb,94,hard,36,0.732884600000034,['n'],1,right,['3'],4,0.12923659999978554,,,,,,,,22,20,Vrouw,Rechts,2,
,dotcolour,dotcolour,xotask,47,0,47,347,training,positivefb,99,easy,63,0.7004052999991472,['c'],1,left,['2'],5,0.28884000000016385,,,,,,,,22,20,Vrouw,Rechts,2,
,dotcolour,dotcolour,xotask,48,0,48,348,training,positivefb,86,average,55,0.9164877000002889,['c'],1,left,['2'],5,0.2642515999996249,,,,,,,,22,20,Vrouw,Rechts,2,
,dotcolour,dotcolour,xotask,49,0,49,349,training,positivefb,96,average,25,0.5005133000004207,['n'],1,right,['2'],5,0.20350650000000314,,,,,,,,22,20,Vrouw,Rechts,2,
,dotcolour,dotcolour,xotask,50,0,50,350,training,positivefb,59,average,52,0.6338568000001032,['n'],0,left,['9'],2,1.5465925999997125,,,,,,,,22,20,Vrouw,Rechts,2,
,dotcolour,dotcolour,xotask,51,0,51,351,training,positivefb,84,hard,37,1.0164741999997204,['n'],1,right,['2'],5,0.3951828999997815,,,,,,,,22,20,Vrouw,Rechts,2,
,dotcolour,dotcolour,xotask,52,0,52,352,training,positivefb,97,average,27,0.5990603999998712,['n'],1,right,['3'],4,0.16480789999968692,,,,,,,,22,20,Vrouw,Rechts,2,
,dotcolour,dotcolour,xotask,53,0,53,353,training,positivefb,81,hard,42,0.667156900000009,['n'],0,left,['3'],4,0.13955480000004172,,,,,,,,22,20,Vrouw,Rechts,2,
,dotcolour,dotcolour,xotask,54,0,54,354,training,positivefb,92,average,53,0.5680363000001307,['c'],1,left,['3'],4,0.17617869999958202,,,,,,,,22,20,Vrouw,Rechts,2,
,dotcolour,dotcolour,xotask,55,0,55,355,training,positivefb,99,average,25,0.4842424000007668,['n'],1,right,['2'],5,0.25445809999928315,,,,,,,,22,20,Vrouw,Rechts,2,
,dotcolour,dotcolour,xotask,56,0,56,356,training,positivefb,96,hard,37,0.9341293999996196,['n'],1,right,['3'],4,0.3184854000000996,,,,,,,,22,20,Vrouw,Rechts,2,
,dotcolour,dotcolour,xotask,57,0,57,357,training,positivefb,98,average,51,0.6168288999997458,['c'],1,left,['3'],4,0.24970049999956245,,,,,,,,22,20,Vrouw,Rechts,2,
,dotcolour,dotcolour,xotask,58,0,58,358,training,positivefb,85,easy,15,0.9315569000000323,['n'],1,right,['1'],6,0.12979960000029678,,,,,,,,22,20,Vrouw,Rechts,2,
,dotcolour,dotcolour,xotask,59,0,59,359,training,positivefb,97,average,28,0.6165608000001157,['n'],1,right,['2'],5,0.26035630000023957,,,,,,,,22,20,Vrouw,Rechts,2,
,dotcolour,dotcolour,xotask,0,1,60,360,training,positivefb,90,hard,42,0.8177740000000995,['n'],0,left,['3'],4,0.7926625000000058,,,,,,,,22,20,Vrouw,Rechts,2,
,dotcolour,dotcolour,xotask,1,1,61,361,training,positivefb,98,average,54,0.6164359000003969,['c'],1,left,['3'],4,0.18463669999982812,,,,,,,,22,20,Vrouw,Rechts,2,
,dotcolour,dotcolour,xotask,2,1,62,362,training,positivefb,94,easy,61,0.5328953999996884,['c'],1,left,['3'],4,0.2610189999995782,,,,,,,,22,20,Vrouw,Rechts,2,
,dotcolour,dotcolour,xotask,3,1,63,363,training,positivefb,97,average,26,0.4159951000001456,['n'],1,right,['3'],4,0.21758299999964947,,,,,,,,22,20,Vrouw,Rechts,2,
,dotcolour,dotcolour,xotask,4,1,64,364,training,positivefb,91,easy,16,0.4664293000005273,['n'],1,right,['2'],5,0.15793119999943883,,,,,,,,22,20,Vrouw,Rechts,2,
,dotcolour,dotcolour,xotask,5,1,65,365,training,positivefb,99,average,52,0.5671291999997266,['c'],1,left,['3'],4,0.17762390000007144,,,,,,,,22,20,Vrouw,Rechts,2,
,dotcolour,dotcolour,xotask,6,1,66,366,training,positivefb,88,hard,43,1.0332776000004742,['n'],0,left,['3'],4,0.13008280000030936,,,,,,,,22,20,Vrouw,Rechts,2,
,dotcolour,dotcolour,xotask,7,1,67,367,training,positivefb,95,hard,38,0.7012101999998777,['n'],1,right,['3'],4,0.12095960000078776,,,,,,,,22,20,Vrouw,Rechts,2,
,dotcolour,dotcolour,xotask,8,1,68,368,training,positivefb,97,easy,17,0.7504100999994989,['n'],1,right,['2'],5,0.11031610000009096,,,,,,,,22,20,Vrouw,Rechts,2,
,dotcolour,dotcolour,xotask,9,1,69,369,training,positivefb,96,easy,65,0.7176963000001706,['c'],1,left,['2'],5,0.22238080000079208,,,,,,,,22,20,Vrouw,Rechts,2,
,dotcolour,dotcolour,xotask,10,1,70,370,training,positivefb,93,average,25,0.5158968000005189,['n'],1,right,['2'],5,0.21672190000026603,,,,,,,,22,20,Vrouw,Rechts,2,
,dotcolour,dotcolour,xotask,11,1,71,371,training,positivefb,86,easy,63,0.6837493999992148,['c'],1,left,['1'],6,0.2533250999995289,,,,,,,,22,20,Vrouw,Rechts,2,
,dotcolour,dotcolour,xotask,12,1,72,372,training,positivefb,99,easy,16,0.46696930000052816,['n'],1,right,['2'],5,0.2889387999994142,,,,,,,,22,20,Vrouw,Rechts,2,
,dotcolour,dotcolour,xotask,13,1,73,373,training,positivefb,92,average,53,0.7334947999997894,['c'],1,left,['2'],5,0.24779519999992772,,,,,,,,22,20,Vrouw,Rechts,2,
,dotcolour,dotcolour,xotask,14,1,74,374,training,positivefb,81,hard,45,0.8003414000004341,['n'],0,left,['2'],5,0.2065089000006992,,,,,,,,22,20,Vrouw,Rechts,2,
,dotcolour,dotcolour,xotask,15,1,75,375,training,positivefb,100,easy,19,0.7839046999997663,['n'],1,right,['2'],5,3.9348165000001245,,,,,,,,22,20,Vrouw,Rechts,2,
,dotcolour,dotcolour,xotask,16,1,76,376,training,positivefb,95,average,28,0.6665445000007821,['n'],1,right,['1'],6,0.37434250000023894,,,,,,,,22,20,Vrouw,Rechts,2,
,dotcolour,dotcolour,xotask,17,1,77,377,training,positivefb,86,average,55,0.8503044999997655,['c'],1,left,['3'],4,0.2703424000001178,,,,,,,,22,20,Vrouw,Rechts,2,
,dotcolour,dotcolour,xotask,18,1,78,378,training,positivefb,94,easy,19,0.5325810000003912,['n'],1,right,['2'],5,0.16652690000046277,,,,,,,,22,20,Vrouw,Rechts,2,
,dotcolour,dotcolour,xotask,19,1,79,379,training,positivefb,96,hard,38,0.9665924999999334,['n'],1,right,['3'],4,0.21693449999929726,,,,,,,,22,20,Vrouw,Rechts,2,
,dotcolour,dotcolour,xotask,20,1,80,380,training,positivefb,85,easy,65,0.5325271000001521,['c'],1,left,['1'],6,0.2985435000000507,,,,,,,,22,20,Vrouw,Rechts,2,
,dotcolour,dotcolour,xotask,21,1,81,381,training,positivefb,94,average,54,0.9494058000000223,['n'],0,left,['3'],4,0.13674790000004577,,,,,,,,22,20,Vrouw,Rechts,2,
,dotcolour,dotcolour,xotask,22,1,82,382,training,positivefb,99,average,25,0.5675482999995438,['n'],1,right,['2'],5,0.2850349999998798,,,,,,,,22,20,Vrouw,Rechts,2,
,dotcolour,dotcolour,xotask,23,1,83,383,training,positivefb,90,hard,42,1.1330135999996855,['c'],1,left,['3'],4,0.14869110000017827,,,,,,,,22,20,Vrouw,Rechts,2,
,dotcolour,dotcolour,xotask,24,1,84,384,training,positivefb,92,average,55,1.3002040000001216,['c'],1,left,['3'],4,0.22694159999991825,,,,,,,,22,20,Vrouw,Rechts,2,
,dotcolour,dotcolour,xotask,25,1,85,385,training,positivefb,79,hard,39,1.2331371999998737,['n'],1,right,['3'],4,0.13662480000039068,,,,,,,,22,20,Vrouw,Rechts,2,
,dotcolour,dotcolour,xotask,26,1,86,386,training,positivefb,97,average,53,0.616949499999464,['c'],1,left,['2'],5,0.19533769999998185,,,,,,,,22,20,Vrouw,Rechts,2,
,dotcolour,dotcolour,xotask,27,1,87,387,training,positivefb,95,hard,42,0.6499469999998837,['n'],0,left,['3'],4,0.18586730000060925,,,,,,,,22,20,Vrouw,Rechts,2,
,dotcolour,dotcolour,xotask,28,1,88,388,training,positivefb,75,hard,35,0.6683008999998492,['n'],1,right,['2'],5,0.3437635999998747,,,,,,,,22,20,Vrouw,Rechts,2,
,dotcolour,dotcolour,xotask,29,1,89,389,training,positivefb,86,hard,38,0.6995386999997208,['n'],1,right,['3'],4,0.18227639999986422,,,,,,,,22,20,Vrouw,Rechts,2,
,dotcolour,dotcolour,xotask,30,1,90,390,training,positivefb,96,average,25,0.5655962000000727,['n'],1,right,['2'],5,0.22429079999983514,,,,,,,,22,20,Vrouw,Rechts,2,
,dotcolour,dotcolour,xotask,31,1,91,391,training,positivefb,97,average,28,0.5500616999997874,['n'],1,right,['2'],5,0.2489290000003166,,,,,,,,22,20,Vrouw,Rechts,2,
,dotcolour,dotcolour,xotask,32,1,92,392,training,positivefb,97,average,29,0.4675265000005311,['n'],1,right,['1'],6,0.32461760000023787,,,,,,,,22,20,Vrouw,Rechts,2,
,dotcolour,dotcolour,xotask,33,1,93,393,training,positivefb,96,hard,42,0.90059089999977,['n'],0,left,['3'],4,0.15713959999993676,,,,,,,,22,20,Vrouw,Rechts,2,
,dotcolour,dotcolour,xotask,34,1,94,394,training,positivefb,91,easy,62,0.5997910000005504,['c'],1,left,['2'],5,0.21482819999982894,,,,,,,,22,20,Vrouw,Rechts,2,
,dotcolour,dotcolour,xotask,35,1,95,395,training,positivefb,98,easy,65,0.5329699000003529,['c'],1,left,['2'],5,0.24928739999995742,,,,,,,,22,20,Vrouw,Rechts,2,
,dotcolour,dotcolour,xotask,36,1,96,396,training,positivefb,99,easy,64,0.4825311000004149,['c'],1,left,['1'],6,0.21947659999932512,,,,,,,,22,20,Vrouw,Rechts,2,
,dotcolour,dotcolour,xotask,37,1,97,397,training,positivefb,86,easy,19,0.46601949999967474,['n'],1,right,['1'],6,0.2090689000006023,,,,,,,,22,20,Vrouw,Rechts,2,
,dotcolour,dotcolour,xotask,38,1,98,398,training,positivefb,76,hard,38,1.0825786000004882,['n'],1,right,['3'],4,0.15669350000007398,,,,,,,,22,20,Vrouw,Rechts,2,
,dotcolour,dotcolour,xotask,39,1,99,399,training,positivefb,96,easy,63,0.5507897000006778,['c'],1,left,['2'],5,0.19330650000028982,,,,,,,,22,20,Vrouw,Rechts,2,
,dotcolour,dotcolour,xotask,40,1,100,400,training,positivefb,96,hard,37,0.5323285999993459,['n'],1,right,['2'],5,0.46892680000019027,,,,,,,,22,20,Vrouw,Rechts,2,
,dotcolour,dotcolour,xotask,41,1,101,401,training,positivefb,84,hard,38,0.9496808000003512,['c'],0,right,['3'],4,0.18014690000018163,,,,,,,,22,20,Vrouw,Rechts,2,
,dotcolour,dotcolour,xotask,42,1,102,402,training,positivefb,85,average,55,0.7000409000002037,['c'],1,left,['2'],5,0.23332480000044598,,,,,,,,22,20,Vrouw,Rechts,2,
,dotcolour,dotcolour,xotask,43,1,103,403,training,positivefb,90,hard,45,0.6834180999994715,['c'],1,left,['3'],4,0.2282576000006884,,,,,,,,22,20,Vrouw,Rechts,2,
,dotcolour,dotcolour,xotask,44,1,104,404,training,positivefb,92,easy,16,0.8171810000003461,['n'],1,right,['2'],5,0.22732649999943533,,,,,,,,22,20,Vrouw,Rechts,2,
,dotcolour,dotcolour,xotask,45,1,105,405,training,positivefb,88,easy,17,0.6501207000001159,['n'],1,right,['2'],5,0.23343430000022636,,,,,,,,22,20,Vrouw,Rechts,2,
,dotcolour,dotcolour,xotask,46,1,106,406,training,positivefb,96,hard,43,0.6500075000003562,['c'],1,left,['2'],5,3.19842189999963,,,,,,,,22,20,Vrouw,Rechts,2,
,dotcolour,dotcolour,xotask,47,1,107,407,training,positivefb,96,easy,63,0.6013452999995934,['c'],1,left,['2'],5,0.47795570000016596,,,,,,,,22,20,Vrouw,Rechts,2,
,dotcolour,dotcolour,xotask,48,1,108,408,training,positivefb,95,hard,39,0.7991695000000618,['n'],1,right,['3'],4,0.15560270000059973,,,,,,,,22,20,Vrouw,Rechts,2,
,dotcolour,dotcolour,xotask,49,1,109,409,training,positivefb,96,average,29,0.8004681000002165,['n'],1,right,['3'],4,0.26120240000000194,,,,,,,,22,20,Vrouw,Rechts,2,
,dotcolour,dotcolour,xotask,50,1,110,410,training,positivefb,92,easy,63,0.5340377000002263,['c'],1,left,['2'],5,0.17424690000007104,,,,,,,,22,20,Vrouw,Rechts,2,
,dotcolour,dotcolour,xotask,51,1,111,411,training,positivefb,98,average,26,0.6672026999995069,['n'],1,right,['2'],5,0.18887480000012147,,,,,,,,22,20,Vrouw,Rechts,2,
,dotcolour,dotcolour,xotask,52,1,112,412,training,positivefb,97,average,55,0.4821972999998252,['c'],1,left,['2'],5,0.2103518999992957,,,,,,,,22,20,Vrouw,Rechts,2,
,dotcolour,dotcolour,xotask,53,1,113,413,training,positivefb,83,average,27,0.6675751000002492,['n'],1,right,['2'],5,0.19130240000049525,,,,,,,,22,20,Vrouw,Rechts,2,
,dotcolour,dotcolour,xotask,54,1,114,414,training,positivefb,84,hard,43,0.5997654000002512,['c'],1,left,['2'],5,0.2003168999999616,,,,,,,,22,20,Vrouw,Rechts,2,
,dotcolour,dotcolour,xotask,55,1,115,415,training,positivefb,100,easy,19,0.6329150000001391,['n'],1,right,['2'],5,3.7988902999995844,,,,,,,,22,20,Vrouw,Rechts,2,
,dotcolour,dotcolour,xotask,56,1,116,416,training,positivefb,90,easy,17,0.5332171000000017,['n'],1,right,['2'],5,0.16084140000020852,,,,,,,,22,20,Vrouw,Rechts,2,
,dotcolour,dotcolour,xotask,57,1,117,417,training,positivefb,83,hard,38,0.7157696000003853,['n'],1,right,['3'],4,0.18248210000001563,,,,,,,,22,20,Vrouw,Rechts,2,
,dotcolour,dotcolour,xotask,58,1,118,418,training,positivefb,95,hard,44,0.9166095999999015,['c'],1,left,['3'],4,0.22636289999991277,,,,,,,,22,20,Vrouw,Rechts,2,
,dotcolour,dotcolour,xotask,59,1,119,419,training,positivefb,96,average,55,0.7994349999999031,['c'],1,left,['3'],4,0.20957290000023931,,,,,,,,22,20,Vrouw,Rechts,2,
,dotcolour,dotcolour,xotask,0,2,120,420,main,positivefb,-99,hard,35,0.933911199999784,['n'],1,right,['3'],4,0.23734690000037517,,,,,,,,22,20,Vrouw,Rechts,2,
,dotcolour,dotcolour,xotask,1,2,121,421,main,positivefb,-99,hard,42,0.6005099000003611,['c'],1,left,['3'],4,0.1959993000000395,,,,,,,,22,20,Vrouw,Rechts,2,
,dotcolour,dotcolour,xotask,2,2,122,422,main,positivefb,-99,average,27,0.4833701999996265,['n'],1,right,['2'],5,0.29797879999932775,,,,,,,,22,20,Vrouw,Rechts,2,
,dotcolour,dotcolour,xotask,3,2,123,423,main,positivefb,-99,hard,41,0.800978600000235,['c'],1,left,['3'],4,0.23262769999928423,,,,,,,,22,20,Vrouw,Rechts,2,
,dotcolour,dotcolour,xotask,4,2,124,424,main,positivefb,-99,average,29,0.6507997999997315,['n'],1,right,['3'],4,0.2928492000000915,,,,,,,,22,20,Vrouw,Rechts,2,
,dotcolour,dotcolour,xotask,5,2,125,425,main,positivefb,-99,hard,38,0.5508992999994007,['n'],1,right,['2'],5,0.18004569999993691,,,,,,,,22,20,Vrouw,Rechts,2,
,dotcolour,dotcolour,xotask,6,2,126,426,main,positivefb,-99,hard,41,0.6173040000003311,['c'],1,left,['3'],4,0.26987610000014683,,,,,,,,22,20,Vrouw,Rechts,2,
,dotcolour,dotcolour,xotask,7,2,127,427,main,positivefb,-99,easy,64,0.5834004999996978,['c'],1,left,['2'],5,0.22906520000015007,,,,,,,,22,20,Vrouw,Rechts,2,
,dotcolour,dotcolour,xotask,8,2,128,428,main,positivefb,-99,easy,16,0.5685691999997289,['n'],1,right,['2'],5,0.22232609999991837,,,,,,,,22,20,Vrouw,Rechts,2,
,dotcolour,dotcolour,xotask,9,2,129,429,main,positivefb,-99,hard,37,0.9508415000000241,['n'],1,right,['2'],5,0.2636345999999321,,,,,,,,22,20,Vrouw,Rechts,2,
,dotcolour,dotcolour,xotask,10,2,130,430,main,positivefb,-99,average,29,0.8504523999999947,['n'],1,right,['2'],5,0.30875190000006114,,,,,,,,22,20,Vrouw,Rechts,2,
,dotcolour,dotcolour,xotask,11,2,131,431,main,positivefb,-99,easy,65,0.6509270000005927,['c'],1,left,['2'],5,0.24805690000084724,,,,,,,,22,20,Vrouw,Rechts,2,
,dotcolour,dotcolour,xotask,12,2,132,432,main,positivefb,-99,hard,35,0.7337960000004387,['n'],1,right,['2'],5,0.3696259000007558,,,,,,,,22,20,Vrouw,Rechts,2,
,dotcolour,dotcolour,xotask,13,2,133,433,main,positivefb,-99,average,53,0.45202619999963645,['c'],1,left,['2'],5,0.32108920000064245,,,,,,,,22,20,Vrouw,Rechts,2,
,dotcolour,dotcolour,xotask,14,2,134,434,main,positivefb,-99,hard,44,0.6006260000003749,['c'],1,left,['3'],4,0.28606440000021394,,,,,,,,22,20,Vrouw,Rechts,2,
,dotcolour,dotcolour,xotask,15,2,135,435,main,positivefb,-99,average,51,0.5173114999997779,['c'],1,left,['2'],5,0.2697727999993731,,,,,,,,22,20,Vrouw,Rechts,2,
,dotcolour,dotcolour,xotask,16,2,136,436,main,positivefb,-99,easy,65,0.6169933000001038,['c'],1,left,['1'],6,0.331123199999638,,,,,,,,22,20,Vrouw,Rechts,2,
,dotcolour,dotcolour,xotask,17,2,137,437,main,positivefb,-99,hard,45,0.8002135000006092,['c'],1,left,['3'],4,0.2959862999996403,,,,,,,,22,20,Vrouw,Rechts,2,
,dotcolour,dotcolour,xotask,18,2,138,438,main,positivefb,-99,easy,17,0.5169959999993807,['n'],1,right,['3'],4,0.33729889999995066,,,,,,,,22,20,Vrouw,Rechts,2,
,dotcolour,dotcolour,xotask,19,2,139,439,main,positivefb,-99,hard,44,0.4509005999998408,['c'],1,left,['3'],4,0.2977616999996826,,,,,,,,22,20,Vrouw,Rechts,2,
,dotcolour,dotcolour,xotask,20,2,140,440,main,positivefb,-99,average,52,0.533408799999961,['c'],1,left,['2'],5,0.29010070000003907,,,,,,,,22,20,Vrouw,Rechts,2,
,dotcolour,dotcolour,xotask,21,2,141,441,main,positivefb,-99,hard,37,0.5342515000002095,['n'],1,right,['3'],4,0.28917009999986476,,,,,,,,22,20,Vrouw,Rechts,2,
,dotcolour,dotcolour,xotask,22,2,142,442,main,positivefb,-99,average,26,0.5501983999993172,['n'],1,right,['3'],4,0.337402000000111,,,,,,,,22,20,Vrouw,Rechts,2,
,dotcolour,dotcolour,xotask,23,2,143,443,main,positivefb,-99,hard,35,0.8005743999992774,['n'],1,right,['3'],4,0.2925325000005614,,,,,,,,22,20,Vrouw,Rechts,2,
,dotcolour,dotcolour,xotask,24,2,144,444,main,positivefb,-99,easy,62,0.6177840999998807,['c'],1,left,['2'],5,0.31379649999962567,,,,,,,,22,20,Vrouw,Rechts,2,
,dotcolour,dotcolour,xotask,25,2,145,445,main,positivefb,-99,average,29,0.49998450000020966,['n'],1,right,['3'],4,0.2823785000000498,,,,,,,,22,20,Vrouw,Rechts,2,
,dotcolour,dotcolour,xotask,26,2,146,446,main,positivefb,-99,average,26,0.6003167999997459,['n'],1,right,['3'],4,0.3111859999999069,,,,,,,,22,20,Vrouw,Rechts,2,
,dotcolour,dotcolour,xotask,27,2,147,447,main,positivefb,-99,easy,65,0.5348000000003594,['c'],1,left,['2'],5,0.3263884000007238,,,,,,,,22,20,Vrouw,Rechts,2,
,dotcolour,dotcolour,xotask,28,2,148,448,main,positivefb,-99,hard,39,0.5340677999993204,['n'],1,right,['3'],4,0.3412750999996206,,,,,,,,22,20,Vrouw,Rechts,2,
,dotcolour,dotcolour,xotask,29,2,149,449,main,positivefb,-99,easy,19,0.5512911999994685,['n'],1,right,['2'],5,0.3388499000002412,,,,,,,,22,20,Vrouw,Rechts,2,
,dotcolour,dotcolour,xotask,30,2,150,450,main,positivefb,-99,average,51,0.5507842999995773,['c'],1,left,['3'],4,0.35944280000057915,,,,,,,,22,20,Vrouw,Rechts,2,
,dotcolour,dotcolour,xotask,31,2,151,451,main,positivefb,-99,average,26,0.4499833999998373,['n'],1,right,['2'],5,0.32933890000003885,,,,,,,,22,20,Vrouw,Rechts,2,
,dotcolour,dotcolour,xotask,32,2,152,452,main,positivefb,-99,average,54,0.46752359999936743,['c'],1,left,['2'],5,0.33063099999981205,,,,,,,,22,20,Vrouw,Rechts,2,
,dotcolour,dotcolour,xotask,33,2,153,453,main,positivefb,-99,easy,15,0.43362249999972846,['n'],1,right,['1'],6,0.30063200000040524,,,,,,,,22,20,Vrouw,Rechts,2,
,dotcolour,dotcolour,xotask,34,2,154,454,main,positivefb,-99,easy,63,0.48368529999970633,['c'],1,left,['2'],5,0.390397899999698,,,,,,,,22,20,Vrouw,Rechts,2,
,dotcolour,dotcolour,xotask,35,2,155,455,main,positivefb,-99,easy,61,0.5503257999998823,['c'],1,left,['2'],5,0.3217674999996234,,,,,,,,22,20,Vrouw,Rechts,2,
,dotcolour,dotcolour,xotask,36,2,156,456,main,positivefb,-99,hard,44,0.41764510000029986,['c'],1,left,['2'],5,0.5087844999998197,,,,,,,,22,20,Vrouw,Rechts,2,
,dotcolour,dotcolour,xotask,37,2,157,457,main,positivefb,-99,hard,39,0.4503752999999051,['c'],0,right,['8'],3,0.7595540000002075,,,,,,,,22,20,Vrouw,Rechts,2,
,dotcolour,dotcolour,xotask,38,2,158,458,main,positivefb,-99,average,29,0.5518963999993503,['n'],1,right,['2'],5,0.3077909000003274,,,,,,,,22,20,Vrouw,Rechts,2,
,dotcolour,dotcolour,xotask,39,2,159,459,main,positivefb,-99,hard,42,1.1349425999997038,['n'],0,left,['3'],4,0.7146963000004689,,,,,,,,22,20,Vrouw,Rechts,2,
,dotcolour,dotcolour,xotask,40,2,160,460,main,positivefb,-99,easy,65,0.7171484000000419,['c'],1,left,['2'],5,0.21911329999966256,,,,,,,,22,20,Vrouw,Rechts,2,
,dotcolour,dotcolour,xotask,41,2,161,461,main,positivefb,-99,easy,19,0.41759579999961716,['n'],1,right,['2'],5,0.2584196999996493,,,,,,,,22,20,Vrouw,Rechts,2,
,dotcolour,dotcolour,xotask,42,2,162,462,main,positivefb,-99,average,54,0.5518331000002945,['c'],1,left,['2'],5,0.26734789999954955,,,,,,,,22,20,Vrouw,Rechts,2,
,dotcolour,dotcolour,xotask,43,2,163,463,main,positivefb,-99,average,53,0.40141640000001644,['c'],1,left,['2'],5,0.3774493999999322,,,,,,,,22,20,Vrouw,Rechts,2,
,dotcolour,dotcolour,xotask,44,2,164,464,main,positivefb,-99,average,52,0.7184321000004275,['n'],0,left,['3'],4,0.3750956000003498,,,,,,,,22,20,Vrouw,Rechts,2,
,dotcolour,dotcolour,xotask,45,2,165,465,main,positivefb,-99,hard,36,0.7675429000000804,['n'],1,right,['2'],5,0.3774792999993224,,,,,,,,22,20,Vrouw,Rechts,2,
,dotcolour,dotcolour,xotask,46,2,166,466,main,positivefb,-99,hard,37,0.6007159999999203,['n'],1,right,['2'],5,0.3235733999999866,,,,,,,,22,20,Vrouw,Rechts,2,
,dotcolour,dotcolour,xotask,47,2,167,467,main,positivefb,-99,easy,18,0.5003074000005654,['n'],1,right,['2'],5,0.35536839999986114,,,,,,,,22,20,Vrouw,Rechts,2,
,dotcolour,dotcolour,xotask,48,2,168,468,main,positivefb,-99,easy,64,0.5680177999993248,['c'],1,left,['2'],5,0.32784799999990355,,,,,,,,22,20,Vrouw,Rechts,2,
,dotcolour,dotcolour,xotask,49,2,169,469,main,positivefb,-99,average,29,0.5505795999997645,['n'],1,right,['3'],4,0.3506442000007155,,,,,,,,22,20,Vrouw,Rechts,2,
,dotcolour,dotcolour,xotask,50,2,170,470,main,positivefb,-99,hard,43,1.4174480000001495,['c'],1,left,['3'],4,0.2882283999997526,,,,,,,,22,20,Vrouw,Rechts,2,
,dotcolour,dotcolour,xotask,51,2,171,471,main,positivefb,-99,average,29,0.5171051000006628,['n'],1,right,['2'],5,0.35348830000020826,,,,,,,,22,20,Vrouw,Rechts,2,
,dotcolour,dotcolour,xotask,52,2,172,472,main,positivefb,-99,average,53,0.6005775000003268,['c'],1,left,['3'],4,0.3469025000003967,,,,,,,,22,20,Vrouw,Rechts,2,
,dotcolour,dotcolour,xotask,53,2,173,473,main,positivefb,-99,easy,65,0.5009553999998388,['c'],1,left,['2'],5,0.37062969999988127,,,,,,,,22,20,Vrouw,Rechts,2,
,dotcolour,dotcolour,xotask,54,2,174,474,main,positivefb,-99,easy,17,0.3678003999993962,['n'],1,right,['2'],5,0.3342832999996972,,,,,,,,22,20,Vrouw,Rechts,2,
,dotcolour,dotcolour,xotask,55,2,175,475,main,positivefb,-99,easy,15,0.36703699999998207,['n'],1,right,['2'],5,0.36336839999967196,,,,,,,,22,20,Vrouw,Rechts,2,
,dotcolour,dotcolour,xotask,56,2,176,476,main,positivefb,-99,easy,16,0.5174634000004517,['n'],1,right,['1'],6,0.3607996999999159,,,,,,,,22,20,Vrouw,Rechts,2,
,dotcolour,dotcolour,xotask,57,2,177,477,main,positivefb,-99,average,54,0.45125240000015765,['c'],1,left,['2'],5,0.329877199999828,,,,,,,,22,20,Vrouw,Rechts,2,
,dotcolour,dotcolour,xotask,58,2,178,478,main,positivefb,-99,hard,43,1.2344285999997737,['c'],1,left,['3'],4,0.32448610000028566,,,,,,,,22,20,Vrouw,Rechts,2,
,dotcolour,dotcolour,xotask,59,2,179,479,main,positivefb,-99,easy,18,0.5180644000001848,['n'],1,right,['2'],5,0.3806883999995989,,,,,,,,22,20,Vrouw,Rechts,2,
,dotcolour,dotcolour,xotask,0,3,180,480,main,positivefb,-99,average,52,0.7494373999998061,['c'],1,left,['2'],5,0.4002897000000303,,,,,,,,22,20,Vrouw,Rechts,2,
,dotcolour,dotcolour,xotask,1,3,181,481,main,positivefb,-99,easy,63,0.5840723000001162,['c'],1,left,['2'],5,0.32930750000014086,,,,,,,,22,20,Vrouw,Rechts,2,
,dotcolour,dotcolour,xotask,2,3,182,482,main,positivefb,-99,easy,62,0.41677400000025955,['c'],1,left,['2'],5,0.3486542999999074,,,,,,,,22,20,Vrouw,Rechts,2,
,dotcolour,dotcolour,xotask,3,3,183,483,main,positivefb,-99,hard,39,0.8181205999999293,['n'],1,right,['3'],4,0.3436697999995886,,,,,,,,22,20,Vrouw,Rechts,2,
,dotcolour,dotcolour,xotask,4,3,184,484,main,positivefb,-99,average,55,0.5001448999992135,['c'],1,left,['3'],4,0.34239960000013525,,,,,,,,22,20,Vrouw,Rechts,2,
,dotcolour,dotcolour,xotask,5,3,185,485,main,positivefb,-99,hard,39,0.616985200000272,['n'],1,right,['3'],4,0.3131114999996498,,,,,,,,22,20,Vrouw,Rechts,2,
,dotcolour,dotcolour,xotask,6,3,186,486,main,positivefb,-99,average,53,0.4842737999997553,['c'],1,left,['3'],4,0.39504159999978583,,,,,,,,22,20,Vrouw,Rechts,2,
,dotcolour,dotcolour,xotask,7,3,187,487,main,positivefb,-99,average,29,0.45105229999990115,['n'],1,right,['2'],5,0.4022885000003953,,,,,,,,22,20,Vrouw,Rechts,2,
,dotcolour,dotcolour,xotask,8,3,188,488,main,positivefb,-99,average,52,0.5992226999997001,['c'],1,left,['3'],4,0.3796359999996639,,,,,,,,22,20,Vrouw,Rechts,2,
,dotcolour,dotcolour,xotask,9,3,189,489,main,positivefb,-99,easy,18,0.5001857000006567,['n'],1,right,['3'],4,0.39251490000060585,,,,,,,,22,20,Vrouw,Rechts,2,
,dotcolour,dotcolour,xotask,10,3,190,490,main,positivefb,-99,hard,39,1.1012935999997353,['n'],1,right,['3'],4,0.38183810000009544,,,,,,,,22,20,Vrouw,Rechts,2,
,dotcolour,dotcolour,xotask,11,3,191,491,main,positivefb,-99,average,51,0.4674917000002097,['c'],1,left,['3'],4,0.38103229999978794,,,,,,,,22,20,Vrouw,Rechts,2,
,dotcolour,dotcolour,xotask,12,3,192,492,main,positivefb,-99,easy,15,0.41771309999967343,['n'],1,right,['2'],5,0.3657978999999614,,,,,,,,22,20,Vrouw,Rechts,2,
,dotcolour,dotcolour,xotask,13,3,193,493,main,positivefb,-99,hard,45,0.567812799999956,['c'],1,left,['8'],3,0.7131233999998585,,,,,,,,22,20,Vrouw,Rechts,2,
,dotcolour,dotcolour,xotask,14,3,194,494,main,positivefb,-99,hard,44,0.9840589000004911,['n'],0,left,['3'],4,0.43137560000013764,,,,,,,,22,20,Vrouw,Rechts,2,
,dotcolour,dotcolour,xotask,15,3,195,495,main,positivefb,-99,easy,17,0.6508983000003354,['n'],1,right,['2'],5,0.3489251000000877,,,,,,,,22,20,Vrouw,Rechts,2,
,dotcolour,dotcolour,xotask,16,3,196,496,main,positivefb,-99,average,26,0.6004386999993585,['n'],1,right,['2'],5,0.34315260000039416,,,,,,,,22,20,Vrouw,Rechts,2,
,dotcolour,dotcolour,xotask,17,3,197,497,main,positivefb,-99,easy,61,0.5178263999996489,['c'],1,left,['2'],5,0.35831299999972543,,,,,,,,22,20,Vrouw,Rechts,2,
,dotcolour,dotcolour,xotask,18,3,198,498,main,positivefb,-99,average,53,0.3678282999999283,['c'],1,left,['3'],4,0.41823220000060246,,,,,,,,22,20,Vrouw,Rechts,2,
,dotcolour,dotcolour,xotask,19,3,199,499,main,positivefb,-99,average,27,0.48358290000032866,['n'],1,right,['3'],4,0.42325479999999516,,,,,,,,22,20,Vrouw,Rechts,2,
,dotcolour,dotcolour,xotask,20,3,200,500,main,positivefb,-99,hard,39,0.6671217000002798,['n'],1,right,['3'],4,0.4043664999999237,,,,,,,,22,20,Vrouw,Rechts,2,
,dotcolour,dotcolour,xotask,21,3,201,501,main,positivefb,-99,hard,42,0.6506569000002855,['c'],1,left,['3'],4,0.38785600000028353,,,,,,,,22,20,Vrouw,Rechts,2,
,dotcolour,dotcolour,xotask,22,3,202,502,main,positivefb,-99,easy,17,0.6175290999999561,['n'],1,right,['2'],5,0.33213810000052035,,,,,,,,22,20,Vrouw,Rechts,2,
,dotcolour,dotcolour,xotask,23,3,203,503,main,positivefb,-99,hard,44,0.6177967999992688,['c'],1,left,['8'],3,0.47093920000043,,,,,,,,22,20,Vrouw,Rechts,2,
,dotcolour,dotcolour,xotask,24,3,204,504,main,positivefb,-99,easy,61,0.7679017000000385,['c'],1,left,['3'],4,0.35031849999995757,,,,,,,,22,20,Vrouw,Rechts,2,
,dotcolour,dotcolour,xotask,25,3,205,505,main,positivefb,-99,hard,36,0.5671093000000837,['n'],1,right,['3'],4,0.4096111999997447,,,,,,,,22,20,Vrouw,Rechts,2,
,dotcolour,dotcolour,xotask,26,3,206,506,main,positivefb,-99,hard,43,0.6849856999997428,['c'],1,left,['3'],4,0.35187689999929717,,,,,,,,22,20,Vrouw,Rechts,2,
,dotcolour,dotcolour,xotask,27,3,207,507,main,positivefb,-99,average,26,0.5181653000008737,['n'],1,right,['2'],5,0.4134343000005174,,,,,,,,22,20,Vrouw,Rechts,2,
,dotcolour,dotcolour,xotask,28,3,208,508,main,positivefb,-99,easy,62,0.4842237999991994,['c'],1,left,['3'],4,0.4106188999994629,,,,,,,,22,20,Vrouw,Rechts,2,
,dotcolour,dotcolour,xotask,29,3,209,509,main,positivefb,-99,hard,35,0.4677439000006416,['c'],0,right,['3'],4,0.43333030000030703,,,,,,,,22,20,Vrouw,Rechts,2,
,dotcolour,dotcolour,xotask,30,3,210,510,main,positivefb,-99,average,52,0.6335137999994913,['c'],1,left,['2'],5,0.4550884000000224,,,,,,,,22,20,Vrouw,Rechts,2,
,dotcolour,dotcolour,xotask,31,3,211,511,main,positivefb,-99,average,26,0.5182635999999547,['n'],1,right,['2'],5,0.3930291999995461,,,,,,,,22,20,Vrouw,Rechts,2,
,dotcolour,dotcolour,xotask,32,3,212,512,main,positivefb,-99,average,25,0.5007962999998199,['n'],1,right,['2'],5,0.39069539999945846,,,,,,,,22,20,Vrouw,Rechts,2,
,dotcolour,dotcolour,xotask,33,3,213,513,main,positivefb,-99,easy,64,0.5342250999992757,['c'],1,left,['2'],5,0.4104798000007577,,,,,,,,22,20,Vrouw,Rechts,2,
,dotcolour,dotcolour,xotask,34,3,214,514,main,positivefb,-99,hard,42,0.5008514000001014,['c'],1,left,['3'],4,0.438691899999867,,,,,,,,22,20,Vrouw,Rechts,2,
,dotcolour,dotcolour,xotask,35,3,215,515,main,positivefb,-99,hard,36,0.6511573000007047,['n'],1,right,['3'],4,0.4207008000003043,,,,,,,,22,20,Vrouw,Rechts,2,
,dotcolour,dotcolour,xotask,36,3,216,516,main,positivefb,-99,hard,43,0.6508502000006047,['n'],0,left,['3'],4,0.4188081999991482,,,,,,,,22,20,Vrouw,Rechts,2,
,dotcolour,dotcolour,xotask,37,3,217,517,main,positivefb,-99,easy,62,0.5847371999998359,['c'],1,left,['1'],6,0.4266382000005251,,,,,,,,22,20,Vrouw,Rechts,2,
,dotcolour,dotcolour,xotask,38,3,218,518,main,positivefb,-99,easy,17,0.5163264000002528,['n'],1,right,['2'],5,0.5342189000002691,,,,,,,,22,20,Vrouw,Rechts,2,
,dotcolour,dotcolour,xotask,39,3,219,519,main,positivefb,-99,hard,35,0.8335776000003534,['n'],1,right,['3'],4,0.40103069999986474,,,,,,,,22,20,Vrouw,Rechts,2,
,dotcolour,dotcolour,xotask,40,3,220,520,main,positivefb,-99,hard,38,0.5506581000008737,['c'],0,right,['8'],3,0.7871638000005987,,,,,,,,22,20,Vrouw,Rechts,2,
,dotcolour,dotcolour,xotask,41,3,221,521,main,positivefb,-99,average,51,0.5343036999993274,['c'],1,left,['3'],4,0.4307914000000892,,,,,,,,22,20,Vrouw,Rechts,2,
,dotcolour,dotcolour,xotask,42,3,222,522,main,positivefb,-99,average,29,0.5178593000000546,['n'],1,right,['3'],4,0.3622088000001895,,,,,,,,22,20,Vrouw,Rechts,2,
,dotcolour,dotcolour,xotask,43,3,223,523,main,positivefb,-99,average,52,0.5515427000000273,['c'],1,left,['3'],4,0.3516122000000905,,,,,,,,22,20,Vrouw,Rechts,2,
,dotcolour,dotcolour,xotask,44,3,224,524,main,positivefb,-99,average,26,0.5004046000003655,['n'],1,right,['2'],5,0.3106607999998232,,,,,,,,22,20,Vrouw,Rechts,2,
,dotcolour,dotcolour,xotask,45,3,225,525,main,positivefb,-99,hard,43,0.5681227000004583,['c'],1,left,['2'],5,0.4043461999999636,,,,,,,,22,20,Vrouw,Rechts,2,
,dotcolour,dotcolour,xotask,46,3,226,526,main,positivefb,-99,easy,64,0.5171957000002294,['c'],1,left,['1'],6,0.38502990000051796,,,,,,,,22,20,Vrouw,Rechts,2,
,dotcolour,dotcolour,xotask,47,3,227,527,main,positivefb,-99,easy,19,0.5839890999995987,['n'],1,right,['1'],6,0.3699173000004521,,,,,,,,22,20,Vrouw,Rechts,2,
,dotcolour,dotcolour,xotask,48,3,228,528,main,positivefb,-99,average,28,0.7334060999992289,['n'],1,right,['3'],4,0.2951210999999603,,,,,,,,22,20,Vrouw,Rechts,2,
,dotcolour,dotcolour,xotask,49,3,229,529,main,positivefb,-99,average,28,0.7340707000003022,['n'],1,right,['2'],5,0.4309693999994124,,,,,,,,22,20,Vrouw,Rechts,2,
,dotcolour,dotcolour,xotask,50,3,230,530,main,positivefb,-99,easy,19,0.41717249999965134,['n'],1,right,['2'],5,0.38292920000003505,,,,,,,,22,20,Vrouw,Rechts,2,
,dotcolour,dotcolour,xotask,51,3,231,531,main,positivefb,-99,easy,17,0.451552300000003,['n'],1,right,['2'],5,0.3821100999994087,,,,,,,,22,20,Vrouw,Rechts,2,
,dotcolour,dotcolour,xotask,52,3,232,532,main,positivefb,-99,average,54,0.5837891000001036,['c'],1,left,['3'],4,0.3514576000006855,,,,,,,,22,20,Vrouw,Rechts,2,
,dotcolour,dotcolour,xotask,53,3,233,533,main,positivefb,-99,hard,44,0.8173752000002423,['n'],0,left,['3'],4,0.4174190000003364,,,,,,,,22,20,Vrouw,Rechts,2,
,dotcolour,dotcolour,xotask,54,3,234,534,main,positivefb,-99,easy,65,0.5342111999998451,['c'],1,left,['2'],5,0.3805228999999599,,,,,,,,22,20,Vrouw,Rechts,2,
,dotcolour,dotcolour,xotask,55,3,235,535,main,positivefb,-99,easy,61,0.4179234999992332,['c'],1,left,['2'],5,0.3659883999998783,,,,,,,,22,20,Vrouw,Rechts,2,
,dotcolour,dotcolour,xotask,56,3,236,536,main,positivefb,-99,hard,44,0.3668481000004249,['c'],1,left,['2'],5,0.47324159999971016,,,,,,,,22,20,Vrouw,Rechts,2,
,dotcolour,dotcolour,xotask,57,3,237,537,main,positivefb,-99,hard,36,0.45070250000026135,['n'],1,right,['3'],4,0.525331300000289,,,,,,,,22,20,Vrouw,Rechts,2,
,dotcolour,dotcolour,xotask,58,3,238,538,main,positivefb,-99,easy,18,0.4014239999996789,['n'],1,right,['2'],5,0.33681389999946987,,,,,,,,22,20,Vrouw,Rechts,2,
,dotcolour,dotcolour,xotask,59,3,239,539,main,positivefb,-99,easy,19,0.30132179999964137,['n'],1,right,['2'],5,0.41672529999959806,,,,,,,,22,20,Vrouw,Rechts,2,
,dotcolour,dotcolour,xotask,0,4,240,540,main,positivefb,-99,easy,62,0.8000919000005524,['c'],1,left,['3'],4,0.38652450000063254,,,,,,,,22,20,Vrouw,Rechts,2,
,dotcolour,dotcolour,xotask,1,4,241,541,main,positivefb,-99,average,53,0.584156100000655,['c'],1,left,['3'],4,0.3074861000004603,,,,,,,,22,20,Vrouw,Rechts,2,
,dotcolour,dotcolour,xotask,2,4,242,542,main,positivefb,-99,average,25,0.41802559999996447,['n'],1,right,['2'],5,0.36076430000048276,,,,,,,,22,20,Vrouw,Rechts,2,
,dotcolour,dotcolour,xotask,3,4,243,543,main,positivefb,-99,hard,37,1.0167698000004748,['n'],1,right,['3'],4,0.25073239999983343,,,,,,,,22,20,Vrouw,Rechts,2,
,dotcolour,dotcolour,xotask,4,4,244,544,main,positivefb,-99,easy,64,0.584492500000124,['c'],1,left,['3'],4,0.3457637999999861,,,,,,,,22,20,Vrouw,Rechts,2,
,dotcolour,dotcolour,xotask,5,4,245,545,main,positivefb,-99,easy,17,0.43358660000012605,['c'],0,right,['8'],3,0.7157949000002191,,,,,,,,22,20,Vrouw,Rechts,2,
,dotcolour,dotcolour,xotask,6,4,246,546,main,positivefb,-99,hard,41,1.0511225999998715,['n'],0,left,['3'],4,0.32573540000066714,,,,,,,,22,20,Vrouw,Rechts,2,
,dotcolour,dotcolour,xotask,7,4,247,547,main,positivefb,-99,average,54,0.7006926999993084,['c'],1,left,['3'],4,0.3250404000000344,,,,,,,,22,20,Vrouw,Rechts,2,
,dotcolour,dotcolour,xotask,8,4,248,548,main,positivefb,-99,hard,37,0.7335745000000315,['n'],1,right,['3'],4,0.3487192000002324,,,,,,,,22,20,Vrouw,Rechts,2,
,dotcolour,dotcolour,xotask,9,4,249,549,main,positivefb,-99,easy,16,0.4843989999999394,['n'],1,right,['2'],5,0.3803454999997484,,,,,,,,22,20,Vrouw,Rechts,2,
,dotcolour,dotcolour,xotask,10,4,250,550,main,positivefb,-99,easy,65,0.46795469999960915,['c'],1,left,['1'],6,0.4122072999998636,,,,,,,,22,20,Vrouw,Rechts,2,
,dotcolour,dotcolour,xotask,11,4,251,551,main,positivefb,-99,easy,65,0.40036439999948925,['n'],0,left,['2'],5,0.500879399999576,,,,,,,,22,20,Vrouw,Rechts,2,
,dotcolour,dotcolour,xotask,12,4,252,552,main,positivefb,-99,hard,36,1.2175140999997893,['n'],1,right,['3'],4,0.4724925999998959,,,,,,,,22,20,Vrouw,Rechts,2,
,dotcolour,dotcolour,xotask,13,4,253,553,main,positivefb,-99,hard,43,1.1337555000000066,['c'],1,left,['3'],4,0.3770254000000932,,,,,,,,22,20,Vrouw,Rechts,2,
,dotcolour,dotcolour,xotask,14,4,254,554,main,positivefb,-99,easy,15,0.56721589999961,['n'],1,right,['2'],5,0.8685854999994262,,,,,,,,22,20,Vrouw,Rechts,2,
,dotcolour,dotcolour,xotask,15,4,255,555,main,positivefb,-99,average,25,0.5177524000000631,['n'],1,right,['2'],5,0.43035499999950844,,,,,,,,22,20,Vrouw,Rechts,2,
,dotcolour,dotcolour,xotask,16,4,256,556,main,positivefb,-99,easy,61,0.4842770000004748,['c'],1,left,['2'],5,0.4182371000006242,,,,,,,,22,20,Vrouw,Rechts,2,
,dotcolour,dotcolour,xotask,17,4,257,557,main,positivefb,-99,easy,17,0.4172709999993458,['n'],1,right,['2'],5,0.4024227999998402,,,,,,,,22,20,Vrouw,Rechts,2,
,dotcolour,dotcolour,xotask,18,4,258,558,main,positivefb,-99,hard,43,0.46651459999975486,['c'],1,left,['3'],4,0.44803350000074715,,,,,,,,22,20,Vrouw,Rechts,2,
,dotcolour,dotcolour,xotask,19,4,259,559,main,positivefb,-99,average,52,0.7836896000007982,['c'],1,left,['3'],4,0.4878095000003668,,,,,,,,22,20,Vrouw,Rechts,2,
,dotcolour,dotcolour,xotask,20,4,260,560,main,positivefb,-99,hard,38,0.483871999999792,['n'],1,right,['3'],4,0.4257122999997591,,,,,,,,22,20,Vrouw,Rechts,2,
,dotcolour,dotcolour,xotask,21,4,261,561,main,positivefb,-99,easy,17,0.4843039999996108,['n'],1,right,['2'],5,0.45464820000051986,,,,,,,,22,20,Vrouw,Rechts,2,
,dotcolour,dotcolour,xotask,22,4,262,562,main,positivefb,-99,average,54,0.5516393000007156,['n'],0,left,['8'],3,0.6156533000003037,,,,,,,,22,20,Vrouw,Rechts,2,
,dotcolour,dotcolour,xotask,23,4,263,563,main,positivefb,-99,average,26,0.5181244000004881,['n'],1,right,['3'],4,0.6339015000003201,,,,,,,,22,20,Vrouw,Rechts,2,
,dotcolour,dotcolour,xotask,24,4,264,564,main,positivefb,-99,hard,37,0.650408200000129,['n'],1,right,['3'],4,0.4632268000004842,,,,,,,,22,20,Vrouw,Rechts,2,
,dotcolour,dotcolour,xotask,25,4,265,565,main,positivefb,-99,average,53,0.48393880000003264,['c'],1,left,['3'],4,0.45093420000011974,,,,,,,,22,20,Vrouw,Rechts,2,
,dotcolour,dotcolour,xotask,26,4,266,566,main,positivefb,-99,hard,43,1.4826890000003914,['n'],0,left,['3'],4,0.38244960000065475,,,,,,,,22,20,Vrouw,Rechts,2,
,dotcolour,dotcolour,xotask,27,4,267,567,main,positivefb,-99,easy,61,0.36639389999982086,['c'],1,left,['2'],5,0.42459149999922374,,,,,,,,22,20,Vrouw,Rechts,2,
,dotcolour,dotcolour,xotask,28,4,268,568,main,positivefb,-99,hard,41,0.40114770000036515,['c'],1,left,['3'],4,0.5214855000003809,,,,,,,,22,20,Vrouw,Rechts,2,
,dotcolour,dotcolour,xotask,29,4,269,569,main,positivefb,-99,easy,18,0.6013179000001401,['n'],1,right,['2'],5,0.43716000000040367,,,,,,,,22,20,Vrouw,Rechts,2,
,dotcolour,dotcolour,xotask,30,4,270,570,main,positivefb,-99,easy,18,0.5008030999997573,['n'],1,right,['2'],5,0.4403626000002987,,,,,,,,22,20,Vrouw,Rechts,2,
,dotcolour,dotcolour,xotask,31,4,271,571,main,positivefb,-99,average,26,0.3684367000005295,['n'],1,right,['2'],5,0.42492609999953856,,,,,,,,22,20,Vrouw,Rechts,2,
,dotcolour,dotcolour,xotask,32,4,272,572,main,positivefb,-99,hard,35,0.6177238000000216,['n'],1,right,['3'],4,0.41636749999997846,,,,,,,,22,20,Vrouw,Rechts,2,
,dotcolour,dotcolour,xotask,33,4,273,573,main,positivefb,-99,hard,37,0.8167545999995127,['c'],0,right,['3'],4,0.41641379999964556,,,,,,,,22,20,Vrouw,Rechts,2,
,dotcolour,dotcolour,xotask,34,4,274,574,main,positivefb,-99,hard,45,0.6010621000004903,['c'],1,left,['3'],4,0.3755999000004522,,,,,,,,22,20,Vrouw,Rechts,2,
,dotcolour,dotcolour,xotask,35,4,275,575,main,positivefb,-99,average,54,0.5498695999995107,['c'],1,left,['2'],5,0.420089299999745,,,,,,,,22,20,Vrouw,Rechts,2,
,dotcolour,dotcolour,xotask,36,4,276,576,main,positivefb,-99,easy,18,0.5333178000000771,['n'],1,right,['2'],5,0.43161090000012337,,,,,,,,22,20,Vrouw,Rechts,2,
,dotcolour,dotcolour,xotask,37,4,277,577,main,positivefb,-99,hard,37,0.7005446999992273,['n'],1,right,['3'],4,0.5712457999998151,,,,,,,,22,20,Vrouw,Rechts,2,
,dotcolour,dotcolour,xotask,38,4,278,578,main,positivefb,-99,hard,42,0.6167906000000585,['c'],1,left,['3'],4,0.44375680000030115,,,,,,,,22,20,Vrouw,Rechts,2,
,dotcolour,dotcolour,xotask,39,4,279,579,main,positivefb,-99,average,29,0.6342631999996229,['n'],1,right,['3'],4,0.4181537999993452,,,,,,,,22,20,Vrouw,Rechts,2,
,dotcolour,dotcolour,xotask,40,4,280,580,main,positivefb,-99,easy,15,0.43295909999960713,['n'],1,right,['2'],5,0.43256839999958174,,,,,,,,22,20,Vrouw,Rechts,2,
,dotcolour,dotcolour,xotask,41,4,281,581,main,positivefb,-99,hard,44,0.617645100000118,['c'],1,left,['3'],4,0.43151119999947696,,,,,,,,22,20,Vrouw,Rechts,2,
,dotcolour,dotcolour,xotask,42,4,282,582,main,positivefb,-99,hard,45,1.5340457000002061,['c'],1,left,['3'],4,4.570558800000072,,,,,,,,22,20,Vrouw,Rechts,2,
,dotcolour,dotcolour,xotask,43,4,283,583,main,positivefb,-99,hard,45,0.7514093999998295,['n'],0,left,['3'],4,0.21457470000041212,,,,,,,,22,20,Vrouw,Rechts,2,
,dotcolour,dotcolour,xotask,44,4,284,584,main,positivefb,-99,average,25,0.49996589999955177,['n'],1,right,['2'],5,0.29922719999922265,,,,,,,,22,20,Vrouw,Rechts,2,
,dotcolour,dotcolour,xotask,45,4,285,585,main,positivefb,-99,average,26,0.4676746000004641,['n'],1,right,['3'],4,0.29260550000071817,,,,,,,,22,20,Vrouw,Rechts,2,
,dotcolour,dotcolour,xotask,46,4,286,586,main,positivefb,-99,easy,64,0.6511495000004288,['c'],1,left,['3'],4,0.321034999999938,,,,,,,,22,20,Vrouw,Rechts,2,
,dotcolour,dotcolour,xotask,47,4,287,587,main,positivefb,-99,hard,37,0.4840385999996215,['n'],1,right,['3'],4,0.3453441000001476,,,,,,,,22,20,Vrouw,Rechts,2,
,dotcolour,dotcolour,xotask,48,4,288,588,main,positivefb,-99,easy,65,0.7498455999993894,['c'],1,left,['2'],5,0.34298909999961325,,,,,,,,22,20,Vrouw,Rechts,2,
,dotcolour,dotcolour,xotask,49,4,289,589,main,positivefb,-99,average,25,0.46725530000003346,['n'],1,right,['2'],5,0.3113790000006702,,,,,,,,22,20,Vrouw,Rechts,2,
,dotcolour,dotcolour,xotask,50,4,290,590,main,positivefb,-99,hard,38,0.533187199999702,['n'],1,right,['3'],4,0.27860019999934593,,,,,,,,22,20,Vrouw,Rechts,2,
,dotcolour,dotcolour,xotask,51,4,291,591,main,positivefb,-99,average,52,0.4000568999999814,['c'],1,left,['3'],4,0.3804236999994828,,,,,,,,22,20,Vrouw,Rechts,2,
,dotcolour,dotcolour,xotask,52,4,292,592,main,positivefb,-99,easy,63,0.5345882999999958,['c'],1,left,['2'],5,0.3771654000001945,,,,,,,,22,20,Vrouw,Rechts,2,
,dotcolour,dotcolour,xotask,53,4,293,593,main,positivefb,-99,easy,62,0.4173467000000528,['c'],1,left,['2'],5,0.40337559999989026,,,,,,,,22,20,Vrouw,Rechts,2,
,dotcolour,dotcolour,xotask,54,4,294,594,main,positivefb,-99,average,55,0.3999753000007331,['c'],1,left,['2'],5,0.41922510000040347,,,,,,,,22,20,Vrouw,Rechts,2,
,dotcolour,dotcolour,xotask,55,4,295,595,main,positivefb,-99,easy,19,0.33356710000043677,['c'],0,right,['8'],3,0.7583881000000474,,,,,,,,22,20,Vrouw,Rechts,2,
,dotcolour,dotcolour,xotask,56,4,296,596,main,positivefb,-99,average,52,0.934530900000027,['c'],1,left,['3'],4,0.3316374999994878,,,,,,,,22,20,Vrouw,Rechts,2,
,dotcolour,dotcolour,xotask,57,4,297,597,main,positivefb,-99,average,54,0.5343948999998247,['c'],1,left,['2'],5,0.34502840000004653,,,,,,,,22,20,Vrouw,Rechts,2,
,dotcolour,dotcolour,xotask,58,4,298,598,main,positivefb,-99,average,27,0.48410559999956604,['n'],1,right,['2'],5,0.31365980000009586,,,,,,,,22,20,Vrouw,Rechts,2,
,dotcolour,dotcolour,xotask,59,4,299,599,main,positivefb,-99,average,25,0.3842463000000862,['n'],1,right,['3'],4,0.35161019999941345,,,,,,,,22,20,Vrouw,Rechts,2,
,dotcolour,dotcolour,xotask,0,0,0,600,training,positivefb,99,easy,16,0.8012604000005012,['n'],1,right,['3'],4,0.7378493999995044,,,,,,,,22,20,Vrouw,Rechts,2,
,dotcolour,dotcolour,xotask,1,0,1,601,training,positivefb,100,easy,17,0.6000280999996903,['n'],1,right,['2'],5,0.2757838999996238,,,,,,,,22,20,Vrouw,Rechts,2,
,dotcolour,dotcolour,xotask,2,0,2,602,training,positivefb,98,easy,62,0.5168141000003743,['c'],1,left,['2'],5,0.25300200000037876,,,,,,,,22,20,Vrouw,Rechts,2,
,dotcolour,dotcolour,xotask,3,0,3,603,training,positivefb,93,hard,42,0.8159213999997519,['n'],0,left,['3'],4,0.15459699999973964,,,,,,,,22,20,Vrouw,Rechts,2,
,dotcolour,dotcolour,xotask,4,0,4,604,training,positivefb,88,hard,43,1.5164054999995642,['c'],1,left,['3'],4,0.23125320000053762,,,,,,,,22,20,Vrouw,Rechts,2,
,dotcolour,dotcolour,xotask,5,0,5,605,training,positivefb,98,average,28,0.4998091999996177,['n'],1,right,['3'],4,0.16301320000002306,,,,,,,,22,20,Vrouw,Rechts,2,
,dotcolour,dotcolour,xotask,6,0,6,606,training,positivefb,100,easy,61,0.5659906999999293,['c'],1,left,['3'],4,0.22984740000083548,,,,,,,,22,20,Vrouw,Rechts,2,
,dotcolour,dotcolour,xotask,7,0,7,607,training,positivefb,91,easy,19,0.5332199999993463,['n'],1,right,['3'],4,0.32886060000055295,,,,,,,,22,20,Vrouw,Rechts,2,
,dotcolour,dotcolour,xotask,8,0,8,608,training,positivefb,92,hard,39,0.7492931999995562,['n'],1,right,['3'],4,0.2528112999998484,,,,,,,,22,20,Vrouw,Rechts,2,
,dotcolour,dotcolour,xotask,9,0,9,609,training,positivefb,94,average,55,0.4996545000003607,['c'],1,left,['3'],4,0.2394704999996975,,,,,,,,22,20,Vrouw,Rechts,2,
,dotcolour,dotcolour,xotask,10,0,10,610,training,positivefb,100,easy,18,0.4501094999995985,['n'],1,right,['2'],5,0.2766862000007677,,,,,,,,22,20,Vrouw,Rechts,2,
,dotcolour,dotcolour,xotask,11,0,11,611,training,positivefb,95,hard,39,1.2993935000004058,['n'],1,right,['3'],4,0.18942909999987023,,,,,,,,22,20,Vrouw,Rechts,2,
,dotcolour,dotcolour,xotask,12,0,12,612,training,positivefb,98,average,28,0.633412700000008,['n'],1,right,['2'],5,0.18917839999994612,,,,,,,,22,20,Vrouw,Rechts,2,
,dotcolour,dotcolour,xotask,13,0,13,613,training,positivefb,98,hard,36,0.45050150000042777,['n'],1,right,['2'],5,0.3082954999999856,,,,,,,,22,20,Vrouw,Rechts,2,
,dotcolour,dotcolour,xotask,14,0,14,614,training,positivefb,83,hard,39,0.8664838999993663,['c'],0,right,['3'],4,0.18981629999962024,,,,,,,,22,20,Vrouw,Rechts,2,
,dotcolour,dotcolour,xotask,15,0,15,615,training,positivefb,95,average,52,0.7164327999998932,['c'],1,left,['2'],5,0.19280969999999797,,,,,,,,22,20,Vrouw,Rechts,2,
,dotcolour,dotcolour,xotask,16,0,16,616,training,positivefb,91,average,51,0.783892299999934,['c'],1,left,['3'],4,0.2349369999992632,,,,,,,,22,20,Vrouw,Rechts,2,
,dotcolour,dotcolour,xotask,17,0,17,617,training,positivefb,97,easy,65,0.48435220000010304,['c'],1,left,['2'],5,0.2379279000006136,,,,,,,,22,20,Vrouw,Rechts,2,
,dotcolour,dotcolour,xotask,18,0,18,618,training,positivefb,91,average,26,0.5504922999998598,['n'],1,right,['2'],5,0.2232985999999073,,,,,,,,22,20,Vrouw,Rechts,2,
,dotcolour,dotcolour,xotask,19,0,19,619,training,positivefb,97,easy,65,0.4495996000005107,['c'],1,left,['1'],6,0.30015170000024227,,,,,,,,22,20,Vrouw,Rechts,2,
,dotcolour,dotcolour,xotask,20,0,20,620,training,positivefb,70,easy,15,0.5661317000003692,['n'],1,right,['1'],6,0.23304790000020148,,,,,,,,22,20,Vrouw,Rechts,2,
,dotcolour,dotcolour,xotask,21,0,21,621,training,positivefb,90,hard,44,1.516955600000074,['c'],1,left,['3'],4,0.17182780000075581,,,,,,,,22,20,Vrouw,Rechts,2,
,dotcolour,dotcolour,xotask,22,0,22,622,training,positivefb,75,hard,38,0.7332511999993585,['n'],1,right,['3'],4,0.11949449999974604,,,,,,,,22,20,Vrouw,Rechts,2,
,dotcolour,dotcolour,xotask,23,0,23,623,training,positivefb,96,easy,65,0.9003992999996626,['c'],1,left,['2'],5,0.42299179999918124,,,,,,,,22,20,Vrouw,Rechts,2,
,dotcolour,dotcolour,xotask,24,0,24,624,training,positivefb,96,average,52,0.8169941000005565,['c'],1,left,['3'],4,0.18147810000027675,,,,,,,,22,20,Vrouw,Rechts,2,
,dotcolour,dotcolour,xotask,25,0,25,625,training,positivefb,83,hard,41,0.765932299999804,['n'],0,left,['3'],4,0.16817279999941093,,,,,,,,22,20,Vrouw,Rechts,2,
,dotcolour,dotcolour,xotask,26,0,26,626,training,positivefb,97,average,29,0.782279600000038,['n'],1,right,['2'],5,0.3698555999999371,,,,,,,,22,20,Vrouw,Rechts,2,
,dotcolour,dotcolour,xotask,27,0,27,627,training,positivefb,97,easy,61,0.4505481000005602,['c'],1,left,['2'],5,0.2569138999997449,,,,,,,,22,20,Vrouw,Rechts,2,
,dotcolour,dotcolour,xotask,28,0,28,628,training,positivefb,90,hard,44,0.9665182999997342,['n'],0,left,['3'],4,0.20010199999978795,,,,,,,,22,20,Vrouw,Rechts,2,
