starttime,task,fbtask,firsttask,withinblocktrial,block,withintasktrial,trial,running,feedback,fbscore,difflevel,n_xes,rt,resp,cor,cresp,conf_press,cj,RTconf,reddots,post1,post2,post3,post4,post5,stoptime,sub,age,gender,handedness,session,
1715680724,xotask,xotask,dotcolour,0,0,0,0,training,negativefb,70,average,16,0.9008434999996098,['n'],1,right,['2'],5,0.7112096999990172,,,,,,,,33,18,Vrouw,Links,2,
,xotask,xotask,dotcolour,1,0,1,1,training,negativefb,57,average,15,0.7830738000011479,['n'],1,right,['2'],5,0.18867860000136716,,,,,,,,33,18,Vrouw,Links,2,
,xotask,xotask,dotcolour,2,0,2,2,training,negativefb,88,easy,71,0.5986838999997417,['c'],1,left,['2'],5,0.2296979000002466,,,,,,,,33,18,Vrouw,Links,2,
,xotask,xotask,dotcolour,3,0,3,3,training,negativefb,62,hard,53,0.5499170000002778,['c'],1,left,['1'],6,0.287064800000735,,,,,,,,33,18,Vrouw,Links,2,
,xotask,xotask,dotcolour,4,0,4,4,training,negativefb,39,hard,52,0.9509171999998216,['c'],1,left,['1'],6,0.17327879999902507,,,,,,,,33,18,Vrouw,Links,2,
,xotask,xotask,dotcolour,5,0,5,5,training,negativefb,62,average,62,0.7667137000007642,['c'],1,left,['1'],6,0.24038730000029318,,,,,,,,33,18,Vrouw,Links,2,
,xotask,xotask,dotcolour,6,0,6,6,training,negativefb,65,easy,8,0.7173129999991943,['n'],1,right,['2'],5,0.24199439999938477,,,,,,,,33,18,Vrouw,Links,2,
,xotask,xotask,dotcolour,7,0,7,7,training,negativefb,86,average,60,0.6835000999999465,['c'],1,left,['2'],5,0.14965630000006058,,,,,,,,33,18,Vrouw,Links,2,
,xotask,xotask,dotcolour,8,0,8,8,training,negativefb,84,hard,52,0.5504521999991994,['c'],1,left,['2'],5,0.08179290000043693,,,,,,,,33,18,Vrouw,Links,2,
,xotask,xotask,dotcolour,9,0,9,9,training,negativefb,52,hard,54,0.5172507999996014,['c'],1,left,['2'],5,0.04153990000122576,,,,,,,,33,18,Vrouw,Links,2,
,xotask,xotask,dotcolour,10,0,10,10,training,negativefb,84,easy,7,0.599475099999836,['n'],1,right,['2'],5,0.16835229999924195,,,,,,,,33,18,Vrouw,Links,2,
,xotask,xotask,dotcolour,11,0,11,11,training,negativefb,92,hard,29,0.7837834000001749,['n'],1,right,['3'],4,0.6417008999997051,,,,,,,,33,18,Vrouw,Links,2,
,xotask,xotask,dotcolour,12,0,12,12,training,negativefb,92,easy,74,0.5514254999998229,['c'],1,left,['2'],5,0.2824663999999757,,,,,,,,33,18,Vrouw,Links,2,
,xotask,xotask,dotcolour,13,0,13,13,training,negativefb,56,hard,28,0.4998156999990897,['c'],0,right,['2'],5,0.1476189000004524,,,,,,,,33,18,Vrouw,Links,2,
,xotask,xotask,dotcolour,14,0,14,14,training,negativefb,37,average,60,0.7171250999999756,['c'],1,left,['1'],6,0.201239700001679,,,,,,,,33,18,Vrouw,Links,2,
,xotask,xotask,dotcolour,15,0,15,15,training,negativefb,64,average,62,0.7323832999991282,['c'],1,left,['2'],5,0.0764950000011595,,,,,,,,33,18,Vrouw,Links,2,
,xotask,xotask,dotcolour,16,0,16,16,training,negativefb,52,hard,50,0.6335166999997455,['c'],1,left,['3'],4,0.22434790000079374,,,,,,,,33,18,Vrouw,Links,2,
,xotask,xotask,dotcolour,17,0,17,17,training,negativefb,37,easy,6,0.8012306000000535,['n'],1,right,['2'],5,0.17572540000037407,,,,,,,,33,18,Vrouw,Links,2,
,xotask,xotask,dotcolour,18,0,18,18,training,negativefb,48,easy,9,0.7011225999995077,['n'],1,right,['1'],6,0.20483669999885024,,,,,,,,33,18,Vrouw,Links,2,
,xotask,xotask,dotcolour,19,0,19,19,training,negativefb,21,easy,5,1.2679889000010007,['c'],0,right,['1'],6,0.32247129999996105,,,,,,,,33,18,Vrouw,Links,2,
,xotask,xotask,dotcolour,20,0,20,20,training,negativefb,28,average,61,0.716533899998467,['c'],1,left,['1'],6,0.12806670000099984,,,,,,,,33,18,Vrouw,Links,2,
,xotask,xotask,dotcolour,21,0,21,21,training,negativefb,88,average,15,0.6665314000001672,['n'],1,right,['2'],5,0.2734712000001309,,,,,,,,33,18,Vrouw,Links,2,
,xotask,xotask,dotcolour,22,0,22,22,training,negativefb,55,hard,26,0.5012045000003127,['c'],0,right,['1'],6,0.11417309999887948,,,,,,,,33,18,Vrouw,Links,2,
,xotask,xotask,dotcolour,23,0,23,23,training,negativefb,47,hard,50,0.5667367999994894,['c'],1,left,['2'],5,0.03219830000125512,,,,,,,,33,18,Vrouw,Links,2,
,xotask,xotask,dotcolour,24,0,24,24,training,negativefb,58,easy,5,0.8493389000013849,['n'],1,right,['2'],5,0.10037139999985811,,,,,,,,33,18,Vrouw,Links,2,
,xotask,xotask,dotcolour,25,0,25,25,training,negativefb,80,average,61,0.5831813000004331,['c'],1,left,['2'],5,0.09649309999986144,,,,,,,,33,18,Vrouw,Links,2,
,xotask,xotask,dotcolour,26,0,26,26,training,negativefb,46,hard,50,0.7991965000001073,['c'],1,left,['2'],5,0.36590289999912784,,,,,,,,33,18,Vrouw,Links,2,
,xotask,xotask,dotcolour,27,0,27,27,training,negativefb,62,easy,70,1.0342445000005682,['c'],1,left,['2'],5,0.4853465000014694,,,,,,,,33,18,Vrouw,Links,2,
,xotask,xotask,dotcolour,28,0,28,28,training,negativefb,19,easy,72,2.7164694000002783,['n'],0,left,['2'],5,0.21384439999928873,,,,,,,,33,18,Vrouw,Links,2,
,xotask,xotask,dotcolour,29,0,29,29,training,negativefb,57,hard,51,0.765230300001349,['n'],0,left,['2'],5,0.17503670000041893,,,,,,,,33,18,Vrouw,Links,2,
,xotask,xotask,dotcolour,30,0,30,30,training,negativefb,70,average,15,0.6018198999991,['n'],1,right,['2'],5,0.11167379999824334,,,,,,,,33,18,Vrouw,Links,2,
,xotask,xotask,dotcolour,31,0,31,31,training,negativefb,47,easy,5,0.5504757999988215,['n'],1,right,['2'],5,0.125563499999771,,,,,,,,33,18,Vrouw,Links,2,
,xotask,xotask,dotcolour,32,0,32,32,training,negativefb,68,hard,27,0.551000399998884,['n'],1,right,['1'],6,0.06713569999919855,,,,,,,,33,18,Vrouw,Links,2,
,xotask,xotask,dotcolour,33,0,33,33,training,negativefb,57,easy,73,0.6157767999993666,['c'],1,left,['2'],5,0.10388200000124925,,,,,,,,33,18,Vrouw,Links,2,
,xotask,xotask,dotcolour,34,0,34,34,training,negativefb,59,easy,9,0.5163174999997864,['n'],1,right,['2'],5,0.0794210000003659,,,,,,,,33,18,Vrouw,Links,2,
,xotask,xotask,dotcolour,35,0,35,35,training,negativefb,57,average,62,0.5665641000014148,['c'],1,left,['2'],5,0.05457380000007106,,,,,,,,33,18,Vrouw,Links,2,
,xotask,xotask,dotcolour,36,0,36,36,training,negativefb,73,easy,72,0.5654662999986613,['c'],1,left,['1'],6,0.22192919999906735,,,,,,,,33,18,Vrouw,Links,2,
,xotask,xotask,dotcolour,37,0,37,37,training,negativefb,81,easy,71,0.6000920000005863,['c'],1,left,['1'],6,0.1652352000000974,,,,,,,,33,18,Vrouw,Links,2,
,xotask,xotask,dotcolour,38,0,38,38,training,negativefb,61,easy,73,0.5009013999988383,['c'],1,left,['1'],6,0.06600739999885263,,,,,,,,33,18,Vrouw,Links,2,
,xotask,xotask,dotcolour,39,0,39,39,training,negativefb,44,average,16,0.4825285000006261,['c'],0,right,['2'],5,0.1324616000001697,,,,,,,,33,18,Vrouw,Links,2,
,xotask,xotask,dotcolour,40,0,40,40,training,negativefb,83,average,19,0.6996666999984882,['n'],1,right,['2'],5,0.09828830000151356,,,,,,,,33,18,Vrouw,Links,2,
,xotask,xotask,dotcolour,41,0,41,41,training,negativefb,59,hard,29,0.5841546000010567,['c'],0,right,['2'],5,0.06385120000049938,,,,,,,,33,18,Vrouw,Links,2,
,xotask,xotask,dotcolour,42,0,42,42,training,negativefb,69,easy,6,0.46785709999858227,['n'],1,right,['2'],5,0.1072399000004225,,,,,,,,33,18,Vrouw,Links,2,
,xotask,xotask,dotcolour,43,0,43,43,training,negativefb,64,average,17,0.4344180000007327,['n'],1,right,['3'],4,0.21390389999942272,,,,,,,,33,18,Vrouw,Links,2,
,xotask,xotask,dotcolour,44,0,44,44,training,negativefb,47,hard,28,0.8010044999991806,['c'],0,right,['3'],4,0.10969939999995404,,,,,,,,33,18,Vrouw,Links,2,
,xotask,xotask,dotcolour,45,0,45,45,training,negativefb,55,easy,70,0.682313699999213,['c'],1,left,['3'],4,0.03072740000061458,,,,,,,,33,18,Vrouw,Links,2,
,xotask,xotask,dotcolour,46,0,46,46,training,negativefb,57,easy,7,0.48487719999866385,['n'],1,right,['2'],5,0.09807720000026166,,,,,,,,33,18,Vrouw,Links,2,
,xotask,xotask,dotcolour,47,0,47,47,training,negativefb,88,hard,50,0.6172483000009379,['c'],1,left,['3'],4,0.28598649999912595,,,,,,,,33,18,Vrouw,Links,2,
,xotask,xotask,dotcolour,48,0,48,48,training,negativefb,67,average,18,0.8184646999998222,['c'],0,right,['2'],5,0.06547159999900032,,,,,,,,33,18,Vrouw,Links,2,
,xotask,xotask,dotcolour,49,0,49,49,training,negativefb,47,hard,26,1.4169172000001709,['n'],1,right,['2'],5,0.18269099999997707,,,,,,,,33,18,Vrouw,Links,2,
,xotask,xotask,dotcolour,50,0,50,50,training,negativefb,69,hard,28,0.683882100000119,['n'],1,right,['3'],4,0.1720117000004393,,,,,,,,33,18,Vrouw,Links,2,
,xotask,xotask,dotcolour,51,0,51,51,training,negativefb,55,average,17,0.7834394000001339,['n'],1,right,['3'],4,0.446018799999365,,,,,,,,33,18,Vrouw,Links,2,
,xotask,xotask,dotcolour,52,0,52,52,training,negativefb,46,hard,27,0.7495083999983763,['c'],0,right,['2'],5,0.04672320000099717,,,,,,,,33,18,Vrouw,Links,2,
,xotask,xotask,dotcolour,53,0,53,53,training,negativefb,48,average,64,0.5829078999995545,['c'],1,left,['3'],4,0.1260627999999997,,,,,,,,33,18,Vrouw,Links,2,
,xotask,xotask,dotcolour,54,0,54,54,training,negativefb,82,average,16,0.4853855000001204,['n'],1,right,['2'],5,0.17325829999936104,,,,,,,,33,18,Vrouw,Links,2,
,xotask,xotask,dotcolour,55,0,55,55,training,negativefb,78,easy,71,0.7503027000002476,['c'],1,left,['3'],4,0.20161259999986214,,,,,,,,33,18,Vrouw,Links,2,
,xotask,xotask,dotcolour,56,0,56,56,training,negativefb,71,hard,54,0.6672125999994023,['c'],1,left,['2'],5,0.23834769999848504,,,,,,,,33,18,Vrouw,Links,2,
,xotask,xotask,dotcolour,57,0,57,57,training,negativefb,80,average,63,0.5506488999999419,['c'],1,left,['3'],4,0.2953288999997312,,,,,,,,33,18,Vrouw,Links,2,
,xotask,xotask,dotcolour,58,0,58,58,training,negativefb,68,average,64,0.4666761000007682,['c'],1,left,['2'],5,0.09703949999857286,,,,,,,,33,18,Vrouw,Links,2,
,xotask,xotask,dotcolour,59,0,59,59,training,negativefb,39,hard,29,0.6004115999985515,['n'],1,right,['3'],4,0.09337790000063251,,,,,,,,33,18,Vrouw,Links,2,
,xotask,xotask,dotcolour,0,1,60,60,training,negativefb,55,hard,52,0.968274200000451,['c'],1,left,['2'],5,0.1652953000011621,,,,,,,,33,18,Vrouw,Links,2,
,xotask,xotask,dotcolour,1,1,61,61,training,negativefb,77,average,63,0.6000573999990593,['c'],1,left,['3'],4,0.23949419999917154,,,,,,,,33,18,Vrouw,Links,2,
,xotask,xotask,dotcolour,2,1,62,62,training,negativefb,60,hard,51,0.535077900000033,['c'],1,left,['2'],5,0.13630420000117738,,,,,,,,33,18,Vrouw,Links,2,
,xotask,xotask,dotcolour,3,1,63,63,training,negativefb,61,easy,73,0.5166518999994878,['c'],1,left,['2'],5,0.078360800000155,,,,,,,,33,18,Vrouw,Links,2,
,xotask,xotask,dotcolour,4,1,64,64,training,negativefb,70,hard,50,0.4341421999997692,['c'],1,left,['3'],4,0.12264270000014221,,,,,,,,33,18,Vrouw,Links,2,
,xotask,xotask,dotcolour,5,1,65,65,training,negativefb,53,hard,54,0.5329424000010476,['c'],1,left,['3'],4,0.12068600000020524,,,,,,,,33,18,Vrouw,Links,2,
,xotask,xotask,dotcolour,6,1,66,66,training,negativefb,55,average,64,0.3997552999990148,['c'],1,left,['2'],5,0.09199009999974805,,,,,,,,33,18,Vrouw,Links,2,
,xotask,xotask,dotcolour,7,1,67,67,training,negativefb,28,hard,26,0.43351499999880616,['c'],0,right,['2'],5,0.7108981000001222,,,,,,,,33,18,Vrouw,Links,2,
,xotask,xotask,dotcolour,8,1,68,68,training,negativefb,69,hard,51,0.5327082000003429,['n'],0,left,['2'],5,0.070065899999463,,,,,,,,33,18,Vrouw,Links,2,
,xotask,xotask,dotcolour,9,1,69,69,training,negativefb,55,easy,72,0.583513600000515,['c'],1,left,['3'],4,0.2600634999998874,,,,,,,,33,18,Vrouw,Links,2,
,xotask,xotask,dotcolour,10,1,70,70,training,negativefb,69,easy,6,0.4841563000009046,['n'],1,right,['2'],5,0.17377320000014151,,,,,,,,33,18,Vrouw,Links,2,
,xotask,xotask,dotcolour,11,1,71,71,training,negativefb,64,easy,73,0.49995990000024904,['c'],1,left,['2'],5,0.17106539999986126,,,,,,,,33,18,Vrouw,Links,2,
,xotask,xotask,dotcolour,12,1,72,72,training,negativefb,70,hard,28,0.4821759000005841,['c'],0,right,['2'],5,0.0822611000003235,,,,,,,,33,18,Vrouw,Links,2,
,xotask,xotask,dotcolour,13,1,73,73,training,negativefb,78,average,63,0.4989127999997436,['c'],1,left,['2'],5,0.0659300000006624,,,,,,,,33,18,Vrouw,Links,2,
,xotask,xotask,dotcolour,14,1,74,74,training,negativefb,25,hard,50,0.6011527999999089,['n'],0,left,['2'],5,0.1356011000007129,,,,,,,,33,18,Vrouw,Links,2,
,xotask,xotask,dotcolour,15,1,75,75,training,negativefb,74,average,16,0.549764100000175,['n'],1,right,['2'],5,0.11682950000067649,,,,,,,,33,18,Vrouw,Links,2,
,xotask,xotask,dotcolour,16,1,76,76,training,negativefb,96,easy,74,0.617061000000831,['c'],1,left,['2'],5,0.6635192000012466,,,,,,,,33,18,Vrouw,Links,2,
,xotask,xotask,dotcolour,17,1,77,77,training,negativefb,56,easy,72,0.9496274999983143,['c'],1,left,['2'],5,0.1596622999986721,,,,,,,,33,18,Vrouw,Links,2,
,xotask,xotask,dotcolour,18,1,78,78,training,negativefb,56,average,17,0.5673214999987977,['n'],1,right,['2'],5,0.163109600000098,,,,,,,,33,18,Vrouw,Links,2,
,xotask,xotask,dotcolour,19,1,79,79,training,negativefb,34,hard,51,0.5161983999987569,['c'],1,left,['2'],5,0.09553890000097454,,,,,,,,33,18,Vrouw,Links,2,
,xotask,xotask,dotcolour,20,1,80,80,training,negativefb,19,hard,27,0.6841698000007455,['c'],0,right,['3'],4,0.28846639999937906,,,,,,,,33,18,Vrouw,Links,2,
,xotask,xotask,dotcolour,21,1,81,81,training,negativefb,61,hard,26,0.6837030000006052,['c'],0,right,['2'],5,0.058857300000454416,,,,,,,,33,18,Vrouw,Links,2,
,xotask,xotask,dotcolour,22,1,82,82,training,negativefb,39,easy,5,0.6496790000001056,['n'],1,right,['2'],5,0.1267812000005506,,,,,,,,33,18,Vrouw,Links,2,
,xotask,xotask,dotcolour,23,1,83,83,training,negativefb,70,average,16,0.7167824000007386,['n'],1,right,['1'],6,0.1496437000005244,,,,,,,,33,18,Vrouw,Links,2,
,xotask,xotask,dotcolour,24,1,84,84,training,negativefb,31,average,60,0.46688689999973576,['c'],1,left,['2'],5,0.08491910000157077,,,,,,,,33,18,Vrouw,Links,2,
,xotask,xotask,dotcolour,25,1,85,85,training,negativefb,80,easy,7,0.5511475000002974,['n'],1,right,['2'],5,0.15587740000046324,,,,,,,,33,18,Vrouw,Links,2,
,xotask,xotask,dotcolour,26,1,86,86,training,negativefb,68,easy,6,0.5332017000000633,['n'],1,right,['2'],5,0.08795900000041001,,,,,,,,33,18,Vrouw,Links,2,
,xotask,xotask,dotcolour,27,1,87,87,training,negativefb,86,average,18,0.5349650999996811,['n'],1,right,['2'],5,0.10307909999937692,,,,,,,,33,18,Vrouw,Links,2,
,xotask,xotask,dotcolour,28,1,88,88,training,negativefb,62,easy,72,0.5658855000001495,['c'],1,left,['2'],5,0.020056700001077843,,,,,,,,33,18,Vrouw,Links,2,
,xotask,xotask,dotcolour,29,1,89,89,training,negativefb,77,hard,26,0.41784939999888593,['n'],1,right,['2'],5,0.13899119999950926,,,,,,,,33,18,Vrouw,Links,2,
,xotask,xotask,dotcolour,30,1,90,90,training,negativefb,57,hard,29,1.4820089999993797,['n'],1,right,['2'],5,0.027277799999865238,,,,,,,,33,18,Vrouw,Links,2,
,xotask,xotask,dotcolour,31,1,91,91,training,negativefb,75,hard,27,0.7853976000005787,['n'],1,right,['2'],5,0.49875109999993583,,,,,,,,33,18,Vrouw,Links,2,
,xotask,xotask,dotcolour,32,1,92,92,training,negativefb,47,hard,54,2.166636899999503,['c'],1,left,['2'],5,0.031173100000160048,,,,,,,,33,18,Vrouw,Links,2,
,xotask,xotask,dotcolour,33,1,93,93,training,negativefb,82,easy,74,0.5661870999992971,['c'],1,left,['2'],5,0.39984000000004016,,,,,,,,33,18,Vrouw,Links,2,
,xotask,xotask,dotcolour,34,1,94,94,training,negativefb,76,hard,27,0.41665959999954794,['c'],0,right,['2'],5,0.055634899999859044,,,,,,,,33,18,Vrouw,Links,2,
,xotask,xotask,dotcolour,35,1,95,95,training,negativefb,66,average,18,0.5337162999985594,['n'],1,right,['2'],5,0.07974859999922046,,,,,,,,33,18,Vrouw,Links,2,
,xotask,xotask,dotcolour,36,1,96,96,training,negativefb,85,average,63,0.3492093999993813,['c'],1,left,['2'],5,0.09582770000088203,,,,,,,,33,18,Vrouw,Links,2,
,xotask,xotask,dotcolour,37,1,97,97,training,negativefb,71,average,61,0.533443399999669,['c'],1,left,['2'],5,0.047137300000031246,,,,,,,,33,18,Vrouw,Links,2,
,xotask,xotask,dotcolour,38,1,98,98,training,negativefb,74,easy,7,0.5847555999989709,['n'],1,right,['2'],5,0.149954999998954,,,,,,,,33,18,Vrouw,Links,2,
,xotask,xotask,dotcolour,39,1,99,99,training,negativefb,74,easy,7,0.5670749999990221,['n'],1,right,['2'],5,0.11318029999893042,,,,,,,,33,18,Vrouw,Links,2,
,xotask,xotask,dotcolour,40,1,100,100,training,negativefb,63,hard,50,0.7995034999985364,['c'],1,left,['2'],5,0.09362469999905443,,,,,,,,33,18,Vrouw,Links,2,
,xotask,xotask,dotcolour,41,1,101,101,training,negativefb,55,hard,26,0.6836339000001317,['n'],1,right,['2'],5,0.10231559999920137,,,,,,,,33,18,Vrouw,Links,2,
,xotask,xotask,dotcolour,42,1,102,102,training,negativefb,86,average,18,0.5162789000005432,['n'],1,right,['2'],5,0.10978109999996377,,,,,,,,33,18,Vrouw,Links,2,
,xotask,xotask,dotcolour,43,1,103,103,training,negativefb,71,average,18,0.4171306000007462,['n'],1,right,['2'],5,0.08173429999988002,,,,,,,,33,18,Vrouw,Links,2,
,xotask,xotask,dotcolour,44,1,104,104,training,negativefb,60,hard,28,0.48358750000079453,['n'],1,right,['2'],5,0.07431060000089929,,,,,,,,33,18,Vrouw,Links,2,
,xotask,xotask,dotcolour,45,1,105,105,training,negativefb,49,average,60,0.4184324000016204,['n'],0,left,['2'],5,0.07120070000019041,,,,,,,,33,18,Vrouw,Links,2,
,xotask,xotask,dotcolour,46,1,106,106,training,negativefb,57,easy,72,0.5166170000011334,['c'],1,left,['1'],6,0.08853409999937867,,,,,,,,33,18,Vrouw,Links,2,
,xotask,xotask,dotcolour,47,1,107,107,training,negativefb,81,easy,6,0.4834725000000617,['n'],1,right,['2'],5,0.07368949999909091,,,,,,,,33,18,Vrouw,Links,2,
,xotask,xotask,dotcolour,48,1,108,108,training,negativefb,74,average,18,0.400861399999485,['c'],0,right,['1'],6,0.11055789999954868,,,,,,,,33,18,Vrouw,Links,2,
,xotask,xotask,dotcolour,49,1,109,109,training,negativefb,59,average,61,0.4331179999990127,['c'],1,left,['2'],5,0.06596650000028603,,,,,,,,33,18,Vrouw,Links,2,
,xotask,xotask,dotcolour,50,1,110,110,training,negativefb,29,easy,71,0.6175999999995838,['c'],1,left,['2'],5,0.11046520000127202,,,,,,,,33,18,Vrouw,Links,2,
,xotask,xotask,dotcolour,51,1,111,111,training,negativefb,29,average,15,0.6674213999995118,['n'],1,right,['2'],5,0.08729630000016186,,,,,,,,33,18,Vrouw,Links,2,
,xotask,xotask,dotcolour,52,1,112,112,training,negativefb,61,average,16,0.3995729999987816,['n'],1,right,['2'],5,0.08436550000078569,,,,,,,,33,18,Vrouw,Links,2,
,xotask,xotask,dotcolour,53,1,113,113,training,negativefb,61,average,64,0.6499751999999717,['c'],1,left,['2'],5,0.031185499999992317,,,,,,,,33,18,Vrouw,Links,2,
,xotask,xotask,dotcolour,54,1,114,114,training,negativefb,65,hard,54,0.5848416000008001,['c'],1,left,['2'],5,0.007076199999573873,,,,,,,,33,18,Vrouw,Links,2,
,xotask,xotask,dotcolour,55,1,115,115,training,negativefb,85,easy,7,0.6009115999986534,['n'],1,right,['2'],5,0.08707970000068599,,,,,,,,33,18,Vrouw,Links,2,
,xotask,xotask,dotcolour,56,1,116,116,training,negativefb,94,easy,72,0.6340710999993462,['c'],1,left,['2'],5,0.386752799999158,,,,,,,,33,18,Vrouw,Links,2,
,xotask,xotask,dotcolour,57,1,117,117,training,negativefb,62,average,62,0.90109609999854,['c'],1,left,['1'],6,0.16654940000080387,,,,,,,,33,18,Vrouw,Links,2,
,xotask,xotask,dotcolour,58,1,118,118,training,negativefb,83,easy,8,0.5837804999991931,['n'],1,right,['2'],5,0.08114950000162935,,,,,,,,33,18,Vrouw,Links,2,
,xotask,xotask,dotcolour,59,1,119,119,training,negativefb,69,easy,5,0.5161833000001934,['n'],1,right,['1'],6,0.13828929999908723,,,,,,,,33,18,Vrouw,Links,2,
,dotcolour,xotask,dotcolour,0,2,120,120,main,negativefb,-99,easy,,0.5669124999985797,['n'],1,right,['1'],6,0.27269890000025043,16,,,,,,,33,18,Vrouw,Links,2,
,dotcolour,xotask,dotcolour,1,2,121,121,main,negativefb,-99,easy,,0.6162382000002253,['c'],1,left,['1'],6,0.10274800000115647,64,,,,,,,33,18,Vrouw,Links,2,
,dotcolour,xotask,dotcolour,2,2,122,122,main,negativefb,-99,average,,0.5182827000007819,['c'],1,left,['2'],5,0.11836439999933646,51,,,,,,,33,18,Vrouw,Links,2,
,dotcolour,xotask,dotcolour,3,2,123,123,main,negativefb,-99,easy,,0.600563100000727,['n'],1,right,['1'],6,0.06661869999879855,18,,,,,,,33,18,Vrouw,Links,2,
,dotcolour,xotask,dotcolour,4,2,124,124,main,negativefb,-99,easy,,0.5515857999998843,['n'],1,right,['1'],6,0.08200709999982791,17,,,,,,,33,18,Vrouw,Links,2,
,dotcolour,xotask,dotcolour,5,2,125,125,main,negativefb,-99,average,,0.533104000000094,['c'],1,left,['2'],5,0.3217022000008001,54,,,,,,,33,18,Vrouw,Links,2,
,dotcolour,xotask,dotcolour,6,2,126,126,main,negativefb,-99,average,,1.000045599999794,['c'],1,left,['1'],6,0.12622449999980745,54,,,,,,,33,18,Vrouw,Links,2,
,dotcolour,xotask,dotcolour,7,2,127,127,main,negativefb,-99,average,,0.8002554000013333,['n'],1,right,['2'],5,0.07467030000043451,28,,,,,,,33,18,Vrouw,Links,2,
,dotcolour,xotask,dotcolour,8,2,128,128,main,negativefb,-99,easy,,0.6496083999991242,['n'],1,right,['1'],6,0.12687799999912386,15,,,,,,,33,18,Vrouw,Links,2,
,dotcolour,xotask,dotcolour,9,2,129,129,main,negativefb,-99,hard,,0.8838909999994939,['c'],0,right,['2'],5,0.10312169999997423,38,,,,,,,33,18,Vrouw,Links,2,
,dotcolour,xotask,dotcolour,10,2,130,130,main,negativefb,-99,easy,,0.8176248999989184,['c'],1,left,['1'],6,0.07546340000044438,64,,,,,,,33,18,Vrouw,Links,2,
,dotcolour,xotask,dotcolour,11,2,131,131,main,negativefb,-99,average,,0.5167968999994628,['c'],1,left,['1'],6,0.06063439999888942,53,,,,,,,33,18,Vrouw,Links,2,
,dotcolour,xotask,dotcolour,12,2,132,132,main,negativefb,-99,easy,,0.5160230999990745,['c'],1,left,['1'],6,0.02285469999878842,61,,,,,,,33,18,Vrouw,Links,2,
,dotcolour,xotask,dotcolour,13,2,133,133,main,negativefb,-99,easy,,0.4514292999992904,['n'],1,right,['1'],6,0.0599514999994426,19,,,,,,,33,18,Vrouw,Links,2,
,dotcolour,xotask,dotcolour,14,2,134,134,main,negativefb,-99,hard,,1.084508800000549,['c'],0,right,['2'],5,0.15192989999923157,35,,,,,,,33,18,Vrouw,Links,2,
,dotcolour,xotask,dotcolour,15,2,135,135,main,negativefb,-99,easy,,0.6669029999993654,['c'],1,left,['1'],6,0.09572259999913513,61,,,,,,,33,18,Vrouw,Links,2,
,dotcolour,xotask,dotcolour,16,2,136,136,main,negativefb,-99,average,,0.5660537999992812,['n'],1,right,['1'],6,0.0866279999991093,27,,,,,,,33,18,Vrouw,Links,2,
,dotcolour,xotask,dotcolour,17,2,137,137,main,negativefb,-99,average,,0.966706700000941,['n'],1,right,['2'],5,0.09339050000016869,25,,,,,,,33,18,Vrouw,Links,2,
,dotcolour,xotask,dotcolour,18,2,138,138,main,negativefb,-99,average,,0.7003370999991603,['c'],1,left,['1'],6,0.1257237999998324,55,,,,,,,33,18,Vrouw,Links,2,
,dotcolour,xotask,dotcolour,19,2,139,139,main,negativefb,-99,average,,0.9336199000008492,['c'],1,left,['2'],5,0.1733702000001358,54,,,,,,,33,18,Vrouw,Links,2,
,dotcolour,xotask,dotcolour,20,2,140,140,main,negativefb,-99,easy,,0.4834560999988753,['c'],1,left,['1'],6,0.09188700000049721,65,,,,,,,33,18,Vrouw,Links,2,
,dotcolour,xotask,dotcolour,21,2,141,141,main,negativefb,-99,easy,,0.500817800000732,['c'],1,left,['1'],6,0.20528809999996156,63,,,,,,,33,18,Vrouw,Links,2,
,dotcolour,xotask,dotcolour,22,2,142,142,main,negativefb,-99,easy,,0.5833464000006643,['n'],1,right,['1'],6,0.06273229999897012,19,,,,,,,33,18,Vrouw,Links,2,
,dotcolour,xotask,dotcolour,23,2,143,143,main,negativefb,-99,easy,,0.46590830000059213,['n'],1,right,['1'],6,0.08293939999930444,15,,,,,,,33,18,Vrouw,Links,2,
,dotcolour,xotask,dotcolour,24,2,144,144,main,negativefb,-99,hard,,0.600394299999607,['c'],0,right,['1'],6,0.46364640000138024,38,,,,,,,33,18,Vrouw,Links,2,
,dotcolour,xotask,dotcolour,25,2,145,145,main,negativefb,-99,average,,0.8013157999994291,['c'],1,left,['1'],6,0.06162190000031842,53,,,,,,,33,18,Vrouw,Links,2,
,dotcolour,xotask,dotcolour,26,2,146,146,main,negativefb,-99,average,,1.5836278999995557,['c'],0,right,['2'],5,0.09326659999896947,29,,,,,,,33,18,Vrouw,Links,2,
,dotcolour,xotask,dotcolour,27,2,147,147,main,negativefb,-99,easy,,0.7832125000004453,['n'],1,right,['1'],6,0.07606089999899268,16,,,,,,,33,18,Vrouw,Links,2,
,dotcolour,xotask,dotcolour,28,2,148,148,main,negativefb,-99,average,,0.6663434000001871,['n'],1,right,['1'],6,0.06367640000098618,27,,,,,,,33,18,Vrouw,Links,2,
,dotcolour,xotask,dotcolour,29,2,149,149,main,negativefb,-99,hard,,0.7503292999990663,['c'],0,right,['2'],5,0.14330270000027667,36,,,,,,,33,18,Vrouw,Links,2,
,dotcolour,xotask,dotcolour,30,2,150,150,main,negativefb,-99,average,,1.200453600000401,['c'],1,left,['3'],4,0.10708949999934703,55,,,,,,,33,18,Vrouw,Links,2,
,dotcolour,xotask,dotcolour,31,2,151,151,main,negativefb,-99,hard,,0.5508468999996694,['c'],0,right,['3'],4,0.12947279999934835,36,,,,,,,33,18,Vrouw,Links,2,
,dotcolour,xotask,dotcolour,32,2,152,152,main,negativefb,-99,easy,,0.48432080000020505,['n'],1,right,['1'],6,0.10612209999999322,15,,,,,,,33,18,Vrouw,Links,2,
,dotcolour,xotask,dotcolour,33,2,153,153,main,negativefb,-99,hard,,0.6172993000000133,['c'],0,right,['3'],4,0.22279229999912786,39,,,,,,,33,18,Vrouw,Links,2,
,dotcolour,xotask,dotcolour,34,2,154,154,main,negativefb,-99,easy,,0.6345018000010896,['c'],1,left,['1'],6,0.06922539999868604,63,,,,,,,33,18,Vrouw,Links,2,
,dotcolour,xotask,dotcolour,35,2,155,155,main,negativefb,-99,hard,,0.4666195999998308,['c'],1,left,['1'],6,0.14418660000046657,44,,,,,,,33,18,Vrouw,Links,2,
,dotcolour,xotask,dotcolour,36,2,156,156,main,negativefb,-99,average,,0.6836780000012368,['n'],1,right,['1'],6,0.10443200000008801,27,,,,,,,33,18,Vrouw,Links,2,
,dotcolour,xotask,dotcolour,37,2,157,157,main,negativefb,-99,average,,0.4674006000004738,['n'],0,left,['1'],6,0.16202180000072985,55,,,,,,,33,18,Vrouw,Links,2,
,dotcolour,xotask,dotcolour,38,2,158,158,main,negativefb,-99,easy,,0.699595699999918,['c'],1,left,['1'],6,0.08147720000124536,65,,,,,,,33,18,Vrouw,Links,2,
,dotcolour,xotask,dotcolour,39,2,159,159,main,negativefb,-99,average,,1.1681638000009116,['n'],1,right,['2'],5,0.29609700000037265,29,,,,,,,33,18,Vrouw,Links,2,
,dotcolour,xotask,dotcolour,40,2,160,160,main,negativefb,-99,hard,,0.6837620999995124,['c'],1,left,['1'],6,0.10581060000004072,42,,,,,,,33,18,Vrouw,Links,2,
,dotcolour,xotask,dotcolour,41,2,161,161,main,negativefb,-99,average,,0.9673478999993677,['n'],1,right,['2'],5,0.09666939999988244,26,,,,,,,33,18,Vrouw,Links,2,
,dotcolour,xotask,dotcolour,42,2,162,162,main,negativefb,-99,hard,,0.6006551999998919,['c'],0,right,['2'],5,0.2138226000006398,36,,,,,,,33,18,Vrouw,Links,2,
,dotcolour,xotask,dotcolour,43,2,163,163,main,negativefb,-99,easy,,0.8671560000002501,['c'],1,left,['1'],6,0.2109320999988995,64,,,,,,,33,18,Vrouw,Links,2,
,dotcolour,xotask,dotcolour,44,2,164,164,main,negativefb,-99,average,,0.5507708999994065,['c'],1,left,['1'],6,0.09472040000036941,53,,,,,,,33,18,Vrouw,Links,2,
,dotcolour,xotask,dotcolour,45,2,165,165,main,negativefb,-99,easy,,0.5501356000004307,['n'],1,right,['1'],6,0.110221900000397,18,,,,,,,33,18,Vrouw,Links,2,
,dotcolour,xotask,dotcolour,46,2,166,166,main,negativefb,-99,hard,,0.6003524000007019,['c'],1,left,['1'],6,0.0898018999996566,44,,,,,,,33,18,Vrouw,Links,2,
,dotcolour,xotask,dotcolour,47,2,167,167,main,negativefb,-99,hard,,1.016906700000618,['n'],0,left,['3'],4,0.7434923000000708,41,,,,,,,33,18,Vrouw,Links,2,
,dotcolour,xotask,dotcolour,48,2,168,168,main,negativefb,-99,hard,,0.7511997999990854,['c'],1,left,['3'],4,0.07619709999926272,43,,,,,,,33,18,Vrouw,Links,2,
,dotcolour,xotask,dotcolour,49,2,169,169,main,negativefb,-99,hard,,1.0836147999998502,['c'],0,right,['3'],4,0.09538720000091416,39,,,,,,,33,18,Vrouw,Links,2,
,dotcolour,xotask,dotcolour,50,2,170,170,main,negativefb,-99,hard,,0.6674813000008726,['c'],1,left,['2'],5,0.14582119999977294,45,,,,,,,33,18,Vrouw,Links,2,
,dotcolour,xotask,dotcolour,51,2,171,171,main,negativefb,-99,hard,,0.5847792999993544,['c'],1,left,['2'],5,0.11791059999995923,45,,,,,,,33,18,Vrouw,Links,2,
,dotcolour,xotask,dotcolour,52,2,172,172,main,negativefb,-99,hard,,0.9839084000013827,['c'],0,right,['2'],5,0.07477389999985462,38,,,,,,,33,18,Vrouw,Links,2,
,dotcolour,xotask,dotcolour,53,2,173,173,main,negativefb,-99,average,,0.6515866999998252,['c'],0,right,['3'],4,0.4621657999996387,26,,,,,,,33,18,Vrouw,Links,2,
,dotcolour,xotask,dotcolour,54,2,174,174,main,negativefb,-99,easy,,4.684645499999533,['c'],1,left,['3'],4,0.12214590000075987,65,,,,,,,33,18,Vrouw,Links,2,
,dotcolour,xotask,dotcolour,55,2,175,175,main,negativefb,-99,hard,,0.6839158000002499,['n'],1,right,['2'],5,0.13052729999981239,35,,,,,,,33,18,Vrouw,Links,2,
,dotcolour,xotask,dotcolour,56,2,176,176,main,negativefb,-99,hard,,0.7171474000006128,['c'],1,left,['3'],4,0.2812821999996231,44,,,,,,,33,18,Vrouw,Links,2,
,dotcolour,xotask,dotcolour,57,2,177,177,main,negativefb,-99,hard,,0.6504937999998219,['c'],1,left,['3'],4,0.09343350000017381,44,,,,,,,33,18,Vrouw,Links,2,
,dotcolour,xotask,dotcolour,58,2,178,178,main,negativefb,-99,average,,0.7835312999995949,['n'],1,right,['3'],4,0.19474199999967823,28,,,,,,,33,18,Vrouw,Links,2,
,dotcolour,xotask,dotcolour,59,2,179,179,main,negativefb,-99,hard,,0.8173480000004929,['c'],1,left,['3'],4,0.09217090000129247,43,,,,,,,33,18,Vrouw,Links,2,
,dotcolour,xotask,dotcolour,0,3,180,180,main,negativefb,-99,average,,0.7850875000003725,['n'],1,right,['3'],4,0.08586939999986498,25,,,,,,,33,18,Vrouw,Links,2,
,dotcolour,xotask,dotcolour,1,3,181,181,main,negativefb,-99,average,,0.5675703000015346,['c'],1,left,['3'],4,0.10957289999896602,52,,,,,,,33,18,Vrouw,Links,2,
,dotcolour,xotask,dotcolour,2,3,182,182,main,negativefb,-99,hard,,0.6501738999995723,['c'],1,left,['3'],4,0.047103400000196416,42,,,,,,,33,18,Vrouw,Links,2,
,dotcolour,xotask,dotcolour,3,3,183,183,main,negativefb,-99,average,,0.8668562999991991,['c'],1,left,['3'],4,0.07624279999981809,52,,,,,,,33,18,Vrouw,Links,2,
,dotcolour,xotask,dotcolour,4,3,184,184,main,negativefb,-99,easy,,0.4823889999988751,['c'],1,left,['3'],4,0.17492189999939,62,,,,,,,33,18,Vrouw,Links,2,
,dotcolour,xotask,dotcolour,5,3,185,185,main,negativefb,-99,easy,,3.5342963000002783,['c'],1,left,['3'],4,0.6117775000002439,65,,,,,,,33,18,Vrouw,Links,2,
,dotcolour,xotask,dotcolour,6,3,186,186,main,negativefb,-99,hard,,0.7509264000000258,['c'],1,left,['3'],4,0.14182739999887417,41,,,,,,,33,18,Vrouw,Links,2,
,dotcolour,xotask,dotcolour,7,3,187,187,main,negativefb,-99,hard,,0.5844250999998621,['c'],0,right,['3'],4,0.05822710000029474,38,,,,,,,33,18,Vrouw,Links,2,
,dotcolour,xotask,dotcolour,8,3,188,188,main,negativefb,-99,average,,0.617080399999395,['c'],1,left,['3'],4,0.056189099999755854,52,,,,,,,33,18,Vrouw,Links,2,
,dotcolour,xotask,dotcolour,9,3,189,189,main,negativefb,-99,easy,,0.6167896999995719,['c'],1,left,['2'],5,0.2215886000012688,62,,,,,,,33,18,Vrouw,Links,2,
,dotcolour,xotask,dotcolour,10,3,190,190,main,negativefb,-99,easy,,0.6009169999997539,['c'],1,left,['2'],5,0.09314709999853221,65,,,,,,,33,18,Vrouw,Links,2,
,dotcolour,xotask,dotcolour,11,3,191,191,main,negativefb,-99,average,,8.800880900000266,['c'],0,right,['3'],4,1.8117391999985557,25,,,,,,,33,18,Vrouw,Links,2,
,dotcolour,xotask,dotcolour,12,3,192,192,main,negativefb,-99,hard,,0.7003917999991245,['c'],1,left,['1'],6,0.08031090000076802,45,,,,,,,33,18,Vrouw,Links,2,
,dotcolour,xotask,dotcolour,13,3,193,193,main,negativefb,-99,easy,,0.40047100000083447,['c'],0,right,['8'],3,1.5663495999997394,18,,,,,,,33,18,Vrouw,Links,2,
,dotcolour,xotask,dotcolour,14,3,194,194,main,negativefb,-99,hard,,1.0504897000009805,['c'],0,right,['3'],4,0.31775589999961085,37,,,,,,,33,18,Vrouw,Links,2,
,dotcolour,xotask,dotcolour,15,3,195,195,main,negativefb,-99,hard,,0.668102399999043,['c'],1,left,['3'],4,0.43937929999992775,43,,,,,,,33,18,Vrouw,Links,2,
,dotcolour,xotask,dotcolour,16,3,196,196,main,negativefb,-99,hard,,0.5845286999992823,['n'],0,left,['3'],4,0.1188311000005342,42,,,,,,,33,18,Vrouw,Links,2,
,dotcolour,xotask,dotcolour,17,3,197,197,main,negativefb,-99,easy,,0.8182784000000538,['c'],1,left,['3'],4,0.146343500000512,61,,,,,,,33,18,Vrouw,Links,2,
,dotcolour,xotask,dotcolour,18,3,198,198,main,negativefb,-99,hard,,0.5173202000005404,['c'],0,right,['3'],4,0.06597169999986363,37,,,,,,,33,18,Vrouw,Links,2,
,dotcolour,xotask,dotcolour,19,3,199,199,main,negativefb,-99,average,,0.6015839000010601,['c'],0,right,['3'],4,0.09444199999961711,28,,,,,,,33,18,Vrouw,Links,2,
,dotcolour,xotask,dotcolour,20,3,200,200,main,negativefb,-99,average,,0.550482100001318,['c'],1,left,['3'],4,0.13463709999996354,54,,,,,,,33,18,Vrouw,Links,2,
,dotcolour,xotask,dotcolour,21,3,201,201,main,negativefb,-99,easy,,0.4676514999991923,['c'],1,left,['3'],4,0.14291550000052666,63,,,,,,,33,18,Vrouw,Links,2,
,dotcolour,xotask,dotcolour,22,3,202,202,main,negativefb,-99,average,,0.7841957000000548,['n'],1,right,['3'],4,0.12361499999860825,28,,,,,,,33,18,Vrouw,Links,2,
,dotcolour,xotask,dotcolour,23,3,203,203,main,negativefb,-99,easy,,0.617305400000987,['n'],1,right,['3'],4,0.15086449999944307,18,,,,,,,33,18,Vrouw,Links,2,
,dotcolour,xotask,dotcolour,24,3,204,204,main,negativefb,-99,average,,0.5351852000003419,['c'],1,left,['2'],5,0.21163199999864446,54,,,,,,,33,18,Vrouw,Links,2,
,dotcolour,xotask,dotcolour,25,3,205,205,main,negativefb,-99,hard,,0.6674282000003586,['c'],0,right,['3'],4,0.09765039999911096,36,,,,,,,33,18,Vrouw,Links,2,
,dotcolour,xotask,dotcolour,26,3,206,206,main,negativefb,-99,easy,,0.5164626999994653,['n'],1,right,['3'],4,0.11421469999913825,19,,,,,,,33,18,Vrouw,Links,2,
,dotcolour,xotask,dotcolour,27,3,207,207,main,negativefb,-99,hard,,0.7007178999992902,['c'],1,left,['2'],5,0.0903080999996746,42,,,,,,,33,18,Vrouw,Links,2,
,dotcolour,xotask,dotcolour,28,3,208,208,main,negativefb,-99,easy,,0.5502867999985028,['n'],1,right,['3'],4,0.1062739999997575,18,,,,,,,33,18,Vrouw,Links,2,
,dotcolour,xotask,dotcolour,29,3,209,209,main,negativefb,-99,easy,,0.5012207999989187,['n'],1,right,['3'],4,0.5386872999988555,15,,,,,,,33,18,Vrouw,Links,2,
,dotcolour,xotask,dotcolour,30,3,210,210,main,negativefb,-99,average,,0.6010408000001917,['n'],1,right,['3'],4,0.062343600000531296,25,,,,,,,33,18,Vrouw,Links,2,
,dotcolour,xotask,dotcolour,31,3,211,211,main,negativefb,-99,hard,,0.7674110999996628,['c'],0,right,['3'],4,0.08532350000132283,39,,,,,,,33,18,Vrouw,Links,2,
,dotcolour,xotask,dotcolour,32,3,212,212,main,negativefb,-99,hard,,0.550535200000013,['n'],0,left,['3'],4,0.1177559999996447,41,,,,,,,33,18,Vrouw,Links,2,
,dotcolour,xotask,dotcolour,33,3,213,213,main,negativefb,-99,hard,,0.7675780999998096,['n'],1,right,['3'],4,0.07499439999992319,36,,,,,,,33,18,Vrouw,Links,2,
,dotcolour,xotask,dotcolour,34,3,214,214,main,negativefb,-99,average,,0.5668508999988262,['n'],1,right,['3'],4,0.07412589999876218,25,,,,,,,33,18,Vrouw,Links,2,
,dotcolour,xotask,dotcolour,35,3,215,215,main,negativefb,-99,easy,,0.4677329000005557,['n'],1,right,['2'],5,0.04590079999979935,17,,,,,,,33,18,Vrouw,Links,2,
,dotcolour,xotask,dotcolour,36,3,216,216,main,negativefb,-99,average,,0.44998239999949874,['n'],1,right,['2'],5,0.1308498000016698,29,,,,,,,33,18,Vrouw,Links,2,
,dotcolour,xotask,dotcolour,37,3,217,217,main,negativefb,-99,average,,0.6665893999997934,['c'],1,left,['2'],5,0.10766900000089663,51,,,,,,,33,18,Vrouw,Links,2,
,dotcolour,xotask,dotcolour,38,3,218,218,main,negativefb,-99,hard,,0.983641599999828,['c'],0,right,['2'],5,0.08865469999909692,38,,,,,,,33,18,Vrouw,Links,2,
,dotcolour,xotask,dotcolour,39,3,219,219,main,negativefb,-99,average,,0.3665222999989055,['c'],1,left,['2'],5,0.08830859999943641,53,,,,,,,33,18,Vrouw,Links,2,
,dotcolour,xotask,dotcolour,40,3,220,220,main,negativefb,-99,average,,0.39944849999847065,['c'],1,left,['1'],6,0.10174619999997958,51,,,,,,,33,18,Vrouw,Links,2,
,dotcolour,xotask,dotcolour,41,3,221,221,main,negativefb,-99,hard,,0.40143560000069556,['c'],0,right,['2'],5,0.06629439999960596,38,,,,,,,33,18,Vrouw,Links,2,
,dotcolour,xotask,dotcolour,42,3,222,222,main,negativefb,-99,easy,,0.4172066999999515,['c'],1,left,['2'],5,0.09521150000000489,61,,,,,,,33,18,Vrouw,Links,2,
,dotcolour,xotask,dotcolour,43,3,223,223,main,negativefb,-99,easy,,0.45050980000087293,['n'],1,right,['2'],5,0.11461740000049758,16,,,,,,,33,18,Vrouw,Links,2,
,dotcolour,xotask,dotcolour,44,3,224,224,main,negativefb,-99,average,,0.36736410000048636,['n'],1,right,['2'],5,0.11139600000024075,25,,,,,,,33,18,Vrouw,Links,2,
,dotcolour,xotask,dotcolour,45,3,225,225,main,negativefb,-99,hard,,1.0168579000001046,['c'],1,left,['1'],6,0.04473390000021027,41,,,,,,,33,18,Vrouw,Links,2,
,dotcolour,xotask,dotcolour,46,3,226,226,main,negativefb,-99,easy,,0.5173751000002085,['n'],1,right,['2'],5,0.09510180000143009,19,,,,,,,33,18,Vrouw,Links,2,
,dotcolour,xotask,dotcolour,47,3,227,227,main,negativefb,-99,average,,0.5017368999997416,['c'],1,left,['1'],6,0.008489499999996042,51,,,,,,,33,18,Vrouw,Links,2,
,dotcolour,xotask,dotcolour,48,3,228,228,main,negativefb,-99,easy,,0.6838994000008825,['c'],1,left,['1'],6,0.14176970000153233,63,,,,,,,33,18,Vrouw,Links,2,
,dotcolour,xotask,dotcolour,49,3,229,229,main,negativefb,-99,hard,,0.6176728999998886,['c'],1,left,['1'],6,0.15253430000120716,43,,,,,,,33,18,Vrouw,Links,2,
,dotcolour,xotask,dotcolour,50,3,230,230,main,negativefb,-99,hard,,0.5337067000000388,['c'],0,right,['2'],5,0.21408129999872472,37,,,,,,,33,18,Vrouw,Links,2,
,dotcolour,xotask,dotcolour,51,3,231,231,main,negativefb,-99,average,,0.5850515000001906,['n'],1,right,['1'],6,0.15112740000040503,27,,,,,,,33,18,Vrouw,Links,2,
,dotcolour,xotask,dotcolour,52,3,232,232,main,negativefb,-99,easy,,0.5837984999998298,['n'],1,right,['1'],6,0.1304056999997556,19,,,,,,,33,18,Vrouw,Links,2,
,dotcolour,xotask,dotcolour,53,3,233,233,main,negativefb,-99,easy,,0.5837134000012156,['c'],1,left,['1'],6,0.11053460000039195,63,,,,,,,33,18,Vrouw,Links,2,
,dotcolour,xotask,dotcolour,54,3,234,234,main,negativefb,-99,easy,,0.8169912000012118,['n'],1,right,['1'],6,0.09935299999960989,18,,,,,,,33,18,Vrouw,Links,2,
,dotcolour,xotask,dotcolour,55,3,235,235,main,negativefb,-99,easy,,0.5334289000002173,['c'],1,left,['1'],6,0.07461780000085128,61,,,,,,,33,18,Vrouw,Links,2,
,dotcolour,xotask,dotcolour,56,3,236,236,main,negativefb,-99,hard,,0.5508456000006845,['c'],1,left,['1'],6,0.05794670000068436,43,,,,,,,33,18,Vrouw,Links,2,
,dotcolour,xotask,dotcolour,57,3,237,237,main,negativefb,-99,average,,0.5511806000013166,['n'],1,right,['1'],6,0.17854309999893303,29,,,,,,,33,18,Vrouw,Links,2,
,dotcolour,xotask,dotcolour,58,3,238,238,main,negativefb,-99,hard,,0.5504295999999158,['c'],0,right,['2'],5,0.487266100000852,38,,,,,,,33,18,Vrouw,Links,2,
,dotcolour,xotask,dotcolour,59,3,239,239,main,negativefb,-99,average,,0.6668604000005871,['c'],1,left,['1'],6,0.24114080000072136,54,,,,,,,33,18,Vrouw,Links,2,
,dotcolour,xotask,dotcolour,0,4,240,240,main,negativefb,-99,hard,,0.8001395999999659,['n'],1,right,['1'],6,0.07518840000011551,37,,,,,,,33,18,Vrouw,Links,2,
,dotcolour,xotask,dotcolour,1,4,241,241,main,negativefb,-99,average,,0.5177593000007619,['n'],1,right,['1'],6,0.07611629999883007,26,,,,,,,33,18,Vrouw,Links,2,
,dotcolour,xotask,dotcolour,2,4,242,242,main,negativefb,-99,easy,,0.6672410999999556,['c'],1,left,['1'],6,0.07969070000035572,62,,,,,,,33,18,Vrouw,Links,2,
,dotcolour,xotask,dotcolour,3,4,243,243,main,negativefb,-99,hard,,0.6002306999998837,['c'],0,right,['2'],5,0.3572855999991589,37,,,,,,,33,18,Vrouw,Links,2,
,dotcolour,xotask,dotcolour,4,4,244,244,main,negativefb,-99,average,,0.5843201999996381,['n'],1,right,['2'],5,0.20880399999987276,27,,,,,,,33,18,Vrouw,Links,2,
,dotcolour,xotask,dotcolour,5,4,245,245,main,negativefb,-99,average,,0.5337213999991945,['c'],1,left,['2'],5,0.09239870000055816,51,,,,,,,33,18,Vrouw,Links,2,
,dotcolour,xotask,dotcolour,6,4,246,246,main,negativefb,-99,average,,0.5671884999992471,['c'],1,left,['2'],5,0.4185077000001911,51,,,,,,,33,18,Vrouw,Links,2,
,dotcolour,xotask,dotcolour,7,4,247,247,main,negativefb,-99,easy,,0.600812999999107,['c'],1,left,['1'],6,0.3074515000007523,65,,,,,,,33,18,Vrouw,Links,2,
,dotcolour,xotask,dotcolour,8,4,248,248,main,negativefb,-99,easy,,0.5838922999992064,['n'],1,right,['1'],6,0.12797589999900083,19,,,,,,,33,18,Vrouw,Links,2,
,dotcolour,xotask,dotcolour,9,4,249,249,main,negativefb,-99,hard,,0.6670438000001013,['c'],1,left,['1'],6,0.09742180000102962,43,,,,,,,33,18,Vrouw,Links,2,
,dotcolour,xotask,dotcolour,10,4,250,250,main,negativefb,-99,easy,,0.5676953000001959,['c'],1,left,['1'],6,0.16740699999900244,61,,,,,,,33,18,Vrouw,Links,2,
,dotcolour,xotask,dotcolour,11,4,251,251,main,negativefb,-99,easy,,0.4340620000002673,['c'],1,left,['1'],6,0.12870070000099076,65,,,,,,,33,18,Vrouw,Links,2,
,dotcolour,xotask,dotcolour,12,4,252,252,main,negativefb,-99,hard,,0.4346875999999611,['c'],0,right,['1'],6,0.17889850000028673,39,,,,,,,33,18,Vrouw,Links,2,
,dotcolour,xotask,dotcolour,13,4,253,253,main,negativefb,-99,average,,0.5671223000008467,['c'],0,right,['2'],5,0.2546650000003865,26,,,,,,,33,18,Vrouw,Links,2,
,dotcolour,xotask,dotcolour,14,4,254,254,main,negativefb,-99,average,,0.5174925000010262,['n'],1,right,['1'],6,0.13653960000010557,28,,,,,,,33,18,Vrouw,Links,2,
,dotcolour,xotask,dotcolour,15,4,255,255,main,negativefb,-99,hard,,0.4668645999990986,['n'],1,right,['2'],5,0.12890999999945052,36,,,,,,,33,18,Vrouw,Links,2,
,dotcolour,xotask,dotcolour,16,4,256,256,main,negativefb,-99,easy,,0.5670502000011766,['n'],1,right,['1'],6,0.17492540000057488,15,,,,,,,33,18,Vrouw,Links,2,
,dotcolour,xotask,dotcolour,17,4,257,257,main,negativefb,-99,average,,0.4185809999999037,['n'],1,right,['2'],5,0.09537780000027851,26,,,,,,,33,18,Vrouw,Links,2,
,dotcolour,xotask,dotcolour,18,4,258,258,main,negativefb,-99,hard,,0.4181148999996367,['n'],1,right,['1'],6,0.09327809999922465,36,,,,,,,33,18,Vrouw,Links,2,
,dotcolour,xotask,dotcolour,19,4,259,259,main,negativefb,-99,easy,,0.5179578999996011,['n'],1,right,['1'],6,0.10087530000055267,17,,,,,,,33,18,Vrouw,Links,2,
,dotcolour,xotask,dotcolour,20,4,260,260,main,negativefb,-99,easy,,0.6177867999995215,['c'],1,left,['1'],6,0.09766569999919739,62,,,,,,,33,18,Vrouw,Links,2,
,dotcolour,xotask,dotcolour,21,4,261,261,main,negativefb,-99,hard,,0.7169109999995271,['c'],1,left,['2'],5,0.13847749999877124,45,,,,,,,33,18,Vrouw,Links,2,
,dotcolour,xotask,dotcolour,22,4,262,262,main,negativefb,-99,hard,,1.0671923999998398,['c'],0,right,['1'],6,0.010657299999365932,35,,,,,,,33,18,Vrouw,Links,2,
,dotcolour,xotask,dotcolour,23,4,263,263,main,negativefb,-99,average,,0.6665954000000056,['c'],1,left,['1'],6,0.09730680000029679,51,,,,,,,33,18,Vrouw,Links,2,
,dotcolour,xotask,dotcolour,24,4,264,264,main,negativefb,-99,average,,0.4839898999998695,['c'],1,left,['2'],5,0.08262550000108604,53,,,,,,,33,18,Vrouw,Links,2,
,dotcolour,xotask,dotcolour,25,4,265,265,main,negativefb,-99,easy,,0.5007205999991129,['n'],1,right,['1'],6,0.08403770000040822,17,,,,,,,33,18,Vrouw,Links,2,
,dotcolour,xotask,dotcolour,26,4,266,266,main,negativefb,-99,hard,,0.6843029999999999,['c'],0,right,['2'],5,0.05384149999918009,35,,,,,,,33,18,Vrouw,Links,2,
,dotcolour,xotask,dotcolour,27,4,267,267,main,negativefb,-99,easy,,0.6173911999994743,['n'],1,right,['1'],6,0.1645250000001397,15,,,,,,,33,18,Vrouw,Links,2,
,dotcolour,xotask,dotcolour,28,4,268,268,main,negativefb,-99,easy,,0.7344699000004766,['c'],1,left,['1'],6,0.08041819999925792,62,,,,,,,33,18,Vrouw,Links,2,
,dotcolour,xotask,dotcolour,29,4,269,269,main,negativefb,-99,easy,,0.5001480000009906,['n'],1,right,['1'],6,0.07433889999992971,17,,,,,,,33,18,Vrouw,Links,2,
,dotcolour,xotask,dotcolour,30,4,270,270,main,negativefb,-99,hard,,0.6001517999993666,['c'],0,right,['1'],6,0.09689969999999448,36,,,,,,,33,18,Vrouw,Links,2,
,dotcolour,xotask,dotcolour,31,4,271,271,main,negativefb,-99,average,,0.7181342000003497,['n'],1,right,['1'],6,0.12907600000107777,25,,,,,,,33,18,Vrouw,Links,2,
,dotcolour,xotask,dotcolour,32,4,272,272,main,negativefb,-99,hard,,0.8172035000006872,['c'],1,left,['1'],6,0.16502500000024156,43,,,,,,,33,18,Vrouw,Links,2,
,dotcolour,xotask,dotcolour,33,4,273,273,main,negativefb,-99,average,,0.601549500001056,['n'],1,right,['1'],6,0.11916440000095463,25,,,,,,,33,18,Vrouw,Links,2,
,dotcolour,xotask,dotcolour,34,4,274,274,main,negativefb,-99,hard,,0.8341796999993676,['c'],0,right,['1'],6,0.21704070000123465,36,,,,,,,33,18,Vrouw,Links,2,
,dotcolour,xotask,dotcolour,35,4,275,275,main,negativefb,-99,easy,,0.7180418000007194,['c'],1,left,['1'],6,0.029114599999957136,65,,,,,,,33,18,Vrouw,Links,2,
,dotcolour,xotask,dotcolour,36,4,276,276,main,negativefb,-99,hard,,1.133506699999998,['c'],0,right,['2'],5,0.21505629999956,35,,,,,,,33,18,Vrouw,Links,2,
,dotcolour,xotask,dotcolour,37,4,277,277,main,negativefb,-99,easy,,0.43397080000067945,['c'],1,left,['1'],6,0.20613650000086636,65,,,,,,,33,18,Vrouw,Links,2,
,dotcolour,xotask,dotcolour,38,4,278,278,main,negativefb,-99,easy,,0.3997447000001557,['c'],1,left,['1'],6,0.08679440000014438,64,,,,,,,33,18,Vrouw,Links,2,
,dotcolour,xotask,dotcolour,39,4,279,279,main,negativefb,-99,average,,0.4334977999988041,['c'],1,left,['1'],6,0.06664910000108648,52,,,,,,,33,18,Vrouw,Links,2,
,dotcolour,xotask,dotcolour,40,4,280,280,main,negativefb,-99,hard,,0.3343887999999424,['c'],1,left,['1'],6,0.06712829999923997,43,,,,,,,33,18,Vrouw,Links,2,
,dotcolour,xotask,dotcolour,41,4,281,281,main,negativefb,-99,easy,,0.6675471000016842,['n'],1,right,['1'],6,0.11868569999933243,15,,,,,,,33,18,Vrouw,Links,2,
,dotcolour,xotask,dotcolour,42,4,282,282,main,negativefb,-99,hard,,0.8842657000004692,['c'],1,left,['2'],5,0.09539949999998498,44,,,,,,,33,18,Vrouw,Links,2,
,dotcolour,xotask,dotcolour,43,4,283,283,main,negativefb,-99,hard,,0.5842788999998447,['c'],1,left,['2'],5,0.21326779999981227,44,,,,,,,33,18,Vrouw,Links,2,
,dotcolour,xotask,dotcolour,44,4,284,284,main,negativefb,-99,average,,0.6174529999989318,['c'],1,left,['2'],5,0.02156029999969178,52,,,,,,,33,18,Vrouw,Links,2,
,dotcolour,xotask,dotcolour,45,4,285,285,main,negativefb,-99,average,,0.4514132000003883,['c'],1,left,['2'],5,0.05931099999907019,51,,,,,,,33,18,Vrouw,Links,2,
,dotcolour,xotask,dotcolour,46,4,286,286,main,negativefb,-99,hard,,1.88246430000072,['c'],1,left,['2'],5,0.1185961999999563,41,,,,,,,33,18,Vrouw,Links,2,
,dotcolour,xotask,dotcolour,47,4,287,287,main,negativefb,-99,hard,,0.4508080000014161,['c'],1,left,['2'],5,0.10490680000111752,41,,,,,,,33,18,Vrouw,Links,2,
,dotcolour,xotask,dotcolour,48,4,288,288,main,negativefb,-99,average,,0.43453890000091633,['n'],1,right,['2'],5,0.05999339999834774,29,,,,,,,33,18,Vrouw,Links,2,
,dotcolour,xotask,dotcolour,49,4,289,289,main,negativefb,-99,average,,0.7506775000001653,['c'],1,left,['1'],6,0.25247459999991406,52,,,,,,,33,18,Vrouw,Links,2,
,dotcolour,xotask,dotcolour,50,4,290,290,main,negativefb,-99,average,,0.5017642000002525,['c'],0,right,['8'],3,2.0236934999993537,26,,,,,,,33,18,Vrouw,Links,2,
,dotcolour,xotask,dotcolour,51,4,291,291,main,negativefb,-99,easy,,0.7342260000004899,['n'],1,right,['2'],5,0.12237090000053286,18,,,,,,,33,18,Vrouw,Links,2,
,dotcolour,xotask,dotcolour,52,4,292,292,main,negativefb,-99,average,,0.8173501999990549,['c'],1,left,['1'],6,0.1177981999990152,52,,,,,,,33,18,Vrouw,Links,2,
,dotcolour,xotask,dotcolour,53,4,293,293,main,negativefb,-99,average,,0.5515261000000464,['c'],1,left,['1'],6,0.11548469999979716,54,,,,,,,33,18,Vrouw,Links,2,
,dotcolour,xotask,dotcolour,54,4,294,294,main,negativefb,-99,easy,,0.5841970000001311,['c'],1,left,['1'],6,0.06396599999970931,61,,,,,,,33,18,Vrouw,Links,2,
,dotcolour,xotask,dotcolour,55,4,295,295,main,negativefb,-99,hard,,0.7839232999995147,['c'],1,left,['1'],6,0.09615510000003269,45,,,,,,,33,18,Vrouw,Links,2,
,dotcolour,xotask,dotcolour,56,4,296,296,main,negativefb,-99,average,,0.6183300000011513,['n'],1,right,['2'],5,0.09245460000056482,27,,,,,,,33,18,Vrouw,Links,2,
,dotcolour,xotask,dotcolour,57,4,297,297,main,negativefb,-99,hard,,0.9338456999994378,['c'],1,left,['2'],5,0.1325445000002219,43,,,,,,,33,18,Vrouw,Links,2,
,dotcolour,xotask,dotcolour,58,4,298,298,main,negativefb,-99,easy,,0.5180292000004556,['n'],1,right,['1'],6,0.1302869000010105,15,,,,,,,33,18,Vrouw,Links,2,
,dotcolour,xotask,dotcolour,59,4,299,299,main,negativefb,-99,easy,,0.5175808000003599,['n'],1,right,['1'],6,0.13043039999865869,18,,,,,,,33,18,Vrouw,Links,2,
,xotask,xotask,dotcolour,0,0,0,300,training,negativefb,85,average,60,0.6511090000003605,['c'],1,left,['1'],6,0.27094600000054925,,,,,,,,33,18,Vrouw,Links,2,
,xotask,xotask,dotcolour,1,0,1,301,training,negativefb,82,average,18,0.5509099000009883,['n'],1,right,['2'],5,0.10215459999926679,,,,,,,,33,18,Vrouw,Links,2,
,xotask,xotask,dotcolour,2,0,2,302,training,negativefb,45,average,63,0.5173946999984764,['c'],1,left,['2'],5,0.08556700000008277,,,,,,,,33,18,Vrouw,Links,2,
,xotask,xotask,dotcolour,3,0,3,303,training,negativefb,81,average,61,0.46638090000124066,['c'],1,left,['2'],5,0.4950356000008469,,,,,,,,33,18,Vrouw,Links,2,
,xotask,xotask,dotcolour,4,0,4,304,training,negativefb,54,hard,51,0.48359349999918777,['c'],1,left,['2'],5,0.04855390000011539,,,,,,,,33,18,Vrouw,Links,2,
,xotask,xotask,dotcolour,5,0,5,305,training,negativefb,65,easy,73,0.6325967000011588,['c'],1,left,['2'],5,0.06940390000090702,,,,,,,,33,18,Vrouw,Links,2,
,xotask,xotask,dotcolour,6,0,6,306,training,negativefb,70,hard,28,0.7501707000010356,['n'],1,right,['2'],5,0.07648200000039651,,,,,,,,33,18,Vrouw,Links,2,
,xotask,xotask,dotcolour,7,0,7,307,training,negativefb,89,average,63,0.5513307999990502,['c'],1,left,['2'],5,0.5323653999985254,,,,,,,,33,18,Vrouw,Links,2,
,xotask,xotask,dotcolour,8,0,8,308,training,negativefb,37,hard,29,0.6341723000005004,['c'],0,right,['2'],5,0.20578700000078243,,,,,,,,33,18,Vrouw,Links,2,
,xotask,xotask,dotcolour,9,0,9,309,training,negativefb,67,average,16,0.5490599999993719,['n'],1,right,['3'],4,0.1282082999987324,,,,,,,,33,18,Vrouw,Links,2,
,xotask,xotask,dotcolour,10,0,10,310,training,negativefb,65,average,19,0.5997359000011784,['n'],1,right,['2'],5,0.15472549999867624,,,,,,,,33,18,Vrouw,Links,2,
,xotask,xotask,dotcolour,11,0,11,311,training,negativefb,46,average,16,0.4494174999999814,['c'],0,right,['2'],5,0.1225481999990734,,,,,,,,33,18,Vrouw,Links,2,
,xotask,xotask,dotcolour,12,0,12,312,training,negativefb,72,hard,51,0.599435000000085,['c'],1,left,['3'],4,0.09463200000027427,,,,,,,,33,18,Vrouw,Links,2,
,xotask,xotask,dotcolour,13,0,13,313,training,negativefb,73,hard,29,0.650193000001309,['n'],1,right,['2'],5,0.09719919999952253,,,,,,,,33,18,Vrouw,Links,2,
,xotask,xotask,dotcolour,14,0,14,314,training,negativefb,39,hard,50,0.34978270000101475,['c'],1,left,['3'],4,0.175087400000848,,,,,,,,33,18,Vrouw,Links,2,
,xotask,xotask,dotcolour,15,0,15,315,training,negativefb,58,easy,72,0.6005165000005945,['c'],1,left,['3'],4,0.0889523999994708,,,,,,,,33,18,Vrouw,Links,2,
,xotask,xotask,dotcolour,16,0,16,316,training,negativefb,54,hard,51,0.5666020000007848,['c'],1,left,['2'],5,0.18242350000036822,,,,,,,,33,18,Vrouw,Links,2,
,xotask,xotask,dotcolour,17,0,17,317,training,negativefb,42,easy,9,0.44947809999939636,['c'],0,right,['3'],4,0.7013273000011395,,,,,,,,33,18,Vrouw,Links,2,
,xotask,xotask,dotcolour,18,0,18,318,training,negativefb,46,hard,50,0.6168849999994563,['n'],0,left,['2'],5,0.13689870000052906,,,,,,,,33,18,Vrouw,Links,2,
,xotask,xotask,dotcolour,19,0,19,319,training,negativefb,48,hard,51,0.8510827999998583,['c'],1,left,['3'],4,0.16974909999953525,,,,,,,,33,18,Vrouw,Links,2,
,xotask,xotask,dotcolour,20,0,20,320,training,negativefb,56,easy,70,0.5829849000001559,['c'],1,left,['2'],5,0.08378799999991315,,,,,,,,33,18,Vrouw,Links,2,
,xotask,xotask,dotcolour,21,0,21,321,training,negativefb,76,average,60,0.3334517999992386,['c'],1,left,['2'],5,0.13907060000019555,,,,,,,,33,18,Vrouw,Links,2,
,xotask,xotask,dotcolour,22,0,22,322,training,negativefb,71,average,16,0.7998361999998451,['n'],1,right,['2'],5,0.0618252999993274,,,,,,,,33,18,Vrouw,Links,2,
,xotask,xotask,dotcolour,23,0,23,323,training,negativefb,87,easy,74,0.5170380999988993,['c'],1,left,['2'],5,0.07916560000012396,,,,,,,,33,18,Vrouw,Links,2,
,xotask,xotask,dotcolour,24,0,24,324,training,negativefb,40,average,61,0.3835138000013103,['c'],1,left,['2'],5,0.06096579999939422,,,,,,,,33,18,Vrouw,Links,2,
,xotask,xotask,dotcolour,25,0,25,325,training,negativefb,60,average,16,0.5336420000003272,['n'],1,right,['2'],5,0.06986479999977746,,,,,,,,33,18,Vrouw,Links,2,
,xotask,xotask,dotcolour,26,0,26,326,training,negativefb,77,hard,26,0.6494818000010127,['n'],1,right,['2'],5,0.056604600000355276,,,,,,,,33,18,Vrouw,Links,2,
,xotask,xotask,dotcolour,27,0,27,327,training,negativefb,45,average,60,0.482600100000127,['c'],1,left,['2'],5,0.05145679999986896,,,,,,,,33,18,Vrouw,Links,2,
,xotask,xotask,dotcolour,28,0,28,328,training,negativefb,43,easy,72,1.0835963000008633,['c'],1,left,['2'],5,0.0787572999997792,,,,,,,,33,18,Vrouw,Links,2,
,xotask,xotask,dotcolour,29,0,29,329,training,negativefb,53,hard,50,0.599793999999747,['n'],0,left,['2'],5,0.06769450000138022,,,,,,,,33,18,Vrouw,Links,2,
,xotask,xotask,dotcolour,30,0,30,330,training,negativefb,74,easy,5,0.6163875999991433,['n'],1,right,['2'],5,0.06445749999875261,,,,,,,,33,18,Vrouw,Links,2,
,xotask,xotask,dotcolour,31,0,31,331,training,negativefb,57,hard,25,0.466628899999705,['n'],1,right,['2'],5,0.0826230000002397,,,,,,,,33,18,Vrouw,Links,2,
,xotask,xotask,dotcolour,32,0,32,332,training,negativefb,64,easy,74,0.6000096999996458,['c'],1,left,['2'],5,0.08002329999908397,,,,,,,,33,18,Vrouw,Links,2,
,xotask,xotask,dotcolour,33,0,33,333,training,negativefb,66,easy,6,1.0661779000001843,['n'],1,right,['2'],5,0.04224579999936395,,,,,,,,33,18,Vrouw,Links,2,
,xotask,xotask,dotcolour,34,0,34,334,training,negativefb,60,hard,29,0.41677200000049197,['n'],1,right,['2'],5,0.09634659999937867,,,,,,,,33,18,Vrouw,Links,2,
,xotask,xotask,dotcolour,35,0,35,335,training,negativefb,72,average,18,0.46816629999921133,['c'],0,right,['2'],5,0.06610159999945608,,,,,,,,33,18,Vrouw,Links,2,
,xotask,xotask,dotcolour,36,0,36,336,training,negativefb,48,hard,53,0.6003182000004017,['c'],1,left,['2'],5,0.047858100000667037,,,,,,,,33,18,Vrouw,Links,2,
,xotask,xotask,dotcolour,37,0,37,337,training,negativefb,85,average,17,0.484694099999615,['n'],1,right,['2'],5,0.13015470000027562,,,,,,,,33,18,Vrouw,Links,2,
,xotask,xotask,dotcolour,38,0,38,338,training,negativefb,78,average,63,0.5848478000007162,['c'],1,left,['2'],5,0.10260519999974349,,,,,,,,33,18,Vrouw,Links,2,
,xotask,xotask,dotcolour,39,0,39,339,training,negativefb,81,average,64,0.43350049999935436,['c'],1,left,['2'],5,0.2253887000006216,,,,,,,,33,18,Vrouw,Links,2,
,xotask,xotask,dotcolour,40,0,40,340,training,negativefb,82,easy,9,0.4840315000001283,['n'],1,right,['2'],5,0.14950400000088848,,,,,,,,33,18,Vrouw,Links,2,
,xotask,xotask,dotcolour,41,0,41,341,training,negativefb,82,hard,52,0.4840985000009823,['c'],1,left,['2'],5,0.0997231000001193,,,,,,,,33,18,Vrouw,Links,2,
,xotask,xotask,dotcolour,42,0,42,342,training,negativefb,76,easy,73,0.3335692000000563,['c'],1,left,['2'],5,0.09041249999972933,,,,,,,,33,18,Vrouw,Links,2,
,xotask,xotask,dotcolour,43,0,43,343,training,negativefb,0,easy,5,0.28354050000052666,['c'],0,right,['8'],3,1.2921784999998636,,,,,,,,33,18,Vrouw,Links,2,
,xotask,xotask,dotcolour,44,0,44,344,training,negativefb,29,easy,72,0.5669770000004064,['c'],1,left,['2'],5,0.2018805000006978,,,,,,,,33,18,Vrouw,Links,2,
,xotask,xotask,dotcolour,45,0,45,345,training,negativefb,51,average,19,0.5499373999991803,['n'],1,right,['3'],4,0.16440260000126727,,,,,,,,33,18,Vrouw,Links,2,
,xotask,xotask,dotcolour,46,0,46,346,training,negativefb,64,easy,7,0.5170373000000836,['n'],1,right,['3'],4,0.08919090000017604,,,,,,,,33,18,Vrouw,Links,2,
,xotask,xotask,dotcolour,47,0,47,347,training,negativefb,68,easy,72,0.6501943000002939,['c'],1,left,['2'],5,0.09996549999959825,,,,,,,,33,18,Vrouw,Links,2,
,xotask,xotask,dotcolour,48,0,48,348,training,negativefb,72,hard,51,0.48480560000098194,['c'],1,left,['2'],5,0.08478680000007444,,,,,,,,33,18,Vrouw,Links,2,
,xotask,xotask,dotcolour,49,0,49,349,training,negativefb,2,easy,7,0.43373890000111714,['c'],0,right,['8'],3,1.3444837999995798,,,,,,,,33,18,Vrouw,Links,2,
,xotask,xotask,dotcolour,50,0,50,350,training,negativefb,53,easy,9,0.5165059000009933,['n'],1,right,['2'],5,0.077865400000519,,,,,,,,33,18,Vrouw,Links,2,
,xotask,xotask,dotcolour,51,0,51,351,training,negativefb,52,easy,7,0.5163243000006332,['n'],1,right,['2'],5,0.08609230000001844,,,,,,,,33,18,Vrouw,Links,2,
,xotask,xotask,dotcolour,52,0,52,352,training,negativefb,44,hard,27,0.5987830000012764,['n'],1,right,['1'],6,0.11461079999935464,,,,,,,,33,18,Vrouw,Links,2,
,xotask,xotask,dotcolour,53,0,53,353,training,negativefb,72,hard,29,0.5996520999997301,['n'],1,right,['2'],5,0.08656710000104795,,,,,,,,33,18,Vrouw,Links,2,
,xotask,xotask,dotcolour,54,0,54,354,training,negativefb,86,average,18,0.4332737000004272,['n'],1,right,['3'],4,0.13812360000156332,,,,,,,,33,18,Vrouw,Links,2,
,xotask,xotask,dotcolour,55,0,55,355,training,negativefb,75,hard,29,0.48339759999907983,['n'],1,right,['2'],5,0.1613895999998931,,,,,,,,33,18,Vrouw,Links,2,
,xotask,xotask,dotcolour,56,0,56,356,training,negativefb,89,easy,73,0.5997713999986445,['c'],1,left,['1'],6,0.15534239999942656,,,,,,,,33,18,Vrouw,Links,2,
,xotask,xotask,dotcolour,57,0,57,357,training,negativefb,83,easy,6,0.43307090000052995,['n'],1,right,['2'],5,0.06811740000011923,,,,,,,,33,18,Vrouw,Links,2,
,xotask,xotask,dotcolour,58,0,58,358,training,negativefb,60,average,62,0.33460569999988365,['n'],0,left,['2'],5,0.09246549999988929,,,,,,,,33,18,Vrouw,Links,2,
,xotask,xotask,dotcolour,59,0,59,359,training,negativefb,46,hard,27,0.6337840999985929,['c'],0,right,['2'],5,0.07108200000038778,,,,,,,,33,18,Vrouw,Links,2,
,xotask,xotask,dotcolour,0,1,60,360,training,negativefb,90,average,63,0.5499335999993491,['c'],1,left,['2'],5,0.3415568999989773,,,,,,,,33,18,Vrouw,Links,2,
,xotask,xotask,dotcolour,1,1,61,361,training,negativefb,74,easy,9,0.4004967000000761,['n'],1,right,['2'],5,0.15182399999866902,,,,,,,,33,18,Vrouw,Links,2,
,xotask,xotask,dotcolour,2,1,62,362,training,negativefb,67,average,18,0.5002794000010908,['n'],1,right,['2'],5,0.14202880000084406,,,,,,,,33,18,Vrouw,Links,2,
,xotask,xotask,dotcolour,3,1,63,363,training,negativefb,80,easy,72,0.41648019999956887,['c'],1,left,['2'],5,0.07196610000028159,,,,,,,,33,18,Vrouw,Links,2,
,xotask,xotask,dotcolour,4,1,64,364,training,negativefb,65,easy,70,0.549980300000243,['c'],1,left,['2'],5,0.08760119999897142,,,,,,,,33,18,Vrouw,Links,2,
,xotask,xotask,dotcolour,5,1,65,365,training,negativefb,60,average,63,0.3167468999999983,['c'],1,left,['2'],5,0.07955659999970521,,,,,,,,33,18,Vrouw,Links,2,
,xotask,xotask,dotcolour,6,1,66,366,training,negativefb,81,average,63,0.3005606999995507,['c'],1,left,['2'],5,0.08098549999886018,,,,,,,,33,18,Vrouw,Links,2,
,xotask,xotask,dotcolour,7,1,67,367,training,negativefb,69,hard,50,0.5837087999989308,['c'],1,left,['2'],5,0.03836599999885948,,,,,,,,33,18,Vrouw,Links,2,
,xotask,xotask,dotcolour,8,1,68,368,training,negativefb,60,easy,71,0.5000200999984372,['c'],1,left,['1'],6,0.04160040000169829,,,,,,,,33,18,Vrouw,Links,2,
,xotask,xotask,dotcolour,9,1,69,369,training,negativefb,48,hard,53,0.4344015999995463,['c'],1,left,['2'],5,0.4469893999994383,,,,,,,,33,18,Vrouw,Links,2,
,xotask,xotask,dotcolour,10,1,70,370,training,negativefb,63,hard,54,0.41632989999925485,['c'],1,left,['2'],5,0.06849789999978384,,,,,,,,33,18,Vrouw,Links,2,
,xotask,xotask,dotcolour,11,1,71,371,training,negativefb,65,easy,72,0.40008769999985816,['c'],1,left,['3'],4,0.0741747000010946,,,,,,,,33,18,Vrouw,Links,2,
,xotask,xotask,dotcolour,12,1,72,372,training,negativefb,48,hard,50,0.5008137999993778,['c'],1,left,['2'],5,0.35569549999854644,,,,,,,,33,18,Vrouw,Links,2,
,xotask,xotask,dotcolour,13,1,73,373,training,negativefb,35,hard,28,0.4840065999997023,['c'],0,right,['2'],5,0.7304356999993615,,,,,,,,33,18,Vrouw,Links,2,
,xotask,xotask,dotcolour,14,1,74,374,training,negativefb,41,hard,52,0.7341462999993382,['c'],1,left,['3'],4,0.11191759999928763,,,,,,,,33,18,Vrouw,Links,2,
,xotask,xotask,dotcolour,15,1,75,375,training,negativefb,56,average,63,0.5012313999995968,['c'],1,left,['2'],5,0.09612629999901401,,,,,,,,33,18,Vrouw,Links,2,
,xotask,xotask,dotcolour,16,1,76,376,training,negativefb,82,average,62,0.5830957999987731,['c'],1,left,['2'],5,0.10178830000040762,,,,,,,,33,18,Vrouw,Links,2,
,xotask,xotask,dotcolour,17,1,77,377,training,negativefb,5,average,18,0.6332802000015363,['c'],0,right,['2'],5,0.7368269999988115,,,,,,,,33,18,Vrouw,Links,2,
,xotask,xotask,dotcolour,18,1,78,378,training,negativefb,64,hard,25,0.6655836999998428,['n'],1,right,['2'],5,0.05563310000070487,,,,,,,,33,18,Vrouw,Links,2,
,xotask,xotask,dotcolour,19,1,79,379,training,negativefb,50,average,15,0.3664530999994895,['n'],1,right,['2'],5,0.05564500000036787,,,,,,,,33,18,Vrouw,Links,2,
,xotask,xotask,dotcolour,20,1,80,380,training,negativefb,84,hard,25,0.5167779000003065,['n'],1,right,['1'],6,0.16110759999901347,,,,,,,,33,18,Vrouw,Links,2,
,xotask,xotask,dotcolour,21,1,81,381,training,negativefb,1,easy,73,0.43286579999949026,['n'],0,left,['8'],3,1.39354959999946,,,,,,,,33,18,Vrouw,Links,2,
,xotask,xotask,dotcolour,22,1,82,382,training,negativefb,40,easy,9,0.550168499999927,['n'],1,right,['1'],6,0.17975770000157354,,,,,,,,33,18,Vrouw,Links,2,
,xotask,xotask,dotcolour,23,1,83,383,training,negativefb,54,average,64,0.7334852999993018,['c'],1,left,['2'],5,0.16843359999984386,,,,,,,,33,18,Vrouw,Links,2,
,xotask,xotask,dotcolour,24,1,84,384,training,negativefb,78,average,15,0.633314300001075,['n'],1,right,['2'],5,0.11172270000133722,,,,,,,,33,18,Vrouw,Links,2,
,xotask,xotask,dotcolour,25,1,85,385,training,negativefb,53,average,63,0.6001453999997466,['c'],1,left,['2'],5,0.12388840000130585,,,,,,,,33,18,Vrouw,Links,2,
,xotask,xotask,dotcolour,26,1,86,386,training,negativefb,96,hard,54,0.41703249999955005,['c'],1,left,['2'],5,1.2147982999995293,,,,,,,,33,18,Vrouw,Links,2,
,xotask,xotask,dotcolour,27,1,87,387,training,negativefb,71,hard,28,0.534495899999456,['n'],1,right,['2'],5,0.03336949999902572,,,,,,,,33,18,Vrouw,Links,2,
,xotask,xotask,dotcolour,28,1,88,388,training,negativefb,91,hard,26,0.45071309999912046,['n'],1,right,['2'],5,0.07734310000159894,,,,,,,,33,18,Vrouw,Links,2,
,xotask,xotask,dotcolour,29,1,89,389,training,negativefb,67,hard,51,0.5171055999999226,['c'],1,left,['2'],5,0.07796980000057374,,,,,,,,33,18,Vrouw,Links,2,
,xotask,xotask,dotcolour,30,1,90,390,training,negativefb,50,easy,5,0.4334779000000708,['n'],1,right,['2'],5,0.06631589999960852,,,,,,,,33,18,Vrouw,Links,2,
,xotask,xotask,dotcolour,31,1,91,391,training,negativefb,66,hard,54,0.5166797999991104,['c'],1,left,['2'],5,0.03490160000001197,,,,,,,,33,18,Vrouw,Links,2,
,xotask,xotask,dotcolour,32,1,92,392,training,negativefb,83,average,62,0.5165047000009508,['c'],1,left,['2'],5,0.06046949999836215,,,,,,,,33,18,Vrouw,Links,2,
,xotask,xotask,dotcolour,33,1,93,393,training,negativefb,46,average,15,0.34902299999885145,['n'],1,right,['2'],5,0.11683439999978873,,,,,,,,33,18,Vrouw,Links,2,
,xotask,xotask,dotcolour,34,1,94,394,training,negativefb,65,average,62,0.38286020000123244,['c'],1,left,['2'],5,0.01656410000032338,,,,,,,,33,18,Vrouw,Links,2,
,xotask,xotask,dotcolour,35,1,95,395,training,negativefb,91,hard,26,0.3998203999999532,['n'],1,right,['2'],5,0.1285725999987335,,,,,,,,33,18,Vrouw,Links,2,
,xotask,xotask,dotcolour,36,1,96,396,training,negativefb,11,easy,71,0.35081019999961427,['n'],0,left,['8'],3,1.638079899999866,,,,,,,,33,18,Vrouw,Links,2,
,xotask,xotask,dotcolour,37,1,97,397,training,negativefb,57,average,16,0.6837767999986681,['n'],1,right,['2'],5,0.047889800000120886,,,,,,,,33,18,Vrouw,Links,2,
,xotask,xotask,dotcolour,38,1,98,398,training,negativefb,88,easy,9,1.1165497000001778,['n'],1,right,['2'],5,0.15340009999999893,,,,,,,,33,18,Vrouw,Links,2,
,xotask,xotask,dotcolour,39,1,99,399,training,negativefb,56,easy,7,0.4667647999995097,['n'],1,right,['2'],5,0.041173600000547594,,,,,,,,33,18,Vrouw,Links,2,
,xotask,xotask,dotcolour,40,1,100,400,training,negativefb,64,average,15,0.5506525000000693,['n'],1,right,['2'],5,0.07437380000010307,,,,,,,,33,18,Vrouw,Links,2,
,xotask,xotask,dotcolour,41,1,101,401,training,negativefb,49,average,60,0.383591300000262,['n'],0,left,['2'],5,0.03960279999955674,,,,,,,,33,18,Vrouw,Links,2,
,xotask,xotask,dotcolour,42,1,102,402,training,negativefb,68,average,19,0.5661184999989928,['n'],1,right,['2'],5,0.0237130999994406,,,,,,,,33,18,Vrouw,Links,2,
,xotask,xotask,dotcolour,43,1,103,403,training,negativefb,40,hard,27,0.5339522999984183,['n'],1,right,['2'],5,0.07426870000017516,,,,,,,,33,18,Vrouw,Links,2,
,xotask,xotask,dotcolour,44,1,104,404,training,negativefb,74,hard,27,0.7499631000009686,['n'],1,right,['2'],5,0.13718420000077458,,,,,,,,33,18,Vrouw,Links,2,
,xotask,xotask,dotcolour,45,1,105,405,training,negativefb,61,easy,5,0.5161253000005672,['n'],1,right,['2'],5,0.11110360000020592,,,,,,,,33,18,Vrouw,Links,2,
,xotask,xotask,dotcolour,46,1,106,406,training,negativefb,69,hard,29,0.39946749999944586,['n'],1,right,['2'],5,0.066864300000816,,,,,,,,33,18,Vrouw,Links,2,
,xotask,xotask,dotcolour,47,1,107,407,training,negativefb,58,easy,71,0.5665453999990859,['c'],1,left,['2'],5,0.10527259999980743,,,,,,,,33,18,Vrouw,Links,2,
,xotask,xotask,dotcolour,48,1,108,408,training,negativefb,43,hard,54,0.46674050000001444,['n'],0,left,['2'],5,0.13856529999975464,,,,,,,,33,18,Vrouw,Links,2,
,xotask,xotask,dotcolour,49,1,109,409,training,negativefb,60,easy,6,0.650023099999089,['c'],0,right,['2'],5,0.01968730000044161,,,,,,,,33,18,Vrouw,Links,2,
,xotask,xotask,dotcolour,50,1,110,410,training,negativefb,56,hard,29,0.5342612999993435,['c'],0,right,['2'],5,0.08517650000067079,,,,,,,,33,18,Vrouw,Links,2,
,xotask,xotask,dotcolour,51,1,111,411,training,negativefb,58,average,17,0.4510203999998339,['n'],1,right,['2'],5,0.10455700000056822,,,,,,,,33,18,Vrouw,Links,2,
,xotask,xotask,dotcolour,52,1,112,412,training,negativefb,66,easy,6,0.3332790999993449,['c'],0,right,['2'],5,0.022556100000656443,,,,,,,,33,18,Vrouw,Links,2,
,xotask,xotask,dotcolour,53,1,113,413,training,negativefb,63,easy,6,0.24902470000051835,['n'],1,right,['2'],5,0.052278799999839975,,,,,,,,33,18,Vrouw,Links,2,
,xotask,xotask,dotcolour,54,1,114,414,training,negativefb,63,easy,72,0.41699879999941913,['n'],0,left,['2'],5,0.025635300000431016,,,,,,,,33,18,Vrouw,Links,2,
,xotask,xotask,dotcolour,55,1,115,415,training,negativefb,37,average,17,0.5344636999998329,['c'],0,right,['2'],5,0.34794940000028873,,,,,,,,33,18,Vrouw,Links,2,
,xotask,xotask,dotcolour,56,1,116,416,training,negativefb,69,easy,71,0.6169216999987839,['c'],1,left,['2'],5,0.0609734000008757,,,,,,,,33,18,Vrouw,Links,2,
,xotask,xotask,dotcolour,57,1,117,417,training,negativefb,63,easy,73,0.6339098999997077,['c'],1,left,['2'],5,0.12128760000086913,,,,,,,,33,18,Vrouw,Links,2,
,xotask,xotask,dotcolour,58,1,118,418,training,negativefb,81,hard,50,0.6844002999987424,['c'],1,left,['1'],6,0.1297766000006959,,,,,,,,33,18,Vrouw,Links,2,
,xotask,xotask,dotcolour,59,1,119,419,training,negativefb,71,easy,7,0.6328626000013173,['n'],1,right,['2'],5,0.0522318000002997,,,,,,,,33,18,Vrouw,Links,2,
,xotask,xotask,dotcolour,0,2,120,420,main,negativefb,-99,average,16,0.5500001999989763,['n'],1,right,['2'],5,0.8294451000001573,,,,,,,,33,18,Vrouw,Links,2,
,xotask,xotask,dotcolour,1,2,121,421,main,negativefb,-99,easy,71,0.6014156000001094,['c'],1,left,['2'],5,0.05352370000036899,,,,,,,,33,18,Vrouw,Links,2,
,xotask,xotask,dotcolour,2,2,122,422,main,negativefb,-99,easy,8,0.6832379000006767,['n'],1,right,['2'],5,0.11299130000043078,,,,,,,,33,18,Vrouw,Links,2,
,xotask,xotask,dotcolour,3,2,123,423,main,negativefb,-99,hard,51,0.5674101999993582,['c'],1,left,['1'],6,0.1260891999991145,,,,,,,,33,18,Vrouw,Links,2,
,xotask,xotask,dotcolour,4,2,124,424,main,negativefb,-99,hard,52,0.567413700000543,['c'],1,left,['2'],5,0.0833903000002465,,,,,,,,33,18,Vrouw,Links,2,
,xotask,xotask,dotcolour,5,2,125,425,main,negativefb,-99,easy,71,0.5852728999998362,['c'],1,left,['1'],6,0.3455861000002187,,,,,,,,33,18,Vrouw,Links,2,
,xotask,xotask,dotcolour,6,2,126,426,main,negativefb,-99,hard,28,0.567094799998813,['n'],1,right,['2'],5,0.0786004999990837,,,,,,,,33,18,Vrouw,Links,2,
,xotask,xotask,dotcolour,7,2,127,427,main,negativefb,-99,average,19,0.45045740000023216,['n'],1,right,['2'],5,0.20180289999916567,,,,,,,,33,18,Vrouw,Links,2,
,xotask,xotask,dotcolour,8,2,128,428,main,negativefb,-99,hard,53,0.4015194000003248,['n'],0,left,['3'],4,0.2914573999987624,,,,,,,,33,18,Vrouw,Links,2,
,xotask,xotask,dotcolour,9,2,129,429,main,negativefb,-99,easy,5,0.5518716999995377,['n'],1,right,['3'],4,0.1466244999992341,,,,,,,,33,18,Vrouw,Links,2,
,xotask,xotask,dotcolour,10,2,130,430,main,negativefb,-99,average,15,0.4169294000002992,['n'],1,right,['2'],5,0.10115120000045863,,,,,,,,33,18,Vrouw,Links,2,
,xotask,xotask,dotcolour,11,2,131,431,main,negativefb,-99,hard,26,0.38490530000126455,['n'],1,right,['3'],4,0.17067119999956049,,,,,,,,33,18,Vrouw,Links,2,
,xotask,xotask,dotcolour,12,2,132,432,main,negativefb,-99,easy,9,0.5178338000005169,['n'],1,right,['3'],4,0.1043640999996569,,,,,,,,33,18,Vrouw,Links,2,
,xotask,xotask,dotcolour,13,2,133,433,main,negativefb,-99,average,16,0.5843801999999414,['n'],1,right,['3'],4,0.08500660000026983,,,,,,,,33,18,Vrouw,Links,2,
,xotask,xotask,dotcolour,14,2,134,434,main,negativefb,-99,hard,53,0.8671393999993597,['n'],0,left,['3'],4,0.031377100000099745,,,,,,,,33,18,Vrouw,Links,2,
,xotask,xotask,dotcolour,15,2,135,435,main,negativefb,-99,easy,70,0.832459999999628,['n'],0,left,['8'],3,3.3495455000011134,,,,,,,,33,18,Vrouw,Links,2,
,xotask,xotask,dotcolour,16,2,136,436,main,negativefb,-99,easy,73,0.5680834999984654,['c'],1,left,['1'],6,0.12956190000113565,,,,,,,,33,18,Vrouw,Links,2,
,xotask,xotask,dotcolour,17,2,137,437,main,negativefb,-99,average,63,0.5180565999999089,['c'],1,left,['1'],6,0.11254569999982778,,,,,,,,33,18,Vrouw,Links,2,
,xotask,xotask,dotcolour,18,2,138,438,main,negativefb,-99,easy,71,0.5006637000005867,['c'],1,left,['2'],5,0.09757619999982126,,,,,,,,33,18,Vrouw,Links,2,
,xotask,xotask,dotcolour,19,2,139,439,main,negativefb,-99,average,62,0.517500599999039,['c'],1,left,['1'],6,0.09787510000023758,,,,,,,,33,18,Vrouw,Links,2,
,xotask,xotask,dotcolour,20,2,140,440,main,negativefb,-99,hard,54,0.43268719999832683,['c'],1,left,['2'],5,0.06896800000140502,,,,,,,,33,18,Vrouw,Links,2,
,xotask,xotask,dotcolour,21,2,141,441,main,negativefb,-99,easy,6,0.6008979000016552,['n'],1,right,['2'],5,0.08294350000142003,,,,,,,,33,18,Vrouw,Links,2,
,xotask,xotask,dotcolour,22,2,142,442,main,negativefb,-99,average,17,0.567753499999526,['n'],1,right,['2'],5,0.04950579999967886,,,,,,,,33,18,Vrouw,Links,2,
,xotask,xotask,dotcolour,23,2,143,443,main,negativefb,-99,average,64,1.083245399999214,['c'],1,left,['1'],6,0.10858560000087891,,,,,,,,33,18,Vrouw,Links,2,
,xotask,xotask,dotcolour,24,2,144,444,main,negativefb,-99,average,61,0.8841624000015145,['c'],1,left,['1'],6,0.0548452000002726,,,,,,,,33,18,Vrouw,Links,2,
,xotask,xotask,dotcolour,25,2,145,445,main,negativefb,-99,easy,71,1.0004934999997204,['c'],1,left,['1'],6,0.07670859999961976,,,,,,,,33,18,Vrouw,Links,2,
,xotask,xotask,dotcolour,26,2,146,446,main,negativefb,-99,easy,9,0.5007647999991605,['n'],1,right,['2'],5,0.13514969999960158,,,,,,,,33,18,Vrouw,Links,2,
,xotask,xotask,dotcolour,27,2,147,447,main,negativefb,-99,average,60,0.5516335000011168,['c'],1,left,['1'],6,0.03640180000002147,,,,,,,,33,18,Vrouw,Links,2,
,xotask,xotask,dotcolour,28,2,148,448,main,negativefb,-99,easy,5,0.500255200000538,['n'],1,right,['2'],5,0.09595629999967059,,,,,,,,33,18,Vrouw,Links,2,
,xotask,xotask,dotcolour,29,2,149,449,main,negativefb,-99,hard,26,0.4180980000001,['n'],1,right,['2'],5,0.10059410000030766,,,,,,,,33,18,Vrouw,Links,2,
,xotask,xotask,dotcolour,30,2,150,450,main,negativefb,-99,average,17,0.39990020000004733,['n'],1,right,['1'],6,0.07305300000007264,,,,,,,,33,18,Vrouw,Links,2,
,xotask,xotask,dotcolour,31,2,151,451,main,negativefb,-99,average,63,0.6340266999995947,['c'],1,left,['1'],6,0.08578250000027765,,,,,,,,33,18,Vrouw,Links,2,
,xotask,xotask,dotcolour,32,2,152,452,main,negativefb,-99,easy,73,0.5844008000003669,['c'],1,left,['1'],6,0.13158089999888034,,,,,,,,33,18,Vrouw,Links,2,
,xotask,xotask,dotcolour,33,2,153,453,main,negativefb,-99,hard,54,0.6014149000002362,['n'],0,left,['1'],6,0.08680380000078003,,,,,,,,33,18,Vrouw,Links,2,
,xotask,xotask,dotcolour,34,2,154,454,main,negativefb,-99,average,61,0.584233999999924,['c'],1,left,['1'],6,0.05351370000062161,,,,,,,,33,18,Vrouw,Links,2,
,xotask,xotask,dotcolour,35,2,155,455,main,negativefb,-99,average,63,0.5492171999994753,['c'],1,left,['2'],5,0.10154619999957504,,,,,,,,33,18,Vrouw,Links,2,
,xotask,xotask,dotcolour,36,2,156,456,main,negativefb,-99,average,60,0.4341868000010436,['c'],1,left,['2'],5,0.16891790000045148,,,,,,,,33,18,Vrouw,Links,2,
,xotask,xotask,dotcolour,37,2,157,457,main,negativefb,-99,easy,5,0.734198699999979,['n'],1,right,['2'],5,0.10205979999955161,,,,,,,,33,18,Vrouw,Links,2,
,xotask,xotask,dotcolour,38,2,158,458,main,negativefb,-99,hard,28,0.517079899998862,['n'],1,right,['2'],5,0.06967609999992419,,,,,,,,33,18,Vrouw,Links,2,
,xotask,xotask,dotcolour,39,2,159,459,main,negativefb,-99,hard,53,0.5673993000000337,['c'],1,left,['1'],6,0.08485389999987092,,,,,,,,33,18,Vrouw,Links,2,
,xotask,xotask,dotcolour,40,2,160,460,main,negativefb,-99,hard,28,0.46664630000123,['c'],0,right,['1'],6,0.08042930000010529,,,,,,,,33,18,Vrouw,Links,2,
,xotask,xotask,dotcolour,41,2,161,461,main,negativefb,-99,hard,25,0.4676507000003767,['n'],1,right,['3'],4,0.10730390000026091,,,,,,,,33,18,Vrouw,Links,2,
,xotask,xotask,dotcolour,42,2,162,462,main,negativefb,-99,average,62,0.5001611999996385,['c'],1,left,['1'],6,0.10011189999931958,,,,,,,,33,18,Vrouw,Links,2,
,xotask,xotask,dotcolour,43,2,163,463,main,negativefb,-99,easy,7,0.5338298999995459,['n'],1,right,['3'],4,0.1153956999987713,,,,,,,,33,18,Vrouw,Links,2,
,xotask,xotask,dotcolour,44,2,164,464,main,negativefb,-99,average,18,0.3842866999984835,['c'],0,right,['1'],6,0.15182389999972656,,,,,,,,33,18,Vrouw,Links,2,
,xotask,xotask,dotcolour,45,2,165,465,main,negativefb,-99,average,18,0.5503002000004926,['n'],1,right,['3'],4,0.08461149999857298,,,,,,,,33,18,Vrouw,Links,2,
,xotask,xotask,dotcolour,46,2,166,466,main,negativefb,-99,hard,28,0.41803040000013425,['c'],0,right,['1'],6,0.12100509999982023,,,,,,,,33,18,Vrouw,Links,2,
,xotask,xotask,dotcolour,47,2,167,467,main,negativefb,-99,hard,29,0.38422990000071877,['n'],1,right,['3'],4,0.1335770000005141,,,,,,,,33,18,Vrouw,Links,2,
,xotask,xotask,dotcolour,48,2,168,468,main,negativefb,-99,hard,28,0.2835251000014978,['c'],0,right,['1'],6,0.08550230000037118,,,,,,,,33,18,Vrouw,Links,2,
,xotask,xotask,dotcolour,49,2,169,469,main,negativefb,-99,hard,26,0.4344842999998946,['n'],1,right,['3'],4,0.09024909999970987,,,,,,,,33,18,Vrouw,Links,2,
,xotask,xotask,dotcolour,50,2,170,470,main,negativefb,-99,hard,51,0.45122619999892777,['c'],1,left,['1'],6,0.10129359999882581,,,,,,,,33,18,Vrouw,Links,2,
,xotask,xotask,dotcolour,51,2,171,471,main,negativefb,-99,easy,6,0.6502137999996194,['n'],1,right,['1'],6,0.08764280000104918,,,,,,,,33,18,Vrouw,Links,2,
,xotask,xotask,dotcolour,52,2,172,472,main,negativefb,-99,average,17,0.8178435999998328,['n'],1,right,['3'],4,0.1407828999999765,,,,,,,,33,18,Vrouw,Links,2,
,xotask,xotask,dotcolour,53,2,173,473,main,negativefb,-99,average,16,0.5339218000008259,['n'],1,right,['3'],4,0.09877380000034464,,,,,,,,33,18,Vrouw,Links,2,
,xotask,xotask,dotcolour,54,2,174,474,main,negativefb,-99,easy,7,0.617645000000266,['n'],1,right,['3'],4,0.08687800000006973,,,,,,,,33,18,Vrouw,Links,2,
,xotask,xotask,dotcolour,55,2,175,475,main,negativefb,-99,easy,72,1.1846174000002065,['c'],1,left,['3'],4,0.2524541999991925,,,,,,,,33,18,Vrouw,Links,2,
,xotask,xotask,dotcolour,56,2,176,476,main,negativefb,-99,easy,72,0.4678005999994639,['c'],1,left,['1'],6,0.1447838000003685,,,,,,,,33,18,Vrouw,Links,2,
,xotask,xotask,dotcolour,57,2,177,477,main,negativefb,-99,hard,50,0.45024929999999586,['c'],1,left,['2'],5,0.13779069999873172,,,,,,,,33,18,Vrouw,Links,2,
,xotask,xotask,dotcolour,58,2,178,478,main,negativefb,-99,hard,52,0.9837489000001369,['c'],1,left,['2'],5,0.15800769999987097,,,,,,,,33,18,Vrouw,Links,2,
,xotask,xotask,dotcolour,59,2,179,479,main,negativefb,-99,easy,73,0.6681712000008702,['c'],1,left,['1'],6,0.06976589999976568,,,,,,,,33,18,Vrouw,Links,2,
,xotask,xotask,dotcolour,0,3,180,480,main,negativefb,-99,easy,5,0.5017274999991059,['n'],1,right,['1'],6,0.07941309999841906,,,,,,,,33,18,Vrouw,Links,2,
,xotask,xotask,dotcolour,1,3,181,481,main,negativefb,-99,hard,52,0.5512077000003046,['c'],1,left,['2'],5,0.7995709999995597,,,,,,,,33,18,Vrouw,Links,2,
,xotask,xotask,dotcolour,2,3,182,482,main,negativefb,-99,hard,52,0.5841570000011416,['c'],1,left,['2'],5,0.11246860000028391,,,,,,,,33,18,Vrouw,Links,2,
,xotask,xotask,dotcolour,3,3,183,483,main,negativefb,-99,hard,29,0.6512640999990253,['c'],0,right,['2'],5,0.04322160000083386,,,,,,,,33,18,Vrouw,Links,2,
,xotask,xotask,dotcolour,4,3,184,484,main,negativefb,-99,hard,25,0.5015375000002678,['c'],0,right,['2'],5,0.1427120999996987,,,,,,,,33,18,Vrouw,Links,2,
,xotask,xotask,dotcolour,5,3,185,485,main,negativefb,-99,easy,74,0.733708800000386,['c'],1,left,['1'],6,0.5013314000007085,,,,,,,,33,18,Vrouw,Links,2,
,xotask,xotask,dotcolour,6,3,186,486,main,negativefb,-99,easy,6,0.7009680999999546,['n'],1,right,['1'],6,0.10937050000029558,,,,,,,,33,18,Vrouw,Links,2,
,xotask,xotask,dotcolour,7,3,187,487,main,negativefb,-99,hard,27,0.5168241000010312,['n'],1,right,['1'],6,0.12501349999911326,,,,,,,,33,18,Vrouw,Links,2,
,xotask,xotask,dotcolour,8,3,188,488,main,negativefb,-99,easy,73,0.7016164999986358,['c'],1,left,['1'],6,0.09322199999951408,,,,,,,,33,18,Vrouw,Links,2,
,xotask,xotask,dotcolour,9,3,189,489,main,negativefb,-99,easy,70,0.5677969999997003,['c'],1,left,['1'],6,0.06821260000106122,,,,,,,,33,18,Vrouw,Links,2,
,xotask,xotask,dotcolour,10,3,190,490,main,negativefb,-99,hard,25,0.550132799999119,['n'],1,right,['1'],6,0.12446060000002035,,,,,,,,33,18,Vrouw,Links,2,
,xotask,xotask,dotcolour,11,3,191,491,main,negativefb,-99,easy,8,0.7010302999988198,['n'],1,right,['1'],6,0.13175480000063544,,,,,,,,33,18,Vrouw,Links,2,
,xotask,xotask,dotcolour,12,3,192,492,main,negativefb,-99,easy,6,1.267204399999173,['n'],1,right,['2'],5,0.10082909999982803,,,,,,,,33,18,Vrouw,Links,2,
,xotask,xotask,dotcolour,13,3,193,493,main,negativefb,-99,average,62,0.534490599999117,['c'],1,left,['1'],6,0.17262060000030033,,,,,,,,33,18,Vrouw,Links,2,
,xotask,xotask,dotcolour,14,3,194,494,main,negativefb,-99,easy,73,0.466642999999749,['c'],1,left,['2'],5,0.0991228000002593,,,,,,,,33,18,Vrouw,Links,2,
,xotask,xotask,dotcolour,15,3,195,495,main,negativefb,-99,average,64,0.5176246999999421,['c'],1,left,['1'],6,0.1074270000008255,,,,,,,,33,18,Vrouw,Links,2,
,xotask,xotask,dotcolour,16,3,196,496,main,negativefb,-99,easy,74,0.5181799999991199,['c'],1,left,['2'],5,0.17937849999907485,,,,,,,,33,18,Vrouw,Links,2,
,xotask,xotask,dotcolour,17,3,197,497,main,negativefb,-99,hard,54,0.41730529999949795,['c'],1,left,['2'],5,0.5171735000003537,,,,,,,,33,18,Vrouw,Links,2,
,xotask,xotask,dotcolour,18,3,198,498,main,negativefb,-99,hard,25,0.40098700000089593,['c'],0,right,['2'],5,0.09716059999846038,,,,,,,,33,18,Vrouw,Links,2,
,xotask,xotask,dotcolour,19,3,199,499,main,negativefb,-99,hard,27,0.6164955999993253,['n'],1,right,['2'],5,0.045085700001436635,,,,,,,,33,18,Vrouw,Links,2,
,xotask,xotask,dotcolour,20,3,200,500,main,negativefb,-99,average,19,0.5845564999999624,['n'],1,right,['3'],4,0.14158260000112932,,,,,,,,33,18,Vrouw,Links,2,
,xotask,xotask,dotcolour,21,3,201,501,main,negativefb,-99,average,64,0.8502683999995497,['c'],1,left,['1'],6,0.11083549999966635,,,,,,,,33,18,Vrouw,Links,2,
,xotask,xotask,dotcolour,22,3,202,502,main,negativefb,-99,average,15,0.5177604000000429,['n'],1,right,['1'],6,0.1668496000002051,,,,,,,,33,18,Vrouw,Links,2,
,xotask,xotask,dotcolour,23,3,203,503,main,negativefb,-99,average,18,0.45010349999938626,['n'],1,right,['1'],6,0.07874380000066594,,,,,,,,33,18,Vrouw,Links,2,
,xotask,xotask,dotcolour,24,3,204,504,main,negativefb,-99,average,18,0.5339874000001146,['n'],1,right,['2'],5,0.08719340000061493,,,,,,,,33,18,Vrouw,Links,2,
,xotask,xotask,dotcolour,25,3,205,505,main,negativefb,-99,average,17,1.26789749999989,['c'],0,right,['1'],6,0.1142163000004075,,,,,,,,33,18,Vrouw,Links,2,
,xotask,xotask,dotcolour,26,3,206,506,main,negativefb,-99,average,63,0.8675210000001243,['c'],1,left,['2'],5,0.10738599999967846,,,,,,,,33,18,Vrouw,Links,2,
,xotask,xotask,dotcolour,27,3,207,507,main,negativefb,-99,hard,53,0.5509485000002314,['c'],1,left,['2'],5,0.0977309999998397,,,,,,,,33,18,Vrouw,Links,2,
,xotask,xotask,dotcolour,28,3,208,508,main,negativefb,-99,easy,5,0.7009940000007191,['n'],1,right,['2'],5,0.1631623999983276,,,,,,,,33,18,Vrouw,Links,2,
,xotask,xotask,dotcolour,29,3,209,509,main,negativefb,-99,hard,52,0.5501597000002221,['n'],0,left,['2'],5,0.288225299998885,,,,,,,,33,18,Vrouw,Links,2,
,xotask,xotask,dotcolour,30,3,210,510,main,negativefb,-99,average,61,0.28430589999879885,['c'],1,left,['1'],6,0.09794599999986531,,,,,,,,33,18,Vrouw,Links,2,
,xotask,xotask,dotcolour,31,3,211,511,main,negativefb,-99,hard,52,0.5174492000005557,['c'],1,left,['1'],6,0.06575129999873752,,,,,,,,33,18,Vrouw,Links,2,
,xotask,xotask,dotcolour,32,3,212,512,main,negativefb,-99,average,63,0.4850867000004655,['c'],1,left,['2'],5,0.11696179999853484,,,,,,,,33,18,Vrouw,Links,2,
,xotask,xotask,dotcolour,33,3,213,513,main,negativefb,-99,easy,6,0.48484860000098706,['n'],1,right,['2'],5,0.1487349000017275,,,,,,,,33,18,Vrouw,Links,2,
,xotask,xotask,dotcolour,34,3,214,514,main,negativefb,-99,hard,53,0.6511554999997315,['n'],0,left,['2'],5,0.04601349999938975,,,,,,,,33,18,Vrouw,Links,2,
,xotask,xotask,dotcolour,35,3,215,515,main,negativefb,-99,easy,73,0.4514099999996688,['c'],1,left,['2'],5,0.10754980000092473,,,,,,,,33,18,Vrouw,Links,2,
,xotask,xotask,dotcolour,36,3,216,516,main,negativefb,-99,easy,7,0.551269499999762,['n'],1,right,['2'],5,0.4261301000005915,,,,,,,,33,18,Vrouw,Links,2,
,xotask,xotask,dotcolour,37,3,217,517,main,negativefb,-99,average,15,0.5169383000011294,['n'],1,right,['1'],6,0.08549189999939699,,,,,,,,33,18,Vrouw,Links,2,
,xotask,xotask,dotcolour,38,3,218,518,main,negativefb,-99,hard,27,0.6666050000003452,['n'],1,right,['2'],5,0.12027370000032533,,,,,,,,33,18,Vrouw,Links,2,
,xotask,xotask,dotcolour,39,3,219,519,main,negativefb,-99,easy,71,0.7333500000004278,['c'],1,left,['1'],6,0.19868069999938598,,,,,,,,33,18,Vrouw,Links,2,
,xotask,xotask,dotcolour,40,3,220,520,main,negativefb,-99,hard,25,0.5848088000002463,['n'],1,right,['3'],4,0.04824009999902046,,,,,,,,33,18,Vrouw,Links,2,
,xotask,xotask,dotcolour,41,3,221,521,main,negativefb,-99,average,15,0.7497102999986964,['n'],1,right,['2'],5,0.11265160000039032,,,,,,,,33,18,Vrouw,Links,2,
,xotask,xotask,dotcolour,42,3,222,522,main,negativefb,-99,easy,9,0.5332555999993929,['n'],1,right,['2'],5,0.13661099999990256,,,,,,,,33,18,Vrouw,Links,2,
,xotask,xotask,dotcolour,43,3,223,523,main,negativefb,-99,average,62,0.8675117000002501,['n'],0,left,['1'],6,0.12116489999971236,,,,,,,,33,18,Vrouw,Links,2,
,xotask,xotask,dotcolour,44,3,224,524,main,negativefb,-99,hard,26,2.0349578999994264,['c'],0,right,['2'],5,0.07583350000095379,,,,,,,,33,18,Vrouw,Links,2,
,xotask,xotask,dotcolour,45,3,225,525,main,negativefb,-99,hard,53,0.8848410999999032,['n'],0,left,['2'],5,0.062208400000599795,,,,,,,,33,18,Vrouw,Links,2,
,xotask,xotask,dotcolour,46,3,226,526,main,negativefb,-99,easy,8,0.5838852999986557,['n'],1,right,['2'],5,0.09363849999863305,,,,,,,,33,18,Vrouw,Links,2,
,xotask,xotask,dotcolour,47,3,227,527,main,negativefb,-99,easy,70,1.1339745000004768,['c'],1,left,['1'],6,0.18123100000047998,,,,,,,,33,18,Vrouw,Links,2,
,xotask,xotask,dotcolour,48,3,228,528,main,negativefb,-99,easy,74,0.5339082000009512,['c'],1,left,['1'],6,0.025248500000088825,,,,,,,,33,18,Vrouw,Links,2,
,xotask,xotask,dotcolour,49,3,229,529,main,negativefb,-99,average,64,0.48360370000045805,['c'],1,left,['2'],5,0.0056905000001279404,,,,,,,,33,18,Vrouw,Links,2,
,xotask,xotask,dotcolour,50,3,230,530,main,negativefb,-99,easy,73,0.466751199999635,['c'],1,left,['2'],5,0.6193965999991633,,,,,,,,33,18,Vrouw,Links,2,
,xotask,xotask,dotcolour,51,3,231,531,main,negativefb,-99,average,61,0.36687180000080843,['c'],1,left,['2'],5,0.04506550000041898,,,,,,,,33,18,Vrouw,Links,2,
,xotask,xotask,dotcolour,52,3,232,532,main,negativefb,-99,average,16,0.6677330000002257,['n'],1,right,['2'],5,0.04993820000163396,,,,,,,,33,18,Vrouw,Links,2,
,xotask,xotask,dotcolour,53,3,233,533,main,negativefb,-99,hard,50,0.584253399998488,['c'],1,left,['1'],6,0.05683859999953711,,,,,,,,33,18,Vrouw,Links,2,
,xotask,xotask,dotcolour,54,3,234,534,main,negativefb,-99,easy,8,0.5847469000000274,['n'],1,right,['2'],5,0.07257099999878847,,,,,,,,33,18,Vrouw,Links,2,
,xotask,xotask,dotcolour,55,3,235,535,main,negativefb,-99,hard,54,0.5840877999999066,['c'],1,left,['1'],6,0.1273509999991802,,,,,,,,33,18,Vrouw,Links,2,
,xotask,xotask,dotcolour,56,3,236,536,main,negativefb,-99,average,63,0.6341088999997737,['c'],1,left,['2'],5,0.23450749999938125,,,,,,,,33,18,Vrouw,Links,2,
,xotask,xotask,dotcolour,57,3,237,537,main,negativefb,-99,average,16,0.6520498000008956,['c'],0,right,['1'],6,0.18370810000124038,,,,,,,,33,18,Vrouw,Links,2,
,xotask,xotask,dotcolour,58,3,238,538,main,negativefb,-99,average,17,0.6665248999997857,['c'],0,right,['2'],5,0.054236500000115484,,,,,,,,33,18,Vrouw,Links,2,
,xotask,xotask,dotcolour,59,3,239,539,main,negativefb,-99,hard,29,0.6842113999991852,['n'],1,right,['2'],5,0.08181739999963611,,,,,,,,33,18,Vrouw,Links,2,
,xotask,xotask,dotcolour,0,4,240,540,main,negativefb,-99,hard,25,1.4354391999986547,['c'],0,right,['2'],5,0.014228000000002794,,,,,,,,33,18,Vrouw,Links,2,
,xotask,xotask,dotcolour,1,4,241,541,main,negativefb,-99,hard,26,0.6335658999996667,['n'],1,right,['2'],5,0.045840599999792175,,,,,,,,33,18,Vrouw,Links,2,
,xotask,xotask,dotcolour,2,4,242,542,main,negativefb,-99,average,60,0.4845678000001499,['c'],1,left,['2'],5,0.4257058000002871,,,,,,,,33,18,Vrouw,Links,2,
,xotask,xotask,dotcolour,3,4,243,543,main,negativefb,-99,easy,71,0.901138200000787,['c'],1,left,['1'],6,0.10951340000065102,,,,,,,,33,18,Vrouw,Links,2,
,xotask,xotask,dotcolour,4,4,244,544,main,negativefb,-99,average,15,0.6999448000005941,['n'],1,right,['2'],5,0.054366600001230836,,,,,,,,33,18,Vrouw,Links,2,
,xotask,xotask,dotcolour,5,4,245,545,main,negativefb,-99,easy,74,0.5672437000011996,['c'],1,left,['1'],6,0.030287699999462347,,,,,,,,33,18,Vrouw,Links,2,
,xotask,xotask,dotcolour,6,4,246,546,main,negativefb,-99,hard,25,0.6836098999992828,['c'],0,right,['2'],5,0.6908910999991349,,,,,,,,33,18,Vrouw,Links,2,
,xotask,xotask,dotcolour,7,4,247,547,main,negativefb,-99,average,17,0.5013354999991861,['n'],1,right,['1'],6,0.05282889999944018,,,,,,,,33,18,Vrouw,Links,2,
,xotask,xotask,dotcolour,8,4,248,548,main,negativefb,-99,easy,8,0.4838679000004049,['n'],1,right,['1'],6,0.047353199999633944,,,,,,,,33,18,Vrouw,Links,2,
,xotask,xotask,dotcolour,9,4,249,549,main,negativefb,-99,hard,50,0.6510832000003575,['c'],1,left,['1'],6,0.028497200000856537,,,,,,,,33,18,Vrouw,Links,2,
,xotask,xotask,dotcolour,10,4,250,550,main,negativefb,-99,easy,6,0.533459700000094,['n'],1,right,['1'],6,0.09460810000018682,,,,,,,,33,18,Vrouw,Links,2,
,xotask,xotask,dotcolour,11,4,251,551,main,negativefb,-99,hard,50,0.48458579999896756,['c'],1,left,['1'],6,0.024355800000193994,,,,,,,,33,18,Vrouw,Links,2,
,xotask,xotask,dotcolour,12,4,252,552,main,negativefb,-99,hard,27,0.616649999999936,['n'],1,right,['1'],6,0.07201800000075309,,,,,,,,33,18,Vrouw,Links,2,
,xotask,xotask,dotcolour,13,4,253,553,main,negativefb,-99,average,61,0.4670456000003469,['c'],1,left,['1'],6,0.019243700000515673,,,,,,,,33,18,Vrouw,Links,2,
,xotask,xotask,dotcolour,14,4,254,554,main,negativefb,-99,average,18,0.5504904999997962,['c'],0,right,['1'],6,0.07781670000076701,,,,,,,,33,18,Vrouw,Links,2,
,xotask,xotask,dotcolour,15,4,255,555,main,negativefb,-99,hard,50,0.45041090000086115,['c'],1,left,['1'],6,0.08946730000025127,,,,,,,,33,18,Vrouw,Links,2,
,xotask,xotask,dotcolour,16,4,256,556,main,negativefb,-99,easy,5,0.6182828000000882,['n'],1,right,['1'],6,0.04634279999845603,,,,,,,,33,18,Vrouw,Links,2,
,xotask,xotask,dotcolour,17,4,257,557,main,negativefb,-99,easy,70,0.6840539000004355,['c'],1,left,['1'],6,0.6183866999999736,,,,,,,,33,18,Vrouw,Links,2,
,xotask,xotask,dotcolour,18,4,258,558,main,negativefb,-99,hard,25,1.0175023000010697,['n'],1,right,['2'],5,0.12167629999930796,,,,,,,,33,18,Vrouw,Links,2,
,xotask,xotask,dotcolour,19,4,259,559,main,negativefb,-99,average,64,0.6338146999987657,['n'],0,left,['2'],5,0.052508700000544195,,,,,,,,33,18,Vrouw,Links,2,
,xotask,xotask,dotcolour,20,4,260,560,main,negativefb,-99,easy,72,0.8003288999989309,['c'],1,left,['2'],5,0.16265170000042417,,,,,,,,33,18,Vrouw,Links,2,
,xotask,xotask,dotcolour,21,4,261,561,main,negativefb,-99,average,16,0.9840349999994942,['n'],1,right,['2'],5,0.062430699999822536,,,,,,,,33,18,Vrouw,Links,2,
,xotask,xotask,dotcolour,22,4,262,562,main,negativefb,-99,average,61,0.6493444999996427,['c'],1,left,['2'],5,0.04265769999983604,,,,,,,,33,18,Vrouw,Links,2,
,xotask,xotask,dotcolour,23,4,263,563,main,negativefb,-99,easy,74,0.6681719000007433,['c'],1,left,['2'],5,0.05626529999972263,,,,,,,,33,18,Vrouw,Links,2,
,xotask,xotask,dotcolour,24,4,264,564,main,negativefb,-99,average,60,0.5001073000003089,['c'],1,left,['1'],6,0.11466269999982615,,,,,,,,33,18,Vrouw,Links,2,
,xotask,xotask,dotcolour,25,4,265,565,main,negativefb,-99,hard,28,0.5344091999995726,['n'],1,right,['2'],5,0.08161570000083884,,,,,,,,33,18,Vrouw,Links,2,
,xotask,xotask,dotcolour,26,4,266,566,main,negativefb,-99,easy,71,0.6853940000000875,['c'],1,left,['1'],6,0.11496840000108932,,,,,,,,33,18,Vrouw,Links,2,
,xotask,xotask,dotcolour,27,4,267,567,main,negativefb,-99,average,62,0.46812209999916377,['c'],1,left,['2'],5,0.028254000000742963,,,,,,,,33,18,Vrouw,Links,2,
,xotask,xotask,dotcolour,28,4,268,568,main,negativefb,-99,hard,51,0.6016294000000926,['c'],1,left,['2'],5,0.22082579999914742,,,,,,,,33,18,Vrouw,Links,2,
,xotask,xotask,dotcolour,29,4,269,569,main,negativefb,-99,hard,51,0.40235539999957837,['c'],1,left,['2'],5,0.06043880000106583,,,,,,,,33,18,Vrouw,Links,2,
,xotask,xotask,dotcolour,30,4,270,570,main,negativefb,-99,average,15,0.40035340000031283,['n'],1,right,['2'],5,0.08331240000006801,,,,,,,,33,18,Vrouw,Links,2,
,xotask,xotask,dotcolour,31,4,271,571,main,negativefb,-99,average,15,0.5165651999996044,['n'],1,right,['2'],5,0.05193470000085654,,,,,,,,33,18,Vrouw,Links,2,
,xotask,xotask,dotcolour,32,4,272,572,main,negativefb,-99,easy,74,0.7838704999994661,['c'],1,left,['1'],6,0.13068469999961962,,,,,,,,33,18,Vrouw,Links,2,
,xotask,xotask,dotcolour,33,4,273,573,main,negativefb,-99,average,18,0.6506847000000562,['n'],1,right,['2'],5,0.09247409999989031,,,,,,,,33,18,Vrouw,Links,2,
,xotask,xotask,dotcolour,34,4,274,574,main,negativefb,-99,average,63,0.5844295999995666,['c'],1,left,['1'],6,0.08987840000008873,,,,,,,,33,18,Vrouw,Links,2,
,xotask,xotask,dotcolour,35,4,275,575,main,negativefb,-99,easy,5,0.3343614000004891,['n'],1,right,['2'],5,0.06613049999941722,,,,,,,,33,18,Vrouw,Links,2,
,xotask,xotask,dotcolour,36,4,276,576,main,negativefb,-99,average,63,0.7517140999989351,['c'],1,left,['1'],6,0.042808899999727146,,,,,,,,33,18,Vrouw,Links,2,
,xotask,xotask,dotcolour,37,4,277,577,main,negativefb,-99,average,19,0.5168312000005244,['n'],1,right,['2'],5,0.044783100000131526,,,,,,,,33,18,Vrouw,Links,2,
,xotask,xotask,dotcolour,38,4,278,578,main,negativefb,-99,easy,72,0.6176835000005667,['c'],1,left,['1'],6,0.05959449999863864,,,,,,,,33,18,Vrouw,Links,2,
,xotask,xotask,dotcolour,39,4,279,579,main,negativefb,-99,average,63,0.6677059000012378,['c'],1,left,['1'],6,0.375777699999162,,,,,,,,33,18,Vrouw,Links,2,
,xotask,xotask,dotcolour,40,4,280,580,main,negativefb,-99,hard,54,0.5340930999991542,['c'],1,left,['2'],5,0.10878130000128294,,,,,,,,33,18,Vrouw,Links,2,
,xotask,xotask,dotcolour,41,4,281,581,main,negativefb,-99,hard,51,0.6510320999987016,['n'],0,left,['3'],4,0.0393502000006265,,,,,,,,33,18,Vrouw,Links,2,
,xotask,xotask,dotcolour,42,4,282,582,main,negativefb,-99,hard,28,0.4334770999994362,['n'],1,right,['3'],4,0.10110990000066522,,,,,,,,33,18,Vrouw,Links,2,
,xotask,xotask,dotcolour,43,4,283,583,main,negativefb,-99,easy,7,0.6844073000011122,['n'],1,right,['1'],6,0.11835229999996955,,,,,,,,33,18,Vrouw,Links,2,
,xotask,xotask,dotcolour,44,4,284,584,main,negativefb,-99,hard,28,0.6003896000001987,['c'],0,right,['3'],4,0.05814019999888842,,,,,,,,33,18,Vrouw,Links,2,
,xotask,xotask,dotcolour,45,4,285,585,main,negativefb,-99,easy,5,0.584251199999926,['c'],0,right,['2'],5,0.1138013999989198,,,,,,,,33,18,Vrouw,Links,2,
,xotask,xotask,dotcolour,46,4,286,586,main,negativefb,-99,average,64,0.4335051999987627,['c'],1,left,['1'],6,0.10121869999966293,,,,,,,,33,18,Vrouw,Links,2,
,xotask,xotask,dotcolour,47,4,287,587,main,negativefb,-99,easy,9,0.6342227000004641,['n'],1,right,['2'],5,0.11217930000020715,,,,,,,,33,18,Vrouw,Links,2,
,xotask,xotask,dotcolour,48,4,288,588,main,negativefb,-99,easy,71,0.5339913999996497,['c'],1,left,['1'],6,0.0486440999993647,,,,,,,,33,18,Vrouw,Links,2,
,xotask,xotask,dotcolour,49,4,289,589,main,negativefb,-99,hard,54,0.7009030000008352,['c'],1,left,['1'],6,0.06669679999868094,,,,,,,,33,18,Vrouw,Links,2,
,xotask,xotask,dotcolour,50,4,290,590,main,negativefb,-99,hard,51,0.6676160000006348,['c'],1,left,['2'],5,0.037934099998892634,,,,,,,,33,18,Vrouw,Links,2,
,xotask,xotask,dotcolour,51,4,291,591,main,negativefb,-99,easy,7,0.5013539999999921,['n'],1,right,['1'],6,0.08123929999965185,,,,,,,,33,18,Vrouw,Links,2,
,xotask,xotask,dotcolour,52,4,292,592,main,negativefb,-99,easy,9,0.5173115000015969,['n'],1,right,['2'],5,0.1058619000014005,,,,,,,,33,18,Vrouw,Links,2,
,xotask,xotask,dotcolour,53,4,293,593,main,negativefb,-99,hard,50,0.551219900000433,['c'],1,left,['1'],6,0.06377949999841803,,,,,,,,33,18,Vrouw,Links,2,
,xotask,xotask,dotcolour,54,4,294,594,main,negativefb,-99,average,19,0.41656629999852157,['c'],0,right,['9'],2,1.26992429999882,,,,,,,,33,18,Vrouw,Links,2,
,xotask,xotask,dotcolour,55,4,295,595,main,negativefb,-99,average,16,1.017166499999803,['c'],0,right,['2'],5,0.4188771999997698,,,,,,,,33,18,Vrouw,Links,2,
,xotask,xotask,dotcolour,56,4,296,596,main,negativefb,-99,easy,5,0.6841798000004928,['n'],1,right,['1'],6,0.1277384000004531,,,,,,,,33,18,Vrouw,Links,2,
,xotask,xotask,dotcolour,57,4,297,597,main,negativefb,-99,hard,27,0.6172263000007661,['c'],0,right,['1'],6,0.042479800000364776,,,,,,,,33,18,Vrouw,Links,2,
,xotask,xotask,dotcolour,58,4,298,598,main,negativefb,-99,easy,72,0.48388859999977285,['c'],1,left,['1'],6,0.08748430000014196,,,,,,,,33,18,Vrouw,Links,2,
,xotask,xotask,dotcolour,59,4,299,599,main,negativefb,-99,hard,27,0.651137099999687,['n'],1,right,['1'],6,0.3068173999999999,,,,,,,,33,18,Vrouw,Links,2,
,xotask,xotask,dotcolour,0,0,0,600,training,negativefb,37,hard,52,0.6014868000002025,['c'],1,left,['2'],5,2.038740799998777,,,,,,,,33,18,Vrouw,Links,2,
,xotask,xotask,dotcolour,1,0,1,601,training,negativefb,51,hard,25,0.7507832000010239,['n'],1,right,['2'],5,0.030743300001631724,,,,,,,,33,18,Vrouw,Links,2,
,xotask,xotask,dotcolour,2,0,2,602,training,negativefb,63,easy,6,0.5508409000012762,['n'],1,right,['2'],5,0.04844840000077966,,,,,,,,33,18,Vrouw,Links,2,
,xotask,xotask,dotcolour,3,0,3,603,training,negativefb,58,average,16,0.6003134999991744,['n'],1,right,['2'],5,0.04604289999952016,,,,,,,,33,18,Vrouw,Links,2,
,xotask,xotask,dotcolour,4,0,4,604,training,negativefb,40,easy,71,0.5673520000000281,['c'],1,left,['2'],5,0.13414770000053977,,,,,,,,33,18,Vrouw,Links,2,
,xotask,xotask,dotcolour,5,0,5,605,training,negativefb,68,average,19,0.8836217999996734,['c'],0,right,['2'],5,0.11717879999923753,,,,,,,,33,18,Vrouw,Links,2,
,xotask,xotask,dotcolour,6,0,6,606,training,negativefb,55,average,60,0.6325103999988642,['c'],1,left,['2'],5,0.02383429999827058,,,,,,,,33,18,Vrouw,Links,2,
,xotask,xotask,dotcolour,7,0,7,607,training,negativefb,80,easy,74,0.4323484999986249,['c'],1,left,['2'],5,0.1252836000003299,,,,,,,,33,18,Vrouw,Links,2,
,xotask,xotask,dotcolour,8,0,8,608,training,negativefb,20,hard,27,0.5828665000008186,['n'],1,right,['2'],5,0.4408261999997194,,,,,,,,33,18,Vrouw,Links,2,
,xotask,xotask,dotcolour,9,0,9,609,training,negativefb,65,average,16,0.5339631000006193,['n'],1,right,['2'],5,0.10626439999941795,,,,,,,,33,18,Vrouw,Links,2,
,xotask,xotask,dotcolour,10,0,10,610,training,negativefb,59,hard,52,0.9002889999992476,['c'],1,left,['2'],5,0.06617960000039602,,,,,,,,33,18,Vrouw,Links,2,
,xotask,xotask,dotcolour,11,0,11,611,training,negativefb,51,easy,6,0.783773300001485,['c'],0,right,['2'],5,0.12857760000042617,,,,,,,,33,18,Vrouw,Links,2,
,xotask,xotask,dotcolour,12,0,12,612,training,negativefb,57,hard,26,0.5333176000003732,['c'],0,right,['2'],5,0.07924759999878006,,,,,,,,33,18,Vrouw,Links,2,
,xotask,xotask,dotcolour,13,0,13,613,training,negativefb,72,average,17,0.8336892999996053,['n'],1,right,['2'],5,0.07441250000010768,,,,,,,,33,18,Vrouw,Links,2,
,xotask,xotask,dotcolour,14,0,14,614,training,negativefb,55,average,63,0.533339599998726,['c'],1,left,['2'],5,0.08244470000136062,,,,,,,,33,18,Vrouw,Links,2,
,xotask,xotask,dotcolour,15,0,15,615,training,negativefb,54,hard,54,0.568468400000711,['c'],1,left,['2'],5,0.09717310000087309,,,,,,,,33,18,Vrouw,Links,2,
,xotask,xotask,dotcolour,16,0,16,616,training,negativefb,53,average,63,0.48412529999950493,['c'],1,left,['2'],5,0.08201829999961774,,,,,,,,33,18,Vrouw,Links,2,
,xotask,xotask,dotcolour,17,0,17,617,training,negativefb,65,easy,74,0.41650120000122115,['c'],1,left,['2'],5,0.03009370000108902,,,,,,,,33,18,Vrouw,Links,2,
,xotask,xotask,dotcolour,18,0,18,618,training,negativefb,75,average,16,0.515992799999367,['n'],1,right,['2'],5,0.08833799999956682,,,,,,,,33,18,Vrouw,Links,2,
,xotask,xotask,dotcolour,19,0,19,619,training,negativefb,73,hard,26,0.8840322000014567,['c'],0,right,['2'],5,0.1296303999988595,,,,,,,,33,18,Vrouw,Links,2,
,xotask,xotask,dotcolour,20,0,20,620,training,negativefb,18,average,19,1.6341815999985556,['c'],0,right,['2'],5,0.2922005000000354,,,,,,,,33,18,Vrouw,Links,2,
,xotask,xotask,dotcolour,21,0,21,621,training,negativefb,44,hard,27,0.5828789999995934,['c'],0,right,['2'],5,0.08977109999977984,,,,,,,,33,18,Vrouw,Links,2,
,xotask,xotask,dotcolour,22,0,22,622,training,negativefb,68,easy,72,0.4839682999991055,['c'],1,left,['2'],5,0.09087230000113777,,,,,,,,33,18,Vrouw,Links,2,
,xotask,xotask,dotcolour,23,0,23,623,training,negativefb,69,easy,72,0.43303240000022925,['c'],1,left,['2'],5,0.11812939999981609,,,,,,,,33,18,Vrouw,Links,2,
,xotask,xotask,dotcolour,24,0,24,624,training,negativefb,61,average,64,0.6173030000009021,['c'],1,left,['2'],5,0.12813099999948463,,,,,,,,33,18,Vrouw,Links,2,
,xotask,xotask,dotcolour,25,0,25,625,training,negativefb,48,easy,6,0.9006185999987792,['c'],0,right,['2'],5,0.15217550000124902,,,,,,,,33,18,Vrouw,Links,2,
,xotask,xotask,dotcolour,26,0,26,626,training,negativefb,69,easy,7,0.5666213999993488,['n'],1,right,['2'],5,0.11562310000044818,,,,,,,,33,18,Vrouw,Links,2,
,xotask,xotask,dotcolour,27,0,27,627,training,negativefb,37,average,62,0.5162471000003279,['c'],1,left,['2'],5,0.0977824999990844,,,,,,,,33,18,Vrouw,Links,2,
,xotask,xotask,dotcolour,28,0,28,628,training,negativefb,36,hard,28,0.7665653000003658,['n'],1,right,['2'],5,0.05537199999889708,,,,,,,,33,18,Vrouw,Links,2,
,xotask,xotask,dotcolour,29,0,29,629,training,negativefb,45,hard,54,0.5169432000002416,['c'],1,left,['2'],5,0.12047250000068743,,,,,,,,33,18,Vrouw,Links,2,
,xotask,xotask,dotcolour,30,0,30,630,training,negativefb,70,average,62,0.4665351000003284,['c'],1,left,['2'],5,0.10596290000103181,,,,,,,,33,18,Vrouw,Links,2,
,xotask,xotask,dotcolour,31,0,31,631,training,negativefb,37,hard,27,0.416827099999864,['c'],0,right,['2'],5,0.13236760000108916,,,,,,,,33,18,Vrouw,Links,2,
,xotask,xotask,dotcolour,32,0,32,632,training,negativefb,56,hard,52,0.6998902000013913,['c'],1,left,['3'],4,0.08403999999973166,,,,,,,,33,18,Vrouw,Links,2,
,xotask,xotask,dotcolour,33,0,33,633,training,negativefb,74,easy,70,0.48271810000005644,['n'],0,left,['2'],5,0.029226500000731903,,,,,,,,33,18,Vrouw,Links,2,
,xotask,xotask,dotcolour,34,0,34,634,training,negativefb,2,easy,8,0.2993445000010979,['c'],0,right,['2'],5,0.8402420000002166,,,,,,,,33,18,Vrouw,Links,2,
,xotask,xotask,dotcolour,35,0,35,635,training,negativefb,59,hard,26,0.5170513000011852,['c'],0,right,['3'],4,0.0656394999987242,,,,,,,,33,18,Vrouw,Links,2,
,xotask,xotask,dotcolour,36,0,36,636,training,negativefb,2,easy,8,0.5506700000005367,['c'],0,right,['8'],3,1.9297614999995858,,,,,,,,33,18,Vrouw,Links,2,
