starttime,task,fbtask,firsttask,withinblocktrial,block,withintasktrial,trial,running,feedback,fbscore,difflevel,reddots,rt,resp,cor,cresp,conf_press,cj,RTconf,n_xes,stoptime,sub,age,gender,handedness,session,
1714984323,dotcolour,dotcolour,dotcolour,0,0,0,0,training,positivefb,8,average,28,15.218122199999925,['c'],0,right,['1'],1,7.24689109999963,,,13,19,Vrouw,Rechts,1,
,dotcolour,dotcolour,dotcolour,1,0,1,1,training,positivefb,57,average,27,3.934467400000358,['c'],0,right,['3'],3,1.734264499999881,,,13,19,Vrouw,Rechts,1,
,dotcolour,dotcolour,dotcolour,2,0,2,2,training,positivefb,100,easy,63,1.2171314999995957,['c'],1,left,['9'],5,2.080106700000215,,,13,19,Vrouw,Rechts,1,
,dotcolour,dotcolour,dotcolour,3,0,3,3,training,positivefb,96,average,52,1.7833169000005,['c'],1,left,['8'],4,1.2848845999997138,,,13,19,Vrouw,Rechts,1,
,dotcolour,dotcolour,dotcolour,4,0,4,4,training,positivefb,75,hard,38,1.7676633999999467,['c'],0,right,['9'],5,0.9303738999997222,,,13,19,Vrouw,Rechts,1,
,dotcolour,dotcolour,dotcolour,5,0,5,5,training,positivefb,88,average,54,1.267441200000576,['c'],1,left,['8'],4,1.3151465000000826,,,13,19,Vrouw,Rechts,1,
,dotcolour,dotcolour,dotcolour,6,0,6,6,training,positivefb,99,easy,15,1.3338120999997045,['n'],1,right,['0'],6,0.9211439999999129,,,13,19,Vrouw,Rechts,1,
,dotcolour,dotcolour,dotcolour,7,0,7,7,training,positivefb,96,easy,63,0.7667412999999215,['c'],1,left,['0'],6,0.7019907000003514,,,13,19,Vrouw,Rechts,1,
,dotcolour,dotcolour,dotcolour,8,0,8,8,training,positivefb,92,easy,62,0.7510934000001726,['c'],1,left,['0'],6,0.36391379999986384,,,13,19,Vrouw,Rechts,1,
,dotcolour,dotcolour,dotcolour,9,0,9,9,training,positivefb,87,average,51,1.0001603999999134,['c'],1,left,['8'],4,0.5979747999999745,,,13,19,Vrouw,Rechts,1,
,dotcolour,dotcolour,dotcolour,10,0,10,10,training,positivefb,53,hard,42,1.4665032999992036,['n'],0,left,['8'],4,1.1794973000005484,,,13,19,Vrouw,Rechts,1,
,dotcolour,dotcolour,dotcolour,11,0,11,11,training,positivefb,68,average,27,4.000614099999439,['c'],0,right,['2'],2,3.661093100000471,,,13,19,Vrouw,Rechts,1,
,dotcolour,dotcolour,dotcolour,12,0,12,12,training,positivefb,82,easy,61,0.8334494000000632,['c'],1,left,['9'],5,1.032948099999885,,,13,19,Vrouw,Rechts,1,
,dotcolour,dotcolour,dotcolour,13,0,13,13,training,positivefb,92,hard,42,1.583813100000043,['n'],0,left,['9'],5,0.5278389000004609,,,13,19,Vrouw,Rechts,1,
,dotcolour,dotcolour,dotcolour,14,0,14,14,training,positivefb,84,easy,65,0.7492787000001044,['c'],1,left,['0'],6,0.4371017000003121,,,13,19,Vrouw,Rechts,1,
,dotcolour,dotcolour,dotcolour,15,0,15,15,training,positivefb,96,average,55,0.8179561999995713,['c'],1,left,['0'],6,0.33970749999934924,,,13,19,Vrouw,Rechts,1,
,dotcolour,dotcolour,dotcolour,16,0,16,16,training,positivefb,70,hard,35,1.1504301999993913,['n'],1,right,['9'],5,0.5201501999999891,,,13,19,Vrouw,Rechts,1,
,dotcolour,dotcolour,dotcolour,17,0,17,17,training,positivefb,100,easy,61,0.9000736000007237,['c'],1,left,['9'],5,0.8559435999995912,,,13,19,Vrouw,Rechts,1,
,dotcolour,dotcolour,dotcolour,18,0,18,18,training,positivefb,90,easy,61,0.7995949999994991,['c'],1,left,['9'],5,0.6782701000001907,,,13,19,Vrouw,Rechts,1,
,dotcolour,dotcolour,dotcolour,19,0,19,19,training,positivefb,91,average,54,0.7996789999997418,['c'],1,left,['9'],5,0.4425359999995635,,,13,19,Vrouw,Rechts,1,
,dotcolour,dotcolour,dotcolour,20,0,20,20,training,positivefb,88,average,25,1.0000893999995242,['n'],1,right,['0'],6,0.4253165000000081,,,13,19,Vrouw,Rechts,1,
,dotcolour,dotcolour,dotcolour,21,0,21,21,training,positivefb,98,easy,17,0.899532000000363,['n'],1,right,['0'],6,1.9013967999999295,,,13,19,Vrouw,Rechts,1,
,dotcolour,dotcolour,dotcolour,22,0,22,22,training,positivefb,77,average,54,0.6828631999997015,['c'],1,left,['8'],4,0.588990900000681,,,13,19,Vrouw,Rechts,1,
,dotcolour,dotcolour,dotcolour,23,0,23,23,training,positivefb,83,hard,42,1.316240099999959,['n'],0,left,['9'],5,0.4009282999995776,,,13,19,Vrouw,Rechts,1,
,dotcolour,dotcolour,dotcolour,24,0,24,24,training,positivefb,94,easy,63,0.6171319999994012,['c'],1,left,['9'],5,0.3928956999998263,,,13,19,Vrouw,Rechts,1,
,dotcolour,dotcolour,dotcolour,25,0,25,25,training,positivefb,92,average,27,0.683148699999947,['n'],1,right,['0'],6,0.9739155999996001,,,13,19,Vrouw,Rechts,1,
,dotcolour,dotcolour,dotcolour,26,0,26,26,training,positivefb,93,hard,37,1.149606500000118,['n'],1,right,['8'],4,0.928774500000145,,,13,19,Vrouw,Rechts,1,
,dotcolour,dotcolour,dotcolour,27,0,27,27,training,positivefb,99,easy,61,0.7334702999996807,['c'],1,left,['9'],5,0.7280589000001783,,,13,19,Vrouw,Rechts,1,
,dotcolour,dotcolour,dotcolour,28,0,28,28,training,positivefb,83,hard,43,1.4495092999995904,['n'],0,left,['8'],4,0.7202344000006633,,,13,19,Vrouw,Rechts,1,
,dotcolour,dotcolour,dotcolour,29,0,29,29,training,positivefb,69,hard,45,1.1335761000000275,['n'],0,left,['8'],4,0.5263428999996904,,,13,19,Vrouw,Rechts,1,
,dotcolour,dotcolour,dotcolour,30,0,30,30,training,positivefb,52,hard,38,2.866263500000059,['n'],1,right,['8'],4,0.6874482000002899,,,13,19,Vrouw,Rechts,1,
,dotcolour,dotcolour,dotcolour,31,0,31,31,training,positivefb,96,average,51,0.7840697999999975,['c'],1,left,['8'],4,1.068921699999919,,,13,19,Vrouw,Rechts,1,
,dotcolour,dotcolour,dotcolour,32,0,32,32,training,positivefb,98,hard,35,0.9156830000001719,['n'],1,right,['8'],4,0.6055741999998645,,,13,19,Vrouw,Rechts,1,
,dotcolour,dotcolour,dotcolour,33,0,33,33,training,positivefb,98,easy,64,0.6654992000003404,['c'],1,left,['9'],5,0.9228632999993351,,,13,19,Vrouw,Rechts,1,
,dotcolour,dotcolour,dotcolour,34,0,34,34,training,positivefb,30,average,52,1.2162324000000808,['n'],0,left,['8'],4,0.925103599999602,,,13,19,Vrouw,Rechts,1,
,dotcolour,dotcolour,dotcolour,35,0,35,35,training,positivefb,83,average,28,0.9657686999998987,['n'],1,right,['8'],4,0.7218232000004718,,,13,19,Vrouw,Rechts,1,
,dotcolour,dotcolour,dotcolour,36,0,36,36,training,positivefb,89,hard,35,1.2500600999992457,['n'],1,right,['3'],3,0.7560389999998733,,,13,19,Vrouw,Rechts,1,
,dotcolour,dotcolour,dotcolour,37,0,37,37,training,positivefb,92,average,29,1.1175057999998899,['n'],1,right,['8'],4,1.520693299999948,,,13,19,Vrouw,Rechts,1,
,dotcolour,dotcolour,dotcolour,38,0,38,38,training,positivefb,95,hard,43,2.0836519000004046,['c'],1,left,['3'],3,0.9918356000007407,,,13,19,Vrouw,Rechts,1,
,dotcolour,dotcolour,dotcolour,39,0,39,39,training,positivefb,73,easy,15,0.7502854000003936,['n'],1,right,['0'],6,0.4588456999999835,,,13,19,Vrouw,Rechts,1,
,dotcolour,dotcolour,dotcolour,40,0,40,40,training,positivefb,95,hard,43,1.0829020000001037,['n'],0,left,['8'],4,0.9420820000004824,,,13,19,Vrouw,Rechts,1,
,dotcolour,dotcolour,dotcolour,41,0,41,41,training,positivefb,93,hard,35,1.0008626000008007,['n'],1,right,['8'],4,0.6487836999995125,,,13,19,Vrouw,Rechts,1,
,dotcolour,dotcolour,dotcolour,42,0,42,42,training,positivefb,98,easy,17,0.8337232000003496,['n'],1,right,['8'],4,0.60524549999991,,,13,19,Vrouw,Rechts,1,
,dotcolour,dotcolour,dotcolour,43,0,43,43,training,positivefb,64,hard,42,0.7349727999999232,['c'],1,left,['8'],4,0.6319990000001781,,,13,19,Vrouw,Rechts,1,
,dotcolour,dotcolour,dotcolour,44,0,44,44,training,positivefb,91,average,29,0.8013644000002387,['n'],1,right,['9'],5,0.6220535000002201,,,13,19,Vrouw,Rechts,1,
,dotcolour,dotcolour,dotcolour,45,0,45,45,training,positivefb,99,easy,15,0.7664307000004555,['n'],1,right,['9'],5,0.4147316000007777,,,13,19,Vrouw,Rechts,1,
,dotcolour,dotcolour,dotcolour,46,0,46,46,training,positivefb,99,average,28,1.1338950999997905,['n'],1,right,['9'],5,0.34533399999963876,,,13,19,Vrouw,Rechts,1,
,dotcolour,dotcolour,dotcolour,47,0,47,47,training,positivefb,96,easy,15,0.6337853999993968,['n'],1,right,['9'],5,0.3224473999998736,,,13,19,Vrouw,Rechts,1,
,dotcolour,dotcolour,dotcolour,48,0,48,48,training,positivefb,76,hard,39,1.0997870000001058,['c'],0,right,['9'],5,0.3615005999999994,,,13,19,Vrouw,Rechts,1,
,dotcolour,dotcolour,dotcolour,49,0,49,49,training,positivefb,91,hard,42,0.9167093999994904,['n'],0,left,['3'],3,0.5750788000004832,,,13,19,Vrouw,Rechts,1,
,dotcolour,dotcolour,dotcolour,50,0,50,50,training,positivefb,100,easy,18,0.6329467000005025,['n'],1,right,['9'],5,0.3992958999997427,,,13,19,Vrouw,Rechts,1,
,dotcolour,dotcolour,dotcolour,51,0,51,51,training,positivefb,86,easy,19,0.6834724000000278,['n'],1,right,['0'],6,0.627948500000457,,,13,19,Vrouw,Rechts,1,
,dotcolour,dotcolour,dotcolour,52,0,52,52,training,positivefb,39,average,28,1.2006403000004866,['c'],0,right,['8'],4,0.7072594000001118,,,13,19,Vrouw,Rechts,1,
,dotcolour,dotcolour,dotcolour,53,0,53,53,training,positivefb,93,hard,39,0.700206900000012,['n'],1,right,['8'],4,0.4196704999994836,,,13,19,Vrouw,Rechts,1,
,dotcolour,dotcolour,dotcolour,54,0,54,54,training,positivefb,99,easy,16,0.6837848000004669,['n'],1,right,['8'],4,0.3030145000002449,,,13,19,Vrouw,Rechts,1,
,dotcolour,dotcolour,dotcolour,55,0,55,55,training,positivefb,99,average,52,0.6990787000004275,['c'],1,left,['0'],6,0.43121810000047844,,,13,19,Vrouw,Rechts,1,
,dotcolour,dotcolour,dotcolour,56,0,56,56,training,positivefb,97,easy,16,0.5668482999999469,['n'],1,right,['0'],6,0.45570239999960904,,,13,19,Vrouw,Rechts,1,
,dotcolour,dotcolour,dotcolour,57,0,57,57,training,positivefb,93,hard,41,0.8670617000007041,['c'],1,left,['9'],5,0.5622331999993548,,,13,19,Vrouw,Rechts,1,
,dotcolour,dotcolour,dotcolour,58,0,58,58,training,positivefb,75,hard,39,0.5668660999999702,['c'],0,right,['9'],5,0.3501859999996668,,,13,19,Vrouw,Rechts,1,
,dotcolour,dotcolour,dotcolour,59,0,59,59,training,positivefb,95,average,54,0.4988525999997364,['c'],1,left,['9'],5,0.17968000000018947,,,13,19,Vrouw,Rechts,1,
,dotcolour,dotcolour,dotcolour,0,1,60,60,training,positivefb,94,average,28,1.218229600000086,['n'],1,right,['9'],5,0.30566709999948216,,,13,19,Vrouw,Rechts,1,
,dotcolour,dotcolour,dotcolour,1,1,61,61,training,positivefb,94,average,29,0.816706300000078,['n'],1,right,['9'],5,0.33374540000022535,,,13,19,Vrouw,Rechts,1,
,dotcolour,dotcolour,dotcolour,2,1,62,62,training,positivefb,75,average,29,1.349652199999582,['n'],1,right,['8'],4,0.8421715999993467,,,13,19,Vrouw,Rechts,1,
,dotcolour,dotcolour,dotcolour,3,1,63,63,training,positivefb,97,average,29,0.766801700000542,['n'],1,right,['8'],4,0.6904652000002898,,,13,19,Vrouw,Rechts,1,
,dotcolour,dotcolour,dotcolour,4,1,64,64,training,positivefb,98,easy,63,0.5175520000002507,['c'],1,left,['0'],6,0.37822210000013,,,13,19,Vrouw,Rechts,1,
,dotcolour,dotcolour,dotcolour,5,1,65,65,training,positivefb,86,hard,37,0.9343192999995154,['n'],1,right,['8'],4,0.39058769999974174,,,13,19,Vrouw,Rechts,1,
,dotcolour,dotcolour,dotcolour,6,1,66,66,training,positivefb,87,hard,37,1.433566400000018,['c'],0,right,['9'],5,0.46187970000028145,,,13,19,Vrouw,Rechts,1,
,dotcolour,dotcolour,dotcolour,7,1,67,67,training,positivefb,95,hard,35,0.633125199999995,['n'],1,right,['8'],4,0.4188733000000866,,,13,19,Vrouw,Rechts,1,
,dotcolour,dotcolour,dotcolour,8,1,68,68,training,positivefb,97,hard,45,0.7163008000006812,['c'],1,left,['9'],5,0.38927109999985987,,,13,19,Vrouw,Rechts,1,
,dotcolour,dotcolour,dotcolour,9,1,69,69,training,positivefb,96,easy,65,0.5166653999995106,['c'],1,left,['0'],6,0.2569100000000617,,,13,19,Vrouw,Rechts,1,
,dotcolour,dotcolour,dotcolour,10,1,70,70,training,positivefb,96,average,53,0.6011015999993106,['c'],1,left,['0'],6,0.29525199999989127,,,13,19,Vrouw,Rechts,1,
,dotcolour,dotcolour,dotcolour,11,1,71,71,training,positivefb,99,hard,39,0.8166790000004767,['n'],1,right,['9'],5,0.4352392000000691,,,13,19,Vrouw,Rechts,1,
,dotcolour,dotcolour,dotcolour,12,1,72,72,training,positivefb,88,average,52,0.6995433000001867,['c'],1,left,['0'],6,0.38966660000005504,,,13,19,Vrouw,Rechts,1,
,dotcolour,dotcolour,dotcolour,13,1,73,73,training,positivefb,91,hard,42,1.150889399999869,['c'],1,left,['9'],5,0.5283419999996113,,,13,19,Vrouw,Rechts,1,
,dotcolour,dotcolour,dotcolour,14,1,74,74,training,positivefb,82,hard,41,0.7346331000007922,['n'],0,left,['8'],4,0.3590259000002334,,,13,19,Vrouw,Rechts,1,
,dotcolour,dotcolour,dotcolour,15,1,75,75,training,positivefb,98,average,54,0.5319690000005721,['c'],1,left,['0'],6,0.3076923999997234,,,13,19,Vrouw,Rechts,1,
,dotcolour,dotcolour,dotcolour,16,1,76,76,training,positivefb,90,average,28,0.6993940000002112,['n'],1,right,['0'],6,0.3077757000000929,,,13,19,Vrouw,Rechts,1,
,dotcolour,dotcolour,dotcolour,17,1,77,77,training,positivefb,72,average,27,0.8992275000000518,['n'],1,right,['0'],6,0.43529620000026625,,,13,19,Vrouw,Rechts,1,
,dotcolour,dotcolour,dotcolour,18,1,78,78,training,positivefb,95,easy,64,0.6161259999998947,['c'],1,left,['0'],6,0.30504130000008445,,,13,19,Vrouw,Rechts,1,
,dotcolour,dotcolour,dotcolour,19,1,79,79,training,positivefb,96,average,55,0.5664808999999877,['c'],1,left,['0'],6,0.36648950000017066,,,13,19,Vrouw,Rechts,1,
,dotcolour,dotcolour,dotcolour,20,1,80,80,training,positivefb,91,easy,16,0.6497466000000713,['n'],1,right,['0'],6,0.3342945000003965,,,13,19,Vrouw,Rechts,1,
,dotcolour,dotcolour,dotcolour,21,1,81,81,training,positivefb,96,easy,19,0.8497222999994847,['n'],1,right,['0'],6,0.32615719999921566,,,13,19,Vrouw,Rechts,1,
,dotcolour,dotcolour,dotcolour,22,1,82,82,training,positivefb,86,hard,36,1.7502376000002187,['n'],1,right,['8'],4,0.4036815999997998,,,13,19,Vrouw,Rechts,1,
,dotcolour,dotcolour,dotcolour,23,1,83,83,training,positivefb,63,hard,39,0.983453499999996,['n'],1,right,['8'],4,0.38030909999997675,,,13,19,Vrouw,Rechts,1,
,dotcolour,dotcolour,dotcolour,24,1,84,84,training,positivefb,93,hard,42,0.7160425000001851,['c'],1,left,['8'],4,0.49773610000011104,,,13,19,Vrouw,Rechts,1,
,dotcolour,dotcolour,dotcolour,25,1,85,85,training,positivefb,99,easy,65,0.6998060999994777,['c'],1,left,['0'],6,0.27436149999994086,,,13,19,Vrouw,Rechts,1,
,dotcolour,dotcolour,dotcolour,26,1,86,86,training,positivefb,90,easy,17,0.6176377000001594,['n'],1,right,['0'],6,0.4226811999997153,,,13,19,Vrouw,Rechts,1,
,dotcolour,dotcolour,dotcolour,27,1,87,87,training,positivefb,69,hard,44,0.6498009000006277,['c'],1,left,['8'],4,0.4764353000000483,,,13,19,Vrouw,Rechts,1,
,dotcolour,dotcolour,dotcolour,28,1,88,88,training,positivefb,99,easy,65,0.53369450000082,['c'],1,left,['0'],6,0.31593659999998636,,,13,19,Vrouw,Rechts,1,
,dotcolour,dotcolour,dotcolour,29,1,89,89,training,positivefb,81,hard,37,0.7003756000003705,['n'],1,right,['0'],6,0.43581759999960923,,,13,19,Vrouw,Rechts,1,
,dotcolour,dotcolour,dotcolour,30,1,90,90,training,positivefb,100,average,52,0.6332695999999487,['c'],1,left,['0'],6,0.768897900000411,,,13,19,Vrouw,Rechts,1,
,dotcolour,dotcolour,dotcolour,31,1,91,91,training,positivefb,97,average,55,0.533043400000679,['c'],1,left,['0'],6,0.1819958999994924,,,13,19,Vrouw,Rechts,1,
,dotcolour,dotcolour,dotcolour,32,1,92,92,training,positivefb,85,easy,18,1.9677747999994608,['n'],1,right,['0'],6,0.40659770000002027,,,13,19,Vrouw,Rechts,1,
,dotcolour,dotcolour,dotcolour,33,1,93,93,training,positivefb,87,easy,65,0.6839350999998715,['c'],1,left,['0'],6,0.2834969000005003,,,13,19,Vrouw,Rechts,1,
,dotcolour,dotcolour,dotcolour,34,1,94,94,training,positivefb,95,easy,65,0.6834183000000849,['c'],1,left,['0'],6,0.32488910000029136,,,13,19,Vrouw,Rechts,1,
,dotcolour,dotcolour,dotcolour,35,1,95,95,training,positivefb,97,average,28,0.7333080000007612,['n'],1,right,['0'],6,0.3715124999998807,,,13,19,Vrouw,Rechts,1,
,dotcolour,dotcolour,dotcolour,36,1,96,96,training,positivefb,93,average,52,0.6506152000001748,['c'],1,left,['9'],5,0.46623019999969983,,,13,19,Vrouw,Rechts,1,
,dotcolour,dotcolour,dotcolour,37,1,97,97,training,positivefb,99,easy,18,0.6500153999995746,['n'],1,right,['9'],5,0.34946469999977126,,,13,19,Vrouw,Rechts,1,
,dotcolour,dotcolour,dotcolour,38,1,98,98,training,positivefb,90,hard,45,0.6159511000005296,['c'],1,left,['9'],5,0.3030873999996402,,,13,19,Vrouw,Rechts,1,
,dotcolour,dotcolour,dotcolour,39,1,99,99,training,positivefb,88,easy,17,0.7999514999992243,['n'],1,right,['9'],5,0.6194907999997668,,,13,19,Vrouw,Rechts,1,
,dotcolour,dotcolour,dotcolour,40,1,100,100,training,positivefb,98,average,28,1.1994110000005094,['n'],1,right,['8'],4,0.38687389999995503,,,13,19,Vrouw,Rechts,1,
,dotcolour,dotcolour,dotcolour,41,1,101,101,training,positivefb,91,average,28,0.7318479000005027,['n'],1,right,['9'],5,0.39769890000025043,,,13,19,Vrouw,Rechts,1,
,dotcolour,dotcolour,dotcolour,42,1,102,102,training,positivefb,93,hard,35,0.9666454999996859,['n'],1,right,['8'],4,0.4315008999992642,,,13,19,Vrouw,Rechts,1,
,dotcolour,dotcolour,dotcolour,43,1,103,103,training,positivefb,83,average,29,1.2840647000002718,['n'],1,right,['8'],4,0.4100949000003311,,,13,19,Vrouw,Rechts,1,
,dotcolour,dotcolour,dotcolour,44,1,104,104,training,positivefb,92,easy,64,0.5677334000001792,['c'],1,left,['0'],6,0.3634150999996564,,,13,19,Vrouw,Rechts,1,
,dotcolour,dotcolour,dotcolour,45,1,105,105,training,positivefb,87,hard,42,0.8336155999995754,['n'],0,left,['8'],4,0.34839560000000347,,,13,19,Vrouw,Rechts,1,
,dotcolour,dotcolour,dotcolour,46,1,106,106,training,positivefb,97,hard,41,1.1179574999996476,['c'],1,left,['0'],6,0.2980803000000378,,,13,19,Vrouw,Rechts,1,
,dotcolour,dotcolour,dotcolour,47,1,107,107,training,positivefb,93,easy,19,0.5829666999998153,['n'],1,right,['0'],6,0.49487260000023525,,,13,19,Vrouw,Rechts,1,
,dotcolour,dotcolour,dotcolour,48,1,108,108,training,positivefb,93,hard,44,1.1005506999999852,['c'],1,left,['9'],5,0.4549282999996649,,,13,19,Vrouw,Rechts,1,
,dotcolour,dotcolour,dotcolour,49,1,109,109,training,positivefb,96,easy,64,0.5834226999995735,['c'],1,left,['9'],5,0.27036689999931696,,,13,19,Vrouw,Rechts,1,
,dotcolour,dotcolour,dotcolour,50,1,110,110,training,positivefb,98,easy,16,0.5833047000005536,['n'],1,right,['0'],6,0.26781429999937245,,,13,19,Vrouw,Rechts,1,
,dotcolour,dotcolour,dotcolour,51,1,111,111,training,positivefb,95,easy,16,0.7158096000002843,['n'],1,right,['0'],6,0.29275000000052387,,,13,19,Vrouw,Rechts,1,
,dotcolour,dotcolour,dotcolour,52,1,112,112,training,positivefb,99,average,54,0.682654399999592,['c'],1,left,['0'],6,0.8216535000001386,,,13,19,Vrouw,Rechts,1,
,dotcolour,dotcolour,dotcolour,53,1,113,113,training,positivefb,93,hard,45,0.6830488000005062,['n'],0,left,['9'],5,0.38631399999940186,,,13,19,Vrouw,Rechts,1,
,dotcolour,dotcolour,dotcolour,54,1,114,114,training,positivefb,66,hard,36,1.1000801999998657,['c'],0,right,['9'],5,0.7029947000000902,,,13,19,Vrouw,Rechts,1,
,dotcolour,dotcolour,dotcolour,55,1,115,115,training,positivefb,96,average,51,0.6165554999997767,['c'],1,left,['0'],6,0.25003410000044823,,,13,19,Vrouw,Rechts,1,
,dotcolour,dotcolour,dotcolour,56,1,116,116,training,positivefb,97,easy,19,0.6496692000000621,['n'],1,right,['0'],6,0.2699771999996301,,,13,19,Vrouw,Rechts,1,
,dotcolour,dotcolour,dotcolour,57,1,117,117,training,positivefb,87,easy,64,0.7173669999992853,['c'],1,left,['0'],6,0.26334069999938947,,,13,19,Vrouw,Rechts,1,
,dotcolour,dotcolour,dotcolour,58,1,118,118,training,positivefb,88,hard,36,0.7501461000001655,['n'],1,right,['0'],6,0.47914789999958884,,,13,19,Vrouw,Rechts,1,
,dotcolour,dotcolour,dotcolour,59,1,119,119,training,positivefb,92,average,52,0.5492053999996642,['c'],1,left,['0'],6,0.27830140000060055,,,13,19,Vrouw,Rechts,1,
,dotcolour,dotcolour,dotcolour,0,2,120,120,main,positivefb,-99,hard,35,1.217879300000277,['n'],1,right,['0'],6,0.5201523000005182,,,13,19,Vrouw,Rechts,1,
,dotcolour,dotcolour,dotcolour,1,2,121,121,main,positivefb,-99,easy,63,0.7849064000001817,['c'],1,left,['0'],6,0.2691615000003367,,,13,19,Vrouw,Rechts,1,
,dotcolour,dotcolour,dotcolour,2,2,122,122,main,positivefb,-99,hard,44,1.6678842999999688,['n'],0,left,['8'],4,0.3843738999994457,,,13,19,Vrouw,Rechts,1,
,dotcolour,dotcolour,dotcolour,3,2,123,123,main,positivefb,-99,easy,16,1.1178399999998874,['n'],1,right,['0'],6,0.276429300000018,,,13,19,Vrouw,Rechts,1,
,dotcolour,dotcolour,dotcolour,4,2,124,124,main,positivefb,-99,average,54,0.8673287999999957,['c'],1,left,['9'],5,0.2720948000005592,,,13,19,Vrouw,Rechts,1,
,dotcolour,dotcolour,dotcolour,5,2,125,125,main,positivefb,-99,hard,45,0.7675714000006337,['c'],1,left,['8'],4,0.3034765000002153,,,13,19,Vrouw,Rechts,1,
,dotcolour,dotcolour,dotcolour,6,2,126,126,main,positivefb,-99,average,52,0.8844601000000694,['c'],1,left,['8'],4,0.3369627000001856,,,13,19,Vrouw,Rechts,1,
,dotcolour,dotcolour,dotcolour,7,2,127,127,main,positivefb,-99,easy,15,0.6508261999997558,['n'],1,right,['0'],6,0.2821881999998368,,,13,19,Vrouw,Rechts,1,
,dotcolour,dotcolour,dotcolour,8,2,128,128,main,positivefb,-99,hard,39,1.0339727000000494,['n'],1,right,['9'],5,0.2858235000003333,,,13,19,Vrouw,Rechts,1,
,dotcolour,dotcolour,dotcolour,9,2,129,129,main,positivefb,-99,average,28,1.6349184000000605,['c'],0,right,['8'],4,0.20934679999936634,,,13,19,Vrouw,Rechts,1,
,dotcolour,dotcolour,dotcolour,10,2,130,130,main,positivefb,-99,average,53,0.9011528000000908,['c'],1,left,['0'],6,0.26271079999969515,,,13,19,Vrouw,Rechts,1,
,dotcolour,dotcolour,dotcolour,11,2,131,131,main,positivefb,-99,average,28,1.7517405999997209,['n'],1,right,['0'],6,0.311544999999569,,,13,19,Vrouw,Rechts,1,
,dotcolour,dotcolour,dotcolour,12,2,132,132,main,positivefb,-99,easy,63,0.6685512000003655,['c'],1,left,['0'],6,0.44961200000034296,,,13,19,Vrouw,Rechts,1,
,dotcolour,dotcolour,dotcolour,13,2,133,133,main,positivefb,-99,average,54,1.7178291000000172,['c'],1,left,['8'],4,0.3712618999998085,,,13,19,Vrouw,Rechts,1,
,dotcolour,dotcolour,dotcolour,14,2,134,134,main,positivefb,-99,hard,36,0.9503709999999046,['n'],1,right,['8'],4,0.2870914000004632,,,13,19,Vrouw,Rechts,1,
,dotcolour,dotcolour,dotcolour,15,2,135,135,main,positivefb,-99,average,54,0.933131300000241,['c'],1,left,['0'],6,0.5359651999997368,,,13,19,Vrouw,Rechts,1,
,dotcolour,dotcolour,dotcolour,16,2,136,136,main,positivefb,-99,easy,19,0.7512456000004022,['n'],1,right,['0'],6,0.29255300000022544,,,13,19,Vrouw,Rechts,1,
,dotcolour,dotcolour,dotcolour,17,2,137,137,main,positivefb,-99,easy,18,0.8845817000001261,['n'],1,right,['0'],6,0.29416000000037457,,,13,19,Vrouw,Rechts,1,
,dotcolour,dotcolour,dotcolour,18,2,138,138,main,positivefb,-99,easy,18,0.6011500000004162,['n'],1,right,['0'],6,0.6043417999999292,,,13,19,Vrouw,Rechts,1,
,dotcolour,dotcolour,dotcolour,19,2,139,139,main,positivefb,-99,easy,64,0.7175020000004224,['c'],1,left,['0'],6,0.25618979999944713,,,13,19,Vrouw,Rechts,1,
,dotcolour,dotcolour,dotcolour,20,2,140,140,main,positivefb,-99,easy,19,0.7181073000001561,['n'],1,right,['0'],6,0.28232419999949343,,,13,19,Vrouw,Rechts,1,
,dotcolour,dotcolour,dotcolour,21,2,141,141,main,positivefb,-99,hard,41,1.368224900000314,['c'],1,left,['8'],4,0.26521860000048036,,,13,19,Vrouw,Rechts,1,
,dotcolour,dotcolour,dotcolour,22,2,142,142,main,positivefb,-99,easy,15,0.7843794000000344,['n'],1,right,['0'],6,0.2796304000003147,,,13,19,Vrouw,Rechts,1,
,dotcolour,dotcolour,dotcolour,23,2,143,143,main,positivefb,-99,hard,38,0.751225400000294,['c'],0,right,['9'],5,0.3596882000001642,,,13,19,Vrouw,Rechts,1,
,dotcolour,dotcolour,dotcolour,24,2,144,144,main,positivefb,-99,average,28,1.4681608999999298,['n'],1,right,['8'],4,0.4231078000002526,,,13,19,Vrouw,Rechts,1,
,dotcolour,dotcolour,dotcolour,25,2,145,145,main,positivefb,-99,hard,42,0.9339207000002716,['c'],1,left,['8'],4,0.250174199999492,,,13,19,Vrouw,Rechts,1,
,dotcolour,dotcolour,dotcolour,26,2,146,146,main,positivefb,-99,easy,63,0.801074900000458,['c'],1,left,['0'],6,0.32157200000074226,,,13,19,Vrouw,Rechts,1,
,dotcolour,dotcolour,dotcolour,27,2,147,147,main,positivefb,-99,easy,16,0.568216300000131,['n'],1,right,['0'],6,0.24623280000014347,,,13,19,Vrouw,Rechts,1,
,dotcolour,dotcolour,dotcolour,28,2,148,148,main,positivefb,-99,hard,42,1.7004537000002529,['n'],0,left,['8'],4,0.2574728999998115,,,13,19,Vrouw,Rechts,1,
,dotcolour,dotcolour,dotcolour,29,2,149,149,main,positivefb,-99,easy,65,0.7176973000005091,['c'],1,left,['0'],6,0.4117937000000893,,,13,19,Vrouw,Rechts,1,
,dotcolour,dotcolour,dotcolour,30,2,150,150,main,positivefb,-99,average,52,1.2343795999995564,['c'],1,left,['8'],4,0.32324640000024374,,,13,19,Vrouw,Rechts,1,
,dotcolour,dotcolour,dotcolour,31,2,151,151,main,positivefb,-99,average,28,0.9504511999994065,['n'],1,right,['8'],4,0.29691039999943314,,,13,19,Vrouw,Rechts,1,
,dotcolour,dotcolour,dotcolour,32,2,152,152,main,positivefb,-99,easy,64,0.6339008000004469,['c'],1,left,['0'],6,0.2529489000007743,,,13,19,Vrouw,Rechts,1,
,dotcolour,dotcolour,dotcolour,33,2,153,153,main,positivefb,-99,easy,65,0.6681399999997666,['c'],1,left,['0'],6,0.38511970000035944,,,13,19,Vrouw,Rechts,1,
,dotcolour,dotcolour,dotcolour,34,2,154,154,main,positivefb,-99,hard,38,0.8834493999993356,['n'],1,right,['8'],4,0.3026265999997122,,,13,19,Vrouw,Rechts,1,
,dotcolour,dotcolour,dotcolour,35,2,155,155,main,positivefb,-99,hard,36,1.6001423999996405,['n'],1,right,['8'],4,0.2917007999994894,,,13,19,Vrouw,Rechts,1,
,dotcolour,dotcolour,dotcolour,36,2,156,156,main,positivefb,-99,hard,39,1.783954999999878,['c'],0,right,['8'],4,0.6021958000001177,,,13,19,Vrouw,Rechts,1,
,dotcolour,dotcolour,dotcolour,37,2,157,157,main,positivefb,-99,easy,64,0.9174676000002364,['c'],1,left,['0'],6,0.2615390999999363,,,13,19,Vrouw,Rechts,1,
,dotcolour,dotcolour,dotcolour,38,2,158,158,main,positivefb,-99,hard,37,0.7172579999996742,['n'],1,right,['0'],6,0.44773540000005596,,,13,19,Vrouw,Rechts,1,
,dotcolour,dotcolour,dotcolour,39,2,159,159,main,positivefb,-99,average,27,1.4508342999997694,['n'],1,right,['8'],4,0.32476279999991675,,,13,19,Vrouw,Rechts,1,
,dotcolour,dotcolour,dotcolour,40,2,160,160,main,positivefb,-99,average,52,0.9852264999999534,['c'],1,left,['9'],5,0.26533130000007077,,,13,19,Vrouw,Rechts,1,
,dotcolour,dotcolour,dotcolour,41,2,161,161,main,positivefb,-99,hard,35,1.4681307999999262,['c'],0,right,['9'],5,0.30043210000076215,,,13,19,Vrouw,Rechts,1,
,dotcolour,dotcolour,dotcolour,42,2,162,162,main,positivefb,-99,hard,44,1.5681647000001249,['c'],1,left,['8'],4,0.23498749999998836,,,13,19,Vrouw,Rechts,1,
,dotcolour,dotcolour,dotcolour,43,2,163,163,main,positivefb,-99,average,53,0.7348008999997546,['c'],1,left,['8'],4,0.38018579999970825,,,13,19,Vrouw,Rechts,1,
,dotcolour,dotcolour,dotcolour,44,2,164,164,main,positivefb,-99,hard,44,1.300632499999665,['n'],0,left,['8'],4,0.36210729999947944,,,13,19,Vrouw,Rechts,1,
,dotcolour,dotcolour,dotcolour,45,2,165,165,main,positivefb,-99,average,51,1.7012236000000485,['n'],0,left,['8'],4,0.2738730000000942,,,13,19,Vrouw,Rechts,1,
,dotcolour,dotcolour,dotcolour,46,2,166,166,main,positivefb,-99,easy,17,1.1173567999994702,['n'],1,right,['0'],6,0.48218809999980294,,,13,19,Vrouw,Rechts,1,
,dotcolour,dotcolour,dotcolour,47,2,167,167,main,positivefb,-99,average,27,0.9997530999999071,['n'],1,right,['9'],5,0.5119164999996428,,,13,19,Vrouw,Rechts,1,
,dotcolour,dotcolour,dotcolour,48,2,168,168,main,positivefb,-99,hard,45,0.7508994999998322,['c'],1,left,['0'],6,0.6637094000006982,,,13,19,Vrouw,Rechts,1,
,dotcolour,dotcolour,dotcolour,49,2,169,169,main,positivefb,-99,average,27,0.7348141000002215,['n'],1,right,['0'],6,0.3035484000001816,,,13,19,Vrouw,Rechts,1,
,dotcolour,dotcolour,dotcolour,50,2,170,170,main,positivefb,-99,hard,37,1.001112799999646,['c'],0,right,['8'],4,0.42060009999931935,,,13,19,Vrouw,Rechts,1,
,dotcolour,dotcolour,dotcolour,51,2,171,171,main,positivefb,-99,average,26,0.934823999999935,['n'],1,right,['9'],5,0.35156320000078267,,,13,19,Vrouw,Rechts,1,
,dotcolour,dotcolour,dotcolour,52,2,172,172,main,positivefb,-99,average,52,0.91792070000065,['c'],1,left,['0'],6,0.4141421000003902,,,13,19,Vrouw,Rechts,1,
,dotcolour,dotcolour,dotcolour,53,2,173,173,main,positivefb,-99,hard,42,0.884109399999943,['n'],0,left,['8'],4,0.290816900000209,,,13,19,Vrouw,Rechts,1,
,dotcolour,dotcolour,dotcolour,54,2,174,174,main,positivefb,-99,easy,15,0.7672905999997965,['n'],1,right,['0'],6,0.32979429999977583,,,13,19,Vrouw,Rechts,1,
,dotcolour,dotcolour,dotcolour,55,2,175,175,main,positivefb,-99,hard,45,0.8515721000003396,['c'],1,left,['8'],4,0.291309000000183,,,13,19,Vrouw,Rechts,1,
,dotcolour,dotcolour,dotcolour,56,2,176,176,main,positivefb,-99,easy,63,0.7674093000005087,['c'],1,left,['9'],5,0.3221524999999019,,,13,19,Vrouw,Rechts,1,
,dotcolour,dotcolour,dotcolour,57,2,177,177,main,positivefb,-99,average,25,0.7507947000003696,['n'],1,right,['9'],5,0.27183419999983016,,,13,19,Vrouw,Rechts,1,
,dotcolour,dotcolour,dotcolour,58,2,178,178,main,positivefb,-99,easy,65,0.6501414000003933,['c'],1,left,['0'],6,0.28403440000056435,,,13,19,Vrouw,Rechts,1,
,dotcolour,dotcolour,dotcolour,59,2,179,179,main,positivefb,-99,average,29,0.8341747999993459,['n'],1,right,['9'],5,1.863692699999774,,,13,19,Vrouw,Rechts,1,
,dotcolour,dotcolour,dotcolour,0,3,180,180,main,positivefb,-99,hard,44,0.9500070999993113,['c'],1,left,['9'],5,0.5250935000003665,,,13,19,Vrouw,Rechts,1,
,dotcolour,dotcolour,dotcolour,1,3,181,181,main,positivefb,-99,average,25,0.7675803000001906,['n'],1,right,['9'],5,0.27456419999998616,,,13,19,Vrouw,Rechts,1,
,dotcolour,dotcolour,dotcolour,2,3,182,182,main,positivefb,-99,easy,19,0.7171191999996154,['n'],1,right,['9'],5,0.28458839999984775,,,13,19,Vrouw,Rechts,1,
,dotcolour,dotcolour,dotcolour,3,3,183,183,main,positivefb,-99,average,26,1.1844575000004625,['n'],1,right,['8'],4,0.2985920000000988,,,13,19,Vrouw,Rechts,1,
,dotcolour,dotcolour,dotcolour,4,3,184,184,main,positivefb,-99,easy,17,0.833502899999985,['n'],1,right,['8'],4,0.32566700000006676,,,13,19,Vrouw,Rechts,1,
,dotcolour,dotcolour,dotcolour,5,3,185,185,main,positivefb,-99,average,55,0.6174045999996451,['c'],1,left,['0'],6,0.29663479999999254,,,13,19,Vrouw,Rechts,1,
,dotcolour,dotcolour,dotcolour,6,3,186,186,main,positivefb,-99,easy,15,0.6668233000000328,['n'],1,right,['0'],6,0.29953999999997905,,,13,19,Vrouw,Rechts,1,
,dotcolour,dotcolour,dotcolour,7,3,187,187,main,positivefb,-99,hard,35,1.6343403999999282,['c'],0,right,['8'],4,0.4154508999999962,,,13,19,Vrouw,Rechts,1,
,dotcolour,dotcolour,dotcolour,8,3,188,188,main,positivefb,-99,easy,19,0.6680003000001307,['n'],1,right,['0'],6,0.2517041999999492,,,13,19,Vrouw,Rechts,1,
,dotcolour,dotcolour,dotcolour,9,3,189,189,main,positivefb,-99,average,52,0.6851477999998679,['c'],1,left,['0'],6,0.25582959999974264,,,13,19,Vrouw,Rechts,1,
,dotcolour,dotcolour,dotcolour,10,3,190,190,main,positivefb,-99,hard,42,1.8181054999995467,['c'],1,left,['8'],4,0.541772000000492,,,13,19,Vrouw,Rechts,1,
,dotcolour,dotcolour,dotcolour,11,3,191,191,main,positivefb,-99,average,25,0.7172864000003756,['n'],1,right,['0'],6,0.4438938000002963,,,13,19,Vrouw,Rechts,1,
,dotcolour,dotcolour,dotcolour,12,3,192,192,main,positivefb,-99,easy,61,0.8011087999993833,['c'],1,left,['0'],6,0.2758638000004794,,,13,19,Vrouw,Rechts,1,
,dotcolour,dotcolour,dotcolour,13,3,193,193,main,positivefb,-99,hard,37,1.0185511999998198,['c'],0,right,['8'],4,0.3043260000004011,,,13,19,Vrouw,Rechts,1,
,dotcolour,dotcolour,dotcolour,14,3,194,194,main,positivefb,-99,hard,44,0.9840952999993533,['c'],1,left,['9'],5,0.28575679999994463,,,13,19,Vrouw,Rechts,1,
,dotcolour,dotcolour,dotcolour,15,3,195,195,main,positivefb,-99,hard,42,1.3353988999997455,['c'],1,left,['8'],4,0.20663060000060796,,,13,19,Vrouw,Rechts,1,
,dotcolour,dotcolour,dotcolour,16,3,196,196,main,positivefb,-99,average,54,0.7179636999999275,['c'],1,left,['0'],6,0.21065530000032595,,,13,19,Vrouw,Rechts,1,
,dotcolour,dotcolour,dotcolour,17,3,197,197,main,positivefb,-99,easy,64,0.5507585000004838,['c'],1,left,['0'],6,0.24474690000079136,,,13,19,Vrouw,Rechts,1,
,dotcolour,dotcolour,dotcolour,18,3,198,198,main,positivefb,-99,hard,37,1.2673044000002847,['c'],0,right,['8'],4,0.5140348000004451,,,13,19,Vrouw,Rechts,1,
,dotcolour,dotcolour,dotcolour,19,3,199,199,main,positivefb,-99,average,51,1.2509110000000874,['c'],1,left,['9'],5,0.27635580000060145,,,13,19,Vrouw,Rechts,1,
,dotcolour,dotcolour,dotcolour,20,3,200,200,main,positivefb,-99,hard,36,1.0348082000000431,['n'],1,right,['9'],5,0.513164400000278,,,13,19,Vrouw,Rechts,1,
,dotcolour,dotcolour,dotcolour,21,3,201,201,main,positivefb,-99,easy,19,1.1843952999997782,['n'],1,right,['0'],6,0.7338995999998588,,,13,19,Vrouw,Rechts,1,
,dotcolour,dotcolour,dotcolour,22,3,202,202,main,positivefb,-99,easy,64,0.6509939000006852,['c'],1,left,['0'],6,0.2881643000000622,,,13,19,Vrouw,Rechts,1,
,dotcolour,dotcolour,dotcolour,23,3,203,203,main,positivefb,-99,average,26,0.9508169000000635,['n'],1,right,['0'],6,0.26330390000021,,,13,19,Vrouw,Rechts,1,
,dotcolour,dotcolour,dotcolour,24,3,204,204,main,positivefb,-99,easy,61,0.6682132999994792,['c'],1,left,['8'],4,0.6507754000003843,,,13,19,Vrouw,Rechts,1,
,dotcolour,dotcolour,dotcolour,25,3,205,205,main,positivefb,-99,average,53,0.6851814999999988,['c'],1,left,['0'],6,0.41443660000004456,,,13,19,Vrouw,Rechts,1,
,dotcolour,dotcolour,dotcolour,26,3,206,206,main,positivefb,-99,average,25,0.7005598000005193,['n'],1,right,['0'],6,0.28220690000034665,,,13,19,Vrouw,Rechts,1,
,dotcolour,dotcolour,dotcolour,27,3,207,207,main,positivefb,-99,average,55,0.5507163000002038,['c'],1,left,['0'],6,0.45784350000030827,,,13,19,Vrouw,Rechts,1,
,dotcolour,dotcolour,dotcolour,28,3,208,208,main,positivefb,-99,average,51,0.6672295999997004,['c'],1,left,['0'],6,0.33395070000005944,,,13,19,Vrouw,Rechts,1,
,dotcolour,dotcolour,dotcolour,29,3,209,209,main,positivefb,-99,hard,35,0.817730599999777,['n'],1,right,['0'],6,0.33611780000046565,,,13,19,Vrouw,Rechts,1,
,dotcolour,dotcolour,dotcolour,30,3,210,210,main,positivefb,-99,easy,17,0.5677961999999752,['n'],1,right,['0'],6,0.3335888999999952,,,13,19,Vrouw,Rechts,1,
,dotcolour,dotcolour,dotcolour,31,3,211,211,main,positivefb,-99,easy,61,0.6681109999999535,['c'],1,left,['0'],6,0.5179637000001094,,,13,19,Vrouw,Rechts,1,
,dotcolour,dotcolour,dotcolour,32,3,212,212,main,positivefb,-99,average,28,1.3680044999991878,['n'],1,right,['8'],4,0.2834152000004906,,,13,19,Vrouw,Rechts,1,
,dotcolour,dotcolour,dotcolour,33,3,213,213,main,positivefb,-99,average,55,0.6837263999996139,['c'],1,left,['9'],5,0.5012502999998105,,,13,19,Vrouw,Rechts,1,
,dotcolour,dotcolour,dotcolour,34,3,214,214,main,positivefb,-99,average,27,0.8173887000002651,['n'],1,right,['0'],6,0.2814892999995209,,,13,19,Vrouw,Rechts,1,
,dotcolour,dotcolour,dotcolour,35,3,215,215,main,positivefb,-99,hard,39,1.4506409999994503,['n'],1,right,['9'],5,0.796650999999656,,,13,19,Vrouw,Rechts,1,
,dotcolour,dotcolour,dotcolour,36,3,216,216,main,positivefb,-99,hard,44,0.7844949999998789,['c'],1,left,['9'],5,0.33531220000077155,,,13,19,Vrouw,Rechts,1,
,dotcolour,dotcolour,dotcolour,37,3,217,217,main,positivefb,-99,average,27,0.701325299999553,['n'],1,right,['0'],6,0.27861229999962234,,,13,19,Vrouw,Rechts,1,
,dotcolour,dotcolour,dotcolour,38,3,218,218,main,positivefb,-99,hard,38,0.9010325999997804,['n'],1,right,['0'],6,0.5838539999995191,,,13,19,Vrouw,Rechts,1,
,dotcolour,dotcolour,dotcolour,39,3,219,219,main,positivefb,-99,easy,63,0.6343004999998811,['c'],1,left,['0'],6,0.2800249999991138,,,13,19,Vrouw,Rechts,1,
,dotcolour,dotcolour,dotcolour,40,3,220,220,main,positivefb,-99,hard,42,0.8835801000004722,['n'],0,left,['8'],4,0.5308752999999342,,,13,19,Vrouw,Rechts,1,
,dotcolour,dotcolour,dotcolour,41,3,221,221,main,positivefb,-99,easy,18,0.6841488000000027,['n'],1,right,['0'],6,0.49888410000039585,,,13,19,Vrouw,Rechts,1,
,dotcolour,dotcolour,dotcolour,42,3,222,222,main,positivefb,-99,average,25,0.7344764000008581,['n'],1,right,['0'],6,0.3060075000003053,,,13,19,Vrouw,Rechts,1,
,dotcolour,dotcolour,dotcolour,43,3,223,223,main,positivefb,-99,easy,16,0.5843641000001298,['n'],1,right,['0'],6,0.3032609000001685,,,13,19,Vrouw,Rechts,1,
,dotcolour,dotcolour,dotcolour,44,3,224,224,main,positivefb,-99,average,53,0.5836576000001514,['c'],1,left,['0'],6,0.25268120000055205,,,13,19,Vrouw,Rechts,1,
,dotcolour,dotcolour,dotcolour,45,3,225,225,main,positivefb,-99,easy,18,0.7012594999996509,['n'],1,right,['0'],6,0.4157193000000916,,,13,19,Vrouw,Rechts,1,
,dotcolour,dotcolour,dotcolour,46,3,226,226,main,positivefb,-99,easy,64,0.6674990999999864,['c'],1,left,['0'],6,0.4924068000000261,,,13,19,Vrouw,Rechts,1,
,dotcolour,dotcolour,dotcolour,47,3,227,227,main,positivefb,-99,easy,62,0.617446999999629,['c'],1,left,['0'],6,0.23383060000014666,,,13,19,Vrouw,Rechts,1,
,dotcolour,dotcolour,dotcolour,48,3,228,228,main,positivefb,-99,easy,62,0.5340043999995032,['c'],1,left,['0'],6,0.41168670000024576,,,13,19,Vrouw,Rechts,1,
,dotcolour,dotcolour,dotcolour,49,3,229,229,main,positivefb,-99,average,29,0.634314799999629,['n'],1,right,['0'],6,0.3230132999997295,,,13,19,Vrouw,Rechts,1,
,dotcolour,dotcolour,dotcolour,50,3,230,230,main,positivefb,-99,hard,45,1.4835527999994156,['n'],0,left,['8'],4,0.8841206999995848,,,13,19,Vrouw,Rechts,1,
,dotcolour,dotcolour,dotcolour,51,3,231,231,main,positivefb,-99,hard,43,1.3016712999997253,['n'],0,left,['8'],4,0.2770827999993344,,,13,19,Vrouw,Rechts,1,
,dotcolour,dotcolour,dotcolour,52,3,232,232,main,positivefb,-99,hard,44,0.7336383999991085,['c'],1,left,['8'],4,0.3575627000000168,,,13,19,Vrouw,Rechts,1,
,dotcolour,dotcolour,dotcolour,53,3,233,233,main,positivefb,-99,average,53,0.734680099999423,['c'],1,left,['0'],6,0.2743779000002178,,,13,19,Vrouw,Rechts,1,
,dotcolour,dotcolour,dotcolour,54,3,234,234,main,positivefb,-99,hard,38,1.8499916000000667,['n'],1,right,['8'],4,0.27082809999956226,,,13,19,Vrouw,Rechts,1,
,dotcolour,dotcolour,dotcolour,55,3,235,235,main,positivefb,-99,easy,62,0.7340118999991319,['c'],1,left,['0'],6,0.27936769999996613,,,13,19,Vrouw,Rechts,1,
,dotcolour,dotcolour,dotcolour,56,3,236,236,main,positivefb,-99,hard,37,0.7507114999998521,['n'],1,right,['9'],5,0.3679434999994555,,,13,19,Vrouw,Rechts,1,
,dotcolour,dotcolour,dotcolour,57,3,237,237,main,positivefb,-99,hard,44,0.9515856000007261,['c'],1,left,['8'],4,0.2596216000001732,,,13,19,Vrouw,Rechts,1,
,dotcolour,dotcolour,dotcolour,58,3,238,238,main,positivefb,-99,easy,16,0.9509901999999784,['n'],1,right,['0'],6,0.3799795000004451,,,13,19,Vrouw,Rechts,1,
,dotcolour,dotcolour,dotcolour,59,3,239,239,main,positivefb,-99,hard,36,1.0172394000001077,['n'],1,right,['8'],4,0.26952820000042266,,,13,19,Vrouw,Rechts,1,
,dotcolour,dotcolour,dotcolour,0,4,240,240,main,positivefb,-99,hard,38,0.8848511999995026,['n'],1,right,['8'],4,0.2928802000005817,,,13,19,Vrouw,Rechts,1,
,dotcolour,dotcolour,dotcolour,1,4,241,241,main,positivefb,-99,hard,42,0.7510659999998097,['n'],0,left,['9'],5,0.3713335000002189,,,13,19,Vrouw,Rechts,1,
,dotcolour,dotcolour,dotcolour,2,4,242,242,main,positivefb,-99,hard,43,1.5850719000000026,['c'],1,left,['9'],5,0.2783550000003743,,,13,19,Vrouw,Rechts,1,
,dotcolour,dotcolour,dotcolour,3,4,243,243,main,positivefb,-99,easy,62,0.7670973999993294,['c'],1,left,['0'],6,0.34935679999944114,,,13,19,Vrouw,Rechts,1,
,dotcolour,dotcolour,dotcolour,4,4,244,244,main,positivefb,-99,hard,41,0.6670679999997446,['n'],0,left,['8'],4,0.6623814999993556,,,13,19,Vrouw,Rechts,1,
,dotcolour,dotcolour,dotcolour,5,4,245,245,main,positivefb,-99,average,51,1.4338078000000678,['c'],1,left,['9'],5,0.37068100000033155,,,13,19,Vrouw,Rechts,1,
,dotcolour,dotcolour,dotcolour,6,4,246,246,main,positivefb,-99,average,54,0.9182668000003105,['c'],1,left,['9'],5,0.22477109999999811,,,13,19,Vrouw,Rechts,1,
,dotcolour,dotcolour,dotcolour,7,4,247,247,main,positivefb,-99,average,25,0.8016364000004614,['n'],1,right,['9'],5,1.2736720000002606,,,13,19,Vrouw,Rechts,1,
,dotcolour,dotcolour,dotcolour,8,4,248,248,main,positivefb,-99,average,28,0.6340565000000424,['n'],1,right,['8'],4,0.36521089999951073,,,13,19,Vrouw,Rechts,1,
,dotcolour,dotcolour,dotcolour,9,4,249,249,main,positivefb,-99,hard,41,0.9347465000000739,['c'],1,left,['9'],5,0.3538862000004883,,,13,19,Vrouw,Rechts,1,
,dotcolour,dotcolour,dotcolour,10,4,250,250,main,positivefb,-99,easy,63,0.5184507999993002,['c'],1,left,['0'],6,0.3679707999999664,,,13,19,Vrouw,Rechts,1,
,dotcolour,dotcolour,dotcolour,11,4,251,251,main,positivefb,-99,average,51,1.1514536000004227,['c'],1,left,['8'],4,0.2522349999999278,,,13,19,Vrouw,Rechts,1,
,dotcolour,dotcolour,dotcolour,12,4,252,252,main,positivefb,-99,average,55,0.6338974000000235,['c'],1,left,['0'],6,0.2572911999995995,,,13,19,Vrouw,Rechts,1,
,dotcolour,dotcolour,dotcolour,13,4,253,253,main,positivefb,-99,easy,62,0.6172570000007909,['c'],1,left,['0'],6,0.21507010000004811,,,13,19,Vrouw,Rechts,1,
,dotcolour,dotcolour,dotcolour,14,4,254,254,main,positivefb,-99,average,53,0.7340322999998534,['c'],1,left,['8'],4,0.24222329999975045,,,13,19,Vrouw,Rechts,1,
,dotcolour,dotcolour,dotcolour,15,4,255,255,main,positivefb,-99,easy,64,0.5012770000003002,['c'],1,left,['0'],6,0.20523250000042026,,,13,19,Vrouw,Rechts,1,
,dotcolour,dotcolour,dotcolour,16,4,256,256,main,positivefb,-99,hard,37,0.7515547000002698,['n'],1,right,['8'],4,0.27240059999985533,,,13,19,Vrouw,Rechts,1,
,dotcolour,dotcolour,dotcolour,17,4,257,257,main,positivefb,-99,average,52,0.533633799999734,['c'],1,left,['0'],6,0.1924565999997867,,,13,19,Vrouw,Rechts,1,
,dotcolour,dotcolour,dotcolour,18,4,258,258,main,positivefb,-99,hard,41,0.8336618000003,['n'],0,left,['9'],5,0.43231420000029175,,,13,19,Vrouw,Rechts,1,
,dotcolour,dotcolour,dotcolour,19,4,259,259,main,positivefb,-99,hard,39,1.4343207000001712,['n'],1,right,['8'],4,0.22235730000011245,,,13,19,Vrouw,Rechts,1,
,dotcolour,dotcolour,dotcolour,20,4,260,260,main,positivefb,-99,average,28,0.6000529999992068,['n'],1,right,['8'],4,0.3024526999997761,,,13,19,Vrouw,Rechts,1,
,dotcolour,dotcolour,dotcolour,21,4,261,261,main,positivefb,-99,easy,16,0.46724280000034923,['n'],1,right,['0'],6,0.35322309999992285,,,13,19,Vrouw,Rechts,1,
,dotcolour,dotcolour,dotcolour,22,4,262,262,main,positivefb,-99,average,55,0.5017593000002307,['c'],1,left,['0'],6,0.231963000000178,,,13,19,Vrouw,Rechts,1,
,dotcolour,dotcolour,dotcolour,23,4,263,263,main,positivefb,-99,easy,18,0.7677137999999104,['n'],1,right,['0'],6,0.27280940000036935,,,13,19,Vrouw,Rechts,1,
,dotcolour,dotcolour,dotcolour,24,4,264,264,main,positivefb,-99,average,52,0.6673805000000357,['c'],1,left,['0'],6,0.2355397000001176,,,13,19,Vrouw,Rechts,1,
,dotcolour,dotcolour,dotcolour,25,4,265,265,main,positivefb,-99,hard,45,0.9512166999993497,['n'],0,left,['8'],4,0.2764990999994552,,,13,19,Vrouw,Rechts,1,
,dotcolour,dotcolour,dotcolour,26,4,266,266,main,positivefb,-99,easy,62,0.6343597999994017,['c'],1,left,['0'],6,0.24950820000049134,,,13,19,Vrouw,Rechts,1,
,dotcolour,dotcolour,dotcolour,27,4,267,267,main,positivefb,-99,easy,62,0.8673422000001665,['c'],1,left,['0'],6,0.18102120000003197,,,13,19,Vrouw,Rechts,1,
,dotcolour,dotcolour,dotcolour,28,4,268,268,main,positivefb,-99,easy,16,0.41740739999931975,['n'],1,right,['0'],6,0.23846990000038204,,,13,19,Vrouw,Rechts,1,
,dotcolour,dotcolour,dotcolour,29,4,269,269,main,positivefb,-99,average,29,0.78390330000002,['n'],1,right,['0'],6,0.27012609999928827,,,13,19,Vrouw,Rechts,1,
,dotcolour,dotcolour,dotcolour,30,4,270,270,main,positivefb,-99,easy,16,0.45104840000021795,['n'],1,right,['0'],6,0.474265199999536,,,13,19,Vrouw,Rechts,1,
,dotcolour,dotcolour,dotcolour,31,4,271,271,main,positivefb,-99,easy,63,0.5671388999999181,['c'],1,left,['0'],6,0.37741900000037276,,,13,19,Vrouw,Rechts,1,
,dotcolour,dotcolour,dotcolour,32,4,272,272,main,positivefb,-99,average,26,0.6510447999999087,['n'],1,right,['0'],6,0.2895615999996153,,,13,19,Vrouw,Rechts,1,
,dotcolour,dotcolour,dotcolour,33,4,273,273,main,positivefb,-99,hard,36,1.4178315999997722,['n'],1,right,['8'],4,0.294451100000515,,,13,19,Vrouw,Rechts,1,
,dotcolour,dotcolour,dotcolour,34,4,274,274,main,positivefb,-99,easy,65,0.6003252999998949,['c'],1,left,['0'],6,0.339574999999968,,,13,19,Vrouw,Rechts,1,
,dotcolour,dotcolour,dotcolour,35,4,275,275,main,positivefb,-99,easy,63,0.5350938000001406,['c'],1,left,['0'],6,0.21727989999999409,,,13,19,Vrouw,Rechts,1,
,dotcolour,dotcolour,dotcolour,36,4,276,276,main,positivefb,-99,average,53,1.1850664000003235,['n'],0,left,['8'],4,0.4107942999999068,,,13,19,Vrouw,Rechts,1,
,dotcolour,dotcolour,dotcolour,37,4,277,277,main,positivefb,-99,hard,41,1.1167281999996703,['c'],1,left,['8'],4,0.206890100000237,,,13,19,Vrouw,Rechts,1,
,dotcolour,dotcolour,dotcolour,38,4,278,278,main,positivefb,-99,easy,15,0.6181713000005402,['n'],1,right,['0'],6,0.3428308999991714,,,13,19,Vrouw,Rechts,1,
,dotcolour,dotcolour,dotcolour,39,4,279,279,main,positivefb,-99,average,55,0.6841622000001735,['c'],1,left,['9'],5,0.4544604000002437,,,13,19,Vrouw,Rechts,1,
,dotcolour,dotcolour,dotcolour,40,4,280,280,main,positivefb,-99,hard,35,0.767706999999973,['n'],1,right,['8'],4,0.44636609999997745,,,13,19,Vrouw,Rechts,1,
,dotcolour,dotcolour,dotcolour,41,4,281,281,main,positivefb,-99,easy,18,0.5829894000007698,['n'],1,right,['0'],6,0.8782712000001993,,,13,19,Vrouw,Rechts,1,
,dotcolour,dotcolour,dotcolour,42,4,282,282,main,positivefb,-99,easy,15,0.5339561999999205,['n'],1,right,['0'],6,0.3827622999997402,,,13,19,Vrouw,Rechts,1,
,dotcolour,dotcolour,dotcolour,43,4,283,283,main,positivefb,-99,average,28,1.1513303000001542,['n'],1,right,['8'],4,0.25042370000028313,,,13,19,Vrouw,Rechts,1,
,dotcolour,dotcolour,dotcolour,44,4,284,284,main,positivefb,-99,average,27,1.0513771999994788,['c'],0,right,['8'],4,0.270931400000336,,,13,19,Vrouw,Rechts,1,
,dotcolour,dotcolour,dotcolour,45,4,285,285,main,positivefb,-99,easy,15,0.5840736000000106,['n'],1,right,['8'],4,0.24519750000035856,,,13,19,Vrouw,Rechts,1,
,dotcolour,dotcolour,dotcolour,46,4,286,286,main,positivefb,-99,easy,63,0.6171635999999125,['c'],1,left,['0'],6,0.5563554999998814,,,13,19,Vrouw,Rechts,1,
,dotcolour,dotcolour,dotcolour,47,4,287,287,main,positivefb,-99,hard,35,1.4512260999999853,['n'],1,right,['8'],4,0.2849399999995512,,,13,19,Vrouw,Rechts,1,
,dotcolour,dotcolour,dotcolour,48,4,288,288,main,positivefb,-99,hard,45,0.7004568000002109,['c'],1,left,['8'],4,0.2712310000006255,,,13,19,Vrouw,Rechts,1,
,dotcolour,dotcolour,dotcolour,49,4,289,289,main,positivefb,-99,hard,43,1.3836989999999787,['c'],1,left,['9'],5,0.6613403999999719,,,13,19,Vrouw,Rechts,1,
,dotcolour,dotcolour,dotcolour,50,4,290,290,main,positivefb,-99,average,27,0.6668842000008226,['n'],1,right,['8'],4,0.4969012000001385,,,13,19,Vrouw,Rechts,1,
,dotcolour,dotcolour,dotcolour,51,4,291,291,main,positivefb,-99,hard,35,1.5174690000003466,['n'],1,right,['8'],4,0.39270529999976134,,,13,19,Vrouw,Rechts,1,
,dotcolour,dotcolour,dotcolour,52,4,292,292,main,positivefb,-99,easy,16,0.6853516000001036,['n'],1,right,['0'],6,0.30335379999996803,,,13,19,Vrouw,Rechts,1,
,dotcolour,dotcolour,dotcolour,53,4,293,293,main,positivefb,-99,average,25,0.8354013000007399,['n'],1,right,['9'],5,0.34646130000055564,,,13,19,Vrouw,Rechts,1,
,dotcolour,dotcolour,dotcolour,54,4,294,294,main,positivefb,-99,average,25,0.7003158999996231,['n'],1,right,['9'],5,0.33007500000076107,,,13,19,Vrouw,Rechts,1,
,dotcolour,dotcolour,dotcolour,55,4,295,295,main,positivefb,-99,hard,37,1.6011132000003272,['n'],1,right,['9'],5,0.245934199999283,,,13,19,Vrouw,Rechts,1,
,dotcolour,dotcolour,dotcolour,56,4,296,296,main,positivefb,-99,hard,39,1.18443920000027,['c'],0,right,['9'],5,0.4859497999996165,,,13,19,Vrouw,Rechts,1,
,dotcolour,dotcolour,dotcolour,57,4,297,297,main,positivefb,-99,hard,37,1.3846137000000454,['c'],0,right,['8'],4,0.22029549999933806,,,13,19,Vrouw,Rechts,1,
,dotcolour,dotcolour,dotcolour,58,4,298,298,main,positivefb,-99,easy,19,0.7338544000003822,['n'],1,right,['9'],5,0.30261980000068434,,,13,19,Vrouw,Rechts,1,
,dotcolour,dotcolour,dotcolour,59,4,299,299,main,positivefb,-99,hard,45,1.0013047000002189,['c'],1,left,['8'],4,0.28301120000014635,,,13,19,Vrouw,Rechts,1,
,dotcolour,dotcolour,dotcolour,0,0,0,300,training,positivefb,87,average,26,1.100991199999953,['n'],1,right,['9'],5,0.31120069999997213,,,13,19,Vrouw,Rechts,1,
,dotcolour,dotcolour,dotcolour,1,0,1,301,training,positivefb,91,average,53,0.8334611000000223,['c'],1,left,['9'],5,0.2331726999991588,,,13,19,Vrouw,Rechts,1,
,dotcolour,dotcolour,dotcolour,2,0,2,302,training,positivefb,97,hard,39,0.7495344000008117,['n'],1,right,['9'],5,0.2582730000003721,,,13,19,Vrouw,Rechts,1,
,dotcolour,dotcolour,dotcolour,3,0,3,303,training,positivefb,92,easy,63,7.367595499999879,['c'],1,left,['8'],4,1.1698536000003514,,,13,19,Vrouw,Rechts,1,
,dotcolour,dotcolour,dotcolour,4,0,4,304,training,positivefb,95,easy,15,0.8846222000001944,['n'],1,right,['9'],5,0.2799219999997149,,,13,19,Vrouw,Rechts,1,
,dotcolour,dotcolour,dotcolour,5,0,5,305,training,positivefb,87,average,54,0.7669291000001976,['c'],1,left,['0'],6,0.3664734000003591,,,13,19,Vrouw,Rechts,1,
,dotcolour,dotcolour,dotcolour,6,0,6,306,training,positivefb,62,easy,61,0.7835125999999946,['n'],0,left,['8'],4,1.2964990999998918,,,13,19,Vrouw,Rechts,1,
,dotcolour,dotcolour,dotcolour,7,0,7,307,training,positivefb,55,hard,38,0.7662909999999101,['n'],1,right,['9'],5,0.3666496999994706,,,13,19,Vrouw,Rechts,1,
,dotcolour,dotcolour,dotcolour,8,0,8,308,training,positivefb,77,average,27,0.8005523000001631,['n'],1,right,['9'],5,0.26390080000055605,,,13,19,Vrouw,Rechts,1,
,dotcolour,dotcolour,dotcolour,9,0,9,309,training,positivefb,94,average,26,1.5185240000000704,['n'],1,right,['9'],5,0.336727100000644,,,13,19,Vrouw,Rechts,1,
,dotcolour,dotcolour,dotcolour,10,0,10,310,training,positivefb,97,average,51,0.8170843999996578,['c'],1,left,['9'],5,0.3708292999999685,,,13,19,Vrouw,Rechts,1,
,dotcolour,dotcolour,dotcolour,11,0,11,311,training,positivefb,60,hard,37,1.9670043000005535,['n'],1,right,['9'],5,0.5024355000005016,,,13,19,Vrouw,Rechts,1,
,dotcolour,dotcolour,dotcolour,12,0,12,312,training,positivefb,87,average,51,0.8333996999999727,['n'],0,left,['8'],4,0.2727928000003885,,,13,19,Vrouw,Rechts,1,
,dotcolour,dotcolour,dotcolour,13,0,13,313,training,positivefb,100,easy,65,0.7342084000001705,['c'],1,left,['9'],5,5.120757000000594,,,13,19,Vrouw,Rechts,1,
,dotcolour,dotcolour,dotcolour,14,0,14,314,training,positivefb,92,hard,37,0.766161500000635,['n'],1,right,['8'],4,0.2204327999997986,,,13,19,Vrouw,Rechts,1,
,dotcolour,dotcolour,dotcolour,15,0,15,315,training,positivefb,96,average,28,1.117042400000173,['n'],1,right,['8'],4,0.22267790000023524,,,13,19,Vrouw,Rechts,1,
,dotcolour,dotcolour,dotcolour,16,0,16,316,training,positivefb,93,average,29,1.8666018000003533,['n'],1,right,['8'],4,0.2909668000002057,,,13,19,Vrouw,Rechts,1,
,dotcolour,dotcolour,dotcolour,17,0,17,317,training,positivefb,91,average,28,1.399369800000386,['n'],1,right,['8'],4,0.3115501000002041,,,13,19,Vrouw,Rechts,1,
,dotcolour,dotcolour,dotcolour,18,0,18,318,training,positivefb,95,easy,62,0.5833011000004262,['c'],1,left,['0'],6,0.3326697000002241,,,13,19,Vrouw,Rechts,1,
,dotcolour,dotcolour,dotcolour,19,0,19,319,training,positivefb,96,easy,18,0.6511690000006638,['n'],1,right,['0'],6,0.24550750000071275,,,13,19,Vrouw,Rechts,1,
,dotcolour,dotcolour,dotcolour,20,0,20,320,training,positivefb,95,hard,44,1.1828569999997853,['c'],1,left,['9'],5,0.3886084000005212,,,13,19,Vrouw,Rechts,1,
,dotcolour,dotcolour,dotcolour,21,0,21,321,training,positivefb,98,average,52,0.8836256000004141,['c'],1,left,['9'],5,0.25026900000011665,,,13,19,Vrouw,Rechts,1,
,dotcolour,dotcolour,dotcolour,22,0,22,322,training,positivefb,85,hard,43,0.6999236000001474,['n'],0,left,['8'],4,0.3323571000000811,,,13,19,Vrouw,Rechts,1,
,dotcolour,dotcolour,dotcolour,23,0,23,323,training,positivefb,93,easy,15,0.9166080999993937,['n'],1,right,['9'],5,0.3141279999999824,,,13,19,Vrouw,Rechts,1,
,dotcolour,dotcolour,dotcolour,24,0,24,324,training,positivefb,90,easy,62,0.7165678999999727,['c'],1,left,['9'],5,0.27269090000027063,,,13,19,Vrouw,Rechts,1,
,dotcolour,dotcolour,dotcolour,25,0,25,325,training,positivefb,90,easy,15,0.6996656000001167,['n'],1,right,['9'],5,0.2823860999997123,,,13,19,Vrouw,Rechts,1,
,dotcolour,dotcolour,dotcolour,26,0,26,326,training,positivefb,99,easy,15,0.6173563000002105,['n'],1,right,['0'],6,0.46205689999987953,,,13,19,Vrouw,Rechts,1,
,dotcolour,dotcolour,dotcolour,27,0,27,327,training,positivefb,98,easy,65,0.717316899999787,['c'],1,left,['0'],6,0.22355399999923975,,,13,19,Vrouw,Rechts,1,
,dotcolour,dotcolour,dotcolour,28,0,28,328,training,positivefb,96,easy,15,0.6169718999999532,['n'],1,right,['0'],6,0.2465396999996301,,,13,19,Vrouw,Rechts,1,
,dotcolour,dotcolour,dotcolour,29,0,29,329,training,positivefb,96,easy,65,0.5836356999998316,['c'],1,left,['0'],6,0.245389100000466,,,13,19,Vrouw,Rechts,1,
,dotcolour,dotcolour,dotcolour,30,0,30,330,training,positivefb,99,hard,35,0.8333421000006638,['n'],1,right,['0'],6,0.5629848999997193,,,13,19,Vrouw,Rechts,1,
,dotcolour,dotcolour,dotcolour,31,0,31,331,training,positivefb,99,average,26,0.733857000000171,['n'],1,right,['0'],6,0.496433899999829,,,13,19,Vrouw,Rechts,1,
,dotcolour,dotcolour,dotcolour,32,0,32,332,training,positivefb,89,average,27,0.6001815999998144,['n'],1,right,['0'],6,0.292359299999589,,,13,19,Vrouw,Rechts,1,
,dotcolour,dotcolour,dotcolour,33,0,33,333,training,positivefb,94,hard,41,0.7329141000000163,['c'],1,left,['0'],6,0.4357434000003195,,,13,19,Vrouw,Rechts,1,
,dotcolour,dotcolour,dotcolour,34,0,34,334,training,positivefb,85,average,52,0.7834880000000339,['c'],1,left,['0'],6,0.3318730000000869,,,13,19,Vrouw,Rechts,1,
,dotcolour,dotcolour,dotcolour,35,0,35,335,training,positivefb,99,easy,15,0.5170723999999609,['n'],1,right,['0'],6,0.2494709000002331,,,13,19,Vrouw,Rechts,1,
,dotcolour,dotcolour,dotcolour,36,0,36,336,training,positivefb,91,hard,37,0.832561700000042,['n'],1,right,['0'],6,0.20547410000017408,,,13,19,Vrouw,Rechts,1,
,dotcolour,dotcolour,dotcolour,37,0,37,337,training,positivefb,96,hard,43,0.7825031000002127,['c'],1,left,['0'],6,0.1832579000001715,,,13,19,Vrouw,Rechts,1,
,dotcolour,dotcolour,dotcolour,38,0,38,338,training,positivefb,99,easy,65,0.48301700000047276,['c'],1,left,['0'],6,0.15561600000000908,,,13,19,Vrouw,Rechts,1,
,dotcolour,dotcolour,dotcolour,39,0,39,339,training,positivefb,99,average,27,0.5832764000006136,['n'],1,right,['0'],6,0.1826642999994874,,,13,19,Vrouw,Rechts,1,
,dotcolour,dotcolour,dotcolour,40,0,40,340,training,positivefb,87,hard,41,0.5329865000003338,['c'],1,left,['9'],5,0.3057810000000245,,,13,19,Vrouw,Rechts,1,
,dotcolour,dotcolour,dotcolour,41,0,41,341,training,positivefb,98,easy,15,0.5826611000002231,['n'],1,right,['9'],5,0.2546762000001763,,,13,19,Vrouw,Rechts,1,
,dotcolour,dotcolour,dotcolour,42,0,42,342,training,positivefb,93,hard,35,0.9494052000000011,['n'],1,right,['0'],6,0.4786364000001413,,,13,19,Vrouw,Rechts,1,
,dotcolour,dotcolour,dotcolour,43,0,43,343,training,positivefb,98,hard,42,0.68347200000062,['n'],0,left,['0'],6,0.2567562000003818,,,13,19,Vrouw,Rechts,1,
,dotcolour,dotcolour,dotcolour,44,0,44,344,training,positivefb,99,easy,63,0.4843417000001864,['c'],1,left,['0'],6,0.2189407999994728,,,13,19,Vrouw,Rechts,1,
,dotcolour,dotcolour,dotcolour,45,0,45,345,training,positivefb,97,easy,17,0.5157284999995682,['n'],1,right,['0'],6,0.246158099999775,,,13,19,Vrouw,Rechts,1,
,dotcolour,dotcolour,dotcolour,46,0,46,346,training,positivefb,75,hard,42,1.099824400000216,['c'],1,left,['9'],5,0.37732470000082685,,,13,19,Vrouw,Rechts,1,
,dotcolour,dotcolour,dotcolour,47,0,47,347,training,positivefb,79,hard,43,1.6983938000003036,['n'],0,left,['9'],5,0.36602290000064386,,,13,19,Vrouw,Rechts,1,
,dotcolour,dotcolour,dotcolour,48,0,48,348,training,positivefb,89,average,54,0.6163538999999219,['c'],1,left,['0'],6,0.19874370000070485,,,13,19,Vrouw,Rechts,1,
,dotcolour,dotcolour,dotcolour,49,0,49,349,training,positivefb,97,average,53,0.6340125999995507,['c'],1,left,['0'],6,0.24502690000008442,,,13,19,Vrouw,Rechts,1,
,dotcolour,dotcolour,dotcolour,50,0,50,350,training,positivefb,89,hard,36,1.8493239999997968,['n'],1,right,['9'],5,0.35420799999974406,,,13,19,Vrouw,Rechts,1,
,dotcolour,dotcolour,dotcolour,51,0,51,351,training,positivefb,91,hard,37,1.6486088000001473,['n'],1,right,['9'],5,0.3299934000006033,,,13,19,Vrouw,Rechts,1,
,dotcolour,dotcolour,dotcolour,52,0,52,352,training,positivefb,89,hard,37,0.8671220999995057,['n'],1,right,['9'],5,0.27491700000064156,,,13,19,Vrouw,Rechts,1,
,dotcolour,dotcolour,dotcolour,53,0,53,353,training,positivefb,99,easy,16,0.5665036000000327,['n'],1,right,['0'],6,0.321575799999664,,,13,19,Vrouw,Rechts,1,
,dotcolour,dotcolour,dotcolour,54,0,54,354,training,positivefb,93,average,53,0.5671147000002748,['c'],1,left,['0'],6,0.2786998000001404,,,13,19,Vrouw,Rechts,1,
,dotcolour,dotcolour,dotcolour,55,0,55,355,training,positivefb,98,easy,65,0.5836412999997265,['c'],1,left,['0'],6,0.3878852999996525,,,13,19,Vrouw,Rechts,1,
,dotcolour,dotcolour,dotcolour,56,0,56,356,training,positivefb,78,average,52,1.3332480000008218,['n'],0,left,['9'],5,0.35188990000006015,,,13,19,Vrouw,Rechts,1,
,dotcolour,dotcolour,dotcolour,57,0,57,357,training,positivefb,96,average,29,0.633571899999879,['n'],1,right,['0'],6,0.504007399999864,,,13,19,Vrouw,Rechts,1,
,dotcolour,dotcolour,dotcolour,58,0,58,358,training,positivefb,98,hard,44,0.5667092000003322,['c'],1,left,['0'],6,0.2536387999998624,,,13,19,Vrouw,Rechts,1,
,dotcolour,dotcolour,dotcolour,59,0,59,359,training,positivefb,79,hard,41,0.7841545999999653,['n'],0,left,['9'],5,0.204660899999908,,,13,19,Vrouw,Rechts,1,
,dotcolour,dotcolour,dotcolour,0,1,60,360,training,positivefb,91,hard,35,0.9338103000000046,['c'],0,right,['9'],5,0.2967289999996865,,,13,19,Vrouw,Rechts,1,
,dotcolour,dotcolour,dotcolour,1,1,61,361,training,positivefb,99,average,25,0.6333043999993606,['n'],1,right,['9'],5,0.5563139000005322,,,13,19,Vrouw,Rechts,1,
,dotcolour,dotcolour,dotcolour,2,1,62,362,training,positivefb,97,easy,64,0.632871900000282,['c'],1,left,['0'],6,0.37233460000061314,,,13,19,Vrouw,Rechts,1,
,dotcolour,dotcolour,dotcolour,3,1,63,363,training,positivefb,96,easy,64,0.5666496000003463,['c'],1,left,['0'],6,0.1835862999996607,,,13,19,Vrouw,Rechts,1,
,dotcolour,dotcolour,dotcolour,4,1,64,364,training,positivefb,96,hard,42,0.817124899999726,['n'],0,left,['0'],6,0.24704060000021855,,,13,19,Vrouw,Rechts,1,
,dotcolour,dotcolour,dotcolour,5,1,65,365,training,positivefb,96,average,52,0.6498913999994329,['c'],1,left,['0'],6,0.21973460000026535,,,13,19,Vrouw,Rechts,1,
,dotcolour,dotcolour,dotcolour,6,1,66,366,training,positivefb,98,average,53,0.3998908000003212,['c'],1,left,['0'],6,0.45933809999951336,,,13,19,Vrouw,Rechts,1,
,dotcolour,dotcolour,dotcolour,7,1,67,367,training,positivefb,77,average,26,0.6173628999995344,['n'],1,right,['9'],5,0.3286815999999817,,,13,19,Vrouw,Rechts,1,
,dotcolour,dotcolour,dotcolour,8,1,68,368,training,positivefb,94,hard,36,0.7000234999995882,['n'],1,right,['9'],5,0.27995110000028944,,,13,19,Vrouw,Rechts,1,
,dotcolour,dotcolour,dotcolour,9,1,69,369,training,positivefb,92,hard,45,1.1004120999996303,['n'],0,left,['8'],4,0.24925879999955214,,,13,19,Vrouw,Rechts,1,
,dotcolour,dotcolour,dotcolour,10,1,70,370,training,positivefb,97,average,54,0.5346106999995754,['c'],1,left,['9'],5,0.2258412999999564,,,13,19,Vrouw,Rechts,1,
,dotcolour,dotcolour,dotcolour,11,1,71,371,training,positivefb,75,easy,16,0.7999313000000257,['n'],1,right,['0'],6,0.23342439999942144,,,13,19,Vrouw,Rechts,1,
,dotcolour,dotcolour,dotcolour,12,1,72,372,training,positivefb,82,easy,65,2.4013113999999405,['c'],1,left,['8'],4,0.20761459999994258,,,13,19,Vrouw,Rechts,1,
,dotcolour,dotcolour,dotcolour,13,1,73,373,training,positivefb,91,hard,45,0.6662010999998529,['n'],0,left,['8'],4,0.30920530000003055,,,13,19,Vrouw,Rechts,1,
,dotcolour,dotcolour,dotcolour,14,1,74,374,training,positivefb,97,easy,17,0.5339914999995017,['n'],1,right,['8'],4,0.2678803999997399,,,13,19,Vrouw,Rechts,1,
,dotcolour,dotcolour,dotcolour,15,1,75,375,training,positivefb,84,average,27,0.4832563999998456,['n'],1,right,['0'],6,0.24663020000025426,,,13,19,Vrouw,Rechts,1,
,dotcolour,dotcolour,dotcolour,16,1,76,376,training,positivefb,99,average,28,0.8171576999993704,['n'],1,right,['9'],5,0.5242060000000492,,,13,19,Vrouw,Rechts,1,
,dotcolour,dotcolour,dotcolour,17,1,77,377,training,positivefb,89,average,25,0.6174274000004516,['n'],1,right,['9'],5,0.21513640000011947,,,13,19,Vrouw,Rechts,1,
,dotcolour,dotcolour,dotcolour,18,1,78,378,training,positivefb,95,easy,64,0.5009001000007629,['c'],1,left,['0'],6,0.19421779999993305,,,13,19,Vrouw,Rechts,1,
,dotcolour,dotcolour,dotcolour,19,1,79,379,training,positivefb,89,hard,39,0.6496503999997003,['n'],1,right,['9'],5,0.22480080000059388,,,13,19,Vrouw,Rechts,1,
,dotcolour,dotcolour,dotcolour,20,1,80,380,training,positivefb,29,easy,18,0.5671097000004011,['c'],0,right,['3'],3,1.4257293000000573,,,13,19,Vrouw,Rechts,1,
,dotcolour,dotcolour,dotcolour,21,1,81,381,training,positivefb,97,easy,64,0.816381800000272,['c'],1,left,['0'],6,0.24006829999962065,,,13,19,Vrouw,Rechts,1,
,dotcolour,dotcolour,dotcolour,22,1,82,382,training,positivefb,94,hard,39,0.8496852999996918,['n'],1,right,['8'],4,0.31715689999964525,,,13,19,Vrouw,Rechts,1,
,dotcolour,dotcolour,dotcolour,23,1,83,383,training,positivefb,84,hard,41,0.8500571000004129,['n'],0,left,['8'],4,0.42218570000022737,,,13,19,Vrouw,Rechts,1,
,dotcolour,dotcolour,dotcolour,24,1,84,384,training,positivefb,86,hard,39,0.9331476999996084,['c'],0,right,['8'],4,0.36036389999935636,,,13,19,Vrouw,Rechts,1,
,dotcolour,dotcolour,dotcolour,25,1,85,385,training,positivefb,94,average,54,0.6332486999999674,['c'],1,left,['0'],6,0.3131230000008145,,,13,19,Vrouw,Rechts,1,
,dotcolour,dotcolour,dotcolour,26,1,86,386,training,positivefb,97,easy,16,0.5832673000004434,['n'],1,right,['0'],6,0.2938264000003983,,,13,19,Vrouw,Rechts,1,
,dotcolour,dotcolour,dotcolour,27,1,87,387,training,positivefb,24,hard,44,0.6008131999997204,['n'],0,left,['8'],4,0.6909383000001981,,,13,19,Vrouw,Rechts,1,
,dotcolour,dotcolour,dotcolour,28,1,88,388,training,positivefb,92,easy,15,0.6500727000002371,['n'],1,right,['0'],6,0.2449436999995669,,,13,19,Vrouw,Rechts,1,
,dotcolour,dotcolour,dotcolour,29,1,89,389,training,positivefb,93,average,51,0.583389299999908,['c'],1,left,['9'],5,0.2446472999999969,,,13,19,Vrouw,Rechts,1,
,dotcolour,dotcolour,dotcolour,30,1,90,390,training,positivefb,95,easy,17,0.5503823999997621,['n'],1,right,['0'],6,0.22118619999946532,,,13,19,Vrouw,Rechts,1,
,dotcolour,dotcolour,dotcolour,31,1,91,391,training,positivefb,95,hard,37,0.7663876999995409,['c'],0,right,['8'],4,0.2139577999996618,,,13,19,Vrouw,Rechts,1,
,dotcolour,dotcolour,dotcolour,32,1,92,392,training,positivefb,95,hard,38,0.766625600000225,['c'],0,right,['8'],4,0.22311220000028698,,,13,19,Vrouw,Rechts,1,
,dotcolour,dotcolour,dotcolour,33,1,93,393,training,positivefb,92,average,51,0.5997927999997046,['c'],1,left,['9'],5,0.238638699999683,,,13,19,Vrouw,Rechts,1,
,dotcolour,dotcolour,dotcolour,34,1,94,394,training,positivefb,95,hard,43,0.8666328999997859,['n'],0,left,['8'],4,0.24232060000031197,,,13,19,Vrouw,Rechts,1,
,dotcolour,dotcolour,dotcolour,35,1,95,395,training,positivefb,97,easy,61,0.534056700000292,['c'],1,left,['0'],6,0.2197785999996995,,,13,19,Vrouw,Rechts,1,
,dotcolour,dotcolour,dotcolour,36,1,96,396,training,positivefb,94,hard,36,0.7495004000002154,['n'],1,right,['8'],4,0.22101949999978387,,,13,19,Vrouw,Rechts,1,
,dotcolour,dotcolour,dotcolour,37,1,97,397,training,positivefb,96,average,54,0.5336005999997724,['c'],1,left,['0'],6,0.32711990000007063,,,13,19,Vrouw,Rechts,1,
,dotcolour,dotcolour,dotcolour,38,1,98,398,training,positivefb,80,average,51,1.1172790000000532,['n'],0,left,['8'],4,0.2698934999998528,,,13,19,Vrouw,Rechts,1,
,dotcolour,dotcolour,dotcolour,39,1,99,399,training,positivefb,84,average,28,1.0666278000007878,['n'],1,right,['8'],4,0.2011583999992581,,,13,19,Vrouw,Rechts,1,
,dotcolour,dotcolour,dotcolour,40,1,100,400,training,positivefb,76,hard,38,2.0004103000001123,['n'],1,right,['8'],4,0.23207400000046619,,,13,19,Vrouw,Rechts,1,
,dotcolour,dotcolour,dotcolour,41,1,101,401,training,positivefb,96,easy,19,0.5847733999999036,['n'],1,right,['0'],6,0.2079027000008864,,,13,19,Vrouw,Rechts,1,
,dotcolour,dotcolour,dotcolour,42,1,102,402,training,positivefb,95,easy,61,0.5169127999997727,['c'],1,left,['0'],6,0.19583650000004127,,,13,19,Vrouw,Rechts,1,
,dotcolour,dotcolour,dotcolour,43,1,103,403,training,positivefb,61,hard,43,1.383730999999898,['c'],1,left,['8'],4,0.4530160000003889,,,13,19,Vrouw,Rechts,1,
,dotcolour,dotcolour,dotcolour,44,1,104,404,training,positivefb,94,average,53,0.6171957999995357,['c'],1,left,['0'],6,0.19426019999991695,,,13,19,Vrouw,Rechts,1,
,dotcolour,dotcolour,dotcolour,45,1,105,405,training,positivefb,92,easy,15,0.5501898000002257,['n'],1,right,['0'],6,0.18094819999987521,,,13,19,Vrouw,Rechts,1,
,dotcolour,dotcolour,dotcolour,46,1,106,406,training,positivefb,87,average,29,0.7668921000004048,['n'],1,right,['0'],6,0.23842669999976351,,,13,19,Vrouw,Rechts,1,
,dotcolour,dotcolour,dotcolour,47,1,107,407,training,positivefb,96,hard,42,0.749410500000522,['c'],1,left,['8'],4,0.23151719999987108,,,13,19,Vrouw,Rechts,1,
,dotcolour,dotcolour,dotcolour,48,1,108,408,training,positivefb,93,average,54,1.0162909999999101,['c'],1,left,['8'],4,0.18949379999958182,,,13,19,Vrouw,Rechts,1,
,dotcolour,dotcolour,dotcolour,49,1,109,409,training,positivefb,99,average,28,0.5332838000003903,['n'],1,right,['9'],5,0.25752169999941543,,,13,19,Vrouw,Rechts,1,
,dotcolour,dotcolour,dotcolour,50,1,110,410,training,positivefb,99,easy,65,0.5503669999998237,['c'],1,left,['0'],6,0.23316069999964384,,,13,19,Vrouw,Rechts,1,
,dotcolour,dotcolour,dotcolour,51,1,111,411,training,positivefb,98,easy,63,0.49982679999993707,['c'],1,left,['0'],6,0.20350150000012945,,,13,19,Vrouw,Rechts,1,
,dotcolour,dotcolour,dotcolour,52,1,112,412,training,positivefb,97,average,28,0.6157980000007228,['n'],1,right,['0'],6,0.21060619999934715,,,13,19,Vrouw,Rechts,1,
,dotcolour,dotcolour,dotcolour,53,1,113,413,training,positivefb,96,easy,17,0.6340723000002981,['n'],1,right,['0'],6,0.20922979999977542,,,13,19,Vrouw,Rechts,1,
,dotcolour,dotcolour,dotcolour,54,1,114,414,training,positivefb,95,hard,43,0.6824408000002222,['c'],1,left,['9'],5,0.311098199999833,,,13,19,Vrouw,Rechts,1,
,dotcolour,dotcolour,dotcolour,55,1,115,415,training,positivefb,99,easy,62,0.5491789999996399,['c'],1,left,['0'],6,0.21236389999921812,,,13,19,Vrouw,Rechts,1,
,dotcolour,dotcolour,dotcolour,56,1,116,416,training,positivefb,88,easy,17,0.7327061000005415,['n'],1,right,['0'],6,0.2151997000000847,,,13,19,Vrouw,Rechts,1,
,dotcolour,dotcolour,dotcolour,57,1,117,417,training,positivefb,97,average,27,1.2007395000000542,['n'],1,right,['9'],5,0.30249780000031024,,,13,19,Vrouw,Rechts,1,
,dotcolour,dotcolour,dotcolour,58,1,118,418,training,positivefb,92,hard,41,1.0164377000000968,['c'],1,left,['0'],6,0.20146249999925203,,,13,19,Vrouw,Rechts,1,
,dotcolour,dotcolour,dotcolour,59,1,119,419,training,positivefb,84,hard,37,0.7162146000000575,['n'],1,right,['9'],5,0.23684099999991304,,,13,19,Vrouw,Rechts,1,
,xotask,dotcolour,dotcolour,0,2,120,420,main,positivefb,-99,hard,,2.618292300000576,['c'],1,left,['3'],3,0.9449957000006179,53,,13,19,Vrouw,Rechts,1,
,xotask,dotcolour,dotcolour,1,2,121,421,main,positivefb,-99,easy,,0.8167046999997183,['c'],1,left,['9'],5,0.5470778999997492,74,,13,19,Vrouw,Rechts,1,
,xotask,dotcolour,dotcolour,2,2,122,422,main,positivefb,-99,hard,,1.1175839999996242,['c'],1,left,['9'],5,0.457837599999948,50,,13,19,Vrouw,Rechts,1,
,xotask,dotcolour,dotcolour,3,2,123,423,main,positivefb,-99,average,,1.0680385999994542,['n'],0,left,['8'],4,0.3100925999997344,60,,13,19,Vrouw,Rechts,1,
,xotask,dotcolour,dotcolour,4,2,124,424,main,positivefb,-99,easy,,0.766907799999899,['c'],1,left,['9'],5,0.2922913000002154,71,,13,19,Vrouw,Rechts,1,
,xotask,dotcolour,dotcolour,5,2,125,425,main,positivefb,-99,hard,,1.6171763000002102,['n'],1,right,['3'],3,0.32053369999994175,28,,13,19,Vrouw,Rechts,1,
,xotask,dotcolour,dotcolour,6,2,126,426,main,positivefb,-99,easy,,0.7840715000002092,['n'],1,right,['8'],4,0.3332992000005106,9,,13,19,Vrouw,Rechts,1,
,xotask,dotcolour,dotcolour,7,2,127,427,main,positivefb,-99,average,,0.7505767000002379,['c'],0,right,['8'],4,0.29067009999926086,15,,13,19,Vrouw,Rechts,1,
,xotask,dotcolour,dotcolour,8,2,128,428,main,positivefb,-99,easy,,0.8337585999997827,['c'],1,left,['8'],4,0.24666660000002594,71,,13,19,Vrouw,Rechts,1,
,xotask,dotcolour,dotcolour,9,2,129,429,main,positivefb,-99,average,,0.8679744999999457,['c'],1,left,['8'],4,0.2751933999998073,63,,13,19,Vrouw,Rechts,1,
,xotask,dotcolour,dotcolour,10,2,130,430,main,positivefb,-99,easy,,0.9516909000003579,['c'],1,left,['8'],4,0.22730870000032155,74,,13,19,Vrouw,Rechts,1,
,xotask,dotcolour,dotcolour,11,2,131,431,main,positivefb,-99,average,,0.8332390000005034,['n'],1,right,['3'],3,0.5062792000007903,17,,13,19,Vrouw,Rechts,1,
,xotask,dotcolour,dotcolour,12,2,132,432,main,positivefb,-99,average,,1.0174515999997311,['c'],1,left,['8'],4,0.2865882000005513,63,,13,19,Vrouw,Rechts,1,
,xotask,dotcolour,dotcolour,13,2,133,433,main,positivefb,-99,average,,0.7339734999995926,['n'],1,right,['9'],5,0.39800190000005387,17,,13,19,Vrouw,Rechts,1,
,xotask,dotcolour,dotcolour,14,2,134,434,main,positivefb,-99,easy,,0.8010028999997303,['n'],1,right,['9'],5,0.5267964999993637,5,,13,19,Vrouw,Rechts,1,
,xotask,dotcolour,dotcolour,15,2,135,435,main,positivefb,-99,hard,,1.8669056999997338,['n'],0,left,['8'],4,0.32877339999959077,51,,13,19,Vrouw,Rechts,1,
,xotask,dotcolour,dotcolour,16,2,136,436,main,positivefb,-99,average,,0.8343990000003032,['n'],1,right,['8'],4,0.27521409999917523,16,,13,19,Vrouw,Rechts,1,
,xotask,dotcolour,dotcolour,17,2,137,437,main,positivefb,-99,hard,,0.7177342000004501,['c'],0,right,['8'],4,0.2837072000002081,29,,13,19,Vrouw,Rechts,1,
,xotask,dotcolour,dotcolour,18,2,138,438,main,positivefb,-99,hard,,0.6175093000001652,['c'],1,left,['8'],4,0.2733902999998463,52,,13,19,Vrouw,Rechts,1,
,xotask,dotcolour,dotcolour,19,2,139,439,main,positivefb,-99,average,,0.6846863000000667,['c'],1,left,['8'],4,0.3074438999992708,61,,13,19,Vrouw,Rechts,1,
,xotask,dotcolour,dotcolour,20,2,140,440,main,positivefb,-99,easy,,0.7840833000000202,['c'],1,left,['8'],4,0.3292738999998619,74,,13,19,Vrouw,Rechts,1,
,xotask,dotcolour,dotcolour,21,2,141,441,main,positivefb,-99,easy,,0.6010956000000078,['n'],1,right,['9'],5,0.237486799999715,5,,13,19,Vrouw,Rechts,1,
,xotask,dotcolour,dotcolour,22,2,142,442,main,positivefb,-99,hard,,0.8662597000002279,['n'],1,right,['9'],5,0.3298571000004813,29,,13,19,Vrouw,Rechts,1,
,xotask,dotcolour,dotcolour,23,2,143,443,main,positivefb,-99,average,,0.6345199999996112,['c'],1,left,['9'],5,0.2765876000003118,61,,13,19,Vrouw,Rechts,1,
,xotask,dotcolour,dotcolour,24,2,144,444,main,positivefb,-99,hard,,0.8506305000000793,['n'],1,right,['8'],4,0.3370282000005318,28,,13,19,Vrouw,Rechts,1,
,xotask,dotcolour,dotcolour,25,2,145,445,main,positivefb,-99,hard,,0.7006257999992158,['c'],1,left,['8'],4,0.376220000000103,52,,13,19,Vrouw,Rechts,1,
,xotask,dotcolour,dotcolour,26,2,146,446,main,positivefb,-99,hard,,0.7012925999997606,['c'],1,left,['8'],4,0.26123509999979433,51,,13,19,Vrouw,Rechts,1,
,xotask,dotcolour,dotcolour,27,2,147,447,main,positivefb,-99,average,,0.6508215999992899,['c'],1,left,['8'],4,0.2105123999999705,63,,13,19,Vrouw,Rechts,1,
,xotask,dotcolour,dotcolour,28,2,148,448,main,positivefb,-99,hard,,3.1841309999999794,['c'],0,right,['8'],4,0.3713746000003084,28,,13,19,Vrouw,Rechts,1,
,xotask,dotcolour,dotcolour,29,2,149,449,main,positivefb,-99,easy,,0.7830893999998807,['n'],1,right,['9'],5,0.3344114999999874,9,,13,19,Vrouw,Rechts,1,
,xotask,dotcolour,dotcolour,30,2,150,450,main,positivefb,-99,easy,,0.833588299999974,['c'],1,left,['9'],5,0.24128790000031586,72,,13,19,Vrouw,Rechts,1,
,xotask,dotcolour,dotcolour,31,2,151,451,main,positivefb,-99,easy,,1.4506488999995781,['c'],1,left,['8'],4,0.4694583000000421,71,,13,19,Vrouw,Rechts,1,
,xotask,dotcolour,dotcolour,32,2,152,452,main,positivefb,-99,easy,,0.8835553999997501,['n'],1,right,['9'],5,1.2881829999996626,8,,13,19,Vrouw,Rechts,1,
,xotask,dotcolour,dotcolour,33,2,153,453,main,positivefb,-99,hard,,0.7838662000003751,['n'],1,right,['9'],5,0.4468563999998878,29,,13,19,Vrouw,Rechts,1,
,xotask,dotcolour,dotcolour,34,2,154,454,main,positivefb,-99,easy,,0.7174959000003582,['n'],1,right,['9'],5,0.2974463000000469,6,,13,19,Vrouw,Rechts,1,
,xotask,dotcolour,dotcolour,35,2,155,455,main,positivefb,-99,average,,0.8177816999996139,['n'],1,right,['9'],5,0.6859910000002856,16,,13,19,Vrouw,Rechts,1,
,xotask,dotcolour,dotcolour,36,2,156,456,main,positivefb,-99,average,,1.5009423999999854,['n'],1,right,['8'],4,0.41536400000040885,18,,13,19,Vrouw,Rechts,1,
,xotask,dotcolour,dotcolour,37,2,157,457,main,positivefb,-99,hard,,0.8014900000007401,['c'],1,left,['9'],5,0.30318269999952463,53,,13,19,Vrouw,Rechts,1,
,xotask,dotcolour,dotcolour,38,2,158,458,main,positivefb,-99,hard,,1.1681580000004033,['c'],0,right,['8'],4,0.5178051000002597,28,,13,19,Vrouw,Rechts,1,
,xotask,dotcolour,dotcolour,39,2,159,459,main,positivefb,-99,average,,0.7675034000003507,['n'],1,right,['8'],4,0.4591249000004609,16,,13,19,Vrouw,Rechts,1,
,xotask,dotcolour,dotcolour,40,2,160,460,main,positivefb,-99,average,,1.6505914999997913,['n'],1,right,['8'],4,0.3197128000001612,17,,13,19,Vrouw,Rechts,1,
,xotask,dotcolour,dotcolour,41,2,161,461,main,positivefb,-99,hard,,0.9998657999994975,['c'],1,left,['8'],4,0.2913298000003124,52,,13,19,Vrouw,Rechts,1,
,xotask,dotcolour,dotcolour,42,2,162,462,main,positivefb,-99,easy,,0.800477800000408,['c'],1,left,['9'],5,0.33677090000037424,73,,13,19,Vrouw,Rechts,1,
,xotask,dotcolour,dotcolour,43,2,163,463,main,positivefb,-99,hard,,0.7341891999994914,['n'],1,right,['8'],4,0.4306602999995448,25,,13,19,Vrouw,Rechts,1,
,xotask,dotcolour,dotcolour,44,2,164,464,main,positivefb,-99,average,,0.9338513000002422,['n'],1,right,['8'],4,0.3853798000000097,15,,13,19,Vrouw,Rechts,1,
,xotask,dotcolour,dotcolour,45,2,165,465,main,positivefb,-99,easy,,0.7509850999995251,['c'],1,left,['8'],4,0.3091595000005327,74,,13,19,Vrouw,Rechts,1,
,xotask,dotcolour,dotcolour,46,2,166,466,main,positivefb,-99,average,,0.8171286000006148,['c'],1,left,['8'],4,0.3528667000000496,62,,13,19,Vrouw,Rechts,1,
,xotask,dotcolour,dotcolour,47,2,167,467,main,positivefb,-99,easy,,1.9338761999997587,['c'],0,right,['8'],4,1.054072000000815,7,,13,19,Vrouw,Rechts,1,
,xotask,dotcolour,dotcolour,48,2,168,468,main,positivefb,-99,easy,,2.268479700000171,['n'],1,right,['8'],4,1.2100342000003366,9,,13,19,Vrouw,Rechts,1,
,xotask,dotcolour,dotcolour,49,2,169,469,main,positivefb,-99,hard,,3.950392899999315,['n'],1,right,['8'],4,1.7163712999999916,26,,13,19,Vrouw,Rechts,1,
,xotask,dotcolour,dotcolour,50,2,170,470,main,positivefb,-99,average,,0.9012145000006058,['n'],1,right,['9'],5,1.0610210999993797,16,,13,19,Vrouw,Rechts,1,
,xotask,dotcolour,dotcolour,51,2,171,471,main,positivefb,-99,easy,,1.617372699999578,['c'],1,left,['8'],4,0.4826534999992873,72,,13,19,Vrouw,Rechts,1,
,xotask,dotcolour,dotcolour,52,2,172,472,main,positivefb,-99,average,,2.318185600000106,['c'],1,left,['8'],4,0.26729770000019926,63,,13,19,Vrouw,Rechts,1,
,xotask,dotcolour,dotcolour,53,2,173,473,main,positivefb,-99,easy,,0.6840634000000136,['n'],1,right,['9'],5,1.4216604000002917,9,,13,19,Vrouw,Rechts,1,
,xotask,dotcolour,dotcolour,54,2,174,474,main,positivefb,-99,hard,,1.883681900000738,['c'],1,left,['8'],4,0.2670763000005536,50,,13,19,Vrouw,Rechts,1,
,xotask,dotcolour,dotcolour,55,2,175,475,main,positivefb,-99,easy,,0.9341563999996652,['n'],1,right,['0'],6,0.2838749000002281,7,,13,19,Vrouw,Rechts,1,
,xotask,dotcolour,dotcolour,56,2,176,476,main,positivefb,-99,average,,1.4669254000000365,['c'],1,left,['8'],4,0.22209939999993367,63,,13,19,Vrouw,Rechts,1,
,xotask,dotcolour,dotcolour,57,2,177,477,main,positivefb,-99,hard,,0.8516503000000739,['c'],1,left,['8'],4,0.436209599999529,53,,13,19,Vrouw,Rechts,1,
,xotask,dotcolour,dotcolour,58,2,178,478,main,positivefb,-99,hard,,0.8176857999997083,['n'],1,right,['9'],5,0.31492509999952745,26,,13,19,Vrouw,Rechts,1,
,xotask,dotcolour,dotcolour,59,2,179,479,main,positivefb,-99,average,,0.8179451999994853,['c'],1,left,['8'],4,0.2621389000005365,64,,13,19,Vrouw,Rechts,1,
,xotask,dotcolour,dotcolour,0,3,180,480,main,positivefb,-99,easy,,0.9508200000000215,['c'],1,left,['9'],5,0.4065050000008341,74,,13,19,Vrouw,Rechts,1,
,xotask,dotcolour,dotcolour,1,3,181,481,main,positivefb,-99,easy,,0.9006940999997823,['n'],1,right,['9'],5,0.26724079999985406,5,,13,19,Vrouw,Rechts,1,
,xotask,dotcolour,dotcolour,2,3,182,482,main,positivefb,-99,average,,0.8345663000000059,['n'],1,right,['8'],4,0.28001840000069933,15,,13,19,Vrouw,Rechts,1,
,xotask,dotcolour,dotcolour,3,3,183,483,main,positivefb,-99,average,,0.7016335999996954,['c'],1,left,['8'],4,0.28198710000015126,61,,13,19,Vrouw,Rechts,1,
,xotask,dotcolour,dotcolour,4,3,184,484,main,positivefb,-99,easy,,0.9341349000005721,['n'],1,right,['9'],5,0.2897088999998232,6,,13,19,Vrouw,Rechts,1,
,xotask,dotcolour,dotcolour,5,3,185,485,main,positivefb,-99,hard,,0.8185528000003615,['c'],1,left,['8'],4,0.24643160000050557,52,,13,19,Vrouw,Rechts,1,
,xotask,dotcolour,dotcolour,6,3,186,486,main,positivefb,-99,easy,,0.7344559000002846,['n'],1,right,['9'],5,0.28067860000010114,7,,13,19,Vrouw,Rechts,1,
,xotask,dotcolour,dotcolour,7,3,187,487,main,positivefb,-99,easy,,0.9177090000002863,['n'],1,right,['8'],4,0.36103989999992336,7,,13,19,Vrouw,Rechts,1,
,xotask,dotcolour,dotcolour,8,3,188,488,main,positivefb,-99,easy,,0.7005348000002414,['c'],1,left,['8'],4,0.2962447999998403,72,,13,19,Vrouw,Rechts,1,
,xotask,dotcolour,dotcolour,9,3,189,489,main,positivefb,-99,hard,,1.7172232000002623,['n'],0,left,['8'],4,0.3048041000001831,54,,13,19,Vrouw,Rechts,1,
,xotask,dotcolour,dotcolour,10,3,190,490,main,positivefb,-99,average,,0.7503860999995595,['n'],1,right,['8'],4,0.27865290000045206,18,,13,19,Vrouw,Rechts,1,
,xotask,dotcolour,dotcolour,11,3,191,491,main,positivefb,-99,easy,,0.7677653999999166,['n'],1,right,['9'],5,0.222154899999623,5,,13,19,Vrouw,Rechts,1,
,xotask,dotcolour,dotcolour,12,3,192,492,main,positivefb,-99,easy,,0.7004603999994288,['c'],1,left,['0'],6,0.2744947000001048,73,,13,19,Vrouw,Rechts,1,
,xotask,dotcolour,dotcolour,13,3,193,493,main,positivefb,-99,easy,,0.6507829000001948,['n'],1,right,['0'],6,0.28672629999982746,7,,13,19,Vrouw,Rechts,1,
,xotask,dotcolour,dotcolour,14,3,194,494,main,positivefb,-99,hard,,0.8337553000001208,['c'],1,left,['8'],4,0.23465020000003278,54,,13,19,Vrouw,Rechts,1,
,xotask,dotcolour,dotcolour,15,3,195,495,main,positivefb,-99,average,,0.7508141999996951,['c'],1,left,['8'],4,0.2524690999998711,60,,13,19,Vrouw,Rechts,1,
,xotask,dotcolour,dotcolour,16,3,196,496,main,positivefb,-99,hard,,1.1679083999997601,['n'],1,right,['8'],4,0.21951899999930902,29,,13,19,Vrouw,Rechts,1,
,xotask,dotcolour,dotcolour,17,3,197,497,main,positivefb,-99,hard,,0.6347622000002957,['n'],0,left,['8'],4,0.24231399999916903,50,,13,19,Vrouw,Rechts,1,
,xotask,dotcolour,dotcolour,18,3,198,498,main,positivefb,-99,hard,,1.0670281000002433,['c'],1,left,['8'],4,0.15152219999981753,52,,13,19,Vrouw,Rechts,1,
,xotask,dotcolour,dotcolour,19,3,199,499,main,positivefb,-99,easy,,0.6012577000001329,['c'],1,left,['9'],5,0.44965140000022075,74,,13,19,Vrouw,Rechts,1,
,xotask,dotcolour,dotcolour,20,3,200,500,main,positivefb,-99,average,,0.701000799999747,['n'],1,right,['8'],4,0.2688711999999214,16,,13,19,Vrouw,Rechts,1,
,xotask,dotcolour,dotcolour,21,3,201,501,main,positivefb,-99,easy,,0.7842124000007971,['n'],1,right,['8'],4,0.40380629999981466,7,,13,19,Vrouw,Rechts,1,
,xotask,dotcolour,dotcolour,22,3,202,502,main,positivefb,-99,hard,,1.28298470000027,['c'],1,left,['8'],4,0.2489503999995577,53,,13,19,Vrouw,Rechts,1,
,xotask,dotcolour,dotcolour,23,3,203,503,main,positivefb,-99,hard,,0.7676114000005327,['c'],1,left,['8'],4,0.2810785000001488,53,,13,19,Vrouw,Rechts,1,
,xotask,dotcolour,dotcolour,24,3,204,504,main,positivefb,-99,easy,,0.6173884999998336,['c'],1,left,['9'],5,0.28545780000058585,73,,13,19,Vrouw,Rechts,1,
,xotask,dotcolour,dotcolour,25,3,205,505,main,positivefb,-99,average,,0.7339416000004348,['n'],1,right,['0'],6,0.29324540000015986,19,,13,19,Vrouw,Rechts,1,
,xotask,dotcolour,dotcolour,26,3,206,506,main,positivefb,-99,average,,0.8669600000002902,['c'],1,left,['9'],5,0.3524969999998575,60,,13,19,Vrouw,Rechts,1,
,xotask,dotcolour,dotcolour,27,3,207,507,main,positivefb,-99,easy,,0.7846042999999554,['c'],1,left,['9'],5,0.27573170000050595,71,,13,19,Vrouw,Rechts,1,
,xotask,dotcolour,dotcolour,28,3,208,508,main,positivefb,-99,easy,,0.800653099999181,['n'],1,right,['9'],5,0.3215279999994891,5,,13,19,Vrouw,Rechts,1,
,xotask,dotcolour,dotcolour,29,3,209,509,main,positivefb,-99,easy,,0.7344011999994109,['c'],1,left,['9'],5,0.335599000000002,73,,13,19,Vrouw,Rechts,1,
,xotask,dotcolour,dotcolour,30,3,210,510,main,positivefb,-99,hard,,1.467566899999838,['n'],1,right,['8'],4,0.32919760000004317,25,,13,19,Vrouw,Rechts,1,
,xotask,dotcolour,dotcolour,31,3,211,511,main,positivefb,-99,hard,,1.5515118000002985,['c'],1,left,['8'],4,4.143149799999264,51,,13,19,Vrouw,Rechts,1,
,xotask,dotcolour,dotcolour,32,3,212,512,main,positivefb,-99,hard,,2.0503302999995867,['c'],0,right,['8'],4,0.28033440000035625,28,,13,19,Vrouw,Rechts,1,
,xotask,dotcolour,dotcolour,33,3,213,513,main,positivefb,-99,average,,1.418780500000139,['c'],1,left,['8'],4,0.3016288999997414,61,,13,19,Vrouw,Rechts,1,
,xotask,dotcolour,dotcolour,34,3,214,514,main,positivefb,-99,average,,0.9012112000000343,['c'],1,left,['8'],4,0.4703543000005084,62,,13,19,Vrouw,Rechts,1,
,xotask,dotcolour,dotcolour,35,3,215,515,main,positivefb,-99,average,,1.9175186000002213,['c'],1,left,['8'],4,0.21576069999991887,61,,13,19,Vrouw,Rechts,1,
,xotask,dotcolour,dotcolour,36,3,216,516,main,positivefb,-99,average,,0.7017976999995881,['n'],1,right,['8'],4,0.4120523999999932,16,,13,19,Vrouw,Rechts,1,
,xotask,dotcolour,dotcolour,37,3,217,517,main,positivefb,-99,average,,0.8672601999996914,['n'],1,right,['9'],5,0.3221244000005754,16,,13,19,Vrouw,Rechts,1,
,xotask,dotcolour,dotcolour,38,3,218,518,main,positivefb,-99,easy,,0.8011080000005677,['n'],1,right,['8'],4,0.29425329999958194,9,,13,19,Vrouw,Rechts,1,
,xotask,dotcolour,dotcolour,39,3,219,519,main,positivefb,-99,average,,0.867699000000357,['c'],1,left,['8'],4,0.35995960000036575,61,,13,19,Vrouw,Rechts,1,
,xotask,dotcolour,dotcolour,40,3,220,520,main,positivefb,-99,hard,,0.7674462999993921,['c'],0,right,['8'],4,0.4523501999992732,25,,13,19,Vrouw,Rechts,1,
,xotask,dotcolour,dotcolour,41,3,221,521,main,positivefb,-99,easy,,0.6679454000004625,['c'],1,left,['8'],4,0.33681289999913133,73,,13,19,Vrouw,Rechts,1,
,xotask,dotcolour,dotcolour,42,3,222,522,main,positivefb,-99,hard,,0.6840328999996927,['n'],1,right,['8'],4,0.3203711000005569,27,,13,19,Vrouw,Rechts,1,
,xotask,dotcolour,dotcolour,43,3,223,523,main,positivefb,-99,hard,,0.951144600000589,['n'],1,right,['8'],4,0.4948658000002979,26,,13,19,Vrouw,Rechts,1,
,xotask,dotcolour,dotcolour,44,3,224,524,main,positivefb,-99,hard,,1.4344743000001472,['n'],0,left,['8'],4,0.23442849999992177,50,,13,19,Vrouw,Rechts,1,
,xotask,dotcolour,dotcolour,45,3,225,525,main,positivefb,-99,average,,0.6013107999997374,['c'],1,left,['8'],4,0.26615880000008474,63,,13,19,Vrouw,Rechts,1,
,xotask,dotcolour,dotcolour,46,3,226,526,main,positivefb,-99,average,,0.650996500000474,['n'],1,right,['9'],5,0.3021355999999287,17,,13,19,Vrouw,Rechts,1,
,xotask,dotcolour,dotcolour,47,3,227,527,main,positivefb,-99,hard,,1.0012435999997251,['c'],0,right,['9'],5,0.3305378000004566,28,,13,19,Vrouw,Rechts,1,
,xotask,dotcolour,dotcolour,48,3,228,528,main,positivefb,-99,easy,,0.7667995999991035,['c'],1,left,['9'],5,0.3914009999998598,73,,13,19,Vrouw,Rechts,1,
,xotask,dotcolour,dotcolour,49,3,229,529,main,positivefb,-99,hard,,0.7510136999999304,['n'],1,right,['8'],4,0.29167099999995116,26,,13,19,Vrouw,Rechts,1,
,xotask,dotcolour,dotcolour,50,3,230,530,main,positivefb,-99,hard,,1.067332499999793,['n'],1,right,['8'],4,0.22220610000022134,26,,13,19,Vrouw,Rechts,1,
,xotask,dotcolour,dotcolour,51,3,231,531,main,positivefb,-99,average,,0.9845765000000029,['n'],1,right,['8'],4,0.2784732999998596,15,,13,19,Vrouw,Rechts,1,
,xotask,dotcolour,dotcolour,52,3,232,532,main,positivefb,-99,average,,0.7675662000001466,['n'],1,right,['8'],4,0.2859794000005422,19,,13,19,Vrouw,Rechts,1,
,xotask,dotcolour,dotcolour,53,3,233,533,main,positivefb,-99,average,,0.6833996000004845,['c'],1,left,['8'],4,0.21659730000010313,63,,13,19,Vrouw,Rechts,1,
,xotask,dotcolour,dotcolour,54,3,234,534,main,positivefb,-99,hard,,0.683794499999749,['c'],1,left,['8'],4,0.26075089999994816,52,,13,19,Vrouw,Rechts,1,
,xotask,dotcolour,dotcolour,55,3,235,535,main,positivefb,-99,hard,,0.6684496999996554,['c'],0,right,['8'],4,0.5764622999995481,28,,13,19,Vrouw,Rechts,1,
,xotask,dotcolour,dotcolour,56,3,236,536,main,positivefb,-99,average,,0.6830251999999746,['n'],1,right,['8'],4,0.2549952999997913,15,,13,19,Vrouw,Rechts,1,
,xotask,dotcolour,dotcolour,57,3,237,537,main,positivefb,-99,average,,0.6675946000004842,['c'],1,left,['8'],4,0.25913020000007236,61,,13,19,Vrouw,Rechts,1,
,xotask,dotcolour,dotcolour,58,3,238,538,main,positivefb,-99,easy,,0.8007855999994717,['n'],1,right,['8'],4,0.2815941999997449,6,,13,19,Vrouw,Rechts,1,
,xotask,dotcolour,dotcolour,59,3,239,539,main,positivefb,-99,easy,,0.75073650000013,['c'],1,left,['8'],4,0.3780512000003,74,,13,19,Vrouw,Rechts,1,
,xotask,dotcolour,dotcolour,0,4,240,540,main,positivefb,-99,hard,,0.9184899000001678,['c'],0,right,['8'],4,0.2075857999998334,25,,13,19,Vrouw,Rechts,1,
,xotask,dotcolour,dotcolour,1,4,241,541,main,positivefb,-99,easy,,0.6015729999999166,['c'],0,right,['8'],4,1.4888632000001962,9,,13,19,Vrouw,Rechts,1,
,xotask,dotcolour,dotcolour,2,4,242,542,main,positivefb,-99,average,,1.017786200000046,['n'],1,right,['8'],4,0.25350089999938064,19,,13,19,Vrouw,Rechts,1,
,xotask,dotcolour,dotcolour,3,4,243,543,main,positivefb,-99,average,,0.7671362999999474,['c'],1,left,['8'],4,0.18948880000061763,61,,13,19,Vrouw,Rechts,1,
,xotask,dotcolour,dotcolour,4,4,244,544,main,positivefb,-99,average,,1.2512821000000258,['c'],1,left,['8'],4,0.2688335000002553,60,,13,19,Vrouw,Rechts,1,
,xotask,dotcolour,dotcolour,5,4,245,545,main,positivefb,-99,average,,0.6341294000003472,['n'],1,right,['9'],5,0.5695484999996552,18,,13,19,Vrouw,Rechts,1,
,xotask,dotcolour,dotcolour,6,4,246,546,main,positivefb,-99,hard,,0.8513385000005655,['c'],1,left,['9'],5,0.23346130000027188,51,,13,19,Vrouw,Rechts,1,
,xotask,dotcolour,dotcolour,7,4,247,547,main,positivefb,-99,average,,0.7180108000002292,['n'],1,right,['9'],5,0.25203200000032666,18,,13,19,Vrouw,Rechts,1,
,xotask,dotcolour,dotcolour,8,4,248,548,main,positivefb,-99,hard,,0.8845157999994626,['c'],0,right,['8'],4,0.24692809999942256,25,,13,19,Vrouw,Rechts,1,
,xotask,dotcolour,dotcolour,9,4,249,549,main,positivefb,-99,hard,,0.7012527999995655,['c'],0,right,['8'],4,0.1953230999997686,28,,13,19,Vrouw,Rechts,1,
,xotask,dotcolour,dotcolour,10,4,250,550,main,positivefb,-99,average,,0.5833672999997361,['n'],1,right,['8'],4,0.29315999999926134,16,,13,19,Vrouw,Rechts,1,
,xotask,dotcolour,dotcolour,11,4,251,551,main,positivefb,-99,hard,,1.101258400000006,['c'],1,left,['8'],4,0.2540888999992603,52,,13,19,Vrouw,Rechts,1,
,xotask,dotcolour,dotcolour,12,4,252,552,main,positivefb,-99,hard,,1.118329700000686,['c'],0,right,['8'],4,0.3365185000002384,25,,13,19,Vrouw,Rechts,1,
,xotask,dotcolour,dotcolour,13,4,253,553,main,positivefb,-99,hard,,2.3002056000004814,['n'],0,left,['8'],4,3.6240174000004117,54,,13,19,Vrouw,Rechts,1,
,xotask,dotcolour,dotcolour,14,4,254,554,main,positivefb,-99,easy,,1.2345334999999977,['c'],1,left,['8'],4,0.3502745000005234,73,,13,19,Vrouw,Rechts,1,
,xotask,dotcolour,dotcolour,15,4,255,555,main,positivefb,-99,easy,,0.6842404000008173,['c'],1,left,['9'],5,0.25385329999971873,74,,13,19,Vrouw,Rechts,1,
,xotask,dotcolour,dotcolour,16,4,256,556,main,positivefb,-99,easy,,0.8348498999994263,['n'],1,right,['8'],4,0.29117779999978666,6,,13,19,Vrouw,Rechts,1,
,xotask,dotcolour,dotcolour,17,4,257,557,main,positivefb,-99,average,,0.8013721000006626,['c'],1,left,['8'],4,0.24803120000069612,64,,13,19,Vrouw,Rechts,1,
,xotask,dotcolour,dotcolour,18,4,258,558,main,positivefb,-99,easy,,0.618157699999756,['c'],1,left,['9'],5,0.35855809999975463,74,,13,19,Vrouw,Rechts,1,
,xotask,dotcolour,dotcolour,19,4,259,559,main,positivefb,-99,easy,,0.8348352000002706,['c'],1,left,['9'],5,0.5039627999994991,70,,13,19,Vrouw,Rechts,1,
,xotask,dotcolour,dotcolour,20,4,260,560,main,positivefb,-99,average,,1.2002399999992122,['n'],1,right,['8'],4,0.219913799999631,15,,13,19,Vrouw,Rechts,1,
,xotask,dotcolour,dotcolour,21,4,261,561,main,positivefb,-99,easy,,0.8340430000007473,['c'],1,left,['9'],5,0.2433021999995617,71,,13,19,Vrouw,Rechts,1,
,xotask,dotcolour,dotcolour,22,4,262,562,main,positivefb,-99,average,,1.8835134000000835,['n'],1,right,['8'],4,0.3911446000001888,16,,13,19,Vrouw,Rechts,1,
,xotask,dotcolour,dotcolour,23,4,263,563,main,positivefb,-99,average,,1.2173319000003175,['n'],1,right,['8'],4,0.32783589999962715,18,,13,19,Vrouw,Rechts,1,
,xotask,dotcolour,dotcolour,24,4,264,564,main,positivefb,-99,average,,1.0682047999998758,['c'],1,left,['8'],4,0.2011902000003829,60,,13,19,Vrouw,Rechts,1,
,xotask,dotcolour,dotcolour,25,4,265,565,main,positivefb,-99,average,,0.6840449999999691,['c'],1,left,['9'],5,0.1904871999995521,63,,13,19,Vrouw,Rechts,1,
,xotask,dotcolour,dotcolour,26,4,266,566,main,positivefb,-99,easy,,0.6177269999998316,['c'],1,left,['8'],4,0.2071568000001207,71,,13,19,Vrouw,Rechts,1,
,xotask,dotcolour,dotcolour,27,4,267,567,main,positivefb,-99,average,,0.6516027999996368,['n'],1,right,['9'],5,0.30962970000018686,18,,13,19,Vrouw,Rechts,1,
,xotask,dotcolour,dotcolour,28,4,268,568,main,positivefb,-99,average,,0.9340078000004723,['c'],1,left,['8'],4,0.21310129999983474,63,,13,19,Vrouw,Rechts,1,
,xotask,dotcolour,dotcolour,29,4,269,569,main,positivefb,-99,hard,,0.9678670000002967,['c'],1,left,['8'],4,0.2628370000002178,52,,13,19,Vrouw,Rechts,1,
,xotask,dotcolour,dotcolour,30,4,270,570,main,positivefb,-99,hard,,1.051377599999796,['c'],1,left,['8'],4,1.307558099999369,54,,13,19,Vrouw,Rechts,1,
,xotask,dotcolour,dotcolour,31,4,271,571,main,positivefb,-99,easy,,0.7845930000003136,['n'],1,right,['9'],5,0.5773303999994823,8,,13,19,Vrouw,Rechts,1,
,xotask,dotcolour,dotcolour,32,4,272,572,main,positivefb,-99,hard,,0.951071000000411,['c'],1,left,['8'],4,0.2851083999994444,52,,13,19,Vrouw,Rechts,1,
,xotask,dotcolour,dotcolour,33,4,273,573,main,positivefb,-99,easy,,0.8344085999997333,['n'],1,right,['9'],5,0.3209851000001436,8,,13,19,Vrouw,Rechts,1,
,xotask,dotcolour,dotcolour,34,4,274,574,main,positivefb,-99,easy,,1.116826299999957,['c'],1,left,['8'],4,0.24029109999992215,70,,13,19,Vrouw,Rechts,1,
,xotask,dotcolour,dotcolour,35,4,275,575,main,positivefb,-99,hard,,1.0168958999993265,['c'],0,right,['8'],4,0.24700250000023516,27,,13,19,Vrouw,Rechts,1,
,xotask,dotcolour,dotcolour,36,4,276,576,main,positivefb,-99,hard,,0.6015985000003639,['c'],1,left,['8'],4,0.27114739999979065,51,,13,19,Vrouw,Rechts,1,
,xotask,dotcolour,dotcolour,37,4,277,577,main,positivefb,-99,hard,,0.800244200000634,['n'],1,right,['9'],5,0.2603441000001112,25,,13,19,Vrouw,Rechts,1,
,xotask,dotcolour,dotcolour,38,4,278,578,main,positivefb,-99,easy,,0.5180327999996734,['n'],1,right,['9'],5,0.3349812999995265,9,,13,19,Vrouw,Rechts,1,
,xotask,dotcolour,dotcolour,39,4,279,579,main,positivefb,-99,average,,0.4679474999993545,['n'],1,right,['9'],5,0.23182319999978063,15,,13,19,Vrouw,Rechts,1,
,xotask,dotcolour,dotcolour,40,4,280,580,main,positivefb,-99,average,,0.4677644000003056,['n'],0,left,['9'],5,0.22773899999992864,64,,13,19,Vrouw,Rechts,1,
,xotask,dotcolour,dotcolour,41,4,281,581,main,positivefb,-99,easy,,0.7681740000007267,['n'],1,right,['9'],5,0.2693042000000787,6,,13,19,Vrouw,Rechts,1,
,xotask,dotcolour,dotcolour,42,4,282,582,main,positivefb,-99,hard,,0.718209100000422,['c'],1,left,['8'],4,0.31023519999962446,54,,13,19,Vrouw,Rechts,1,
,xotask,dotcolour,dotcolour,43,4,283,583,main,positivefb,-99,easy,,0.7185820999993666,['n'],1,right,['9'],5,0.3269873999997799,6,,13,19,Vrouw,Rechts,1,
,xotask,dotcolour,dotcolour,44,4,284,584,main,positivefb,-99,easy,,0.634770299999218,['n'],1,right,['8'],4,0.4092270000001008,8,,13,19,Vrouw,Rechts,1,
,xotask,dotcolour,dotcolour,45,4,285,585,main,positivefb,-99,easy,,0.7023846999991292,['c'],1,left,['8'],4,0.23025140000027022,74,,13,19,Vrouw,Rechts,1,
,xotask,dotcolour,dotcolour,46,4,286,586,main,positivefb,-99,average,,0.6511943000004976,['c'],1,left,['8'],4,0.26741860000038287,61,,13,19,Vrouw,Rechts,1,
,xotask,dotcolour,dotcolour,47,4,287,587,main,positivefb,-99,easy,,0.6181464999999662,['n'],1,right,['9'],5,0.2819026999995913,5,,13,19,Vrouw,Rechts,1,
,xotask,dotcolour,dotcolour,48,4,288,588,main,positivefb,-99,average,,0.7176500000005035,['c'],1,left,['8'],4,0.20263809999960358,60,,13,19,Vrouw,Rechts,1,
,xotask,dotcolour,dotcolour,49,4,289,589,main,positivefb,-99,easy,,0.5335934999993697,['c'],1,left,['9'],5,0.5895682999998826,73,,13,19,Vrouw,Rechts,1,
,xotask,dotcolour,dotcolour,50,4,290,590,main,positivefb,-99,hard,,0.7676415000005363,['c'],1,left,['8'],4,0.19155920000048354,53,,13,19,Vrouw,Rechts,1,
,xotask,dotcolour,dotcolour,51,4,291,591,main,positivefb,-99,hard,,1.0001281000004383,['n'],1,right,['8'],4,0.2334245000001829,25,,13,19,Vrouw,Rechts,1,
,xotask,dotcolour,dotcolour,52,4,292,592,main,positivefb,-99,average,,0.6174707999998645,['n'],1,right,['9'],5,0.247842199999468,18,,13,19,Vrouw,Rechts,1,
,xotask,dotcolour,dotcolour,53,4,293,593,main,positivefb,-99,easy,,0.5849494999993112,['c'],1,left,['9'],5,0.2553305999999793,74,,13,19,Vrouw,Rechts,1,
,xotask,dotcolour,dotcolour,54,4,294,594,main,positivefb,-99,average,,0.7172828000002482,['c'],1,left,['0'],6,0.2814895000001343,63,,13,19,Vrouw,Rechts,1,
,xotask,dotcolour,dotcolour,55,4,295,595,main,positivefb,-99,hard,,0.8341713999998319,['c'],1,left,['8'],4,0.18182119999983115,52,,13,19,Vrouw,Rechts,1,
,xotask,dotcolour,dotcolour,56,4,296,596,main,positivefb,-99,hard,,0.7009905999993862,['c'],0,right,['8'],4,0.26701020000018616,28,,13,19,Vrouw,Rechts,1,
,xotask,dotcolour,dotcolour,57,4,297,597,main,positivefb,-99,hard,,0.8672243999999409,['c'],0,right,['8'],4,0.2223229999999603,29,,13,19,Vrouw,Rechts,1,
,xotask,dotcolour,dotcolour,58,4,298,598,main,positivefb,-99,easy,,0.800973200000044,['n'],1,right,['9'],5,0.22996059999968566,9,,13,19,Vrouw,Rechts,1,
,xotask,dotcolour,dotcolour,59,4,299,599,main,positivefb,-99,hard,,0.7506721999998263,['c'],0,right,['8'],4,0.26384280000002036,27,,13,19,Vrouw,Rechts,1,
,dotcolour,dotcolour,dotcolour,0,0,0,600,training,positivefb,68,hard,35,1.0515070000001288,['n'],1,right,['9'],5,0.3527657000004183,,,13,19,Vrouw,Rechts,1,
,dotcolour,dotcolour,dotcolour,1,0,1,601,training,positivefb,74,easy,18,0.8010253000002194,['n'],1,right,['0'],6,0.29021519999969314,,,13,19,Vrouw,Rechts,1,
,dotcolour,dotcolour,dotcolour,2,0,2,602,training,positivefb,97,hard,45,0.7662091000001965,['c'],1,left,['0'],6,0.23266990000047372,,,13,19,Vrouw,Rechts,1,
,dotcolour,dotcolour,dotcolour,3,0,3,603,training,positivefb,97,average,52,0.4828428000000713,['c'],1,left,['9'],5,0.2438306999993074,,,13,19,Vrouw,Rechts,1,
,dotcolour,dotcolour,dotcolour,4,0,4,604,training,positivefb,92,average,53,0.46713069999987056,['c'],1,left,['9'],5,0.2243797999999515,,,13,19,Vrouw,Rechts,1,
,dotcolour,dotcolour,dotcolour,5,0,5,605,training,positivefb,90,hard,38,1.0172723000005135,['n'],1,right,['9'],5,0.2626110000001063,,,13,19,Vrouw,Rechts,1,
,dotcolour,dotcolour,dotcolour,6,0,6,606,training,positivefb,93,average,53,0.8675266999998712,['c'],1,left,['9'],5,0.2099539000000732,,,13,19,Vrouw,Rechts,1,
,dotcolour,dotcolour,dotcolour,7,0,7,607,training,positivefb,93,hard,44,0.649167700000362,['n'],0,left,['9'],5,0.24800500000037573,,,13,19,Vrouw,Rechts,1,
,dotcolour,dotcolour,dotcolour,8,0,8,608,training,positivefb,94,average,28,0.6164317000002484,['n'],1,right,['9'],5,0.20526360000076238,,,13,19,Vrouw,Rechts,1,
,dotcolour,dotcolour,dotcolour,9,0,9,609,training,positivefb,94,average,55,0.4998059999998077,['c'],1,left,['0'],6,0.20121319999998377,,,13,19,Vrouw,Rechts,1,
,dotcolour,dotcolour,dotcolour,10,0,10,610,training,positivefb,93,easy,17,0.46765309999955207,['n'],1,right,['9'],5,0.21445310000035533,,,13,19,Vrouw,Rechts,1,
,dotcolour,dotcolour,dotcolour,11,0,11,611,training,positivefb,95,hard,41,0.7328170999999202,['c'],1,left,['8'],4,0.4001347999992504,,,13,19,Vrouw,Rechts,1,
,dotcolour,dotcolour,dotcolour,12,0,12,612,training,positivefb,95,average,52,0.6495640000002822,['c'],1,left,['9'],5,0.16633639999963634,,,13,19,Vrouw,Rechts,1,
,dotcolour,dotcolour,dotcolour,13,0,13,613,training,positivefb,97,average,25,0.5501485999993747,['n'],1,right,['9'],5,0.21746379999967758,,,13,19,Vrouw,Rechts,1,
,dotcolour,dotcolour,dotcolour,14,0,14,614,training,positivefb,98,easy,17,0.6327651000001424,['n'],1,right,['8'],4,0.2565218999998251,,,13,19,Vrouw,Rechts,1,
,dotcolour,dotcolour,dotcolour,15,0,15,615,training,positivefb,91,average,27,0.6333213999996588,['n'],1,right,['9'],5,0.26891729999988456,,,13,19,Vrouw,Rechts,1,
,dotcolour,dotcolour,dotcolour,16,0,16,616,training,positivefb,98,average,26,0.6838155999994342,['n'],1,right,['8'],4,0.2713550000007672,,,13,19,Vrouw,Rechts,1,
,dotcolour,dotcolour,dotcolour,17,0,17,617,training,positivefb,97,easy,16,0.5337001999996573,['n'],1,right,['0'],6,0.2630516000008356,,,13,19,Vrouw,Rechts,1,
,dotcolour,dotcolour,dotcolour,18,0,18,618,training,positivefb,98,easy,62,0.5509707000001072,['c'],1,left,['0'],6,0.2707581000013306,,,13,19,Vrouw,Rechts,1,
,dotcolour,dotcolour,dotcolour,19,0,19,619,training,positivefb,89,hard,39,1.066888299999846,['n'],1,right,['8'],4,0.24955629999931261,,,13,19,Vrouw,Rechts,1,
,dotcolour,dotcolour,dotcolour,20,0,20,620,training,positivefb,99,hard,42,0.5505646000001434,['c'],1,left,['9'],5,0.2974709999998595,,,13,19,Vrouw,Rechts,1,
,dotcolour,dotcolour,dotcolour,21,0,21,621,training,positivefb,98,hard,44,0.8166416000003665,['c'],1,left,['9'],5,0.4137116000001697,,,13,19,Vrouw,Rechts,1,
,dotcolour,dotcolour,dotcolour,22,0,22,622,training,positivefb,95,easy,62,0.4838913000003231,['c'],1,left,['0'],6,0.27417140000034124,,,13,19,Vrouw,Rechts,1,
,dotcolour,dotcolour,dotcolour,23,0,23,623,training,positivefb,85,average,28,0.7323157999999239,['n'],1,right,['0'],6,0.2417674000007537,,,13,19,Vrouw,Rechts,1,
,dotcolour,dotcolour,dotcolour,24,0,24,624,training,positivefb,91,hard,41,1.2684368999998696,['c'],1,left,['9'],5,0.33459079999920505,,,13,19,Vrouw,Rechts,1,
,dotcolour,dotcolour,dotcolour,25,0,25,625,training,positivefb,97,easy,65,0.5327864999999292,['c'],1,left,['0'],6,0.21982610000122804,,,13,19,Vrouw,Rechts,1,
,dotcolour,dotcolour,dotcolour,26,0,26,626,training,positivefb,92,average,27,0.5338343999992503,['n'],1,right,['0'],6,0.22937269999965793,,,13,19,Vrouw,Rechts,1,
,dotcolour,dotcolour,dotcolour,27,0,27,627,training,positivefb,93,average,55,0.6007762999997794,['c'],1,left,['0'],6,0.20503029999963474,,,13,19,Vrouw,Rechts,1,
,dotcolour,dotcolour,dotcolour,28,0,28,628,training,positivefb,94,average,53,0.5170120999991923,['c'],1,left,['0'],6,0.232610900000509,,,13,19,Vrouw,Rechts,1,
,dotcolour,dotcolour,dotcolour,29,0,29,629,training,positivefb,98,easy,16,0.616463800000929,['n'],1,right,['0'],6,0.478446700000859,,,13,19,Vrouw,Rechts,1,
,dotcolour,dotcolour,dotcolour,30,0,30,630,training,positivefb,88,easy,15,0.5662739999988844,['n'],1,right,['0'],6,0.4690582000002905,,,13,19,Vrouw,Rechts,1,
,dotcolour,dotcolour,dotcolour,31,0,31,631,training,positivefb,48,easy,17,0.5841956000003847,['n'],1,right,['0'],6,0.29144949999863456,,,13,19,Vrouw,Rechts,1,
,dotcolour,dotcolour,dotcolour,32,0,32,632,training,positivefb,94,hard,41,0.6995751000013115,['c'],1,left,['0'],6,0.26002059999882476,,,13,19,Vrouw,Rechts,1,
,dotcolour,dotcolour,dotcolour,33,0,33,633,training,positivefb,99,easy,62,0.5166084000011324,['c'],1,left,['0'],6,0.22099160000107076,,,13,19,Vrouw,Rechts,1,
,dotcolour,dotcolour,dotcolour,34,0,34,634,training,positivefb,95,average,29,0.5832773000001907,['n'],1,right,['9'],5,0.33388969999941764,,,13,19,Vrouw,Rechts,1,
,dotcolour,dotcolour,dotcolour,35,0,35,635,training,positivefb,99,hard,35,0.8501677000003838,['n'],1,right,['8'],4,0.31806630000028235,,,13,19,Vrouw,Rechts,1,
,dotcolour,dotcolour,dotcolour,36,0,36,636,training,positivefb,95,easy,61,0.4506184999991092,['c'],1,left,['0'],6,0.32673070000055304,,,13,19,Vrouw,Rechts,1,
,dotcolour,dotcolour,dotcolour,37,0,37,637,training,positivefb,98,hard,35,0.8838697999999567,['n'],1,right,['8'],4,0.30350320000070496,,,13,19,Vrouw,Rechts,1,
