starttime,task,fbtask,firsttask,withinblocktrial,block,withintasktrial,trial,running,feedback,fbscore,difflevel,reddots,rt,resp,cor,cresp,conf_press,cj,RTconf,n_xes,stoptime,sub,age,gender,handedness,session,
1715071082,dotcolour,dotcolour,dotcolour,0,0,0,0,training,positivefb,20,easy,18,1.8512076000001798,['c'],0,right,['0'],6,1.9810413000000153,,,29,18,Man,Links,1,
,dotcolour,dotcolour,dotcolour,1,0,1,1,training,positivefb,67,hard,43,3.5661071999998057,['n'],0,left,['9'],5,1.3423769000000902,,,29,18,Man,Links,1,
,dotcolour,dotcolour,dotcolour,2,0,2,2,training,positivefb,99,hard,35,1.6337730000000192,['n'],1,right,['9'],5,0.8229741000000104,,,29,18,Man,Links,1,
,dotcolour,dotcolour,dotcolour,3,0,3,3,training,positivefb,93,hard,39,1.4998113999999987,['n'],1,right,['0'],6,0.5783757999997761,,,29,18,Man,Links,1,
,dotcolour,dotcolour,dotcolour,4,0,4,4,training,positivefb,99,easy,65,3.1999081999997543,['c'],1,left,['8'],4,1.611644200000228,,,29,18,Man,Links,1,
,dotcolour,dotcolour,dotcolour,5,0,5,5,training,positivefb,41,hard,45,1.6169190000000526,['n'],0,left,['9'],5,0.6184226999998828,,,29,18,Man,Links,1,
,dotcolour,dotcolour,dotcolour,6,0,6,6,training,positivefb,97,average,29,0.8515560999999252,['n'],1,right,['0'],6,0.799380999999812,,,29,18,Man,Links,1,
,dotcolour,dotcolour,dotcolour,7,0,7,7,training,positivefb,85,average,27,2.0340377999996235,['n'],1,right,['8'],4,1.4226072999999815,,,29,18,Man,Links,1,
,dotcolour,dotcolour,dotcolour,8,0,8,8,training,positivefb,7,easy,16,3.783798299999944,['c'],0,right,['3'],3,0.9498297000000093,,,29,18,Man,Links,1,
,dotcolour,dotcolour,dotcolour,9,0,9,9,training,positivefb,88,easy,64,1.2836036000003332,['c'],1,left,['0'],6,0.49241769999980534,,,29,18,Man,Links,1,
,dotcolour,dotcolour,dotcolour,10,0,10,10,training,positivefb,96,average,55,2.2179472999996506,['c'],1,left,['9'],5,0.9447720000002846,,,29,18,Man,Links,1,
,dotcolour,dotcolour,dotcolour,11,0,11,11,training,positivefb,93,average,52,1.4687520000002223,['c'],1,left,['0'],6,0.281021199999941,,,29,18,Man,Links,1,
,dotcolour,dotcolour,dotcolour,12,0,12,12,training,positivefb,77,average,25,0.7169549000000188,['n'],1,right,['0'],6,0.3121125000002394,,,29,18,Man,Links,1,
,dotcolour,dotcolour,dotcolour,13,0,13,13,training,positivefb,28,hard,44,1.3998175000001538,['n'],0,left,['9'],5,0.9251567999999679,,,29,18,Man,Links,1,
,dotcolour,dotcolour,dotcolour,14,0,14,14,training,positivefb,94,average,27,1.8501541000000543,['n'],1,right,['9'],5,0.47008880000021236,,,29,18,Man,Links,1,
,dotcolour,dotcolour,dotcolour,15,0,15,15,training,positivefb,86,average,55,0.8651522999998633,['c'],1,left,['9'],5,0.4330419000002621,,,29,18,Man,Links,1,
,dotcolour,dotcolour,dotcolour,16,0,16,16,training,positivefb,5,easy,15,0.9835297999998147,['c'],0,right,['8'],4,1.687811899999815,,,29,18,Man,Links,1,
,dotcolour,dotcolour,dotcolour,17,0,17,17,training,positivefb,78,hard,45,2.5168644000000313,['c'],1,left,['9'],5,1.4071729999996023,,,29,18,Man,Links,1,
,dotcolour,dotcolour,dotcolour,18,0,18,18,training,positivefb,82,hard,45,1.7159435999997186,['n'],0,left,['9'],5,0.45922490000020844,,,29,18,Man,Links,1,
,dotcolour,dotcolour,dotcolour,19,0,19,19,training,positivefb,98,easy,62,0.8832098000002588,['c'],1,left,['0'],6,0.42101099999990765,,,29,18,Man,Links,1,
,dotcolour,dotcolour,dotcolour,20,0,20,20,training,positivefb,92,easy,17,0.8005564000000049,['n'],1,right,['0'],6,0.300858099999914,,,29,18,Man,Links,1,
,dotcolour,dotcolour,dotcolour,21,0,21,21,training,positivefb,94,easy,65,1.0003335000001243,['c'],1,left,['9'],5,0.6645743999997649,,,29,18,Man,Links,1,
,dotcolour,dotcolour,dotcolour,22,0,22,22,training,positivefb,94,hard,38,1.183347899999717,['n'],1,right,['9'],5,0.3903691999998955,,,29,18,Man,Links,1,
,dotcolour,dotcolour,dotcolour,23,0,23,23,training,positivefb,100,easy,19,0.7825026000000435,['n'],1,right,['0'],6,1.0799661000000924,,,29,18,Man,Links,1,
,dotcolour,dotcolour,dotcolour,24,0,24,24,training,positivefb,96,easy,64,0.6341887999997198,['c'],1,left,['0'],6,0.3084042000000409,,,29,18,Man,Links,1,
,dotcolour,dotcolour,dotcolour,25,0,25,25,training,positivefb,57,average,53,0.8499367999997958,['n'],0,left,['0'],6,0.7261974000002738,,,29,18,Man,Links,1,
,dotcolour,dotcolour,dotcolour,26,0,26,26,training,positivefb,95,easy,16,0.8840903000000253,['n'],1,right,['0'],6,0.5658477000001767,,,29,18,Man,Links,1,
,dotcolour,dotcolour,dotcolour,27,0,27,27,training,positivefb,93,average,51,0.883510600000136,['c'],1,left,['9'],5,0.5639799000000494,,,29,18,Man,Links,1,
,dotcolour,dotcolour,dotcolour,28,0,28,28,training,positivefb,99,average,26,0.7998675000003459,['n'],1,right,['9'],5,0.42265480000014577,,,29,18,Man,Links,1,
,dotcolour,dotcolour,dotcolour,29,0,29,29,training,positivefb,78,hard,35,0.6677162999999382,['n'],1,right,['9'],5,0.6188670000001366,,,29,18,Man,Links,1,
,dotcolour,dotcolour,dotcolour,30,0,30,30,training,positivefb,89,average,27,1.1009611999998015,['n'],1,right,['9'],5,0.7346035999999003,,,29,18,Man,Links,1,
,dotcolour,dotcolour,dotcolour,31,0,31,31,training,positivefb,83,easy,17,0.8499851999999919,['n'],1,right,['0'],6,0.4224587999997311,,,29,18,Man,Links,1,
,dotcolour,dotcolour,dotcolour,32,0,32,32,training,positivefb,70,average,27,0.6675786000000699,['c'],0,right,['1'],1,1.3797998000000007,,,29,18,Man,Links,1,
,dotcolour,dotcolour,dotcolour,33,0,33,33,training,positivefb,58,hard,42,3.282891799999561,['n'],0,left,['8'],4,0.8336583999998766,,,29,18,Man,Links,1,
,dotcolour,dotcolour,dotcolour,34,0,34,34,training,positivefb,97,average,26,0.9498949999997421,['n'],1,right,['9'],5,0.6429221999997026,,,29,18,Man,Links,1,
,dotcolour,dotcolour,dotcolour,35,0,35,35,training,positivefb,15,easy,64,1.0825277000003553,['n'],0,left,['1'],1,1.6462654000001748,,,29,18,Man,Links,1,
,dotcolour,dotcolour,dotcolour,36,0,36,36,training,positivefb,95,hard,37,1.1336962000000312,['n'],1,right,['8'],4,0.5028183999997964,,,29,18,Man,Links,1,
,dotcolour,dotcolour,dotcolour,37,0,37,37,training,positivefb,51,hard,38,1.3169632999997702,['c'],0,right,['9'],5,0.4783226999998078,,,29,18,Man,Links,1,
,dotcolour,dotcolour,dotcolour,38,0,38,38,training,positivefb,63,hard,41,2.6833268000000317,['c'],1,left,['8'],4,0.6965833999997812,,,29,18,Man,Links,1,
,dotcolour,dotcolour,dotcolour,39,0,39,39,training,positivefb,96,hard,39,0.9332859999999528,['n'],1,right,['9'],5,0.503592000000026,,,29,18,Man,Links,1,
,dotcolour,dotcolour,dotcolour,40,0,40,40,training,positivefb,83,easy,19,0.7334234999998444,['n'],1,right,['0'],6,0.3343049999998584,,,29,18,Man,Links,1,
,dotcolour,dotcolour,dotcolour,41,0,41,41,training,positivefb,98,average,51,0.9172905000000355,['c'],1,left,['0'],6,0.564208299999791,,,29,18,Man,Links,1,
,dotcolour,dotcolour,dotcolour,42,0,42,42,training,positivefb,89,hard,39,1.6502849000003152,['c'],0,right,['8'],4,0.7233742999997048,,,29,18,Man,Links,1,
,dotcolour,dotcolour,dotcolour,43,0,43,43,training,positivefb,95,hard,38,0.9503986999998233,['n'],1,right,['9'],5,0.5046551000000363,,,29,18,Man,Links,1,
,dotcolour,dotcolour,dotcolour,44,0,44,44,training,positivefb,92,easy,62,0.767186799999763,['c'],1,left,['0'],6,0.27081649999990987,,,29,18,Man,Links,1,
,dotcolour,dotcolour,dotcolour,45,0,45,45,training,positivefb,92,average,54,1.3835609000002478,['c'],1,left,['9'],5,0.740295199999764,,,29,18,Man,Links,1,
,dotcolour,dotcolour,dotcolour,46,0,46,46,training,positivefb,90,average,55,0.8506462000000283,['c'],1,left,['0'],6,0.21310849999963466,,,29,18,Man,Links,1,
,dotcolour,dotcolour,dotcolour,47,0,47,47,training,positivefb,97,easy,16,0.6006396999996468,['n'],1,right,['0'],6,0.30910309999990204,,,29,18,Man,Links,1,
,dotcolour,dotcolour,dotcolour,48,0,48,48,training,positivefb,90,easy,63,0.6837522999999237,['c'],1,left,['0'],6,0.30240520000006654,,,29,18,Man,Links,1,
,dotcolour,dotcolour,dotcolour,49,0,49,49,training,positivefb,87,average,25,0.6174660000001495,['n'],1,right,['0'],6,0.34521300000005795,,,29,18,Man,Links,1,
,dotcolour,dotcolour,dotcolour,50,0,50,50,training,positivefb,78,hard,36,1.4161352999999508,['n'],1,right,['0'],6,0.29188479999993433,,,29,18,Man,Links,1,
,dotcolour,dotcolour,dotcolour,51,0,51,51,training,positivefb,95,average,55,0.9834663999999975,['c'],1,left,['0'],6,0.1932675999996718,,,29,18,Man,Links,1,
,dotcolour,dotcolour,dotcolour,52,0,52,52,training,positivefb,88,easy,61,0.5173308999997062,['c'],1,left,['0'],6,0.2125653000002785,,,29,18,Man,Links,1,
,dotcolour,dotcolour,dotcolour,53,0,53,53,training,positivefb,62,hard,41,2.683889200000067,['n'],0,left,['8'],4,0.7136681000001772,,,29,18,Man,Links,1,
,dotcolour,dotcolour,dotcolour,54,0,54,54,training,positivefb,88,easy,17,0.7995766999997613,['n'],1,right,['0'],6,0.18939110000019355,,,29,18,Man,Links,1,
,dotcolour,dotcolour,dotcolour,55,0,55,55,training,positivefb,86,hard,43,1.5338618999999198,['n'],0,left,['9'],5,0.32105619999992996,,,29,18,Man,Links,1,
,dotcolour,dotcolour,dotcolour,56,0,56,56,training,positivefb,63,hard,45,1.5827125999999225,['n'],0,left,['9'],5,0.661275200000091,,,29,18,Man,Links,1,
,dotcolour,dotcolour,dotcolour,57,0,57,57,training,positivefb,74,average,27,0.6508751000001212,['c'],0,right,['0'],6,0.41728069999999207,,,29,18,Man,Links,1,
,dotcolour,dotcolour,dotcolour,58,0,58,58,training,positivefb,93,easy,61,0.8000858000000335,['c'],1,left,['9'],5,0.44830540000020846,,,29,18,Man,Links,1,
,dotcolour,dotcolour,dotcolour,59,0,59,59,training,positivefb,63,average,51,1.0334113999997498,['n'],0,left,['0'],6,0.3968764999999621,,,29,18,Man,Links,1,
,dotcolour,dotcolour,dotcolour,0,1,60,60,training,positivefb,94,average,53,1.633570200000122,['c'],1,left,['9'],5,0.5666775999998208,,,29,18,Man,Links,1,
,dotcolour,dotcolour,dotcolour,1,1,61,61,training,positivefb,98,easy,19,0.6831961999996565,['n'],1,right,['9'],5,0.4202752999999575,,,29,18,Man,Links,1,
,dotcolour,dotcolour,dotcolour,2,1,62,62,training,positivefb,96,easy,18,0.7003343000001223,['n'],1,right,['0'],6,0.2712692000000061,,,29,18,Man,Links,1,
,dotcolour,dotcolour,dotcolour,3,1,63,63,training,positivefb,91,easy,19,0.6666377999999895,['n'],1,right,['0'],6,0.3227790000000823,,,29,18,Man,Links,1,
,dotcolour,dotcolour,dotcolour,4,1,64,64,training,positivefb,98,easy,62,0.6665760000000773,['c'],1,left,['0'],6,0.24298259999977745,,,29,18,Man,Links,1,
,dotcolour,dotcolour,dotcolour,5,1,65,65,training,positivefb,22,hard,36,2.6999172999999246,['c'],0,right,['8'],4,0.5892355999999381,,,29,18,Man,Links,1,
,dotcolour,dotcolour,dotcolour,6,1,66,66,training,positivefb,95,easy,18,0.7836491000002752,['n'],1,right,['0'],6,0.22285260000035123,,,29,18,Man,Links,1,
,dotcolour,dotcolour,dotcolour,7,1,67,67,training,positivefb,98,average,27,0.5840127999999822,['n'],1,right,['0'],6,0.22260959999994157,,,29,18,Man,Links,1,
,dotcolour,dotcolour,dotcolour,8,1,68,68,training,positivefb,77,hard,35,1.3673017999999502,['c'],0,right,['8'],4,0.47993059999998877,,,29,18,Man,Links,1,
,dotcolour,dotcolour,dotcolour,9,1,69,69,training,positivefb,53,hard,35,1.5332800000001043,['n'],1,right,['9'],5,0.3518512999999075,,,29,18,Man,Links,1,
,dotcolour,dotcolour,dotcolour,10,1,70,70,training,positivefb,86,hard,38,1.1164370000001327,['c'],0,right,['9'],5,0.717414799999915,,,29,18,Man,Links,1,
,dotcolour,dotcolour,dotcolour,11,1,71,71,training,positivefb,96,average,28,0.7168802000001051,['n'],1,right,['0'],6,0.2275846000002275,,,29,18,Man,Links,1,
,dotcolour,dotcolour,dotcolour,12,1,72,72,training,positivefb,99,average,27,0.6835335999999188,['n'],1,right,['0'],6,0.2553689999999733,,,29,18,Man,Links,1,
,dotcolour,dotcolour,dotcolour,13,1,73,73,training,positivefb,100,easy,15,0.66745869999977,['n'],1,right,['0'],6,0.39528649999965637,,,29,18,Man,Links,1,
,dotcolour,dotcolour,dotcolour,14,1,74,74,training,positivefb,27,hard,37,1.2163476000000628,['c'],0,right,['9'],5,1.4189149000003454,,,29,18,Man,Links,1,
,dotcolour,dotcolour,dotcolour,15,1,75,75,training,positivefb,96,easy,15,0.6512748999998621,['n'],1,right,['0'],6,0.20798530000001847,,,29,18,Man,Links,1,
,dotcolour,dotcolour,dotcolour,16,1,76,76,training,positivefb,68,average,54,0.5345103999998173,['c'],1,left,['0'],6,0.2507617000001119,,,29,18,Man,Links,1,
,dotcolour,dotcolour,dotcolour,17,1,77,77,training,positivefb,92,hard,42,0.8001334999999017,['n'],0,left,['9'],5,0.3051354999997784,,,29,18,Man,Links,1,
,dotcolour,dotcolour,dotcolour,18,1,78,78,training,positivefb,64,hard,43,2.0165265999999065,['n'],0,left,['9'],5,0.41131140000015876,,,29,18,Man,Links,1,
,dotcolour,dotcolour,dotcolour,19,1,79,79,training,positivefb,98,hard,35,0.917539399999896,['n'],1,right,['9'],5,0.918869299999642,,,29,18,Man,Links,1,
,dotcolour,dotcolour,dotcolour,20,1,80,80,training,positivefb,99,hard,42,0.8842132999998285,['c'],1,left,['0'],6,0.4793629000000692,,,29,18,Man,Links,1,
,dotcolour,dotcolour,dotcolour,21,1,81,81,training,positivefb,80,hard,39,0.750677099999848,['c'],0,right,['9'],5,0.44719420000001264,,,29,18,Man,Links,1,
,dotcolour,dotcolour,dotcolour,22,1,82,82,training,positivefb,97,easy,63,0.7844414999999572,['c'],1,left,['0'],6,0.41393699999980527,,,29,18,Man,Links,1,
,dotcolour,dotcolour,dotcolour,23,1,83,83,training,positivefb,93,easy,62,0.7002489999999852,['c'],1,left,['0'],6,0.5782223999999587,,,29,18,Man,Links,1,
,dotcolour,dotcolour,dotcolour,24,1,84,84,training,positivefb,84,average,28,1.1174050999998144,['n'],1,right,['9'],5,0.4144357999998647,,,29,18,Man,Links,1,
,dotcolour,dotcolour,dotcolour,25,1,85,85,training,positivefb,88,average,54,0.7834118999999191,['c'],1,left,['0'],6,0.39906520000022283,,,29,18,Man,Links,1,
,dotcolour,dotcolour,dotcolour,26,1,86,86,training,positivefb,93,hard,45,0.8832287000000179,['n'],0,left,['9'],5,0.37904600000001665,,,29,18,Man,Links,1,
,dotcolour,dotcolour,dotcolour,27,1,87,87,training,positivefb,99,easy,61,0.6166187000003447,['c'],1,left,['9'],5,0.3320882999996684,,,29,18,Man,Links,1,
,dotcolour,dotcolour,dotcolour,28,1,88,88,training,positivefb,96,easy,65,0.4508894999999029,['c'],1,left,['0'],6,0.21295370000007097,,,29,18,Man,Links,1,
,dotcolour,dotcolour,dotcolour,29,1,89,89,training,positivefb,86,average,52,0.4664449000001696,['n'],0,left,['0'],6,0.28235170000016296,,,29,18,Man,Links,1,
,dotcolour,dotcolour,dotcolour,30,1,90,90,training,positivefb,75,hard,38,1.9662187999997514,['c'],0,right,['9'],5,0.4567661000000953,,,29,18,Man,Links,1,
,dotcolour,dotcolour,dotcolour,31,1,91,91,training,positivefb,92,average,26,0.9843786999999793,['c'],0,right,['9'],5,1.4072423000002345,,,29,18,Man,Links,1,
,dotcolour,dotcolour,dotcolour,32,1,92,92,training,positivefb,94,hard,35,0.851640800000041,['n'],1,right,['8'],4,1.268614399999933,,,29,18,Man,Links,1,
,dotcolour,dotcolour,dotcolour,33,1,93,93,training,positivefb,96,hard,45,0.8665798000001814,['c'],1,left,['0'],6,0.40725979999979245,,,29,18,Man,Links,1,
,dotcolour,dotcolour,dotcolour,34,1,94,94,training,positivefb,98,easy,64,0.6157031000002462,['c'],1,left,['0'],6,0.24666449999995166,,,29,18,Man,Links,1,
,dotcolour,dotcolour,dotcolour,35,1,95,95,training,positivefb,90,hard,44,0.7837122000000818,['n'],0,left,['9'],5,0.3250420999997914,,,29,18,Man,Links,1,
,dotcolour,dotcolour,dotcolour,36,1,96,96,training,positivefb,95,easy,64,0.733217699999841,['c'],1,left,['0'],6,0.2993288000002394,,,29,18,Man,Links,1,
,dotcolour,dotcolour,dotcolour,37,1,97,97,training,positivefb,97,easy,19,0.5666748000003281,['n'],1,right,['0'],6,0.27278000000023894,,,29,18,Man,Links,1,
,dotcolour,dotcolour,dotcolour,38,1,98,98,training,positivefb,69,average,53,0.6159462000000531,['n'],0,left,['1'],1,1.7903247999997802,,,29,18,Man,Links,1,
,dotcolour,dotcolour,dotcolour,39,1,99,99,training,positivefb,93,hard,42,0.9839477000000443,['c'],1,left,['0'],6,0.3187356999997064,,,29,18,Man,Links,1,
,dotcolour,dotcolour,dotcolour,40,1,100,100,training,positivefb,83,easy,65,1.0826593000001594,['c'],1,left,['0'],6,0.2861931000002187,,,29,18,Man,Links,1,
,dotcolour,dotcolour,dotcolour,41,1,101,101,training,positivefb,88,hard,42,0.9495790999999372,['n'],0,left,['0'],6,0.2850893999998334,,,29,18,Man,Links,1,
,dotcolour,dotcolour,dotcolour,42,1,102,102,training,positivefb,6,average,25,0.5839912000001277,['c'],0,right,['1'],1,2.2342712999998184,,,29,18,Man,Links,1,
,dotcolour,dotcolour,dotcolour,43,1,103,103,training,positivefb,99,average,53,1.1500182999998287,['c'],1,left,['9'],5,0.6982418999996298,,,29,18,Man,Links,1,
,dotcolour,dotcolour,dotcolour,44,1,104,104,training,positivefb,96,easy,16,0.7174172999998518,['n'],1,right,['0'],6,0.2900696000001517,,,29,18,Man,Links,1,
,dotcolour,dotcolour,dotcolour,45,1,105,105,training,positivefb,89,average,29,0.8171935999998823,['n'],1,right,['0'],6,0.26145869999982096,,,29,18,Man,Links,1,
,dotcolour,dotcolour,dotcolour,46,1,106,106,training,positivefb,96,average,51,0.6664335000000392,['c'],1,left,['0'],6,0.3528070000002117,,,29,18,Man,Links,1,
,dotcolour,dotcolour,dotcolour,47,1,107,107,training,positivefb,81,average,26,0.7835022999997818,['c'],0,right,['9'],5,0.28352240000003803,,,29,18,Man,Links,1,
,dotcolour,dotcolour,dotcolour,48,1,108,108,training,positivefb,96,hard,38,1.117571300000236,['c'],0,right,['9'],5,0.467777599999863,,,29,18,Man,Links,1,
,dotcolour,dotcolour,dotcolour,49,1,109,109,training,positivefb,8,average,25,0.7834945999998126,['c'],0,right,['1'],1,1.8418580000002294,,,29,18,Man,Links,1,
,dotcolour,dotcolour,dotcolour,50,1,110,110,training,positivefb,89,easy,63,0.8829351999997925,['c'],1,left,['0'],6,0.3246644999999262,,,29,18,Man,Links,1,
,dotcolour,dotcolour,dotcolour,51,1,111,111,training,positivefb,94,average,29,0.7681227000002764,['n'],1,right,['9'],5,0.4252618000000439,,,29,18,Man,Links,1,
,dotcolour,dotcolour,dotcolour,52,1,112,112,training,positivefb,93,average,51,0.7332292999999481,['c'],1,left,['9'],5,1.1546484000000419,,,29,18,Man,Links,1,
,dotcolour,dotcolour,dotcolour,53,1,113,113,training,positivefb,89,easy,15,2.3664127000001827,['n'],1,right,['0'],6,1.3348189999996976,,,29,18,Man,Links,1,
,dotcolour,dotcolour,dotcolour,54,1,114,114,training,positivefb,87,easy,17,0.8171924000002946,['n'],1,right,['9'],5,0.46448099999997794,,,29,18,Man,Links,1,
,dotcolour,dotcolour,dotcolour,55,1,115,115,training,positivefb,60,hard,44,1.2173861000001125,['n'],0,left,['8'],4,0.6693684000001667,,,29,18,Man,Links,1,
,dotcolour,dotcolour,dotcolour,56,1,116,116,training,positivefb,85,hard,41,1.1163692999998602,['n'],0,left,['8'],4,0.5258778999996139,,,29,18,Man,Links,1,
,dotcolour,dotcolour,dotcolour,57,1,117,117,training,positivefb,90,average,54,0.8171056999999564,['c'],1,left,['0'],6,0.2964462999998432,,,29,18,Man,Links,1,
,dotcolour,dotcolour,dotcolour,58,1,118,118,training,positivefb,96,easy,63,0.749927999999727,['c'],1,left,['0'],6,0.3115685999996458,,,29,18,Man,Links,1,
,dotcolour,dotcolour,dotcolour,59,1,119,119,training,positivefb,90,average,54,0.7161323000000266,['c'],1,left,['0'],6,0.2224439000001439,,,29,18,Man,Links,1,
,dotcolour,dotcolour,dotcolour,0,2,120,120,main,positivefb,-99,easy,19,0.8002897000001212,['n'],1,right,['9'],5,0.7128655999999864,,,29,18,Man,Links,1,
,dotcolour,dotcolour,dotcolour,1,2,121,121,main,positivefb,-99,hard,39,2.017531599999984,['n'],1,right,['0'],6,2.836692899999889,,,29,18,Man,Links,1,
,dotcolour,dotcolour,dotcolour,2,2,122,122,main,positivefb,-99,hard,42,2.3840556000000106,['c'],1,left,['9'],5,0.46056429999998727,,,29,18,Man,Links,1,
,dotcolour,dotcolour,dotcolour,3,2,123,123,main,positivefb,-99,easy,64,0.7673694000000069,['c'],1,left,['0'],6,0.4046281999999337,,,29,18,Man,Links,1,
,dotcolour,dotcolour,dotcolour,4,2,124,124,main,positivefb,-99,average,27,0.7175336000000243,['n'],1,right,['0'],6,0.26444390000006024,,,29,18,Man,Links,1,
,dotcolour,dotcolour,dotcolour,5,2,125,125,main,positivefb,-99,average,53,0.9677586999996493,['c'],1,left,['0'],6,0.5282364999998208,,,29,18,Man,Links,1,
,dotcolour,dotcolour,dotcolour,6,2,126,126,main,positivefb,-99,hard,37,1.5505303999998432,['n'],1,right,['9'],5,0.37422300000025643,,,29,18,Man,Links,1,
,dotcolour,dotcolour,dotcolour,7,2,127,127,main,positivefb,-99,easy,16,1.134769900000265,['n'],1,right,['0'],6,0.3153156000003037,,,29,18,Man,Links,1,
,dotcolour,dotcolour,dotcolour,8,2,128,128,main,positivefb,-99,average,51,0.8674123000000691,['c'],1,left,['0'],6,0.37992639999993116,,,29,18,Man,Links,1,
,dotcolour,dotcolour,dotcolour,9,2,129,129,main,positivefb,-99,average,53,0.616695300000174,['c'],1,left,['0'],6,0.28576969999994617,,,29,18,Man,Links,1,
,dotcolour,dotcolour,dotcolour,10,2,130,130,main,positivefb,-99,easy,62,0.5502802999999403,['c'],1,left,['0'],6,0.22899760000018432,,,29,18,Man,Links,1,
,dotcolour,dotcolour,dotcolour,11,2,131,131,main,positivefb,-99,hard,41,1.7174055000000408,['n'],0,left,['9'],5,0.44020709999995233,,,29,18,Man,Links,1,
,dotcolour,dotcolour,dotcolour,12,2,132,132,main,positivefb,-99,hard,38,0.9833902999998827,['c'],0,right,['9'],5,0.5037846000000172,,,29,18,Man,Links,1,
,dotcolour,dotcolour,dotcolour,13,2,133,133,main,positivefb,-99,average,51,1.0850729000003412,['c'],1,left,['8'],4,0.4573519999999007,,,29,18,Man,Links,1,
,dotcolour,dotcolour,dotcolour,14,2,134,134,main,positivefb,-99,average,52,0.7673342000002776,['c'],1,left,['0'],6,0.1772965000000113,,,29,18,Man,Links,1,
,dotcolour,dotcolour,dotcolour,15,2,135,135,main,positivefb,-99,hard,36,1.8181126000004042,['n'],1,right,['8'],4,0.9152772000002187,,,29,18,Man,Links,1,
,dotcolour,dotcolour,dotcolour,16,2,136,136,main,positivefb,-99,hard,36,1.0182316999998875,['n'],1,right,['9'],5,0.6541879999999765,,,29,18,Man,Links,1,
,dotcolour,dotcolour,dotcolour,17,2,137,137,main,positivefb,-99,average,28,0.7675941999996212,['n'],1,right,['9'],5,0.2305207999997947,,,29,18,Man,Links,1,
,dotcolour,dotcolour,dotcolour,18,2,138,138,main,positivefb,-99,hard,37,0.784748000000036,['n'],1,right,['9'],5,0.430450099999689,,,29,18,Man,Links,1,
,dotcolour,dotcolour,dotcolour,19,2,139,139,main,positivefb,-99,average,52,4.117682299999615,['c'],1,left,['0'],6,1.226884500000324,,,29,18,Man,Links,1,
,dotcolour,dotcolour,dotcolour,20,2,140,140,main,positivefb,-99,average,26,0.7334430999999313,['n'],1,right,['0'],6,0.2934597000003123,,,29,18,Man,Links,1,
,dotcolour,dotcolour,dotcolour,21,2,141,141,main,positivefb,-99,easy,64,0.7173499999998967,['c'],1,left,['9'],5,0.637237300000379,,,29,18,Man,Links,1,
,dotcolour,dotcolour,dotcolour,22,2,142,142,main,positivefb,-99,hard,44,1.484633600000052,['c'],1,left,['9'],5,0.7534806999997272,,,29,18,Man,Links,1,
,dotcolour,dotcolour,dotcolour,23,2,143,143,main,positivefb,-99,easy,19,1.0337816000001112,['n'],1,right,['0'],6,0.4193881999999576,,,29,18,Man,Links,1,
,dotcolour,dotcolour,dotcolour,24,2,144,144,main,positivefb,-99,hard,38,1.7016797999999653,['c'],0,right,['9'],5,0.7266787999997177,,,29,18,Man,Links,1,
,dotcolour,dotcolour,dotcolour,25,2,145,145,main,positivefb,-99,hard,44,1.1013066000000435,['c'],1,left,['9'],5,0.4788559999997233,,,29,18,Man,Links,1,
,dotcolour,dotcolour,dotcolour,26,2,146,146,main,positivefb,-99,hard,44,1.4675451000002795,['c'],1,left,['0'],6,0.7541737000001376,,,29,18,Man,Links,1,
,dotcolour,dotcolour,dotcolour,27,2,147,147,main,positivefb,-99,hard,44,0.7183515000001535,['c'],1,left,['9'],5,0.9923986999997396,,,29,18,Man,Links,1,
,dotcolour,dotcolour,dotcolour,28,2,148,148,main,positivefb,-99,average,52,0.750607299999956,['c'],1,left,['9'],5,0.355370899999798,,,29,18,Man,Links,1,
,dotcolour,dotcolour,dotcolour,29,2,149,149,main,positivefb,-99,hard,38,0.6672303999998803,['c'],0,right,['0'],6,0.36333490000015445,,,29,18,Man,Links,1,
,dotcolour,dotcolour,dotcolour,30,2,150,150,main,positivefb,-99,easy,15,0.8014291999998022,['n'],1,right,['0'],6,0.29451460000018415,,,29,18,Man,Links,1,
,dotcolour,dotcolour,dotcolour,31,2,151,151,main,positivefb,-99,hard,38,1.5508448000000499,['c'],0,right,['8'],4,0.573604400000022,,,29,18,Man,Links,1,
,dotcolour,dotcolour,dotcolour,32,2,152,152,main,positivefb,-99,average,26,0.9008930999998483,['n'],1,right,['9'],5,0.5558000999999422,,,29,18,Man,Links,1,
,dotcolour,dotcolour,dotcolour,33,2,153,153,main,positivefb,-99,average,26,1.1850991999999678,['n'],1,right,['9'],5,0.5745541999999659,,,29,18,Man,Links,1,
,dotcolour,dotcolour,dotcolour,34,2,154,154,main,positivefb,-99,average,26,0.7335790000001907,['n'],1,right,['9'],5,0.3155730000003132,,,29,18,Man,Links,1,
,dotcolour,dotcolour,dotcolour,35,2,155,155,main,positivefb,-99,easy,19,0.8678024000000732,['n'],1,right,['0'],6,0.40500840000004246,,,29,18,Man,Links,1,
,dotcolour,dotcolour,dotcolour,36,2,156,156,main,positivefb,-99,average,27,0.7008207999997467,['n'],1,right,['0'],6,0.23423629999979312,,,29,18,Man,Links,1,
,dotcolour,dotcolour,dotcolour,37,2,157,157,main,positivefb,-99,hard,39,1.101177000000007,['n'],1,right,['0'],6,0.3808849000001828,,,29,18,Man,Links,1,
,dotcolour,dotcolour,dotcolour,38,2,158,158,main,positivefb,-99,easy,19,0.7179845000000569,['n'],1,right,['0'],6,0.2576912999998058,,,29,18,Man,Links,1,
,dotcolour,dotcolour,dotcolour,39,2,159,159,main,positivefb,-99,average,25,0.7176460999999108,['n'],1,right,['0'],6,0.23593490000030215,,,29,18,Man,Links,1,
,dotcolour,dotcolour,dotcolour,40,2,160,160,main,positivefb,-99,hard,45,0.8184254000002511,['c'],1,left,['0'],6,0.3224212999998599,,,29,18,Man,Links,1,
,dotcolour,dotcolour,dotcolour,41,2,161,161,main,positivefb,-99,easy,61,0.6846705000002657,['c'],1,left,['0'],6,0.34700359999987995,,,29,18,Man,Links,1,
,dotcolour,dotcolour,dotcolour,42,2,162,162,main,positivefb,-99,easy,65,0.8009077000001525,['c'],1,left,['0'],6,0.24556319999965126,,,29,18,Man,Links,1,
,dotcolour,dotcolour,dotcolour,43,2,163,163,main,positivefb,-99,hard,43,2.3843799000001127,['c'],1,left,['8'],4,0.6861837999999807,,,29,18,Man,Links,1,
,dotcolour,dotcolour,dotcolour,44,2,164,164,main,positivefb,-99,easy,65,0.767958599999929,['c'],1,left,['0'],6,0.3804440999997496,,,29,18,Man,Links,1,
,dotcolour,dotcolour,dotcolour,45,2,165,165,main,positivefb,-99,average,51,0.9996041999997942,['c'],1,left,['0'],6,0.16709400000036112,,,29,18,Man,Links,1,
,dotcolour,dotcolour,dotcolour,46,2,166,166,main,positivefb,-99,easy,17,0.7512065999999322,['n'],1,right,['0'],6,0.33085159999973257,,,29,18,Man,Links,1,
,dotcolour,dotcolour,dotcolour,47,2,167,167,main,positivefb,-99,easy,16,0.7183457000000999,['n'],1,right,['0'],6,0.28933580000011716,,,29,18,Man,Links,1,
,dotcolour,dotcolour,dotcolour,48,2,168,168,main,positivefb,-99,easy,62,0.6676277000001392,['c'],1,left,['9'],5,0.5963396999995894,,,29,18,Man,Links,1,
,dotcolour,dotcolour,dotcolour,49,2,169,169,main,positivefb,-99,easy,18,0.6839086999998472,['n'],1,right,['0'],6,0.32171669999979713,,,29,18,Man,Links,1,
,dotcolour,dotcolour,dotcolour,50,2,170,170,main,positivefb,-99,hard,42,0.7671040000000175,['c'],1,left,['9'],5,0.4549992000002021,,,29,18,Man,Links,1,
,dotcolour,dotcolour,dotcolour,51,2,171,171,main,positivefb,-99,average,28,1.1848142000003463,['c'],0,right,['9'],5,0.48649280000017825,,,29,18,Man,Links,1,
,dotcolour,dotcolour,dotcolour,52,2,172,172,main,positivefb,-99,average,52,0.7511534000000211,['c'],1,left,['0'],6,0.9583858000000873,,,29,18,Man,Links,1,
,dotcolour,dotcolour,dotcolour,53,2,173,173,main,positivefb,-99,easy,62,0.6173412000002827,['c'],1,left,['0'],6,0.20779210000000603,,,29,18,Man,Links,1,
,dotcolour,dotcolour,dotcolour,54,2,174,174,main,positivefb,-99,average,55,0.6018468999996003,['c'],1,left,['0'],6,0.2088595999998688,,,29,18,Man,Links,1,
,dotcolour,dotcolour,dotcolour,55,2,175,175,main,positivefb,-99,easy,63,0.5842255000002297,['c'],1,left,['0'],6,0.23397539999996297,,,29,18,Man,Links,1,
,dotcolour,dotcolour,dotcolour,56,2,176,176,main,positivefb,-99,easy,19,0.68391500000007,['n'],1,right,['0'],6,0.2620067000002564,,,29,18,Man,Links,1,
,dotcolour,dotcolour,dotcolour,57,2,177,177,main,positivefb,-99,average,28,1.017163999999866,['n'],1,right,['8'],4,0.3079043000002457,,,29,18,Man,Links,1,
,dotcolour,dotcolour,dotcolour,58,2,178,178,main,positivefb,-99,hard,42,0.7845832000002702,['c'],1,left,['8'],4,0.35350549999975556,,,29,18,Man,Links,1,
,dotcolour,dotcolour,dotcolour,59,2,179,179,main,positivefb,-99,easy,65,0.7516190999999708,['c'],1,left,['0'],6,0.2542665000000852,,,29,18,Man,Links,1,
,dotcolour,dotcolour,dotcolour,0,3,180,180,main,positivefb,-99,hard,45,0.634099100000185,['c'],1,left,['9'],5,0.4083172000000559,,,29,18,Man,Links,1,
,dotcolour,dotcolour,dotcolour,1,3,181,181,main,positivefb,-99,average,54,0.5847584000002826,['c'],1,left,['9'],5,0.38547139999991487,,,29,18,Man,Links,1,
,dotcolour,dotcolour,dotcolour,2,3,182,182,main,positivefb,-99,average,55,0.7839014000001043,['c'],1,left,['9'],5,0.28374570000005406,,,29,18,Man,Links,1,
,dotcolour,dotcolour,dotcolour,3,3,183,183,main,positivefb,-99,average,27,0.7680311000003712,['c'],0,right,['0'],6,0.306092499999977,,,29,18,Man,Links,1,
,dotcolour,dotcolour,dotcolour,4,3,184,184,main,positivefb,-99,hard,42,0.6175209000002724,['c'],1,left,['9'],5,0.37441260000014154,,,29,18,Man,Links,1,
,dotcolour,dotcolour,dotcolour,5,3,185,185,main,positivefb,-99,easy,19,0.7173557000000983,['c'],0,right,['0'],6,0.3951358000003893,,,29,18,Man,Links,1,
,dotcolour,dotcolour,dotcolour,6,3,186,186,main,positivefb,-99,average,54,3.3830739999998514,['c'],1,left,['8'],4,0.813149600000088,,,29,18,Man,Links,1,
,dotcolour,dotcolour,dotcolour,7,3,187,187,main,positivefb,-99,easy,62,0.5681614000000081,['c'],1,left,['0'],6,0.7355342000000746,,,29,18,Man,Links,1,
,dotcolour,dotcolour,dotcolour,8,3,188,188,main,positivefb,-99,average,28,0.801275099999657,['n'],1,right,['0'],6,0.21069820000002437,,,29,18,Man,Links,1,
,dotcolour,dotcolour,dotcolour,9,3,189,189,main,positivefb,-99,average,54,0.9672758000001522,['c'],1,left,['9'],5,0.3804995999998937,,,29,18,Man,Links,1,
,dotcolour,dotcolour,dotcolour,10,3,190,190,main,positivefb,-99,hard,41,1.000782000000072,['n'],0,left,['3'],3,2.6628249000000324,,,29,18,Man,Links,1,
,dotcolour,dotcolour,dotcolour,11,3,191,191,main,positivefb,-99,easy,62,0.7836468999998942,['c'],1,left,['9'],5,0.36603489999970407,,,29,18,Man,Links,1,
,dotcolour,dotcolour,dotcolour,12,3,192,192,main,positivefb,-99,average,29,0.7005230999998275,['c'],0,right,['0'],6,0.34847080000008646,,,29,18,Man,Links,1,
,dotcolour,dotcolour,dotcolour,13,3,193,193,main,positivefb,-99,average,51,1.2679892000001018,['c'],1,left,['8'],4,0.6204164999999193,,,29,18,Man,Links,1,
,dotcolour,dotcolour,dotcolour,14,3,194,194,main,positivefb,-99,average,29,0.9172137999998995,['n'],1,right,['9'],5,0.3040267999999742,,,29,18,Man,Links,1,
,dotcolour,dotcolour,dotcolour,15,3,195,195,main,positivefb,-99,average,51,0.8011917999997422,['c'],1,left,['0'],6,0.44378099999994447,,,29,18,Man,Links,1,
,dotcolour,dotcolour,dotcolour,16,3,196,196,main,positivefb,-99,hard,41,1.8000417999996898,['c'],1,left,['9'],5,0.3720874000000549,,,29,18,Man,Links,1,
,dotcolour,dotcolour,dotcolour,17,3,197,197,main,positivefb,-99,hard,42,0.7350915000001805,['c'],1,left,['9'],5,0.304448500000035,,,29,18,Man,Links,1,
,dotcolour,dotcolour,dotcolour,18,3,198,198,main,positivefb,-99,hard,43,0.9006774999998015,['n'],0,left,['9'],5,0.3683901999997943,,,29,18,Man,Links,1,
,dotcolour,dotcolour,dotcolour,19,3,199,199,main,positivefb,-99,average,27,1.4342984999998407,['n'],1,right,['9'],5,0.36988849999988815,,,29,18,Man,Links,1,
,dotcolour,dotcolour,dotcolour,20,3,200,200,main,positivefb,-99,hard,45,0.7513930999998593,['c'],1,left,['8'],4,0.5499423000001116,,,29,18,Man,Links,1,
,dotcolour,dotcolour,dotcolour,21,3,201,201,main,positivefb,-99,hard,38,1.1171907000002648,['n'],1,right,['9'],5,0.27588109999987864,,,29,18,Man,Links,1,
,dotcolour,dotcolour,dotcolour,22,3,202,202,main,positivefb,-99,average,27,0.7675272000001314,['c'],0,right,['1'],1,1.2825981000000866,,,29,18,Man,Links,1,
,dotcolour,dotcolour,dotcolour,23,3,203,203,main,positivefb,-99,hard,44,3.568058100000144,['c'],1,left,['0'],6,0.353948500000115,,,29,18,Man,Links,1,
,dotcolour,dotcolour,dotcolour,24,3,204,204,main,positivefb,-99,hard,42,1.8351537999997163,['c'],1,left,['9'],5,0.2993498999999247,,,29,18,Man,Links,1,
,dotcolour,dotcolour,dotcolour,25,3,205,205,main,positivefb,-99,hard,42,1.049922599999718,['n'],0,left,['8'],4,0.4219589000003907,,,29,18,Man,Links,1,
,dotcolour,dotcolour,dotcolour,26,3,206,206,main,positivefb,-99,hard,37,0.8847897000000557,['c'],0,right,['9'],5,0.4265024999999696,,,29,18,Man,Links,1,
,dotcolour,dotcolour,dotcolour,27,3,207,207,main,positivefb,-99,easy,64,0.6340843000002678,['c'],1,left,['0'],6,0.37667959999998857,,,29,18,Man,Links,1,
,dotcolour,dotcolour,dotcolour,28,3,208,208,main,positivefb,-99,easy,61,0.5669628999999077,['c'],1,left,['0'],6,0.2606110000001536,,,29,18,Man,Links,1,
,dotcolour,dotcolour,dotcolour,29,3,209,209,main,positivefb,-99,hard,39,0.716938200000186,['n'],1,right,['8'],4,0.5739860000003318,,,29,18,Man,Links,1,
,dotcolour,dotcolour,dotcolour,30,3,210,210,main,positivefb,-99,average,55,0.9174663999997392,['c'],1,left,['9'],5,0.42733440000029077,,,29,18,Man,Links,1,
,dotcolour,dotcolour,dotcolour,31,3,211,211,main,positivefb,-99,average,25,0.9504708999998002,['n'],1,right,['9'],5,0.49391000000014174,,,29,18,Man,Links,1,
,dotcolour,dotcolour,dotcolour,32,3,212,212,main,positivefb,-99,easy,18,0.8174085999999079,['n'],1,right,['9'],5,0.4100408999997853,,,29,18,Man,Links,1,
,dotcolour,dotcolour,dotcolour,33,3,213,213,main,positivefb,-99,average,51,0.6513601999999992,['c'],1,left,['9'],5,0.6891908000002331,,,29,18,Man,Links,1,
,dotcolour,dotcolour,dotcolour,34,3,214,214,main,positivefb,-99,hard,37,0.8347629999998389,['c'],0,right,['8'],4,0.42151800000010553,,,29,18,Man,Links,1,
,dotcolour,dotcolour,dotcolour,35,3,215,215,main,positivefb,-99,easy,63,0.6344844999998713,['c'],1,left,['8'],4,0.30830009999999675,,,29,18,Man,Links,1,
,dotcolour,dotcolour,dotcolour,36,3,216,216,main,positivefb,-99,easy,18,0.7838458000001083,['n'],1,right,['9'],5,0.3131148000002213,,,29,18,Man,Links,1,
,dotcolour,dotcolour,dotcolour,37,3,217,217,main,positivefb,-99,average,26,1.3172273999998652,['n'],1,right,['0'],6,0.2569650000000365,,,29,18,Man,Links,1,
,dotcolour,dotcolour,dotcolour,38,3,218,218,main,positivefb,-99,easy,17,0.8016852999999173,['n'],1,right,['0'],6,0.26431289999982255,,,29,18,Man,Links,1,
,dotcolour,dotcolour,dotcolour,39,3,219,219,main,positivefb,-99,easy,15,0.5015041999999994,['n'],1,right,['0'],6,0.28200310000011086,,,29,18,Man,Links,1,
,dotcolour,dotcolour,dotcolour,40,3,220,220,main,positivefb,-99,hard,39,0.6682897000000594,['c'],0,right,['9'],5,0.40430339999966236,,,29,18,Man,Links,1,
,dotcolour,dotcolour,dotcolour,41,3,221,221,main,positivefb,-99,easy,61,0.7014187000004313,['c'],1,left,['0'],6,0.3456559000001107,,,29,18,Man,Links,1,
,dotcolour,dotcolour,dotcolour,42,3,222,222,main,positivefb,-99,average,28,0.7003942999999708,['n'],1,right,['0'],6,0.29639739999993253,,,29,18,Man,Links,1,
,dotcolour,dotcolour,dotcolour,43,3,223,223,main,positivefb,-99,easy,17,1.4514795999998569,['n'],1,right,['9'],5,0.5878671000000395,,,29,18,Man,Links,1,
,dotcolour,dotcolour,dotcolour,44,3,224,224,main,positivefb,-99,hard,37,1.3671669000000293,['n'],1,right,['9'],5,0.2547287000002143,,,29,18,Man,Links,1,
,dotcolour,dotcolour,dotcolour,45,3,225,225,main,positivefb,-99,easy,64,0.6506687999999485,['c'],1,left,['0'],6,0.27528050000000803,,,29,18,Man,Links,1,
,dotcolour,dotcolour,dotcolour,46,3,226,226,main,positivefb,-99,easy,65,0.6681225999996059,['c'],1,left,['9'],5,0.2704217999998946,,,29,18,Man,Links,1,
,dotcolour,dotcolour,dotcolour,47,3,227,227,main,positivefb,-99,average,52,1.0170637999999599,['c'],1,left,['0'],6,0.516312399999606,,,29,18,Man,Links,1,
,dotcolour,dotcolour,dotcolour,48,3,228,228,main,positivefb,-99,average,29,0.5851252000002205,['n'],1,right,['0'],6,0.2805135000003247,,,29,18,Man,Links,1,
,dotcolour,dotcolour,dotcolour,49,3,229,229,main,positivefb,-99,easy,16,0.7173932999999124,['n'],1,right,['0'],6,0.35401309999997466,,,29,18,Man,Links,1,
,dotcolour,dotcolour,dotcolour,50,3,230,230,main,positivefb,-99,easy,19,0.584441599999991,['n'],1,right,['0'],6,0.24516010000024835,,,29,18,Man,Links,1,
,dotcolour,dotcolour,dotcolour,51,3,231,231,main,positivefb,-99,easy,62,0.5673791999997775,['c'],1,left,['0'],6,0.23822040000004563,,,29,18,Man,Links,1,
,dotcolour,dotcolour,dotcolour,52,3,232,232,main,positivefb,-99,easy,15,0.7016354999996111,['n'],1,right,['9'],5,0.25709509999978764,,,29,18,Man,Links,1,
,dotcolour,dotcolour,dotcolour,53,3,233,233,main,positivefb,-99,easy,63,0.5682326000001012,['c'],1,left,['0'],6,0.3535820999995849,,,29,18,Man,Links,1,
,dotcolour,dotcolour,dotcolour,54,3,234,234,main,positivefb,-99,hard,36,0.8176099000002068,['n'],1,right,['9'],5,0.44272319999981846,,,29,18,Man,Links,1,
,dotcolour,dotcolour,dotcolour,55,3,235,235,main,positivefb,-99,hard,36,0.9507662999999411,['c'],0,right,['9'],5,0.3569811000002119,,,29,18,Man,Links,1,
,dotcolour,dotcolour,dotcolour,56,3,236,236,main,positivefb,-99,average,51,0.5513232999996944,['c'],1,left,['0'],6,0.36903849999998783,,,29,18,Man,Links,1,
,dotcolour,dotcolour,dotcolour,57,3,237,237,main,positivefb,-99,easy,17,0.6676668999998583,['n'],1,right,['9'],5,0.4642355000000862,,,29,18,Man,Links,1,
,dotcolour,dotcolour,dotcolour,58,3,238,238,main,positivefb,-99,hard,35,1.3340838999997686,['n'],1,right,['0'],6,0.6251938000000337,,,29,18,Man,Links,1,
,dotcolour,dotcolour,dotcolour,59,3,239,239,main,positivefb,-99,hard,36,0.766543200000342,['c'],0,right,['9'],5,0.31473019999975804,,,29,18,Man,Links,1,
,dotcolour,dotcolour,dotcolour,0,4,240,240,main,positivefb,-99,average,27,0.8010828999999831,['n'],1,right,['9'],5,0.34112740000000485,,,29,18,Man,Links,1,
,dotcolour,dotcolour,dotcolour,1,4,241,241,main,positivefb,-99,average,53,0.484582699999919,['c'],1,left,['9'],5,0.3648635999998078,,,29,18,Man,Links,1,
,dotcolour,dotcolour,dotcolour,2,4,242,242,main,positivefb,-99,average,25,0.5347501999999622,['n'],1,right,['0'],6,0.2979175000000396,,,29,18,Man,Links,1,
,dotcolour,dotcolour,dotcolour,3,4,243,243,main,positivefb,-99,hard,41,0.549844099999973,['c'],1,left,['9'],5,0.3443876999999702,,,29,18,Man,Links,1,
,dotcolour,dotcolour,dotcolour,4,4,244,244,main,positivefb,-99,easy,17,0.6680727000002662,['c'],0,right,['1'],1,1.4811990999996851,,,29,18,Man,Links,1,
,dotcolour,dotcolour,dotcolour,5,4,245,245,main,positivefb,-99,easy,63,0.8018661000000975,['c'],1,left,['0'],6,0.6549422000002778,,,29,18,Man,Links,1,
,dotcolour,dotcolour,dotcolour,6,4,246,246,main,positivefb,-99,easy,63,0.9341048999999657,['c'],1,left,['0'],6,1.152141699999902,,,29,18,Man,Links,1,
,dotcolour,dotcolour,dotcolour,7,4,247,247,main,positivefb,-99,easy,62,0.8510916999998699,['c'],1,left,['9'],5,0.37656650000008085,,,29,18,Man,Links,1,
,dotcolour,dotcolour,dotcolour,8,4,248,248,main,positivefb,-99,hard,37,0.8335863000002064,['n'],1,right,['9'],5,0.4093032000000676,,,29,18,Man,Links,1,
,dotcolour,dotcolour,dotcolour,9,4,249,249,main,positivefb,-99,hard,36,1.2174903000000086,['n'],1,right,['9'],5,0.32919300000003204,,,29,18,Man,Links,1,
,dotcolour,dotcolour,dotcolour,10,4,250,250,main,positivefb,-99,easy,16,0.7683795000002647,['n'],1,right,['0'],6,0.3023822000000109,,,29,18,Man,Links,1,
,dotcolour,dotcolour,dotcolour,11,4,251,251,main,positivefb,-99,hard,37,1.3676682000000255,['c'],0,right,['9'],5,0.44446609999977227,,,29,18,Man,Links,1,
,dotcolour,dotcolour,dotcolour,12,4,252,252,main,positivefb,-99,hard,43,0.7177167999998346,['n'],0,left,['0'],6,0.2951853000004121,,,29,18,Man,Links,1,
,dotcolour,dotcolour,dotcolour,13,4,253,253,main,positivefb,-99,easy,61,1.1678243000001203,['n'],0,left,['0'],6,0.44632799999999406,,,29,18,Man,Links,1,
,dotcolour,dotcolour,dotcolour,14,4,254,254,main,positivefb,-99,average,51,1.3517651000001933,['c'],1,left,['9'],5,0.34363359999997556,,,29,18,Man,Links,1,
,dotcolour,dotcolour,dotcolour,15,4,255,255,main,positivefb,-99,hard,35,0.6850024000000303,['n'],1,right,['9'],5,0.2956669000000147,,,29,18,Man,Links,1,
,dotcolour,dotcolour,dotcolour,16,4,256,256,main,positivefb,-99,average,52,0.6175125999998272,['c'],1,left,['9'],5,0.26828489999979865,,,29,18,Man,Links,1,
,dotcolour,dotcolour,dotcolour,17,4,257,257,main,positivefb,-99,hard,45,0.6347710999998526,['c'],1,left,['0'],6,0.26550889999998617,,,29,18,Man,Links,1,
,dotcolour,dotcolour,dotcolour,18,4,258,258,main,positivefb,-99,hard,44,0.5672626999999011,['c'],1,left,['8'],4,0.4645255000000361,,,29,18,Man,Links,1,
,dotcolour,dotcolour,dotcolour,19,4,259,259,main,positivefb,-99,easy,65,0.6519687999998496,['c'],1,left,['8'],4,0.6682949000000917,,,29,18,Man,Links,1,
,dotcolour,dotcolour,dotcolour,20,4,260,260,main,positivefb,-99,average,29,0.9834479000001011,['n'],1,right,['0'],6,0.29860269999971933,,,29,18,Man,Links,1,
,dotcolour,dotcolour,dotcolour,21,4,261,261,main,positivefb,-99,easy,18,0.7344701000001805,['n'],1,right,['0'],6,0.34665869999980714,,,29,18,Man,Links,1,
,dotcolour,dotcolour,dotcolour,22,4,262,262,main,positivefb,-99,hard,41,0.767576299999746,['c'],1,left,['0'],6,0.27099090000001524,,,29,18,Man,Links,1,
,dotcolour,dotcolour,dotcolour,23,4,263,263,main,positivefb,-99,easy,17,0.684607799999867,['n'],1,right,['9'],5,0.3380532999999559,,,29,18,Man,Links,1,
,dotcolour,dotcolour,dotcolour,24,4,264,264,main,positivefb,-99,easy,18,0.6512824000001274,['n'],1,right,['8'],4,0.2669326000000183,,,29,18,Man,Links,1,
,dotcolour,dotcolour,dotcolour,25,4,265,265,main,positivefb,-99,easy,61,0.618047899999965,['c'],1,left,['8'],4,0.35271400000010544,,,29,18,Man,Links,1,
,dotcolour,dotcolour,dotcolour,26,4,266,266,main,positivefb,-99,easy,64,0.5838177000000542,['c'],1,left,['0'],6,0.32424459999992905,,,29,18,Man,Links,1,
,dotcolour,dotcolour,dotcolour,27,4,267,267,main,positivefb,-99,easy,18,0.7008500000001732,['n'],1,right,['0'],6,0.2679920000000493,,,29,18,Man,Links,1,
,dotcolour,dotcolour,dotcolour,28,4,268,268,main,positivefb,-99,average,52,0.6850380000000769,['c'],1,left,['9'],5,0.2947276999998394,,,29,18,Man,Links,1,
,dotcolour,dotcolour,dotcolour,29,4,269,269,main,positivefb,-99,average,52,0.6497081999996226,['c'],1,left,['9'],5,0.3855921999997918,,,29,18,Man,Links,1,
,dotcolour,dotcolour,dotcolour,30,4,270,270,main,positivefb,-99,hard,35,0.7003650999999991,['n'],1,right,['0'],6,0.3431188999998085,,,29,18,Man,Links,1,
,dotcolour,dotcolour,dotcolour,31,4,271,271,main,positivefb,-99,average,29,0.7839100000001054,['n'],1,right,['8'],4,0.3637308999996094,,,29,18,Man,Links,1,
,dotcolour,dotcolour,dotcolour,32,4,272,272,main,positivefb,-99,average,27,0.799992100000054,['n'],1,right,['8'],4,0.4385709000002862,,,29,18,Man,Links,1,
,dotcolour,dotcolour,dotcolour,33,4,273,273,main,positivefb,-99,average,54,0.767331699999886,['c'],1,left,['9'],5,0.35059350000028644,,,29,18,Man,Links,1,
,dotcolour,dotcolour,dotcolour,34,4,274,274,main,positivefb,-99,easy,65,0.8683016999998472,['c'],1,left,['0'],6,0.28694240000004356,,,29,18,Man,Links,1,
,dotcolour,dotcolour,dotcolour,35,4,275,275,main,positivefb,-99,easy,64,0.6008240000001024,['c'],1,left,['0'],6,0.23575179999988904,,,29,18,Man,Links,1,
,dotcolour,dotcolour,dotcolour,36,4,276,276,main,positivefb,-99,hard,42,0.6682298000000628,['n'],0,left,['0'],6,0.20053390000020954,,,29,18,Man,Links,1,
,dotcolour,dotcolour,dotcolour,37,4,277,277,main,positivefb,-99,easy,15,0.651405000000068,['n'],1,right,['0'],6,0.23932799999965937,,,29,18,Man,Links,1,
,dotcolour,dotcolour,dotcolour,38,4,278,278,main,positivefb,-99,average,28,0.550957500000095,['c'],0,right,['9'],5,0.2564377999997305,,,29,18,Man,Links,1,
,dotcolour,dotcolour,dotcolour,39,4,279,279,main,positivefb,-99,hard,39,0.6504625999996279,['c'],0,right,['1'],1,1.8379423999999744,,,29,18,Man,Links,1,
,dotcolour,dotcolour,dotcolour,40,4,280,280,main,positivefb,-99,average,29,0.9175866999999016,['n'],1,right,['9'],5,0.33597599999984595,,,29,18,Man,Links,1,
,dotcolour,dotcolour,dotcolour,41,4,281,281,main,positivefb,-99,hard,38,0.783435300000292,['c'],0,right,['1'],1,1.5884447000003092,,,29,18,Man,Links,1,
,dotcolour,dotcolour,dotcolour,42,4,282,282,main,positivefb,-99,hard,42,0.8680676999997559,['n'],0,left,['9'],5,0.33911570000009306,,,29,18,Man,Links,1,
,dotcolour,dotcolour,dotcolour,43,4,283,283,main,positivefb,-99,easy,16,0.7834364999998797,['n'],1,right,['0'],6,0.31910130000005665,,,29,18,Man,Links,1,
,dotcolour,dotcolour,dotcolour,44,4,284,284,main,positivefb,-99,average,28,0.7183876999997665,['n'],1,right,['0'],6,0.3100770000000921,,,29,18,Man,Links,1,
,dotcolour,dotcolour,dotcolour,45,4,285,285,main,positivefb,-99,average,51,0.9346058000000994,['n'],0,left,['9'],5,1.1735192000001007,,,29,18,Man,Links,1,
,dotcolour,dotcolour,dotcolour,46,4,286,286,main,positivefb,-99,hard,37,1.0182380999999623,['n'],1,right,['9'],5,0.3026577999999063,,,29,18,Man,Links,1,
,dotcolour,dotcolour,dotcolour,47,4,287,287,main,positivefb,-99,hard,36,0.9179360999996788,['n'],1,right,['9'],5,0.24699310000005426,,,29,18,Man,Links,1,
,dotcolour,dotcolour,dotcolour,48,4,288,288,main,positivefb,-99,hard,43,1.2164156000003459,['c'],1,left,['0'],6,0.4769168999996509,,,29,18,Man,Links,1,
,dotcolour,dotcolour,dotcolour,49,4,289,289,main,positivefb,-99,average,52,0.7350283999999192,['c'],1,left,['0'],6,0.42205609999973603,,,29,18,Man,Links,1,
,dotcolour,dotcolour,dotcolour,50,4,290,290,main,positivefb,-99,hard,42,0.8336425000002237,['n'],0,left,['9'],5,0.3089304000000084,,,29,18,Man,Links,1,
,dotcolour,dotcolour,dotcolour,51,4,291,291,main,positivefb,-99,easy,17,0.784554400000161,['n'],1,right,['0'],6,0.3057002000000466,,,29,18,Man,Links,1,
,dotcolour,dotcolour,dotcolour,52,4,292,292,main,positivefb,-99,average,27,0.8513408000003437,['n'],1,right,['0'],6,0.39669389999971827,,,29,18,Man,Links,1,
,dotcolour,dotcolour,dotcolour,53,4,293,293,main,positivefb,-99,easy,19,0.884306099999776,['n'],1,right,['9'],5,0.5546706999998605,,,29,18,Man,Links,1,
,dotcolour,dotcolour,dotcolour,54,4,294,294,main,positivefb,-99,average,53,0.8178957999998602,['c'],1,left,['9'],5,0.3086124999999811,,,29,18,Man,Links,1,
,dotcolour,dotcolour,dotcolour,55,4,295,295,main,positivefb,-99,hard,43,0.8677938000000722,['n'],0,left,['9'],5,0.4223437999999078,,,29,18,Man,Links,1,
,dotcolour,dotcolour,dotcolour,56,4,296,296,main,positivefb,-99,average,53,0.7352922000000035,['c'],1,left,['0'],6,0.23353899999983696,,,29,18,Man,Links,1,
,dotcolour,dotcolour,dotcolour,57,4,297,297,main,positivefb,-99,average,28,1.901082200000019,['n'],1,right,['9'],5,0.25243389999968713,,,29,18,Man,Links,1,
,dotcolour,dotcolour,dotcolour,58,4,298,298,main,positivefb,-99,easy,61,0.7179126999999426,['c'],1,left,['9'],5,0.2071488000001409,,,29,18,Man,Links,1,
,dotcolour,dotcolour,dotcolour,59,4,299,299,main,positivefb,-99,hard,37,1.0674270999998043,['n'],1,right,['9'],5,0.2529122000000825,,,29,18,Man,Links,1,
,dotcolour,dotcolour,dotcolour,0,0,0,300,training,positivefb,94,average,25,0.7841639999996914,['n'],1,right,['9'],5,0.269150499999796,,,29,18,Man,Links,1,
,dotcolour,dotcolour,dotcolour,1,0,1,301,training,positivefb,99,average,53,0.5336099000001013,['c'],1,left,['9'],5,0.30102519999991273,,,29,18,Man,Links,1,
,dotcolour,dotcolour,dotcolour,2,0,2,302,training,positivefb,99,easy,19,0.617906800000128,['n'],1,right,['9'],5,0.30462160000024596,,,29,18,Man,Links,1,
,dotcolour,dotcolour,dotcolour,3,0,3,303,training,positivefb,99,easy,61,0.6014453999996476,['c'],1,left,['0'],6,0.46028759999990143,,,29,18,Man,Links,1,
,dotcolour,dotcolour,dotcolour,4,0,4,304,training,positivefb,97,hard,45,0.7508036999997785,['c'],1,left,['9'],5,0.252679100000023,,,29,18,Man,Links,1,
,dotcolour,dotcolour,dotcolour,5,0,5,305,training,positivefb,95,average,53,0.5181622999998581,['c'],1,left,['9'],5,0.23791839999967124,,,29,18,Man,Links,1,
,dotcolour,dotcolour,dotcolour,6,0,6,306,training,positivefb,97,average,27,0.6832028999997419,['n'],1,right,['0'],6,0.28070290000005116,,,29,18,Man,Links,1,
,dotcolour,dotcolour,dotcolour,7,0,7,307,training,positivefb,84,hard,39,0.8154546999999184,['n'],1,right,['9'],5,0.3087356000000909,,,29,18,Man,Links,1,
,dotcolour,dotcolour,dotcolour,8,0,8,308,training,positivefb,83,hard,38,0.9323417999999037,['c'],0,right,['9'],5,0.2282823999998982,,,29,18,Man,Links,1,
,dotcolour,dotcolour,dotcolour,9,0,9,309,training,positivefb,86,hard,37,0.7836704999999711,['c'],0,right,['9'],5,0.7240502999998171,,,29,18,Man,Links,1,
,dotcolour,dotcolour,dotcolour,10,0,10,310,training,positivefb,83,hard,37,2.0169872999999825,['n'],1,right,['0'],6,0.4226134999998976,,,29,18,Man,Links,1,
,dotcolour,dotcolour,dotcolour,11,0,11,311,training,positivefb,90,easy,65,0.8678604000001542,['c'],1,left,['0'],6,0.14786110000022745,,,29,18,Man,Links,1,
,dotcolour,dotcolour,dotcolour,12,0,12,312,training,positivefb,96,hard,45,1.2991486999999324,['n'],0,left,['9'],5,0.2739969999997811,,,29,18,Man,Links,1,
,dotcolour,dotcolour,dotcolour,13,0,13,313,training,positivefb,16,easy,18,0.7000053000001571,['c'],0,right,['1'],1,1.8109976000000643,,,29,18,Man,Links,1,
,dotcolour,dotcolour,dotcolour,14,0,14,314,training,positivefb,99,average,54,0.8172733999999764,['c'],1,left,['0'],6,0.24958729999980278,,,29,18,Man,Links,1,
,dotcolour,dotcolour,dotcolour,15,0,15,315,training,positivefb,86,easy,63,0.5332023000000845,['c'],1,left,['0'],6,0.2904897999997047,,,29,18,Man,Links,1,
,dotcolour,dotcolour,dotcolour,16,0,16,316,training,positivefb,99,average,55,0.6006684000003588,['c'],1,left,['0'],6,0.13524619999998322,,,29,18,Man,Links,1,
,dotcolour,dotcolour,dotcolour,17,0,17,317,training,positivefb,95,easy,18,0.5672765999997864,['n'],1,right,['0'],6,0.2751903999997012,,,29,18,Man,Links,1,
,dotcolour,dotcolour,dotcolour,18,0,18,318,training,positivefb,96,hard,44,0.9170767000000524,['c'],1,left,['9'],5,0.21196999999983746,,,29,18,Man,Links,1,
,dotcolour,dotcolour,dotcolour,19,0,19,319,training,positivefb,98,hard,45,0.784260699999777,['c'],1,left,['9'],5,0.17294749999973646,,,29,18,Man,Links,1,
,dotcolour,dotcolour,dotcolour,20,0,20,320,training,positivefb,18,average,29,0.6163188000000446,['c'],0,right,['1'],1,1.7497079999998277,,,29,18,Man,Links,1,
,dotcolour,dotcolour,dotcolour,21,0,21,321,training,positivefb,88,hard,41,0.7995058999999856,['n'],0,left,['8'],4,0.9105263999999806,,,29,18,Man,Links,1,
,dotcolour,dotcolour,dotcolour,22,0,22,322,training,positivefb,98,average,51,0.7665998000002219,['c'],1,left,['9'],5,0.3646585999999843,,,29,18,Man,Links,1,
,dotcolour,dotcolour,dotcolour,23,0,23,323,training,positivefb,83,easy,18,0.7329663000000437,['n'],1,right,['9'],5,0.22444510000013906,,,29,18,Man,Links,1,
,dotcolour,dotcolour,dotcolour,24,0,24,324,training,positivefb,91,average,52,1.234078700000282,['c'],1,left,['9'],5,0.24620740000000296,,,29,18,Man,Links,1,
,dotcolour,dotcolour,dotcolour,25,0,25,325,training,positivefb,84,hard,45,0.7669435999996495,['n'],0,left,['9'],5,0.2944854000002124,,,29,18,Man,Links,1,
,dotcolour,dotcolour,dotcolour,26,0,26,326,training,positivefb,87,average,54,0.6006265000000894,['n'],0,left,['0'],6,0.25891520000004675,,,29,18,Man,Links,1,
,dotcolour,dotcolour,dotcolour,27,0,27,327,training,positivefb,84,average,27,0.866330399999697,['c'],0,right,['9'],5,0.25458709999975326,,,29,18,Man,Links,1,
,dotcolour,dotcolour,dotcolour,28,0,28,328,training,positivefb,66,hard,38,0.5666598000002523,['c'],0,right,['8'],4,0.7420280000001185,,,29,18,Man,Links,1,
,dotcolour,dotcolour,dotcolour,29,0,29,329,training,positivefb,97,hard,41,0.8495628000000579,['c'],1,left,['9'],5,0.5345812000000478,,,29,18,Man,Links,1,
,dotcolour,dotcolour,dotcolour,30,0,30,330,training,positivefb,87,hard,36,0.6505105999999614,['n'],1,right,['0'],6,0.29535260000011476,,,29,18,Man,Links,1,
,dotcolour,dotcolour,dotcolour,31,0,31,331,training,positivefb,84,average,52,0.9680478999998741,['c'],1,left,['9'],5,0.33311779999985447,,,29,18,Man,Links,1,
,dotcolour,dotcolour,dotcolour,32,0,32,332,training,positivefb,94,hard,42,0.6169409999997697,['c'],1,left,['9'],5,0.2962462000000414,,,29,18,Man,Links,1,
,dotcolour,dotcolour,dotcolour,33,0,33,333,training,positivefb,90,hard,37,0.5828507000001082,['c'],0,right,['9'],5,0.3487759000004189,,,29,18,Man,Links,1,
,dotcolour,dotcolour,dotcolour,34,0,34,334,training,positivefb,100,easy,63,0.49963770000022123,['c'],1,left,['9'],5,0.33164799999985917,,,29,18,Man,Links,1,
,dotcolour,dotcolour,dotcolour,35,0,35,335,training,positivefb,94,hard,36,0.7663488999996844,['n'],1,right,['9'],5,0.21435040000005756,,,29,18,Man,Links,1,
,dotcolour,dotcolour,dotcolour,36,0,36,336,training,positivefb,87,easy,62,0.7339345000000321,['c'],1,left,['0'],6,0.28884960000004867,,,29,18,Man,Links,1,
,dotcolour,dotcolour,dotcolour,37,0,37,337,training,positivefb,93,average,29,1.0172982000003685,['n'],1,right,['0'],6,0.2768952999999783,,,29,18,Man,Links,1,
,dotcolour,dotcolour,dotcolour,38,0,38,338,training,positivefb,98,average,27,0.7337982999997621,['n'],1,right,['0'],6,0.19657050000023446,,,29,18,Man,Links,1,
,dotcolour,dotcolour,dotcolour,39,0,39,339,training,positivefb,98,easy,18,0.7507458000000042,['n'],1,right,['9'],5,0.21608259999993606,,,29,18,Man,Links,1,
,dotcolour,dotcolour,dotcolour,40,0,40,340,training,positivefb,96,easy,19,0.6007747000003292,['n'],1,right,['0'],6,0.28709680000019944,,,29,18,Man,Links,1,
,dotcolour,dotcolour,dotcolour,41,0,41,341,training,positivefb,98,easy,16,0.566949300000033,['n'],1,right,['0'],6,0.2206079000002319,,,29,18,Man,Links,1,
,dotcolour,dotcolour,dotcolour,42,0,42,342,training,positivefb,98,easy,63,0.6167987999997422,['c'],1,left,['9'],5,0.2681790000001456,,,29,18,Man,Links,1,
,dotcolour,dotcolour,dotcolour,43,0,43,343,training,positivefb,98,average,28,0.7498008000002301,['n'],1,right,['9'],5,0.15483270000004268,,,29,18,Man,Links,1,
,dotcolour,dotcolour,dotcolour,44,0,44,344,training,positivefb,80,easy,62,0.6835854999999356,['n'],0,left,['9'],5,0.19344279999995706,,,29,18,Man,Links,1,
,dotcolour,dotcolour,dotcolour,45,0,45,345,training,positivefb,73,average,27,0.5164130999996814,['c'],0,right,['1'],1,0.8695760000000519,,,29,18,Man,Links,1,
,dotcolour,dotcolour,dotcolour,46,0,46,346,training,positivefb,95,average,25,0.49967049999986557,['n'],1,right,['9'],5,0.3269422999997005,,,29,18,Man,Links,1,
,dotcolour,dotcolour,dotcolour,47,0,47,347,training,positivefb,92,average,54,0.8167112000000998,['c'],1,left,['9'],5,0.20194720000017696,,,29,18,Man,Links,1,
,dotcolour,dotcolour,dotcolour,48,0,48,348,training,positivefb,96,easy,61,0.6325873000000684,['c'],1,left,['9'],5,0.24872830000003887,,,29,18,Man,Links,1,
,dotcolour,dotcolour,dotcolour,49,0,49,349,training,positivefb,86,easy,61,0.6672650000000431,['c'],1,left,['0'],6,0.18778810000003432,,,29,18,Man,Links,1,
,dotcolour,dotcolour,dotcolour,50,0,50,350,training,positivefb,97,easy,17,0.7167222000002766,['n'],1,right,['9'],5,0.15967589999991105,,,29,18,Man,Links,1,
,dotcolour,dotcolour,dotcolour,51,0,51,351,training,positivefb,75,hard,44,0.8668130999999448,['c'],1,left,['9'],5,0.11928609999995388,,,29,18,Man,Links,1,
,dotcolour,dotcolour,dotcolour,52,0,52,352,training,positivefb,85,hard,38,0.6668687000001228,['n'],1,right,['9'],5,0.199986699999954,,,29,18,Man,Links,1,
,dotcolour,dotcolour,dotcolour,53,0,53,353,training,positivefb,90,hard,38,0.8994943000002422,['n'],1,right,['0'],6,0.17990670000017417,,,29,18,Man,Links,1,
,dotcolour,dotcolour,dotcolour,54,0,54,354,training,positivefb,87,average,28,0.8000050000000556,['c'],0,right,['9'],5,0.17300239999985934,,,29,18,Man,Links,1,
,dotcolour,dotcolour,dotcolour,55,0,55,355,training,positivefb,73,average,52,0.5499329999997826,['c'],1,left,['0'],6,0.24004530000001978,,,29,18,Man,Links,1,
,dotcolour,dotcolour,dotcolour,56,0,56,356,training,positivefb,95,easy,16,0.7503225000000384,['n'],1,right,['9'],5,0.14480839999987438,,,29,18,Man,Links,1,
,dotcolour,dotcolour,dotcolour,57,0,57,357,training,positivefb,89,hard,43,0.7662657000000763,['n'],0,left,['9'],5,0.20473770000035074,,,29,18,Man,Links,1,
,dotcolour,dotcolour,dotcolour,58,0,58,358,training,positivefb,97,easy,62,0.6838654000002862,['n'],0,left,['1'],1,1.0742103999996289,,,29,18,Man,Links,1,
,dotcolour,dotcolour,dotcolour,59,0,59,359,training,positivefb,97,easy,19,1.8680466000000706,['n'],1,right,['9'],5,0.24484309999979814,,,29,18,Man,Links,1,
,dotcolour,dotcolour,dotcolour,0,1,60,360,training,positivefb,96,average,51,0.884294399999817,['c'],1,left,['9'],5,0.3853932000001805,,,29,18,Man,Links,1,
,dotcolour,dotcolour,dotcolour,1,1,61,361,training,positivefb,97,average,26,0.6664593000000423,['n'],1,right,['0'],6,2.2709104999999,,,29,18,Man,Links,1,
,dotcolour,dotcolour,dotcolour,2,1,62,362,training,positivefb,95,easy,63,1.3995515000001433,['c'],1,left,['9'],5,0.2597606999997879,,,29,18,Man,Links,1,
,dotcolour,dotcolour,dotcolour,3,1,63,363,training,positivefb,55,average,27,4.767053399999895,['n'],1,right,['9'],5,0.37157499999966603,,,29,18,Man,Links,1,
,dotcolour,dotcolour,dotcolour,4,1,64,364,training,positivefb,100,easy,17,0.900141099999928,['n'],1,right,['0'],6,2.448673299999882,,,29,18,Man,Links,1,
,dotcolour,dotcolour,dotcolour,5,1,65,365,training,positivefb,97,average,53,0.8998467000001256,['c'],1,left,['9'],5,0.4341449999997167,,,29,18,Man,Links,1,
,dotcolour,dotcolour,dotcolour,6,1,66,366,training,positivefb,85,hard,35,1.3664784000002328,['n'],1,right,['9'],5,0.21806459999970684,,,29,18,Man,Links,1,
,dotcolour,dotcolour,dotcolour,7,1,67,367,training,positivefb,96,average,25,0.8336474999996426,['n'],1,right,['9'],5,0.20838550000007672,,,29,18,Man,Links,1,
,dotcolour,dotcolour,dotcolour,8,1,68,368,training,positivefb,76,easy,18,1.5495694999999614,['n'],1,right,['0'],6,0.25073010000005524,,,29,18,Man,Links,1,
,dotcolour,dotcolour,dotcolour,9,1,69,369,training,positivefb,88,average,27,0.8491401000001133,['c'],0,right,['9'],5,0.18160480000005919,,,29,18,Man,Links,1,
,dotcolour,dotcolour,dotcolour,10,1,70,370,training,positivefb,95,easy,19,0.44962149999992107,['n'],1,right,['9'],5,0.308954999999969,,,29,18,Man,Links,1,
,dotcolour,dotcolour,dotcolour,11,1,71,371,training,positivefb,81,hard,37,0.9675783000002411,['c'],0,right,['9'],5,0.1381734999999935,,,29,18,Man,Links,1,
,dotcolour,dotcolour,dotcolour,12,1,72,372,training,positivefb,86,easy,15,0.6162325999998757,['n'],1,right,['9'],5,0.33256759999994756,,,29,18,Man,Links,1,
,dotcolour,dotcolour,dotcolour,13,1,73,373,training,positivefb,90,hard,35,0.9671551999999792,['c'],0,right,['9'],5,0.456331500000033,,,29,18,Man,Links,1,
,dotcolour,dotcolour,dotcolour,14,1,74,374,training,positivefb,92,average,28,0.7833200999998553,['n'],1,right,['9'],5,0.22322320000012041,,,29,18,Man,Links,1,
,dotcolour,dotcolour,dotcolour,15,1,75,375,training,positivefb,86,hard,44,1.0838221999997586,['c'],1,left,['0'],6,0.2272928999996111,,,29,18,Man,Links,1,
,dotcolour,dotcolour,dotcolour,16,1,76,376,training,positivefb,90,hard,39,0.7174220000001696,['c'],0,right,['9'],5,0.20554420000007667,,,29,18,Man,Links,1,
,dotcolour,dotcolour,dotcolour,17,1,77,377,training,positivefb,95,hard,39,0.7998898000000736,['c'],0,right,['9'],5,0.22943910000003598,,,29,18,Man,Links,1,
,dotcolour,dotcolour,dotcolour,18,1,78,378,training,positivefb,98,easy,61,0.7173210999999355,['c'],1,left,['8'],4,0.192240700000184,,,29,18,Man,Links,1,
,dotcolour,dotcolour,dotcolour,19,1,79,379,training,positivefb,76,hard,39,0.7835872000000563,['c'],0,right,['0'],6,0.4812762000001385,,,29,18,Man,Links,1,
,dotcolour,dotcolour,dotcolour,20,1,80,380,training,positivefb,86,easy,19,0.7175320999999713,['c'],0,right,['9'],5,0.2740222999996149,,,29,18,Man,Links,1,
,dotcolour,dotcolour,dotcolour,21,1,81,381,training,positivefb,95,average,51,0.6996617999998307,['c'],1,left,['9'],5,0.2751686999999947,,,29,18,Man,Links,1,
,dotcolour,dotcolour,dotcolour,22,1,82,382,training,positivefb,77,hard,41,0.733870499999739,['c'],1,left,['9'],5,0.22679090000019642,,,29,18,Man,Links,1,
,dotcolour,dotcolour,dotcolour,23,1,83,383,training,positivefb,97,average,29,1.066490299999714,['n'],1,right,['0'],6,0.3681714999997894,,,29,18,Man,Links,1,
,dotcolour,dotcolour,dotcolour,24,1,84,384,training,positivefb,78,hard,43,0.7000535999995918,['c'],1,left,['9'],5,0.25344129999984943,,,29,18,Man,Links,1,
,dotcolour,dotcolour,dotcolour,25,1,85,385,training,positivefb,90,hard,38,0.7339087000000291,['c'],0,right,['9'],5,0.21433410000008735,,,29,18,Man,Links,1,
,dotcolour,dotcolour,dotcolour,26,1,86,386,training,positivefb,83,hard,37,0.5344140000001971,['c'],0,right,['9'],5,0.26423460000023624,,,29,18,Man,Links,1,
,dotcolour,dotcolour,dotcolour,27,1,87,387,training,positivefb,76,average,29,0.7848139000002448,['c'],0,right,['0'],6,0.3342379000000619,,,29,18,Man,Links,1,
,dotcolour,dotcolour,dotcolour,28,1,88,388,training,positivefb,96,average,55,1.4171105000000352,['c'],1,left,['9'],5,0.4161733999999342,,,29,18,Man,Links,1,
,dotcolour,dotcolour,dotcolour,29,1,89,389,training,positivefb,84,easy,64,1.0669097999998485,['c'],1,left,['0'],6,0.7730684000002839,,,29,18,Man,Links,1,
,dotcolour,dotcolour,dotcolour,30,1,90,390,training,positivefb,73,easy,64,0.6839617999999064,['c'],1,left,['0'],6,0.17898020000029646,,,29,18,Man,Links,1,
,dotcolour,dotcolour,dotcolour,31,1,91,391,training,positivefb,89,average,52,0.7837467999997898,['c'],1,left,['0'],6,0.1247985999998491,,,29,18,Man,Links,1,
,dotcolour,dotcolour,dotcolour,32,1,92,392,training,positivefb,97,easy,65,0.6667781999999534,['c'],1,left,['0'],6,0.12610850000010032,,,29,18,Man,Links,1,
,dotcolour,dotcolour,dotcolour,33,1,93,393,training,positivefb,80,average,25,0.9334483999996337,['n'],1,right,['9'],5,0.09164340000006632,,,29,18,Man,Links,1,
,dotcolour,dotcolour,dotcolour,34,1,94,394,training,positivefb,89,hard,38,1.0837102999998933,['n'],1,right,['9'],5,0.10131870000031995,,,29,18,Man,Links,1,
,dotcolour,dotcolour,dotcolour,35,1,95,395,training,positivefb,95,average,29,0.7668966000001092,['n'],1,right,['9'],5,0.13045969999984663,,,29,18,Man,Links,1,
,dotcolour,dotcolour,dotcolour,36,1,96,396,training,positivefb,84,easy,19,0.717191300000195,['n'],1,right,['9'],5,0.06531809999978577,,,29,18,Man,Links,1,
,dotcolour,dotcolour,dotcolour,37,1,97,397,training,positivefb,98,average,53,0.6835779999996703,['c'],1,left,['9'],5,0.2755840999998327,,,29,18,Man,Links,1,
,dotcolour,dotcolour,dotcolour,38,1,98,398,training,positivefb,89,easy,15,0.8659809000000678,['n'],1,right,['9'],5,0.1823045999999522,,,29,18,Man,Links,1,
,dotcolour,dotcolour,dotcolour,39,1,99,399,training,positivefb,94,hard,42,0.8330215999999382,['c'],1,left,['8'],4,0.16513339999983145,,,29,18,Man,Links,1,
,dotcolour,dotcolour,dotcolour,40,1,100,400,training,positivefb,98,easy,65,0.5167814000001272,['c'],1,left,['9'],5,0.20950439999978698,,,29,18,Man,Links,1,
,dotcolour,dotcolour,dotcolour,41,1,101,401,training,positivefb,91,average,28,0.7670487000000321,['n'],1,right,['9'],5,0.1391343999998753,,,29,18,Man,Links,1,
,dotcolour,dotcolour,dotcolour,42,1,102,402,training,positivefb,87,hard,41,0.6998761999998351,['c'],1,left,['9'],5,0.16255360000013752,,,29,18,Man,Links,1,
,dotcolour,dotcolour,dotcolour,43,1,103,403,training,positivefb,87,easy,15,0.7337006000002475,['n'],1,right,['9'],5,0.11086939999995593,,,29,18,Man,Links,1,
,dotcolour,dotcolour,dotcolour,44,1,104,404,training,positivefb,96,average,54,0.6333752000000459,['c'],1,left,['9'],5,0.16099560000020574,,,29,18,Man,Links,1,
,dotcolour,dotcolour,dotcolour,45,1,105,405,training,positivefb,90,hard,42,0.7668604000000414,['n'],0,left,['9'],5,0.1644000999999662,,,29,18,Man,Links,1,
,dotcolour,dotcolour,dotcolour,46,1,106,406,training,positivefb,73,average,55,0.5001586000003044,['c'],1,left,['9'],5,0.2742186999998921,,,29,18,Man,Links,1,
,dotcolour,dotcolour,dotcolour,47,1,107,407,training,positivefb,98,easy,19,0.6504927999999381,['n'],1,right,['9'],5,0.12613439999995535,,,29,18,Man,Links,1,
,dotcolour,dotcolour,dotcolour,48,1,108,408,training,positivefb,95,easy,64,0.8338049999997565,['c'],1,left,['9'],5,0.1193514999999934,,,29,18,Man,Links,1,
,dotcolour,dotcolour,dotcolour,49,1,109,409,training,positivefb,81,easy,18,0.8169079000003876,['n'],1,right,['9'],5,0.1701293999999507,,,29,18,Man,Links,1,
,dotcolour,dotcolour,dotcolour,50,1,110,410,training,positivefb,98,hard,39,0.7835955000000467,['n'],1,right,['9'],5,0.18004210000026433,,,29,18,Man,Links,1,
,dotcolour,dotcolour,dotcolour,51,1,111,411,training,positivefb,98,easy,64,0.8175317000000177,['c'],1,left,['9'],5,0.33307499999955326,,,29,18,Man,Links,1,
,dotcolour,dotcolour,dotcolour,52,1,112,412,training,positivefb,95,average,54,0.5170204000000922,['c'],1,left,['9'],5,0.250448900000265,,,29,18,Man,Links,1,
,dotcolour,dotcolour,dotcolour,53,1,113,413,training,positivefb,93,hard,45,0.917058999999881,['c'],1,left,['9'],5,0.1481951000000663,,,29,18,Man,Links,1,
,dotcolour,dotcolour,dotcolour,54,1,114,414,training,positivefb,94,average,51,0.5499598000001242,['c'],1,left,['9'],5,0.28836619999992763,,,29,18,Man,Links,1,
,dotcolour,dotcolour,dotcolour,55,1,115,415,training,positivefb,84,hard,41,0.7333637000001545,['c'],1,left,['9'],5,0.11921139999958541,,,29,18,Man,Links,1,
,dotcolour,dotcolour,dotcolour,56,1,116,416,training,positivefb,96,easy,64,0.582575800000086,['c'],1,left,['9'],5,0.25103260000014416,,,29,18,Man,Links,1,
,dotcolour,dotcolour,dotcolour,57,1,117,417,training,positivefb,95,easy,62,0.6005723000002945,['c'],1,left,['9'],5,0.16992979999986346,,,29,18,Man,Links,1,
,dotcolour,dotcolour,dotcolour,58,1,118,418,training,positivefb,85,hard,43,0.8327649999996538,['n'],0,left,['9'],5,0.12176450000015393,,,29,18,Man,Links,1,
,dotcolour,dotcolour,dotcolour,59,1,119,419,training,positivefb,85,hard,45,0.38319189999992886,['n'],0,left,['9'],5,0.3338917000000947,,,29,18,Man,Links,1,
,xotask,dotcolour,dotcolour,0,2,120,420,main,positivefb,-99,easy,,1.6010569000000032,['c'],1,left,['9'],5,0.8400005000003148,70,,29,18,Man,Links,1,
,xotask,dotcolour,dotcolour,1,2,121,421,main,positivefb,-99,hard,,0.9512509000001046,['n'],1,right,['9'],5,0.1773761999997987,25,,29,18,Man,Links,1,
,xotask,dotcolour,dotcolour,2,2,122,422,main,positivefb,-99,average,,0.7678596000000653,['n'],1,right,['9'],5,0.4766205999999329,18,,29,18,Man,Links,1,
,xotask,dotcolour,dotcolour,3,2,123,423,main,positivefb,-99,average,,0.7345175999998901,['c'],0,right,['9'],5,0.1652325000000019,16,,29,18,Man,Links,1,
,xotask,dotcolour,dotcolour,4,2,124,424,main,positivefb,-99,easy,,1.250818099999833,['c'],1,left,['8'],4,0.2451347999999598,71,,29,18,Man,Links,1,
,xotask,dotcolour,dotcolour,5,2,125,425,main,positivefb,-99,easy,,0.9176223999998001,['c'],0,right,['9'],5,0.18366629999991346,8,,29,18,Man,Links,1,
,xotask,dotcolour,dotcolour,6,2,126,426,main,positivefb,-99,average,,1.217411699999957,['n'],1,right,['9'],5,0.32051869999986593,19,,29,18,Man,Links,1,
,xotask,dotcolour,dotcolour,7,2,127,427,main,positivefb,-99,easy,,1.084369599999718,['n'],1,right,['0'],6,0.15315970000028756,6,,29,18,Man,Links,1,
,xotask,dotcolour,dotcolour,8,2,128,428,main,positivefb,-99,easy,,0.9024850000000697,['c'],1,left,['9'],5,0.37607040000011693,74,,29,18,Man,Links,1,
,xotask,dotcolour,dotcolour,9,2,129,429,main,positivefb,-99,average,,1.1843385000001945,['c'],1,left,['8'],4,0.25033829999983936,63,,29,18,Man,Links,1,
,xotask,dotcolour,dotcolour,10,2,130,430,main,positivefb,-99,average,,0.8514024999999492,['c'],1,left,['9'],5,0.8229617000001781,64,,29,18,Man,Links,1,
,xotask,dotcolour,dotcolour,11,2,131,431,main,positivefb,-99,easy,,1.5173843000002307,['n'],1,right,['9'],5,0.1866346000001613,5,,29,18,Man,Links,1,
,xotask,dotcolour,dotcolour,12,2,132,432,main,positivefb,-99,average,,1.0346635000000788,['c'],0,right,['8'],4,0.1785754000002271,15,,29,18,Man,Links,1,
,xotask,dotcolour,dotcolour,13,2,133,433,main,positivefb,-99,average,,1.0849488999997448,['c'],1,left,['9'],5,0.1371777999997903,62,,29,18,Man,Links,1,
,xotask,dotcolour,dotcolour,14,2,134,434,main,positivefb,-99,average,,1.2667953000000125,['n'],1,right,['9'],5,0.16215459999966697,15,,29,18,Man,Links,1,
,xotask,dotcolour,dotcolour,15,2,135,435,main,positivefb,-99,hard,,0.9674316999999064,['c'],1,left,['8'],4,0.1339962000001833,52,,29,18,Man,Links,1,
,xotask,dotcolour,dotcolour,16,2,136,436,main,positivefb,-99,average,,0.3004470000000765,['c'],1,left,['9'],5,0.46909950000008394,61,,29,18,Man,Links,1,
,xotask,dotcolour,dotcolour,17,2,137,437,main,positivefb,-99,easy,,1.117322300000069,['n'],1,right,['9'],5,0.2627834999998413,5,,29,18,Man,Links,1,
,xotask,dotcolour,dotcolour,18,2,138,438,main,positivefb,-99,hard,,1.4337722000000213,['c'],0,right,['9'],5,0.18044779999991079,26,,29,18,Man,Links,1,
,xotask,dotcolour,dotcolour,19,2,139,439,main,positivefb,-99,hard,,0.7678278000003047,['c'],1,left,['9'],5,0.16769430000022112,51,,29,18,Man,Links,1,
,xotask,dotcolour,dotcolour,20,2,140,440,main,positivefb,-99,hard,,0.6682716999998775,['c'],0,right,['8'],4,0.20658209999965038,25,,29,18,Man,Links,1,
,xotask,dotcolour,dotcolour,21,2,141,441,main,positivefb,-99,hard,,0.6007122000000891,['c'],1,left,['9'],5,0.1352815999998711,53,,29,18,Man,Links,1,
,xotask,dotcolour,dotcolour,22,2,142,442,main,positivefb,-99,average,,2.8178211999997984,['c'],0,right,['9'],5,0.9222414999999273,17,,29,18,Man,Links,1,
,xotask,dotcolour,dotcolour,23,2,143,443,main,positivefb,-99,easy,,0.7351458999996794,['c'],1,left,['9'],5,0.3525531000000228,72,,29,18,Man,Links,1,
,xotask,dotcolour,dotcolour,24,2,144,444,main,positivefb,-99,hard,,1.0344989000000169,['n'],0,left,['8'],4,0.22583809999969162,51,,29,18,Man,Links,1,
,xotask,dotcolour,dotcolour,25,2,145,445,main,positivefb,-99,hard,,0.8843624000001,['c'],0,right,['8'],4,0.22296920000007958,27,,29,18,Man,Links,1,
,xotask,dotcolour,dotcolour,26,2,146,446,main,positivefb,-99,average,,1.0009605000000192,['n'],1,right,['8'],4,0.23847870000008697,18,,29,18,Man,Links,1,
,xotask,dotcolour,dotcolour,27,2,147,447,main,positivefb,-99,easy,,0.7851402999999664,['n'],1,right,['0'],6,0.5902873999998519,7,,29,18,Man,Links,1,
,xotask,dotcolour,dotcolour,28,2,148,448,main,positivefb,-99,hard,,0.6835788999997021,['n'],1,right,['0'],6,0.21258269999998447,29,,29,18,Man,Links,1,
,xotask,dotcolour,dotcolour,29,2,149,449,main,positivefb,-99,hard,,0.8514496000002509,['n'],1,right,['0'],6,0.1796633999997539,28,,29,18,Man,Links,1,
,xotask,dotcolour,dotcolour,30,2,150,450,main,positivefb,-99,easy,,0.5685137000000395,['n'],1,right,['0'],6,0.2143748999997115,7,,29,18,Man,Links,1,
,xotask,dotcolour,dotcolour,31,2,151,451,main,positivefb,-99,hard,,0.7666490000001431,['c'],1,left,['9'],5,0.28808669999989434,51,,29,18,Man,Links,1,
,xotask,dotcolour,dotcolour,32,2,152,452,main,positivefb,-99,hard,,0.9514690000000883,['c'],1,left,['9'],5,0.2717855999999301,54,,29,18,Man,Links,1,
,xotask,dotcolour,dotcolour,33,2,153,453,main,positivefb,-99,easy,,0.7678181999999651,['c'],1,left,['0'],6,0.4303611999998793,73,,29,18,Man,Links,1,
,xotask,dotcolour,dotcolour,34,2,154,454,main,positivefb,-99,average,,0.9175753999998051,['c'],1,left,['0'],6,0.17015219999984765,64,,29,18,Man,Links,1,
,xotask,dotcolour,dotcolour,35,2,155,455,main,positivefb,-99,easy,,1.1178367000002254,['c'],1,left,['9'],5,0.383345200000349,70,,29,18,Man,Links,1,
,xotask,dotcolour,dotcolour,36,2,156,456,main,positivefb,-99,hard,,0.7339594000000034,['c'],1,left,['9'],5,0.31551330000002054,50,,29,18,Man,Links,1,
,xotask,dotcolour,dotcolour,37,2,157,457,main,positivefb,-99,hard,,0.6674915999997211,['c'],0,right,['9'],5,1.1407461999997395,29,,29,18,Man,Links,1,
,xotask,dotcolour,dotcolour,38,2,158,458,main,positivefb,-99,average,,0.8499969000004057,['n'],0,left,['9'],5,0.4942364999997153,63,,29,18,Man,Links,1,
,xotask,dotcolour,dotcolour,39,2,159,459,main,positivefb,-99,easy,,0.6841093999996701,['n'],0,left,['9'],5,0.7367151000003105,72,,29,18,Man,Links,1,
,xotask,dotcolour,dotcolour,40,2,160,460,main,positivefb,-99,hard,,0.8006219999997484,['c'],0,right,['9'],5,0.1798687999998947,28,,29,18,Man,Links,1,
,xotask,dotcolour,dotcolour,41,2,161,461,main,positivefb,-99,hard,,1.1510095000003275,['c'],1,left,['9'],5,0.20752909999964686,52,,29,18,Man,Links,1,
,xotask,dotcolour,dotcolour,42,2,162,462,main,positivefb,-99,hard,,1.2016560000001846,['n'],1,right,['9'],5,0.26479630000039833,29,,29,18,Man,Links,1,
,xotask,dotcolour,dotcolour,43,2,163,463,main,positivefb,-99,hard,,0.7670004999999946,['c'],1,left,['9'],5,0.23157309999987774,54,,29,18,Man,Links,1,
,xotask,dotcolour,dotcolour,44,2,164,464,main,positivefb,-99,easy,,0.7509039000001394,['n'],1,right,['9'],5,0.3289134000001468,9,,29,18,Man,Links,1,
,xotask,dotcolour,dotcolour,45,2,165,465,main,positivefb,-99,average,,0.6841391000002659,['n'],1,right,['8'],4,0.34592949999978373,19,,29,18,Man,Links,1,
,xotask,dotcolour,dotcolour,46,2,166,466,main,positivefb,-99,average,,0.817467399999714,['c'],1,left,['9'],5,0.2922859000000244,63,,29,18,Man,Links,1,
,xotask,dotcolour,dotcolour,47,2,167,467,main,positivefb,-99,average,,1.1512170000000879,['c'],0,right,['0'],6,0.23564149999992878,16,,29,18,Man,Links,1,
,xotask,dotcolour,dotcolour,48,2,168,468,main,positivefb,-99,average,,0.8845909000001484,['c'],1,left,['9'],5,0.27948109999988446,62,,29,18,Man,Links,1,
,xotask,dotcolour,dotcolour,49,2,169,469,main,positivefb,-99,average,,0.7678004999997938,['c'],1,left,['0'],6,0.48652279999987513,63,,29,18,Man,Links,1,
,xotask,dotcolour,dotcolour,50,2,170,470,main,positivefb,-99,average,,0.7511710000003404,['c'],1,left,['0'],6,0.19861829999990732,62,,29,18,Man,Links,1,
,xotask,dotcolour,dotcolour,51,2,171,471,main,positivefb,-99,easy,,0.6836665999999241,['c'],1,left,['0'],6,0.1711609999997563,74,,29,18,Man,Links,1,
,xotask,dotcolour,dotcolour,52,2,172,472,main,positivefb,-99,average,,1.0345801999997093,['n'],1,right,['9'],5,0.14849080000021786,18,,29,18,Man,Links,1,
,xotask,dotcolour,dotcolour,53,2,173,473,main,positivefb,-99,easy,,0.967450000000099,['c'],1,left,['0'],6,0.10394450000012512,71,,29,18,Man,Links,1,
,xotask,dotcolour,dotcolour,54,2,174,474,main,positivefb,-99,hard,,0.9335170999997899,['c'],0,right,['9'],5,0.10361650000004374,29,,29,18,Man,Links,1,
,xotask,dotcolour,dotcolour,55,2,175,475,main,positivefb,-99,easy,,0.66666639999994,['c'],1,left,['9'],5,0.11411199999974997,70,,29,18,Man,Links,1,
,xotask,dotcolour,dotcolour,56,2,176,476,main,positivefb,-99,easy,,0.8167422999999872,['n'],1,right,['8'],4,0.15761049999991883,8,,29,18,Man,Links,1,
,xotask,dotcolour,dotcolour,57,2,177,477,main,positivefb,-99,easy,,0.8670624999999745,['n'],1,right,['9'],5,0.18192809999982273,6,,29,18,Man,Links,1,
,xotask,dotcolour,dotcolour,58,2,178,478,main,positivefb,-99,hard,,0.8007208999997601,['c'],1,left,['9'],5,0.15848090000008597,50,,29,18,Man,Links,1,
,xotask,dotcolour,dotcolour,59,2,179,479,main,positivefb,-99,easy,,0.7514553000000888,['c'],0,right,['2'],2,2.083775500000229,9,,29,18,Man,Links,1,
,xotask,dotcolour,dotcolour,0,3,180,480,main,positivefb,-99,average,,0.9506578000000445,['c'],1,left,['8'],4,0.6224135000002207,64,,29,18,Man,Links,1,
,xotask,dotcolour,dotcolour,1,3,181,481,main,positivefb,-99,average,,0.6009515999999167,['n'],1,right,['8'],4,0.3028354000002764,16,,29,18,Man,Links,1,
,xotask,dotcolour,dotcolour,2,3,182,482,main,positivefb,-99,hard,,0.6174111000000266,['n'],1,right,['8'],4,0.3386144000000968,28,,29,18,Man,Links,1,
,xotask,dotcolour,dotcolour,3,3,183,483,main,positivefb,-99,hard,,1.0173601999999846,['c'],1,left,['8'],4,0.22092350000002625,54,,29,18,Man,Links,1,
,xotask,dotcolour,dotcolour,4,3,184,484,main,positivefb,-99,easy,,0.6510389999998552,['c'],1,left,['8'],4,0.42727560000002995,74,,29,18,Man,Links,1,
,xotask,dotcolour,dotcolour,5,3,185,485,main,positivefb,-99,easy,,1.1170956999999362,['c'],1,left,['8'],4,0.7669669000001704,72,,29,18,Man,Links,1,
,xotask,dotcolour,dotcolour,6,3,186,486,main,positivefb,-99,hard,,0.6510762000002615,['n'],0,left,['9'],5,0.43893320000006497,50,,29,18,Man,Links,1,
,xotask,dotcolour,dotcolour,7,3,187,487,main,positivefb,-99,easy,,1.351461400000062,['c'],1,left,['8'],4,0.49613030000000435,71,,29,18,Man,Links,1,
,xotask,dotcolour,dotcolour,8,3,188,488,main,positivefb,-99,easy,,0.701138599999922,['n'],1,right,['9'],5,0.3213311999998041,7,,29,18,Man,Links,1,
,xotask,dotcolour,dotcolour,9,3,189,489,main,positivefb,-99,average,,0.6177016999999978,['n'],1,right,['9'],5,0.17269500000020344,15,,29,18,Man,Links,1,
,xotask,dotcolour,dotcolour,10,3,190,490,main,positivefb,-99,easy,,0.6010370999997576,['n'],1,right,['9'],5,0.18245109999998022,8,,29,18,Man,Links,1,
,xotask,dotcolour,dotcolour,11,3,191,491,main,positivefb,-99,hard,,0.8004531000001407,['n'],0,left,['8'],4,3.2401246999997966,51,,29,18,Man,Links,1,
,xotask,dotcolour,dotcolour,12,3,192,492,main,positivefb,-99,hard,,3.851289100000031,['n'],1,right,['9'],5,1.205441300000075,26,,29,18,Man,Links,1,
,xotask,dotcolour,dotcolour,13,3,193,493,main,positivefb,-99,hard,,0.9343048000000636,['n'],0,left,['9'],5,0.24890159999995376,53,,29,18,Man,Links,1,
,xotask,dotcolour,dotcolour,14,3,194,494,main,positivefb,-99,average,,1.4679630000000543,['c'],1,left,['0'],6,0.628620200000114,64,,29,18,Man,Links,1,
,xotask,dotcolour,dotcolour,15,3,195,495,main,positivefb,-99,average,,0.8169674000000668,['n'],0,left,['8'],4,1.1163409000000684,60,,29,18,Man,Links,1,
,xotask,dotcolour,dotcolour,16,3,196,496,main,positivefb,-99,easy,,1.1015299000000596,['c'],1,left,['9'],5,0.22013299999980518,70,,29,18,Man,Links,1,
,xotask,dotcolour,dotcolour,17,3,197,497,main,positivefb,-99,average,,0.8339471999997841,['n'],1,right,['9'],5,0.26639090000026044,17,,29,18,Man,Links,1,
,xotask,dotcolour,dotcolour,18,3,198,498,main,positivefb,-99,hard,,0.9837172000002283,['c'],0,right,['9'],5,0.3529596000003039,25,,29,18,Man,Links,1,
,xotask,dotcolour,dotcolour,19,3,199,499,main,positivefb,-99,easy,,0.8846951000000445,['n'],1,right,['9'],5,0.2726466999997683,9,,29,18,Man,Links,1,
,xotask,dotcolour,dotcolour,20,3,200,500,main,positivefb,-99,easy,,0.800320499999998,['n'],1,right,['0'],6,0.15009319999990112,5,,29,18,Man,Links,1,
,xotask,dotcolour,dotcolour,21,3,201,501,main,positivefb,-99,easy,,0.5333333000003222,['n'],1,right,['0'],6,0.21979779999992388,8,,29,18,Man,Links,1,
,xotask,dotcolour,dotcolour,22,3,202,502,main,positivefb,-99,average,,0.6841930999999022,['n'],1,right,['0'],6,0.16034200000012788,15,,29,18,Man,Links,1,
,xotask,dotcolour,dotcolour,23,3,203,503,main,positivefb,-99,average,,1.9833985000000212,['c'],1,left,['9'],5,0.5075997999997526,62,,29,18,Man,Links,1,
,xotask,dotcolour,dotcolour,24,3,204,504,main,positivefb,-99,easy,,1.6185316999999486,['c'],1,left,['8'],4,0.15159029999995255,71,,29,18,Man,Links,1,
,xotask,dotcolour,dotcolour,25,3,205,505,main,positivefb,-99,easy,,0.833672100000058,['c'],0,right,['8'],4,0.16906220000009853,9,,29,18,Man,Links,1,
,xotask,dotcolour,dotcolour,26,3,206,506,main,positivefb,-99,hard,,0.7180472000000009,['n'],1,right,['8'],4,0.4223698000000695,28,,29,18,Man,Links,1,
,xotask,dotcolour,dotcolour,27,3,207,507,main,positivefb,-99,average,,0.7513258999997561,['n'],0,left,['9'],5,0.5203257999996822,61,,29,18,Man,Links,1,
,xotask,dotcolour,dotcolour,28,3,208,508,main,positivefb,-99,average,,2.2684837000001608,['c'],1,left,['0'],6,0.4498545000001286,60,,29,18,Man,Links,1,
,xotask,dotcolour,dotcolour,29,3,209,509,main,positivefb,-99,average,,0.817912399999841,['c'],1,left,['9'],5,0.26390440000022863,63,,29,18,Man,Links,1,
,xotask,dotcolour,dotcolour,30,3,210,510,main,positivefb,-99,hard,,1.0834940999998253,['c'],1,left,['9'],5,0.18646420000004582,51,,29,18,Man,Links,1,
,xotask,dotcolour,dotcolour,31,3,211,511,main,positivefb,-99,hard,,2.55162270000028,['c'],0,right,['9'],5,0.48639390000016647,28,,29,18,Man,Links,1,
,xotask,dotcolour,dotcolour,32,3,212,512,main,positivefb,-99,hard,,0.7176862000001165,['n'],1,right,['9'],5,0.3265989000001355,26,,29,18,Man,Links,1,
,xotask,dotcolour,dotcolour,33,3,213,513,main,positivefb,-99,average,,0.8171698000001015,['c'],1,left,['0'],6,0.44983419999971375,63,,29,18,Man,Links,1,
,xotask,dotcolour,dotcolour,34,3,214,514,main,positivefb,-99,hard,,0.8675407999999152,['n'],1,right,['9'],5,0.294346200000291,27,,29,18,Man,Links,1,
,xotask,dotcolour,dotcolour,35,3,215,515,main,positivefb,-99,hard,,0.8177934999998797,['n'],1,right,['8'],4,0.23469369999975243,28,,29,18,Man,Links,1,
,xotask,dotcolour,dotcolour,36,3,216,516,main,positivefb,-99,hard,,0.7340414000000237,['n'],1,right,['8'],4,0.24486230000002251,27,,29,18,Man,Links,1,
,xotask,dotcolour,dotcolour,37,3,217,517,main,positivefb,-99,hard,,0.6844864999998208,['n'],1,right,['9'],5,0.6248258000000533,27,,29,18,Man,Links,1,
,xotask,dotcolour,dotcolour,38,3,218,518,main,positivefb,-99,average,,0.7005159000000276,['n'],1,right,['0'],6,0.3725419000002148,18,,29,18,Man,Links,1,
,xotask,dotcolour,dotcolour,39,3,219,519,main,positivefb,-99,hard,,0.7667057999997269,['n'],0,left,['9'],5,0.4005827999999383,52,,29,18,Man,Links,1,
,xotask,dotcolour,dotcolour,40,3,220,520,main,positivefb,-99,average,,0.6668613000001642,['n'],1,right,['8'],4,0.1978106999999909,18,,29,18,Man,Links,1,
,xotask,dotcolour,dotcolour,41,3,221,521,main,positivefb,-99,average,,1.234143099999983,['c'],0,right,['9'],5,0.3574668000001111,16,,29,18,Man,Links,1,
,xotask,dotcolour,dotcolour,42,3,222,522,main,positivefb,-99,easy,,0.65171539999983,['n'],1,right,['9'],5,0.2146538000001783,8,,29,18,Man,Links,1,
,xotask,dotcolour,dotcolour,43,3,223,523,main,positivefb,-99,easy,,0.8009009000002152,['c'],1,left,['0'],6,0.318630000000212,73,,29,18,Man,Links,1,
,xotask,dotcolour,dotcolour,44,3,224,524,main,positivefb,-99,easy,,0.8345737999998164,['c'],1,left,['0'],6,0.2336181000000579,74,,29,18,Man,Links,1,
,xotask,dotcolour,dotcolour,45,3,225,525,main,positivefb,-99,average,,0.6012602999999217,['n'],1,right,['9'],5,0.3601825999999164,15,,29,18,Man,Links,1,
,xotask,dotcolour,dotcolour,46,3,226,526,main,positivefb,-99,average,,0.7676576999997451,['c'],1,left,['8'],4,0.36429869999983566,61,,29,18,Man,Links,1,
,xotask,dotcolour,dotcolour,47,3,227,527,main,positivefb,-99,easy,,0.8333683000000747,['n'],1,right,['0'],6,0.27701569999999265,6,,29,18,Man,Links,1,
,xotask,dotcolour,dotcolour,48,3,228,528,main,positivefb,-99,average,,0.7178091999999197,['n'],1,right,['0'],6,0.21410640000021885,15,,29,18,Man,Links,1,
,xotask,dotcolour,dotcolour,49,3,229,529,main,positivefb,-99,hard,,0.6335736000000907,['n'],0,left,['0'],6,0.24492529999997714,51,,29,18,Man,Links,1,
,xotask,dotcolour,dotcolour,50,3,230,530,main,positivefb,-99,hard,,0.9513461000001371,['c'],1,left,['9'],5,0.3422165000001769,51,,29,18,Man,Links,1,
,xotask,dotcolour,dotcolour,51,3,231,531,main,positivefb,-99,easy,,0.9170897999997578,['c'],1,left,['9'],5,0.31694500000003245,70,,29,18,Man,Links,1,
,xotask,dotcolour,dotcolour,52,3,232,532,main,positivefb,-99,average,,0.70106880000003,['c'],0,right,['0'],6,0.22062439999990602,18,,29,18,Man,Links,1,
,xotask,dotcolour,dotcolour,53,3,233,533,main,positivefb,-99,easy,,0.566838899999766,['c'],1,left,['0'],6,0.16641930000014327,70,,29,18,Man,Links,1,
,xotask,dotcolour,dotcolour,54,3,234,534,main,positivefb,-99,hard,,0.6671968000000561,['c'],1,left,['9'],5,0.12593089999973017,54,,29,18,Man,Links,1,
,xotask,dotcolour,dotcolour,55,3,235,535,main,positivefb,-99,hard,,0.7491018999999142,['c'],1,left,['8'],4,0.1478649000000587,50,,29,18,Man,Links,1,
,xotask,dotcolour,dotcolour,56,3,236,536,main,positivefb,-99,easy,,0.901366600000074,['n'],1,right,['9'],5,0.20293749999973443,5,,29,18,Man,Links,1,
,xotask,dotcolour,dotcolour,57,3,237,537,main,positivefb,-99,easy,,0.9682788999998593,['c'],1,left,['0'],6,0.11593469999979789,72,,29,18,Man,Links,1,
,xotask,dotcolour,dotcolour,58,3,238,538,main,positivefb,-99,easy,,1.1667053000001033,['n'],1,right,['9'],5,0.1377031000001807,7,,29,18,Man,Links,1,
,xotask,dotcolour,dotcolour,59,3,239,539,main,positivefb,-99,average,,0.8006718999999975,['c'],1,left,['9'],5,0.49320650000026944,62,,29,18,Man,Links,1,
,xotask,dotcolour,dotcolour,0,4,240,540,main,positivefb,-99,average,,0.733952600000066,['n'],1,right,['9'],5,0.23414869999987786,19,,29,18,Man,Links,1,
,xotask,dotcolour,dotcolour,1,4,241,541,main,positivefb,-99,average,,0.9007628999997905,['n'],1,right,['0'],6,0.18075240000007398,16,,29,18,Man,Links,1,
,xotask,dotcolour,dotcolour,2,4,242,542,main,positivefb,-99,hard,,0.8015521000002082,['c'],1,left,['9'],5,0.19030830000019705,54,,29,18,Man,Links,1,
,xotask,dotcolour,dotcolour,3,4,243,543,main,positivefb,-99,easy,,0.8347658000002411,['c'],1,left,['9'],5,0.19063210000012987,71,,29,18,Man,Links,1,
,xotask,dotcolour,dotcolour,4,4,244,544,main,positivefb,-99,easy,,0.8163801999999123,['n'],0,left,['1'],1,1.8548126000000593,72,,29,18,Man,Links,1,
,xotask,dotcolour,dotcolour,5,4,245,545,main,positivefb,-99,easy,,1.0511728000001312,['c'],1,left,['0'],6,0.3641892000000553,73,,29,18,Man,Links,1,
,xotask,dotcolour,dotcolour,6,4,246,546,main,positivefb,-99,easy,,0.7502950000002784,['n'],1,right,['8'],4,0.2486656999999468,7,,29,18,Man,Links,1,
,xotask,dotcolour,dotcolour,7,4,247,547,main,positivefb,-99,average,,0.717458500000248,['n'],1,right,['0'],6,0.21843840000019554,16,,29,18,Man,Links,1,
,xotask,dotcolour,dotcolour,8,4,248,548,main,positivefb,-99,average,,0.7513407999999799,['n'],1,right,['0'],6,0.20450979999986885,15,,29,18,Man,Links,1,
,xotask,dotcolour,dotcolour,9,4,249,549,main,positivefb,-99,average,,1.2012191999997412,['n'],0,left,['8'],4,0.8693493999999191,60,,29,18,Man,Links,1,
,xotask,dotcolour,dotcolour,10,4,250,550,main,positivefb,-99,hard,,0.6672545999999784,['n'],1,right,['8'],4,0.20865600000024642,25,,29,18,Man,Links,1,
,xotask,dotcolour,dotcolour,11,4,251,551,main,positivefb,-99,average,,0.9003083999996306,['c'],1,left,['8'],4,0.37342260000013994,60,,29,18,Man,Links,1,
,xotask,dotcolour,dotcolour,12,4,252,552,main,positivefb,-99,average,,1.166293400000086,['c'],1,left,['8'],4,0.6088609999997061,60,,29,18,Man,Links,1,
,xotask,dotcolour,dotcolour,13,4,253,553,main,positivefb,-99,hard,,0.8836596000001009,['n'],1,right,['9'],5,0.4300162000004093,28,,29,18,Man,Links,1,
,xotask,dotcolour,dotcolour,14,4,254,554,main,positivefb,-99,easy,,0.9840751000001546,['n'],1,right,['0'],6,0.22300219999988258,7,,29,18,Man,Links,1,
,xotask,dotcolour,dotcolour,15,4,255,555,main,positivefb,-99,easy,,0.6837522000000718,['n'],1,right,['0'],6,0.259511200000361,9,,29,18,Man,Links,1,
,xotask,dotcolour,dotcolour,16,4,256,556,main,positivefb,-99,easy,,0.817374899999777,['c'],1,left,['0'],6,0.33767530000022816,74,,29,18,Man,Links,1,
,xotask,dotcolour,dotcolour,17,4,257,557,main,positivefb,-99,average,,0.6839298999998391,['n'],1,right,['0'],6,0.16116439999996146,15,,29,18,Man,Links,1,
,xotask,dotcolour,dotcolour,18,4,258,558,main,positivefb,-99,easy,,0.7673565000000053,['n'],1,right,['0'],6,0.19735420000006343,8,,29,18,Man,Links,1,
,xotask,dotcolour,dotcolour,19,4,259,559,main,positivefb,-99,hard,,1.0674503999998706,['c'],0,right,['9'],5,0.3643197000001237,26,,29,18,Man,Links,1,
,xotask,dotcolour,dotcolour,20,4,260,560,main,positivefb,-99,hard,,1.2019297000001643,['n'],1,right,['0'],6,0.15852529999983744,29,,29,18,Man,Links,1,
,xotask,dotcolour,dotcolour,21,4,261,561,main,positivefb,-99,hard,,1.9653680999999779,['c'],0,right,['9'],5,0.3620556000000761,27,,29,18,Man,Links,1,
,xotask,dotcolour,dotcolour,22,4,262,562,main,positivefb,-99,easy,,0.8345039999999244,['n'],1,right,['0'],6,0.1791947000001528,7,,29,18,Man,Links,1,
,xotask,dotcolour,dotcolour,23,4,263,563,main,positivefb,-99,hard,,0.8665829000001395,['c'],1,left,['9'],5,0.31439700000009907,51,,29,18,Man,Links,1,
,xotask,dotcolour,dotcolour,24,4,264,564,main,positivefb,-99,easy,,0.6513107000000673,['c'],1,left,['0'],6,0.32418520000010176,74,,29,18,Man,Links,1,
,xotask,dotcolour,dotcolour,25,4,265,565,main,positivefb,-99,easy,,0.6177963000000091,['n'],1,right,['0'],6,0.20804930000031163,7,,29,18,Man,Links,1,
,xotask,dotcolour,dotcolour,26,4,266,566,main,positivefb,-99,average,,0.683926899999733,['n'],1,right,['0'],6,0.14138099999991027,15,,29,18,Man,Links,1,
,xotask,dotcolour,dotcolour,27,4,267,567,main,positivefb,-99,hard,,0.8164553999999953,['n'],1,right,['0'],6,0.12842230000023847,25,,29,18,Man,Links,1,
,xotask,dotcolour,dotcolour,28,4,268,568,main,positivefb,-99,average,,1.1843527000000904,['n'],1,right,['9'],5,0.3564432000002853,16,,29,18,Man,Links,1,
,xotask,dotcolour,dotcolour,29,4,269,569,main,positivefb,-99,hard,,0.7012196999999105,['n'],1,right,['9'],5,0.2198804999998174,25,,29,18,Man,Links,1,
,xotask,dotcolour,dotcolour,30,4,270,570,main,positivefb,-99,hard,,0.8177608999999393,['c'],1,left,['9'],5,0.2586529000000155,53,,29,18,Man,Links,1,
,xotask,dotcolour,dotcolour,31,4,271,571,main,positivefb,-99,hard,,1.5342641000002004,['c'],1,left,['0'],6,0.21198939999976574,51,,29,18,Man,Links,1,
,xotask,dotcolour,dotcolour,32,4,272,572,main,positivefb,-99,easy,,0.8347188000002461,['n'],1,right,['0'],6,0.18782419999979538,5,,29,18,Man,Links,1,
,xotask,dotcolour,dotcolour,33,4,273,573,main,positivefb,-99,easy,,0.8010988999999427,['c'],1,left,['9'],5,0.3328294999996615,74,,29,18,Man,Links,1,
,xotask,dotcolour,dotcolour,34,4,274,574,main,positivefb,-99,average,,0.7017805000000408,['c'],0,right,['8'],4,1.0601580000002286,16,,29,18,Man,Links,1,
,xotask,dotcolour,dotcolour,35,4,275,575,main,positivefb,-99,easy,,1.3679148999999597,['n'],0,left,['9'],5,0.23612439999988055,70,,29,18,Man,Links,1,
,xotask,dotcolour,dotcolour,36,4,276,576,main,positivefb,-99,average,,2.2845430999996097,['c'],0,right,['0'],6,0.21558980000008887,18,,29,18,Man,Links,1,
,xotask,dotcolour,dotcolour,37,4,277,577,main,positivefb,-99,hard,,1.099888600000213,['n'],0,left,['9'],5,0.2685292000001027,52,,29,18,Man,Links,1,
,xotask,dotcolour,dotcolour,38,4,278,578,main,positivefb,-99,hard,,0.8512803999997232,['c'],1,left,['9'],5,0.3438632999996116,52,,29,18,Man,Links,1,
,xotask,dotcolour,dotcolour,39,4,279,579,main,positivefb,-99,hard,,0.8496869000000515,['n'],1,right,['0'],6,0.25700600000027407,28,,29,18,Man,Links,1,
,xotask,dotcolour,dotcolour,40,4,280,580,main,positivefb,-99,easy,,1.2836876000001212,['c'],1,left,['9'],5,0.20543899999984205,74,,29,18,Man,Links,1,
,xotask,dotcolour,dotcolour,41,4,281,581,main,positivefb,-99,hard,,0.8002587999999378,['n'],1,right,['0'],6,0.3737525999999889,26,,29,18,Man,Links,1,
,xotask,dotcolour,dotcolour,42,4,282,582,main,positivefb,-99,hard,,0.9008656000000883,['c'],1,left,['9'],5,0.25939770000013596,50,,29,18,Man,Links,1,
,xotask,dotcolour,dotcolour,43,4,283,583,main,positivefb,-99,average,,0.7679400000001806,['n'],0,left,['8'],4,0.34772860000020955,60,,29,18,Man,Links,1,
,xotask,dotcolour,dotcolour,44,4,284,584,main,positivefb,-99,easy,,0.801475699999628,['c'],1,left,['8'],4,0.27071449999994,70,,29,18,Man,Links,1,
,xotask,dotcolour,dotcolour,45,4,285,585,main,positivefb,-99,average,,0.8009127999998782,['c'],1,left,['9'],5,0.3408119999999144,61,,29,18,Man,Links,1,
,xotask,dotcolour,dotcolour,46,4,286,586,main,positivefb,-99,easy,,0.7675945000000866,['c'],1,left,['0'],6,0.24104499999975815,74,,29,18,Man,Links,1,
,xotask,dotcolour,dotcolour,47,4,287,587,main,positivefb,-99,easy,,0.7496691999999712,['n'],1,right,['0'],6,0.3546111999999084,9,,29,18,Man,Links,1,
,xotask,dotcolour,dotcolour,48,4,288,588,main,positivefb,-99,easy,,0.9510219999997389,['n'],1,right,['0'],6,0.9511594000000514,7,,29,18,Man,Links,1,
,xotask,dotcolour,dotcolour,49,4,289,589,main,positivefb,-99,easy,,0.6341551000000436,['n'],1,right,['0'],6,0.24018699999987803,9,,29,18,Man,Links,1,
,xotask,dotcolour,dotcolour,50,4,290,590,main,positivefb,-99,hard,,0.5502985999996781,['n'],0,left,['9'],5,0.3460850000001301,53,,29,18,Man,Links,1,
,xotask,dotcolour,dotcolour,51,4,291,591,main,positivefb,-99,hard,,0.5676115999999638,['n'],1,right,['8'],4,0.24598909999986063,28,,29,18,Man,Links,1,
,xotask,dotcolour,dotcolour,52,4,292,592,main,positivefb,-99,average,,0.6671286999999211,['n'],1,right,['8'],4,0.19454650000034235,18,,29,18,Man,Links,1,
,xotask,dotcolour,dotcolour,53,4,293,593,main,positivefb,-99,average,,0.6346607000000404,['n'],0,left,['9'],5,0.3307635000001028,61,,29,18,Man,Links,1,
,xotask,dotcolour,dotcolour,54,4,294,594,main,positivefb,-99,average,,1.1349983000000066,['n'],0,left,['9'],5,0.5776436999999532,60,,29,18,Man,Links,1,
,xotask,dotcolour,dotcolour,55,4,295,595,main,positivefb,-99,average,,1.0174262999998973,['c'],1,left,['9'],5,0.11441400000012436,62,,29,18,Man,Links,1,
,xotask,dotcolour,dotcolour,56,4,296,596,main,positivefb,-99,average,,0.5507842000001801,['c'],1,left,['9'],5,0.2247652000000926,63,,29,18,Man,Links,1,
,xotask,dotcolour,dotcolour,57,4,297,597,main,positivefb,-99,hard,,0.7352507000000514,['c'],1,left,['0'],6,0.25091410000004544,53,,29,18,Man,Links,1,
,xotask,dotcolour,dotcolour,58,4,298,598,main,positivefb,-99,average,,0.7836950999999317,['c'],1,left,['9'],5,0.49808459999985644,62,,29,18,Man,Links,1,
,xotask,dotcolour,dotcolour,59,4,299,599,main,positivefb,-99,hard,,1.401390099999844,['c'],1,left,['8'],4,0.15873050000027433,53,,29,18,Man,Links,1,
,dotcolour,dotcolour,dotcolour,0,0,0,600,training,positivefb,98,easy,16,0.8021764000000076,['n'],1,right,['9'],5,0.7032878999998502,,,29,18,Man,Links,1,
,dotcolour,dotcolour,dotcolour,1,0,1,601,training,positivefb,97,easy,62,0.6497895000002245,['c'],1,left,['9'],5,0.14514299999973446,,,29,18,Man,Links,1,
,dotcolour,dotcolour,dotcolour,2,0,2,602,training,positivefb,99,easy,64,0.4330397999997331,['c'],1,left,['0'],6,0.2580158999999185,,,29,18,Man,Links,1,
,dotcolour,dotcolour,dotcolour,3,0,3,603,training,positivefb,99,easy,16,0.45010409999986223,['n'],1,right,['0'],6,0.2139391999999134,,,29,18,Man,Links,1,
,dotcolour,dotcolour,dotcolour,4,0,4,604,training,positivefb,97,easy,63,0.5837283999999272,['c'],1,left,['0'],6,0.11076070000035543,,,29,18,Man,Links,1,
,dotcolour,dotcolour,dotcolour,5,0,5,605,training,positivefb,84,easy,19,2.0852676000004067,['c'],0,right,['9'],5,0.21537239999997837,,,29,18,Man,Links,1,
,dotcolour,dotcolour,dotcolour,6,0,6,606,training,positivefb,89,easy,16,0.5664986000001591,['n'],1,right,['9'],5,0.20816849999982878,,,29,18,Man,Links,1,
,dotcolour,dotcolour,dotcolour,7,0,7,607,training,positivefb,97,hard,37,0.6833870000000388,['n'],1,right,['9'],5,0.2207588000001124,,,29,18,Man,Links,1,
,dotcolour,dotcolour,dotcolour,8,0,8,608,training,positivefb,96,average,25,0.5822412999996232,['n'],1,right,['0'],6,0.21255089999976917,,,29,18,Man,Links,1,
,dotcolour,dotcolour,dotcolour,9,0,9,609,training,positivefb,98,easy,61,0.4502329000001737,['c'],1,left,['0'],6,0.17904470000030415,,,29,18,Man,Links,1,
,dotcolour,dotcolour,dotcolour,10,0,10,610,training,positivefb,87,average,54,0.46573979999993753,['c'],1,left,['0'],6,0.14542849999997998,,,29,18,Man,Links,1,
,dotcolour,dotcolour,dotcolour,11,0,11,611,training,positivefb,86,average,55,0.4670553999999356,['c'],1,left,['9'],5,0.2970620000000963,,,29,18,Man,Links,1,
,dotcolour,dotcolour,dotcolour,12,0,12,612,training,positivefb,93,average,27,0.7848992000003818,['n'],1,right,['8'],4,0.15085429999999178,,,29,18,Man,Links,1,
,dotcolour,dotcolour,dotcolour,13,0,13,613,training,positivefb,90,average,26,1.3668338000002223,['n'],1,right,['9'],5,0.19442520000029617,,,29,18,Man,Links,1,
,dotcolour,dotcolour,dotcolour,14,0,14,614,training,positivefb,99,average,51,0.5994558000002144,['c'],1,left,['0'],6,0.17123700000001918,,,29,18,Man,Links,1,
,dotcolour,dotcolour,dotcolour,15,0,15,615,training,positivefb,100,easy,61,0.3829579000002923,['c'],1,left,['0'],6,0.17290129999992132,,,29,18,Man,Links,1,
,dotcolour,dotcolour,dotcolour,16,0,16,616,training,positivefb,99,average,53,0.4339866999998776,['c'],1,left,['0'],6,0.1805250000002161,,,29,18,Man,Links,1,
,dotcolour,dotcolour,dotcolour,17,0,17,617,training,positivefb,97,easy,63,0.40056700000013734,['c'],1,left,['0'],6,0.22252100000014252,,,29,18,Man,Links,1,
,dotcolour,dotcolour,dotcolour,18,0,18,618,training,positivefb,99,average,51,0.3508801000002677,['c'],1,left,['9'],5,0.18412680000028558,,,29,18,Man,Links,1,
,dotcolour,dotcolour,dotcolour,19,0,19,619,training,positivefb,96,easy,15,0.5335615999997572,['n'],1,right,['9'],5,0.18650139999999737,,,29,18,Man,Links,1,
,dotcolour,dotcolour,dotcolour,20,0,20,620,training,positivefb,88,average,26,0.9324423000002753,['c'],0,right,['8'],4,0.06997289999981149,,,29,18,Man,Links,1,
,dotcolour,dotcolour,dotcolour,21,0,21,621,training,positivefb,85,easy,61,0.5008800999999039,['c'],1,left,['9'],5,0.167436600000201,,,29,18,Man,Links,1,
,dotcolour,dotcolour,dotcolour,22,0,22,622,training,positivefb,97,hard,37,0.7663757999998779,['n'],1,right,['9'],5,0.1541880999998284,,,29,18,Man,Links,1,
,dotcolour,dotcolour,dotcolour,23,0,23,623,training,positivefb,94,average,52,0.8003819999998996,['c'],1,left,['0'],6,0.12423780000017359,,,29,18,Man,Links,1,
,dotcolour,dotcolour,dotcolour,24,0,24,624,training,positivefb,84,average,52,0.6336299999998118,['n'],0,left,['9'],5,0.13461809999989782,,,29,18,Man,Links,1,
,dotcolour,dotcolour,dotcolour,25,0,25,625,training,positivefb,96,hard,41,0.6996871999999712,['c'],1,left,['9'],5,0.1968894999999975,,,29,18,Man,Links,1,
,dotcolour,dotcolour,dotcolour,26,0,26,626,training,positivefb,91,easy,15,0.5506961999999476,['n'],1,right,['9'],5,0.12764530000004015,,,29,18,Man,Links,1,
,dotcolour,dotcolour,dotcolour,27,0,27,627,training,positivefb,95,easy,61,0.7666667999997117,['c'],1,left,['0'],6,0.1482264999999643,,,29,18,Man,Links,1,
,dotcolour,dotcolour,dotcolour,28,0,28,628,training,positivefb,96,hard,45,0.5997845000001689,['c'],1,left,['0'],6,0.13467739999987316,,,29,18,Man,Links,1,
,dotcolour,dotcolour,dotcolour,29,0,29,629,training,positivefb,88,easy,15,0.6334274000000732,['n'],1,right,['9'],5,0.18336079999971844,,,29,18,Man,Links,1,
,dotcolour,dotcolour,dotcolour,30,0,30,630,training,positivefb,91,hard,42,0.8499120000001312,['n'],0,left,['0'],6,0.18996020000031422,,,29,18,Man,Links,1,
,dotcolour,dotcolour,dotcolour,31,0,31,631,training,positivefb,93,average,25,1.1009057000001121,['n'],1,right,['9'],5,0.39539909999984957,,,29,18,Man,Links,1,
,dotcolour,dotcolour,dotcolour,32,0,32,632,training,positivefb,97,easy,18,0.6826748999997108,['n'],1,right,['9'],5,0.20812690000002476,,,29,18,Man,Links,1,
,dotcolour,dotcolour,dotcolour,33,0,33,633,training,positivefb,96,hard,41,0.6002192999999352,['c'],1,left,['9'],5,0.27234709999993356,,,29,18,Man,Links,1,
,dotcolour,dotcolour,dotcolour,34,0,34,634,training,positivefb,99,easy,17,0.6668265999996947,['n'],1,right,['0'],6,0.24323169999979655,,,29,18,Man,Links,1,
,dotcolour,dotcolour,dotcolour,35,0,35,635,training,positivefb,93,easy,17,0.8999226999999337,['n'],1,right,['9'],5,0.16615459999957238,,,29,18,Man,Links,1,
,dotcolour,dotcolour,dotcolour,36,0,36,636,training,positivefb,98,easy,65,0.7000035000000935,['c'],1,left,['9'],5,0.18735689999994065,,,29,18,Man,Links,1,
,dotcolour,dotcolour,dotcolour,37,0,37,637,training,positivefb,90,hard,44,0.7163365000001249,['n'],0,left,['9'],5,0.23044250000020838,,,29,18,Man,Links,1,
,dotcolour,dotcolour,dotcolour,38,0,38,638,training,positivefb,98,hard,45,0.6001795000001948,['c'],1,left,['0'],6,0.30932080000002316,,,29,18,Man,Links,1,
,dotcolour,dotcolour,dotcolour,39,0,39,639,training,positivefb,76,hard,45,1.0176801000002342,['n'],0,left,['9'],5,0.7052973999998358,,,29,18,Man,Links,1,
,dotcolour,dotcolour,dotcolour,40,0,40,640,training,positivefb,93,average,28,0.7342304000003423,['n'],1,right,['9'],5,0.168075300000055,,,29,18,Man,Links,1,
,dotcolour,dotcolour,dotcolour,41,0,41,641,training,positivefb,45,hard,39,0.7664457999999286,['c'],0,right,['9'],5,0.19447529999979452,,,29,18,Man,Links,1,
,dotcolour,dotcolour,dotcolour,42,0,42,642,training,positivefb,94,easy,61,0.8339901999997892,['c'],1,left,['0'],6,0.18657170000005863,,,29,18,Man,Links,1,
,dotcolour,dotcolour,dotcolour,43,0,43,643,training,positivefb,92,hard,41,0.6997481999997035,['n'],0,left,['0'],6,0.15032190000010814,,,29,18,Man,Links,1,
,dotcolour,dotcolour,dotcolour,44,0,44,644,training,positivefb,89,hard,39,0.8343884000000799,['c'],0,right,['9'],5,0.11089179999999033,,,29,18,Man,Links,1,
,dotcolour,dotcolour,dotcolour,45,0,45,645,training,positivefb,97,hard,37,0.6498151000000689,['n'],1,right,['8'],4,1.3455625999999938,,,29,18,Man,Links,1,
,dotcolour,dotcolour,dotcolour,46,0,46,646,training,positivefb,80,hard,43,0.7504517000002124,['c'],1,left,['9'],5,0.14190229999985604,,,29,18,Man,Links,1,
,dotcolour,dotcolour,dotcolour,47,0,47,647,training,positivefb,93,average,28,0.800971699999991,['n'],1,right,['0'],6,0.20117639999989478,,,29,18,Man,Links,1,
,dotcolour,dotcolour,dotcolour,48,0,48,648,training,positivefb,94,average,55,0.600525800000014,['c'],1,left,['0'],6,0.18482349999976577,,,29,18,Man,Links,1,
,dotcolour,dotcolour,dotcolour,49,0,49,649,training,positivefb,89,hard,39,0.7999450000002071,['n'],1,right,['0'],6,0.08924900000010894,,,29,18,Man,Links,1,
