starttime,task,fbtask,firsttask,withinblocktrial,block,withintasktrial,trial,running,feedback,fbscore,difflevel,reddots,rt,resp,cor,cresp,conf_press,cj,RTconf,n_xes,stoptime,sub,age,gender,handedness,session,
1716280272,dotcolour,dotcolour,dotcolour,0,0,0,0,training,positivefb,99,easy,65,1.3175176000000874,['c'],1,left,['2'],5,1.6618045000000166,,,37,32,Vrouw,Rechts,1,
,dotcolour,dotcolour,dotcolour,1,0,1,1,training,positivefb,95,average,55,0.6837322000000086,['c'],1,left,['3'],4,0.7919983000000457,,,37,32,Vrouw,Rechts,1,
,dotcolour,dotcolour,dotcolour,2,0,2,2,training,positivefb,81,hard,36,0.7332989999999882,['c'],0,right,['2'],5,0.9232844000000568,,,37,32,Vrouw,Rechts,1,
,dotcolour,dotcolour,dotcolour,3,0,3,3,training,positivefb,90,hard,38,1.049964799999998,['n'],1,right,['9'],2,0.8599536000000398,,,37,32,Vrouw,Rechts,1,
,dotcolour,dotcolour,dotcolour,4,0,4,4,training,positivefb,100,easy,64,0.6841544999999769,['c'],1,left,['3'],4,0.9580710999999837,,,37,32,Vrouw,Rechts,1,
,dotcolour,dotcolour,dotcolour,5,0,5,5,training,positivefb,89,hard,41,0.7834883000000445,['c'],1,left,['9'],2,0.5206855999999789,,,37,32,Vrouw,Rechts,1,
,dotcolour,dotcolour,dotcolour,6,0,6,6,training,positivefb,14,easy,15,1.501426199999969,['c'],0,right,['3'],4,1.4640522999999348,,,37,32,Vrouw,Rechts,1,
,dotcolour,dotcolour,dotcolour,7,0,7,7,training,positivefb,75,easy,63,0.9343940999999631,['c'],1,left,['3'],4,0.7678895999999895,,,37,32,Vrouw,Rechts,1,
,dotcolour,dotcolour,dotcolour,8,0,8,8,training,positivefb,91,hard,44,1.0663604000000078,['c'],1,left,['3'],4,1.1901572000000442,,,37,32,Vrouw,Rechts,1,
,dotcolour,dotcolour,dotcolour,9,0,9,9,training,positivefb,98,easy,16,1.633054599999923,['n'],1,right,['3'],4,1.3326512999999522,,,37,32,Vrouw,Rechts,1,
,dotcolour,dotcolour,dotcolour,10,0,10,10,training,positivefb,96,easy,62,1.5001283000000285,['c'],1,left,['2'],5,0.6826988000000256,,,37,32,Vrouw,Rechts,1,
,dotcolour,dotcolour,dotcolour,11,0,11,11,training,positivefb,72,average,54,2.8340725000000475,['c'],1,left,['0'],1,0.7234620000000405,,,37,32,Vrouw,Rechts,1,
,dotcolour,dotcolour,dotcolour,12,0,12,12,training,positivefb,49,hard,43,1.3837128999999777,['c'],1,left,['9'],2,0.6647563000000218,,,37,32,Vrouw,Rechts,1,
,dotcolour,dotcolour,dotcolour,13,0,13,13,training,positivefb,89,hard,42,0.8174948999999287,['c'],1,left,['9'],2,0.42208579999999074,,,37,32,Vrouw,Rechts,1,
,dotcolour,dotcolour,dotcolour,14,0,14,14,training,positivefb,54,hard,37,0.783747500000004,['c'],0,right,['9'],2,1.0781677999999602,,,37,32,Vrouw,Rechts,1,
,dotcolour,dotcolour,dotcolour,15,0,15,15,training,positivefb,95,average,52,0.7498847999999043,['c'],1,left,['9'],2,0.7560465000000249,,,37,32,Vrouw,Rechts,1,
,dotcolour,dotcolour,dotcolour,16,0,16,16,training,positivefb,93,average,51,0.6338937000000442,['c'],1,left,['9'],2,0.364143399999989,,,37,32,Vrouw,Rechts,1,
,dotcolour,dotcolour,dotcolour,17,0,17,17,training,positivefb,92,easy,61,0.7009791000000405,['c'],1,left,['9'],2,0.32216909999999643,,,37,32,Vrouw,Rechts,1,
,dotcolour,dotcolour,dotcolour,18,0,18,18,training,positivefb,90,hard,45,1.4329666999999517,['n'],0,left,['1'],6,0.8682658000000174,,,37,32,Vrouw,Rechts,1,
,dotcolour,dotcolour,dotcolour,19,0,19,19,training,positivefb,85,average,27,1.467158599999948,['n'],1,right,['1'],6,0.5021540000000186,,,37,32,Vrouw,Rechts,1,
,dotcolour,dotcolour,dotcolour,20,0,20,20,training,positivefb,88,average,53,0.7178912000000537,['c'],1,left,['3'],4,0.7735030999999708,,,37,32,Vrouw,Rechts,1,
,dotcolour,dotcolour,dotcolour,21,0,21,21,training,positivefb,99,average,52,0.6670142000000396,['c'],1,left,['9'],2,0.40359239999997953,,,37,32,Vrouw,Rechts,1,
,dotcolour,dotcolour,dotcolour,22,0,22,22,training,positivefb,61,average,26,0.551093700000024,['c'],0,right,['9'],2,0.6056895000000395,,,37,32,Vrouw,Rechts,1,
,dotcolour,dotcolour,dotcolour,23,0,23,23,training,positivefb,95,hard,43,0.6332530000000816,['c'],1,left,['9'],2,0.5476366999999982,,,37,32,Vrouw,Rechts,1,
,dotcolour,dotcolour,dotcolour,24,0,24,24,training,positivefb,100,average,54,0.3462251999999353,['c'],1,left,['1'],6,0.599617999999964,,,37,32,Vrouw,Rechts,1,
,dotcolour,dotcolour,dotcolour,25,0,25,25,training,positivefb,96,easy,61,0.4999622000000272,['c'],1,left,['1'],6,0.5788566999999603,,,37,32,Vrouw,Rechts,1,
,dotcolour,dotcolour,dotcolour,26,0,26,26,training,positivefb,61,hard,42,0.7505439999999908,['c'],1,left,['3'],4,0.3902554000000009,,,37,32,Vrouw,Rechts,1,
,dotcolour,dotcolour,dotcolour,27,0,27,27,training,positivefb,87,hard,38,0.8012489000000187,['c'],0,right,['2'],5,1.2869651999999405,,,37,32,Vrouw,Rechts,1,
,dotcolour,dotcolour,dotcolour,28,0,28,28,training,positivefb,95,easy,18,1.8502695000000813,['c'],0,right,['1'],6,0.5689260999999988,,,37,32,Vrouw,Rechts,1,
,dotcolour,dotcolour,dotcolour,29,0,29,29,training,positivefb,93,easy,17,1.1661663999999519,['n'],1,right,['1'],6,0.8117299000000457,,,37,32,Vrouw,Rechts,1,
,dotcolour,dotcolour,dotcolour,30,0,30,30,training,positivefb,97,average,27,0.9673475000000735,['n'],1,right,['1'],6,0.589077399999951,,,37,32,Vrouw,Rechts,1,
,dotcolour,dotcolour,dotcolour,31,0,31,31,training,positivefb,99,average,26,0.7009094999999661,['n'],1,right,['1'],6,1.0577908000000207,,,37,32,Vrouw,Rechts,1,
,dotcolour,dotcolour,dotcolour,32,0,32,32,training,positivefb,90,easy,64,1.3163180000000239,['c'],1,left,['1'],6,0.41836579999994683,,,37,32,Vrouw,Rechts,1,
,dotcolour,dotcolour,dotcolour,33,0,33,33,training,positivefb,95,hard,41,0.950006099999996,['n'],0,left,['1'],6,0.2596472000000176,,,37,32,Vrouw,Rechts,1,
,dotcolour,dotcolour,dotcolour,34,0,34,34,training,positivefb,92,easy,17,1.1845782999999983,['n'],1,right,['1'],6,0.4980721000000585,,,37,32,Vrouw,Rechts,1,
,dotcolour,dotcolour,dotcolour,35,0,35,35,training,positivefb,99,easy,62,0.9507270999999946,['c'],1,left,['1'],6,0.4003603999999541,,,37,32,Vrouw,Rechts,1,
,dotcolour,dotcolour,dotcolour,36,0,36,36,training,positivefb,92,easy,16,0.667230399999994,['n'],1,right,['1'],6,0.4216473000000178,,,37,32,Vrouw,Rechts,1,
,dotcolour,dotcolour,dotcolour,37,0,37,37,training,positivefb,95,hard,35,0.6177754000000277,['n'],1,right,['1'],6,0.24440529999992577,,,37,32,Vrouw,Rechts,1,
,dotcolour,dotcolour,dotcolour,38,0,38,38,training,positivefb,97,average,29,0.4344833000000108,['n'],1,right,['1'],6,0.28173389999994924,,,37,32,Vrouw,Rechts,1,
,dotcolour,dotcolour,dotcolour,39,0,39,39,training,positivefb,88,average,28,0.400662900000043,['n'],1,right,['1'],6,0.22226809999995112,,,37,32,Vrouw,Rechts,1,
,dotcolour,dotcolour,dotcolour,40,0,40,40,training,positivefb,97,average,29,0.5338551000000962,['n'],1,right,['1'],6,0.1843403999999964,,,37,32,Vrouw,Rechts,1,
,dotcolour,dotcolour,dotcolour,41,0,41,41,training,positivefb,99,hard,37,0.4669579999999769,['n'],1,right,['1'],6,0.1823617000000013,,,37,32,Vrouw,Rechts,1,
,dotcolour,dotcolour,dotcolour,42,0,42,42,training,positivefb,24,average,54,0.5160979999999427,['n'],0,left,['8'],3,0.6745064000000411,,,37,32,Vrouw,Rechts,1,
,dotcolour,dotcolour,dotcolour,43,0,43,43,training,positivefb,96,hard,35,0.8008293999999978,['n'],1,right,['8'],3,1.447837800000002,,,37,32,Vrouw,Rechts,1,
,dotcolour,dotcolour,dotcolour,44,0,44,44,training,positivefb,89,hard,45,0.8841000999999551,['n'],0,left,['8'],3,0.2583601000000044,,,37,32,Vrouw,Rechts,1,
,dotcolour,dotcolour,dotcolour,45,0,45,45,training,positivefb,87,hard,37,0.5998142999999345,['n'],1,right,['8'],3,0.24038099999995666,,,37,32,Vrouw,Rechts,1,
,dotcolour,dotcolour,dotcolour,46,0,46,46,training,positivefb,78,average,55,0.8165720000000647,['c'],1,left,['1'],6,0.31840679999993426,,,37,32,Vrouw,Rechts,1,
,dotcolour,dotcolour,dotcolour,47,0,47,47,training,positivefb,99,easy,17,0.5675988000000416,['n'],1,right,['1'],6,0.31495380000001205,,,37,32,Vrouw,Rechts,1,
,dotcolour,dotcolour,dotcolour,48,0,48,48,training,positivefb,86,hard,37,0.6171719999999823,['n'],1,right,['1'],6,0.30980859999999666,,,37,32,Vrouw,Rechts,1,
,dotcolour,dotcolour,dotcolour,49,0,49,49,training,positivefb,95,easy,64,0.7841015000000198,['c'],1,left,['1'],6,0.2983315000000175,,,37,32,Vrouw,Rechts,1,
,dotcolour,dotcolour,dotcolour,50,0,50,50,training,positivefb,99,average,29,0.6175730000001067,['n'],1,right,['1'],6,0.28579899999999725,,,37,32,Vrouw,Rechts,1,
,dotcolour,dotcolour,dotcolour,51,0,51,51,training,positivefb,92,hard,35,0.6177359000000706,['n'],1,right,['1'],6,0.322132799999963,,,37,32,Vrouw,Rechts,1,
,dotcolour,dotcolour,dotcolour,52,0,52,52,training,positivefb,86,average,27,0.5671000999999478,['n'],1,right,['1'],6,0.7265760000000228,,,37,32,Vrouw,Rechts,1,
,dotcolour,dotcolour,dotcolour,53,0,53,53,training,positivefb,89,hard,41,0.5834734999999682,['n'],0,left,['8'],3,0.6104513000000225,,,37,32,Vrouw,Rechts,1,
,dotcolour,dotcolour,dotcolour,54,0,54,54,training,positivefb,99,easy,62,0.8165758000000096,['c'],1,left,['1'],6,0.42555049999998573,,,37,32,Vrouw,Rechts,1,
,dotcolour,dotcolour,dotcolour,55,0,55,55,training,positivefb,93,easy,18,0.6660979999999199,['n'],1,right,['1'],6,0.3583776000000398,,,37,32,Vrouw,Rechts,1,
,dotcolour,dotcolour,dotcolour,56,0,56,56,training,positivefb,73,easy,18,1.0326988000000483,['n'],1,right,['1'],6,0.2791159000000789,,,37,32,Vrouw,Rechts,1,
,dotcolour,dotcolour,dotcolour,57,0,57,57,training,positivefb,99,easy,15,0.8326847999999245,['n'],1,right,['1'],6,0.30719809999993686,,,37,32,Vrouw,Rechts,1,
,dotcolour,dotcolour,dotcolour,58,0,58,58,training,positivefb,85,average,29,0.6007714999999507,['n'],1,right,['1'],6,0.3832012999999961,,,37,32,Vrouw,Rechts,1,
,dotcolour,dotcolour,dotcolour,59,0,59,59,training,positivefb,70,average,54,0.9003573999999617,['n'],0,left,['1'],6,0.30788270000005014,,,37,32,Vrouw,Rechts,1,
,dotcolour,dotcolour,dotcolour,0,1,60,60,training,positivefb,98,hard,45,0.9505748999999923,['c'],1,left,['1'],6,0.537161600000104,,,37,32,Vrouw,Rechts,1,
,dotcolour,dotcolour,dotcolour,1,1,61,61,training,positivefb,54,hard,44,0.7177789999999504,['n'],0,left,['1'],6,0.8871924999999692,,,37,32,Vrouw,Rechts,1,
,dotcolour,dotcolour,dotcolour,2,1,62,62,training,positivefb,87,average,53,3.44972400000006,['c'],1,left,['8'],3,0.4099856999999929,,,37,32,Vrouw,Rechts,1,
,dotcolour,dotcolour,dotcolour,3,1,63,63,training,positivefb,63,hard,35,1.2495675999999776,['c'],0,right,['8'],3,0.47192839999991065,,,37,32,Vrouw,Rechts,1,
,dotcolour,dotcolour,dotcolour,4,1,64,64,training,positivefb,78,average,51,0.7677092999999786,['n'],0,left,['2'],5,0.37460920000000897,,,37,32,Vrouw,Rechts,1,
,dotcolour,dotcolour,dotcolour,5,1,65,65,training,positivefb,97,average,51,0.7659345999999232,['c'],1,left,['2'],5,1.2013812000000144,,,37,32,Vrouw,Rechts,1,
,dotcolour,dotcolour,dotcolour,6,1,66,66,training,positivefb,98,average,51,0.7011264999999867,['c'],1,left,['2'],5,0.46061359999998785,,,37,32,Vrouw,Rechts,1,
,dotcolour,dotcolour,dotcolour,7,1,67,67,training,positivefb,97,easy,18,0.6836490999999114,['n'],1,right,['2'],5,0.7433111000000281,,,37,32,Vrouw,Rechts,1,
,dotcolour,dotcolour,dotcolour,8,1,68,68,training,positivefb,84,average,29,0.6343557999999803,['n'],1,right,['2'],5,0.35273370000004434,,,37,32,Vrouw,Rechts,1,
,dotcolour,dotcolour,dotcolour,9,1,69,69,training,positivefb,98,easy,15,0.716549299999997,['n'],1,right,['2'],5,0.6301187000000255,,,37,32,Vrouw,Rechts,1,
,dotcolour,dotcolour,dotcolour,10,1,70,70,training,positivefb,97,average,26,0.7666805000000068,['n'],1,right,['1'],6,0.2947510000000193,,,37,32,Vrouw,Rechts,1,
,dotcolour,dotcolour,dotcolour,11,1,71,71,training,positivefb,99,easy,18,0.7666993000000275,['n'],1,right,['1'],6,0.9567522999999483,,,37,32,Vrouw,Rechts,1,
,dotcolour,dotcolour,dotcolour,12,1,72,72,training,positivefb,59,average,27,1.0172016999999869,['n'],1,right,['1'],6,0.3980470000000196,,,37,32,Vrouw,Rechts,1,
,dotcolour,dotcolour,dotcolour,13,1,73,73,training,positivefb,97,easy,18,0.9009267000000136,['n'],1,right,['1'],6,1.0027240000000575,,,37,32,Vrouw,Rechts,1,
,dotcolour,dotcolour,dotcolour,14,1,74,74,training,positivefb,99,easy,18,0.8177279999999882,['n'],1,right,['1'],6,0.6019861999999421,,,37,32,Vrouw,Rechts,1,
,dotcolour,dotcolour,dotcolour,15,1,75,75,training,positivefb,94,easy,17,0.9342260000000806,['n'],1,right,['1'],6,0.47679149999999026,,,37,32,Vrouw,Rechts,1,
,dotcolour,dotcolour,dotcolour,16,1,76,76,training,positivefb,96,average,26,0.6164945000000444,['n'],1,right,['1'],6,0.35315639999998893,,,37,32,Vrouw,Rechts,1,
,dotcolour,dotcolour,dotcolour,17,1,77,77,training,positivefb,89,average,25,0.5997103000000834,['n'],1,right,['1'],6,0.5874132999999802,,,37,32,Vrouw,Rechts,1,
,dotcolour,dotcolour,dotcolour,18,1,78,78,training,positivefb,96,average,55,0.8843046000000641,['c'],1,left,['8'],3,0.752869300000043,,,37,32,Vrouw,Rechts,1,
,dotcolour,dotcolour,dotcolour,19,1,79,79,training,positivefb,73,average,51,0.7168761000000359,['c'],1,left,['8'],3,0.422164700000053,,,37,32,Vrouw,Rechts,1,
,dotcolour,dotcolour,dotcolour,20,1,80,80,training,positivefb,86,average,25,1.1327351999999564,['n'],1,right,['1'],6,0.32006409999996777,,,37,32,Vrouw,Rechts,1,
,dotcolour,dotcolour,dotcolour,21,1,81,81,training,positivefb,98,hard,35,0.7504216999999471,['n'],1,right,['1'],6,0.3174021999999468,,,37,32,Vrouw,Rechts,1,
,dotcolour,dotcolour,dotcolour,22,1,82,82,training,positivefb,97,easy,19,0.8844213999999511,['n'],1,right,['1'],6,0.8854956000000129,,,37,32,Vrouw,Rechts,1,
,dotcolour,dotcolour,dotcolour,23,1,83,83,training,positivefb,97,easy,63,0.9012622999999849,['c'],1,left,['1'],6,0.43817139999998744,,,37,32,Vrouw,Rechts,1,
,dotcolour,dotcolour,dotcolour,24,1,84,84,training,positivefb,88,hard,37,0.8493532999999616,['n'],1,right,['3'],4,0.5867117000000235,,,37,32,Vrouw,Rechts,1,
,dotcolour,dotcolour,dotcolour,25,1,85,85,training,positivefb,92,average,29,0.7663397999999688,['n'],1,right,['1'],6,0.34068330000002334,,,37,32,Vrouw,Rechts,1,
,dotcolour,dotcolour,dotcolour,26,1,86,86,training,positivefb,97,average,54,0.6672207999999955,['c'],1,left,['1'],6,0.3487778999999591,,,37,32,Vrouw,Rechts,1,
,dotcolour,dotcolour,dotcolour,27,1,87,87,training,positivefb,96,hard,42,0.616079099999979,['c'],1,left,['1'],6,0.3182124999999587,,,37,32,Vrouw,Rechts,1,
,dotcolour,dotcolour,dotcolour,28,1,88,88,training,positivefb,99,average,27,0.7503388000000086,['n'],1,right,['1'],6,0.5154559000000063,,,37,32,Vrouw,Rechts,1,
,dotcolour,dotcolour,dotcolour,29,1,89,89,training,positivefb,96,hard,38,0.6672027999999273,['n'],1,right,['1'],6,0.36435469999992165,,,37,32,Vrouw,Rechts,1,
,dotcolour,dotcolour,dotcolour,30,1,90,90,training,positivefb,98,average,51,0.7665786999999682,['c'],1,left,['1'],6,0.31140259999995124,,,37,32,Vrouw,Rechts,1,
,dotcolour,dotcolour,dotcolour,31,1,91,91,training,positivefb,37,hard,43,0.6335040999999819,['n'],0,left,['1'],6,0.3222686999999951,,,37,32,Vrouw,Rechts,1,
,dotcolour,dotcolour,dotcolour,32,1,92,92,training,positivefb,93,average,25,0.9834197000000131,['n'],1,right,['1'],6,0.2382149999999683,,,37,32,Vrouw,Rechts,1,
,dotcolour,dotcolour,dotcolour,33,1,93,93,training,positivefb,99,easy,61,0.6672733999999991,['c'],1,left,['1'],6,0.3138619999999719,,,37,32,Vrouw,Rechts,1,
,dotcolour,dotcolour,dotcolour,34,1,94,94,training,positivefb,87,easy,63,0.6503605999999991,['c'],1,left,['1'],6,0.24417559999994864,,,37,32,Vrouw,Rechts,1,
,dotcolour,dotcolour,dotcolour,35,1,95,95,training,positivefb,93,easy,62,0.6508695999999645,['c'],1,left,['1'],6,0.272837099999947,,,37,32,Vrouw,Rechts,1,
,dotcolour,dotcolour,dotcolour,36,1,96,96,training,positivefb,96,average,54,0.532848700000045,['c'],1,left,['1'],6,0.2809072999999671,,,37,32,Vrouw,Rechts,1,
,dotcolour,dotcolour,dotcolour,37,1,97,97,training,positivefb,79,hard,39,0.699674200000004,['c'],0,right,['3'],4,0.52229049999994,,,37,32,Vrouw,Rechts,1,
,dotcolour,dotcolour,dotcolour,38,1,98,98,training,positivefb,76,easy,65,0.9162056999999777,['c'],1,left,['1'],6,0.22475180000003547,,,37,32,Vrouw,Rechts,1,
,dotcolour,dotcolour,dotcolour,39,1,99,99,training,positivefb,96,hard,42,1.4173322999999982,['c'],1,left,['3'],4,0.6636111999999912,,,37,32,Vrouw,Rechts,1,
,dotcolour,dotcolour,dotcolour,40,1,100,100,training,positivefb,75,hard,38,0.982948800000031,['n'],1,right,['1'],6,0.31021069999997053,,,37,32,Vrouw,Rechts,1,
,dotcolour,dotcolour,dotcolour,41,1,101,101,training,positivefb,94,hard,41,0.6677869999999757,['c'],1,left,['1'],6,0.3196410000000469,,,37,32,Vrouw,Rechts,1,
,dotcolour,dotcolour,dotcolour,42,1,102,102,training,positivefb,83,hard,36,0.7326106000000436,['c'],0,right,['1'],6,0.26169630000003963,,,37,32,Vrouw,Rechts,1,
,dotcolour,dotcolour,dotcolour,43,1,103,103,training,positivefb,81,hard,39,0.6012530000000424,['c'],0,right,['1'],6,0.33966720000000805,,,37,32,Vrouw,Rechts,1,
,dotcolour,dotcolour,dotcolour,44,1,104,104,training,positivefb,97,average,55,0.8502813999999717,['c'],1,left,['1'],6,0.22836719999997968,,,37,32,Vrouw,Rechts,1,
,dotcolour,dotcolour,dotcolour,45,1,105,105,training,positivefb,50,hard,39,0.8168114999999716,['c'],0,right,['3'],4,0.31496019999997316,,,37,32,Vrouw,Rechts,1,
,dotcolour,dotcolour,dotcolour,46,1,106,106,training,positivefb,80,easy,19,1.1832551999999623,['n'],1,right,['1'],6,0.6786272000000508,,,37,32,Vrouw,Rechts,1,
,dotcolour,dotcolour,dotcolour,47,1,107,107,training,positivefb,96,hard,41,0.6505652000000737,['c'],1,left,['3'],4,0.38640589999999975,,,37,32,Vrouw,Rechts,1,
,dotcolour,dotcolour,dotcolour,48,1,108,108,training,positivefb,98,hard,44,0.6665883000000576,['n'],0,left,['1'],6,0.31232230000000527,,,37,32,Vrouw,Rechts,1,
,dotcolour,dotcolour,dotcolour,49,1,109,109,training,positivefb,97,easy,17,0.8665088000000196,['n'],1,right,['1'],6,0.28966669999999795,,,37,32,Vrouw,Rechts,1,
,dotcolour,dotcolour,dotcolour,50,1,110,110,training,positivefb,93,easy,62,1.1345265999999583,['c'],1,left,['1'],6,0.32898929999998927,,,37,32,Vrouw,Rechts,1,
,dotcolour,dotcolour,dotcolour,51,1,111,111,training,positivefb,93,average,27,0.8999330999999984,['n'],1,right,['3'],4,0.40844110000000455,,,37,32,Vrouw,Rechts,1,
,dotcolour,dotcolour,dotcolour,52,1,112,112,training,positivefb,90,hard,39,1.4174721000000545,['n'],1,right,['3'],4,0.12764709999999013,,,37,32,Vrouw,Rechts,1,
,dotcolour,dotcolour,dotcolour,53,1,113,113,training,positivefb,97,easy,62,0.7159067999999706,['c'],1,left,['1'],6,0.31037159999993946,,,37,32,Vrouw,Rechts,1,
,dotcolour,dotcolour,dotcolour,54,1,114,114,training,positivefb,85,easy,62,0.6502031999999645,['c'],1,left,['3'],4,0.6403912000000673,,,37,32,Vrouw,Rechts,1,
,dotcolour,dotcolour,dotcolour,55,1,115,115,training,positivefb,98,hard,44,0.7502676999999949,['c'],1,left,['3'],4,0.26503390000004856,,,37,32,Vrouw,Rechts,1,
,dotcolour,dotcolour,dotcolour,56,1,116,116,training,positivefb,97,easy,17,0.7997914999999693,['n'],1,right,['1'],6,0.33447690000002694,,,37,32,Vrouw,Rechts,1,
,dotcolour,dotcolour,dotcolour,57,1,117,117,training,positivefb,78,hard,43,0.800599600000055,['n'],0,left,['3'],4,0.25726750000001175,,,37,32,Vrouw,Rechts,1,
,dotcolour,dotcolour,dotcolour,58,1,118,118,training,positivefb,90,easy,64,1.0663944999998876,['c'],1,left,['1'],6,0.3165417999999818,,,37,32,Vrouw,Rechts,1,
,dotcolour,dotcolour,dotcolour,59,1,119,119,training,positivefb,93,easy,63,0.8496668000000227,['c'],1,left,['1'],6,0.2697423000000754,,,37,32,Vrouw,Rechts,1,
,dotcolour,dotcolour,dotcolour,0,2,120,120,main,positivefb,-99,average,52,2.0344115999999985,['c'],1,left,['3'],4,1.2352754000000914,,,37,32,Vrouw,Rechts,1,
,dotcolour,dotcolour,dotcolour,1,2,121,121,main,positivefb,-99,hard,45,0.6168157999999266,['c'],1,left,['3'],4,0.2818573000000697,,,37,32,Vrouw,Rechts,1,
,dotcolour,dotcolour,dotcolour,2,2,122,122,main,positivefb,-99,easy,15,0.9002444000000196,['n'],1,right,['1'],6,0.3392006000000265,,,37,32,Vrouw,Rechts,1,
,dotcolour,dotcolour,dotcolour,3,2,123,123,main,positivefb,-99,easy,63,0.8330344999999397,['c'],1,left,['1'],6,0.26119740000001457,,,37,32,Vrouw,Rechts,1,
,dotcolour,dotcolour,dotcolour,4,2,124,124,main,positivefb,-99,hard,44,1.2334749999999985,['c'],1,left,['3'],4,0.23453170000016144,,,37,32,Vrouw,Rechts,1,
,dotcolour,dotcolour,dotcolour,5,2,125,125,main,positivefb,-99,easy,16,0.8997718999999051,['n'],1,right,['1'],6,0.25386669999988953,,,37,32,Vrouw,Rechts,1,
,dotcolour,dotcolour,dotcolour,6,2,126,126,main,positivefb,-99,average,29,0.916692699999885,['n'],1,right,['1'],6,0.1753004999998211,,,37,32,Vrouw,Rechts,1,
,dotcolour,dotcolour,dotcolour,7,2,127,127,main,positivefb,-99,hard,37,0.8163867999999184,['n'],1,right,['3'],4,0.2011989000000085,,,37,32,Vrouw,Rechts,1,
,dotcolour,dotcolour,dotcolour,8,2,128,128,main,positivefb,-99,easy,64,0.5503981999997904,['c'],1,left,['1'],6,0.3398116000000755,,,37,32,Vrouw,Rechts,1,
,dotcolour,dotcolour,dotcolour,9,2,129,129,main,positivefb,-99,easy,62,0.584773499999983,['c'],1,left,['1'],6,0.2796356999999716,,,37,32,Vrouw,Rechts,1,
,dotcolour,dotcolour,dotcolour,10,2,130,130,main,positivefb,-99,average,54,0.6507965999999215,['c'],1,left,['1'],6,0.22790340000005926,,,37,32,Vrouw,Rechts,1,
,dotcolour,dotcolour,dotcolour,11,2,131,131,main,positivefb,-99,hard,36,0.8170847999999751,['n'],1,right,['3'],4,0.22630930000013905,,,37,32,Vrouw,Rechts,1,
,dotcolour,dotcolour,dotcolour,12,2,132,132,main,positivefb,-99,hard,43,0.767698800000062,['n'],0,left,['3'],4,0.3081455999999889,,,37,32,Vrouw,Rechts,1,
,dotcolour,dotcolour,dotcolour,13,2,133,133,main,positivefb,-99,average,53,0.8338470000001053,['c'],1,left,['1'],6,0.32786349999992126,,,37,32,Vrouw,Rechts,1,
,dotcolour,dotcolour,dotcolour,14,2,134,134,main,positivefb,-99,average,54,0.7681496000000152,['c'],1,left,['1'],6,0.18863180000016655,,,37,32,Vrouw,Rechts,1,
,dotcolour,dotcolour,dotcolour,15,2,135,135,main,positivefb,-99,hard,43,1.3168940000000475,['c'],1,left,['3'],4,0.6335888999999497,,,37,32,Vrouw,Rechts,1,
,dotcolour,dotcolour,dotcolour,16,2,136,136,main,positivefb,-99,hard,43,0.7503811000001406,['c'],1,left,['3'],4,0.2511749000000236,,,37,32,Vrouw,Rechts,1,
,dotcolour,dotcolour,dotcolour,17,2,137,137,main,positivefb,-99,hard,37,0.9679873000000043,['n'],1,right,['1'],6,0.33839929999999185,,,37,32,Vrouw,Rechts,1,
,dotcolour,dotcolour,dotcolour,18,2,138,138,main,positivefb,-99,average,25,0.7176884999998947,['n'],1,right,['1'],6,0.19333709999978055,,,37,32,Vrouw,Rechts,1,
,dotcolour,dotcolour,dotcolour,19,2,139,139,main,positivefb,-99,average,52,1.0499015000000327,['c'],1,left,['1'],6,0.16922440000007555,,,37,32,Vrouw,Rechts,1,
,dotcolour,dotcolour,dotcolour,20,2,140,140,main,positivefb,-99,average,54,0.9168832999998813,['c'],1,left,['1'],6,0.16631290000009358,,,37,32,Vrouw,Rechts,1,
,dotcolour,dotcolour,dotcolour,21,2,141,141,main,positivefb,-99,average,28,0.6179015999998683,['n'],1,right,['1'],6,0.22364040000002205,,,37,32,Vrouw,Rechts,1,
,dotcolour,dotcolour,dotcolour,22,2,142,142,main,positivefb,-99,hard,41,1.1010521999999128,['c'],1,left,['3'],4,0.171427999999878,,,37,32,Vrouw,Rechts,1,
,dotcolour,dotcolour,dotcolour,23,2,143,143,main,positivefb,-99,easy,64,0.9337053000001561,['c'],1,left,['1'],6,0.10419360000014422,,,37,32,Vrouw,Rechts,1,
,dotcolour,dotcolour,dotcolour,24,2,144,144,main,positivefb,-99,hard,42,0.9833750999998756,['c'],1,left,['3'],4,0.22203339999987293,,,37,32,Vrouw,Rechts,1,
,dotcolour,dotcolour,dotcolour,25,2,145,145,main,positivefb,-99,easy,15,0.6835596000000805,['n'],1,right,['1'],6,0.3145368000000417,,,37,32,Vrouw,Rechts,1,
,dotcolour,dotcolour,dotcolour,26,2,146,146,main,positivefb,-99,average,25,0.6166511999999784,['n'],1,right,['1'],6,0.25504210000008243,,,37,32,Vrouw,Rechts,1,
,dotcolour,dotcolour,dotcolour,27,2,147,147,main,positivefb,-99,average,26,0.7343421999999009,['n'],1,right,['1'],6,0.1431187000000591,,,37,32,Vrouw,Rechts,1,
,dotcolour,dotcolour,dotcolour,28,2,148,148,main,positivefb,-99,hard,42,1.450125000000071,['c'],1,left,['1'],6,0.23346749999996064,,,37,32,Vrouw,Rechts,1,
,dotcolour,dotcolour,dotcolour,29,2,149,149,main,positivefb,-99,hard,37,0.7828391000000465,['n'],1,right,['1'],6,0.21712730000012925,,,37,32,Vrouw,Rechts,1,
,dotcolour,dotcolour,dotcolour,30,2,150,150,main,positivefb,-99,easy,61,0.8515036999999666,['c'],1,left,['1'],6,0.2868395000000419,,,37,32,Vrouw,Rechts,1,
,dotcolour,dotcolour,dotcolour,31,2,151,151,main,positivefb,-99,average,28,0.7174889999998868,['n'],1,right,['1'],6,0.21582469999998466,,,37,32,Vrouw,Rechts,1,
,dotcolour,dotcolour,dotcolour,32,2,152,152,main,positivefb,-99,average,28,0.6177408999999443,['n'],1,right,['1'],6,0.2475301000001764,,,37,32,Vrouw,Rechts,1,
,dotcolour,dotcolour,dotcolour,33,2,153,153,main,positivefb,-99,average,27,0.6001283999999032,['n'],1,right,['1'],6,0.14263819999996485,,,37,32,Vrouw,Rechts,1,
,dotcolour,dotcolour,dotcolour,34,2,154,154,main,positivefb,-99,easy,16,0.5338564000001043,['n'],1,right,['1'],6,0.19679420000011305,,,37,32,Vrouw,Rechts,1,
,dotcolour,dotcolour,dotcolour,35,2,155,155,main,positivefb,-99,hard,39,1.0507543999999598,['c'],0,right,['3'],4,0.34790350000002945,,,37,32,Vrouw,Rechts,1,
,dotcolour,dotcolour,dotcolour,36,2,156,156,main,positivefb,-99,easy,16,0.6004462000000785,['n'],1,right,['1'],6,0.21532920000004196,,,37,32,Vrouw,Rechts,1,
,dotcolour,dotcolour,dotcolour,37,2,157,157,main,positivefb,-99,average,53,0.883730599999808,['c'],1,left,['1'],6,0.243906700000025,,,37,32,Vrouw,Rechts,1,
,dotcolour,dotcolour,dotcolour,38,2,158,158,main,positivefb,-99,average,54,0.616815699999961,['c'],1,left,['1'],6,0.18663829999991322,,,37,32,Vrouw,Rechts,1,
,dotcolour,dotcolour,dotcolour,39,2,159,159,main,positivefb,-99,average,28,0.6006843000000117,['n'],1,right,['1'],6,0.17178370000010545,,,37,32,Vrouw,Rechts,1,
,dotcolour,dotcolour,dotcolour,40,2,160,160,main,positivefb,-99,average,29,0.617048000000068,['n'],1,right,['1'],6,0.18880859999990207,,,37,32,Vrouw,Rechts,1,
,dotcolour,dotcolour,dotcolour,41,2,161,161,main,positivefb,-99,easy,64,0.7342450999999528,['c'],1,left,['1'],6,0.1924265000000105,,,37,32,Vrouw,Rechts,1,
,dotcolour,dotcolour,dotcolour,42,2,162,162,main,positivefb,-99,hard,39,0.7168166999999812,['n'],1,right,['3'],4,0.2620272000001478,,,37,32,Vrouw,Rechts,1,
,dotcolour,dotcolour,dotcolour,43,2,163,163,main,positivefb,-99,easy,63,0.48455779999994775,['c'],1,left,['1'],6,0.2734287000000677,,,37,32,Vrouw,Rechts,1,
,dotcolour,dotcolour,dotcolour,44,2,164,164,main,positivefb,-99,easy,19,0.5167400000000271,['n'],1,right,['1'],6,0.25863249999997606,,,37,32,Vrouw,Rechts,1,
,dotcolour,dotcolour,dotcolour,45,2,165,165,main,positivefb,-99,easy,15,0.4834549000001971,['n'],1,right,['1'],6,0.2700691000000006,,,37,32,Vrouw,Rechts,1,
,dotcolour,dotcolour,dotcolour,46,2,166,166,main,positivefb,-99,hard,45,0.750736199999892,['c'],1,left,['1'],6,0.20537209999997685,,,37,32,Vrouw,Rechts,1,
,dotcolour,dotcolour,dotcolour,47,2,167,167,main,positivefb,-99,easy,18,0.4836175999998886,['n'],1,right,['1'],6,0.2353912000000946,,,37,32,Vrouw,Rechts,1,
,dotcolour,dotcolour,dotcolour,48,2,168,168,main,positivefb,-99,hard,38,1.4339820999998665,['n'],1,right,['3'],4,0.1856950000001234,,,37,32,Vrouw,Rechts,1,
,dotcolour,dotcolour,dotcolour,49,2,169,169,main,positivefb,-99,easy,65,0.7342186000000765,['c'],1,left,['1'],6,0.22135590000016236,,,37,32,Vrouw,Rechts,1,
,dotcolour,dotcolour,dotcolour,50,2,170,170,main,positivefb,-99,hard,38,0.6996288000000277,['n'],1,right,['1'],6,0.16933739999990394,,,37,32,Vrouw,Rechts,1,
,dotcolour,dotcolour,dotcolour,51,2,171,171,main,positivefb,-99,hard,39,0.6838614000000689,['n'],1,right,['1'],6,0.14401699999984885,,,37,32,Vrouw,Rechts,1,
,dotcolour,dotcolour,dotcolour,52,2,172,172,main,positivefb,-99,average,54,0.5833440000001247,['c'],1,left,['1'],6,0.18792159999998148,,,37,32,Vrouw,Rechts,1,
,dotcolour,dotcolour,dotcolour,53,2,173,173,main,positivefb,-99,easy,15,0.41713099999992664,['n'],1,right,['1'],6,0.1486141000000316,,,37,32,Vrouw,Rechts,1,
,dotcolour,dotcolour,dotcolour,54,2,174,174,main,positivefb,-99,easy,63,0.5682064000000082,['c'],1,left,['1'],6,0.15178750000018226,,,37,32,Vrouw,Rechts,1,
,dotcolour,dotcolour,dotcolour,55,2,175,175,main,positivefb,-99,hard,45,0.7341326999999183,['n'],0,left,['3'],4,0.23821090000001277,,,37,32,Vrouw,Rechts,1,
,dotcolour,dotcolour,dotcolour,56,2,176,176,main,positivefb,-99,easy,19,0.5833695000001171,['n'],1,right,['1'],6,0.270053100000041,,,37,32,Vrouw,Rechts,1,
,dotcolour,dotcolour,dotcolour,57,2,177,177,main,positivefb,-99,average,52,0.5999815000000126,['c'],1,left,['1'],6,0.1803308000000925,,,37,32,Vrouw,Rechts,1,
,dotcolour,dotcolour,dotcolour,58,2,178,178,main,positivefb,-99,easy,62,0.6670470999999907,['n'],0,left,['9'],2,1.235819900000024,,,37,32,Vrouw,Rechts,1,
,dotcolour,dotcolour,dotcolour,59,2,179,179,main,positivefb,-99,hard,37,1.4502422000000479,['n'],1,right,['3'],4,0.20868129999985285,,,37,32,Vrouw,Rechts,1,
,dotcolour,dotcolour,dotcolour,0,3,180,180,main,positivefb,-99,easy,61,1.300705599999901,['c'],1,left,['1'],6,0.2930026999999882,,,37,32,Vrouw,Rechts,1,
,dotcolour,dotcolour,dotcolour,1,3,181,181,main,positivefb,-99,average,25,0.5681322000000364,['n'],1,right,['1'],6,0.18865049999999428,,,37,32,Vrouw,Rechts,1,
,dotcolour,dotcolour,dotcolour,2,3,182,182,main,positivefb,-99,hard,37,1.3171303999999964,['n'],1,right,['1'],6,0.08866979999993418,,,37,32,Vrouw,Rechts,1,
,dotcolour,dotcolour,dotcolour,3,3,183,183,main,positivefb,-99,average,27,0.567301900000075,['n'],1,right,['1'],6,0.239520500000026,,,37,32,Vrouw,Rechts,1,
,dotcolour,dotcolour,dotcolour,4,3,184,184,main,positivefb,-99,easy,19,0.4839694999998301,['n'],1,right,['1'],6,0.2519356999998763,,,37,32,Vrouw,Rechts,1,
,dotcolour,dotcolour,dotcolour,5,3,185,185,main,positivefb,-99,easy,61,0.8175165000000106,['c'],1,left,['1'],6,0.20960139999988314,,,37,32,Vrouw,Rechts,1,
,dotcolour,dotcolour,dotcolour,6,3,186,186,main,positivefb,-99,hard,36,0.5852122999999665,['n'],1,right,['3'],4,0.31538369999998395,,,37,32,Vrouw,Rechts,1,
,dotcolour,dotcolour,dotcolour,7,3,187,187,main,positivefb,-99,easy,17,0.6173287999999957,['n'],1,right,['1'],6,0.23091629999998986,,,37,32,Vrouw,Rechts,1,
,dotcolour,dotcolour,dotcolour,8,3,188,188,main,positivefb,-99,average,25,0.500561800000014,['n'],1,right,['1'],6,0.23425790000010238,,,37,32,Vrouw,Rechts,1,
,dotcolour,dotcolour,dotcolour,9,3,189,189,main,positivefb,-99,easy,16,0.5170705000000453,['n'],1,right,['1'],6,0.23740909999992255,,,37,32,Vrouw,Rechts,1,
,dotcolour,dotcolour,dotcolour,10,3,190,190,main,positivefb,-99,easy,61,1.0341310999999678,['c'],1,left,['1'],6,0.2186779999999544,,,37,32,Vrouw,Rechts,1,
,dotcolour,dotcolour,dotcolour,11,3,191,191,main,positivefb,-99,average,52,1.0170797999999195,['c'],1,left,['1'],6,0.2185163999999986,,,37,32,Vrouw,Rechts,1,
,dotcolour,dotcolour,dotcolour,12,3,192,192,main,positivefb,-99,average,52,0.5496090999999979,['c'],1,left,['1'],6,0.21280260000003182,,,37,32,Vrouw,Rechts,1,
,dotcolour,dotcolour,dotcolour,13,3,193,193,main,positivefb,-99,average,52,0.6678024000000278,['c'],1,left,['1'],6,0.2263050999999905,,,37,32,Vrouw,Rechts,1,
,dotcolour,dotcolour,dotcolour,14,3,194,194,main,positivefb,-99,hard,37,0.8340482999999494,['n'],1,right,['3'],4,0.2169634000001679,,,37,32,Vrouw,Rechts,1,
,dotcolour,dotcolour,dotcolour,15,3,195,195,main,positivefb,-99,hard,39,0.5342714000000797,['n'],1,right,['3'],4,0.21964249999996355,,,37,32,Vrouw,Rechts,1,
,dotcolour,dotcolour,dotcolour,16,3,196,196,main,positivefb,-99,hard,42,1.200821299999916,['n'],0,left,['3'],4,0.17115269999999327,,,37,32,Vrouw,Rechts,1,
,dotcolour,dotcolour,dotcolour,17,3,197,197,main,positivefb,-99,average,51,0.5504964000001564,['c'],1,left,['1'],6,0.23227990000009413,,,37,32,Vrouw,Rechts,1,
,dotcolour,dotcolour,dotcolour,18,3,198,198,main,positivefb,-99,easy,64,0.46743209999999635,['c'],1,left,['1'],6,0.18013810000002195,,,37,32,Vrouw,Rechts,1,
,dotcolour,dotcolour,dotcolour,19,3,199,199,main,positivefb,-99,average,51,0.4340669999999136,['c'],1,left,['1'],6,0.14127560000019912,,,37,32,Vrouw,Rechts,1,
,dotcolour,dotcolour,dotcolour,20,3,200,200,main,positivefb,-99,average,29,0.5671747999999752,['n'],1,right,['1'],6,0.21826900000019123,,,37,32,Vrouw,Rechts,1,
,dotcolour,dotcolour,dotcolour,21,3,201,201,main,positivefb,-99,easy,17,0.4507466000000022,['n'],1,right,['1'],6,0.23952639999993153,,,37,32,Vrouw,Rechts,1,
,dotcolour,dotcolour,dotcolour,22,3,202,202,main,positivefb,-99,average,27,0.6832549999999173,['n'],1,right,['1'],6,0.2196108999999069,,,37,32,Vrouw,Rechts,1,
,dotcolour,dotcolour,dotcolour,23,3,203,203,main,positivefb,-99,easy,18,0.55012140000008,['n'],1,right,['1'],6,0.15842980000002171,,,37,32,Vrouw,Rechts,1,
,dotcolour,dotcolour,dotcolour,24,3,204,204,main,positivefb,-99,hard,45,0.6682683999999881,['c'],1,left,['1'],6,0.17385880000006182,,,37,32,Vrouw,Rechts,1,
,dotcolour,dotcolour,dotcolour,25,3,205,205,main,positivefb,-99,easy,61,0.4839423999999326,['c'],1,left,['1'],6,0.10084799999981442,,,37,32,Vrouw,Rechts,1,
,dotcolour,dotcolour,dotcolour,26,3,206,206,main,positivefb,-99,average,55,0.4170040000001336,['c'],1,left,['1'],6,0.10371690000010858,,,37,32,Vrouw,Rechts,1,
,dotcolour,dotcolour,dotcolour,27,3,207,207,main,positivefb,-99,easy,64,0.3667751999998927,['c'],1,left,['1'],6,0.06225289999997585,,,37,32,Vrouw,Rechts,1,
,dotcolour,dotcolour,dotcolour,28,3,208,208,main,positivefb,-99,average,52,0.3842815000000428,['c'],1,left,['1'],6,0.1178128999999899,,,37,32,Vrouw,Rechts,1,
,dotcolour,dotcolour,dotcolour,29,3,209,209,main,positivefb,-99,hard,43,0.5844829999998638,['n'],0,left,['1'],6,0.12978369999996175,,,37,32,Vrouw,Rechts,1,
,dotcolour,dotcolour,dotcolour,30,3,210,210,main,positivefb,-99,hard,37,1.0174446999999418,['c'],0,right,['3'],4,0.15010849999998754,,,37,32,Vrouw,Rechts,1,
,dotcolour,dotcolour,dotcolour,31,3,211,211,main,positivefb,-99,hard,42,0.4671332000000348,['n'],0,left,['1'],6,0.22264580000000933,,,37,32,Vrouw,Rechts,1,
,dotcolour,dotcolour,dotcolour,32,3,212,212,main,positivefb,-99,average,29,0.6845230999999785,['n'],1,right,['1'],6,0.16197280000005776,,,37,32,Vrouw,Rechts,1,
,dotcolour,dotcolour,dotcolour,33,3,213,213,main,positivefb,-99,easy,19,0.9671566000001803,['n'],1,right,['1'],6,0.08700820000012754,,,37,32,Vrouw,Rechts,1,
,dotcolour,dotcolour,dotcolour,34,3,214,214,main,positivefb,-99,average,25,0.4345370000000912,['n'],1,right,['1'],6,0.21105609999995067,,,37,32,Vrouw,Rechts,1,
,dotcolour,dotcolour,dotcolour,35,3,215,215,main,positivefb,-99,hard,42,0.6505418000001555,['n'],0,left,['3'],4,0.40073969999980363,,,37,32,Vrouw,Rechts,1,
,dotcolour,dotcolour,dotcolour,36,3,216,216,main,positivefb,-99,easy,61,0.5500074999999924,['c'],1,left,['1'],6,0.1482614999999896,,,37,32,Vrouw,Rechts,1,
,dotcolour,dotcolour,dotcolour,37,3,217,217,main,positivefb,-99,easy,16,0.5349065000000337,['n'],1,right,['1'],6,0.22511550000012903,,,37,32,Vrouw,Rechts,1,
,dotcolour,dotcolour,dotcolour,38,3,218,218,main,positivefb,-99,average,55,0.5176367999999911,['c'],1,left,['1'],6,0.14891739999984566,,,37,32,Vrouw,Rechts,1,
,dotcolour,dotcolour,dotcolour,39,3,219,219,main,positivefb,-99,average,26,0.567343800000117,['n'],1,right,['1'],6,0.15231930000004468,,,37,32,Vrouw,Rechts,1,
,dotcolour,dotcolour,dotcolour,40,3,220,220,main,positivefb,-99,average,54,0.8336796999999478,['c'],1,left,['1'],6,0.15343830000006164,,,37,32,Vrouw,Rechts,1,
,dotcolour,dotcolour,dotcolour,41,3,221,221,main,positivefb,-99,easy,16,0.48386699999991833,['n'],1,right,['1'],6,0.16853229999992436,,,37,32,Vrouw,Rechts,1,
,dotcolour,dotcolour,dotcolour,42,3,222,222,main,positivefb,-99,hard,35,0.7011135999998714,['n'],1,right,['3'],4,0.24727999999981876,,,37,32,Vrouw,Rechts,1,
,dotcolour,dotcolour,dotcolour,43,3,223,223,main,positivefb,-99,easy,17,0.5006654999999682,['n'],1,right,['1'],6,0.19495789999996305,,,37,32,Vrouw,Rechts,1,
,dotcolour,dotcolour,dotcolour,44,3,224,224,main,positivefb,-99,hard,39,0.6168407000000116,['n'],1,right,['1'],6,0.1555844000001798,,,37,32,Vrouw,Rechts,1,
,dotcolour,dotcolour,dotcolour,45,3,225,225,main,positivefb,-99,average,55,0.9832754999999906,['c'],1,left,['1'],6,0.17498350000005303,,,37,32,Vrouw,Rechts,1,
,dotcolour,dotcolour,dotcolour,46,3,226,226,main,positivefb,-99,hard,37,0.8002206000001024,['n'],1,right,['3'],4,0.13679019999995035,,,37,32,Vrouw,Rechts,1,
,dotcolour,dotcolour,dotcolour,47,3,227,227,main,positivefb,-99,average,27,0.4674173000000792,['n'],1,right,['3'],4,0.30511830000000373,,,37,32,Vrouw,Rechts,1,
,dotcolour,dotcolour,dotcolour,48,3,228,228,main,positivefb,-99,hard,42,0.5178554000001441,['n'],0,left,['3'],4,0.18557420000001912,,,37,32,Vrouw,Rechts,1,
,dotcolour,dotcolour,dotcolour,49,3,229,229,main,positivefb,-99,easy,63,0.8005726999999752,['c'],1,left,['1'],6,0.1705627999999706,,,37,32,Vrouw,Rechts,1,
,dotcolour,dotcolour,dotcolour,50,3,230,230,main,positivefb,-99,average,29,0.6182988000000478,['n'],1,right,['3'],4,0.21955239999988407,,,37,32,Vrouw,Rechts,1,
,dotcolour,dotcolour,dotcolour,51,3,231,231,main,positivefb,-99,hard,45,0.8340665000000627,['c'],1,left,['3'],4,0.38635419999991427,,,37,32,Vrouw,Rechts,1,
,dotcolour,dotcolour,dotcolour,52,3,232,232,main,positivefb,-99,hard,38,0.901659299999892,['n'],1,right,['3'],4,0.3353537000000415,,,37,32,Vrouw,Rechts,1,
,dotcolour,dotcolour,dotcolour,53,3,233,233,main,positivefb,-99,easy,62,0.900680599999987,['c'],1,left,['1'],6,0.1189156999998886,,,37,32,Vrouw,Rechts,1,
,dotcolour,dotcolour,dotcolour,54,3,234,234,main,positivefb,-99,hard,41,0.6670031999999537,['c'],1,left,['1'],6,0.06483649999995578,,,37,32,Vrouw,Rechts,1,
,dotcolour,dotcolour,dotcolour,55,3,235,235,main,positivefb,-99,easy,16,0.5169298999999228,['n'],1,right,['1'],6,0.15492900000003829,,,37,32,Vrouw,Rechts,1,
,dotcolour,dotcolour,dotcolour,56,3,236,236,main,positivefb,-99,hard,45,0.5501698000000488,['c'],1,left,['1'],6,0.12646810000001096,,,37,32,Vrouw,Rechts,1,
,dotcolour,dotcolour,dotcolour,57,3,237,237,main,positivefb,-99,hard,41,0.5833753000001707,['n'],0,left,['1'],6,0.10838410000019394,,,37,32,Vrouw,Rechts,1,
,dotcolour,dotcolour,dotcolour,58,3,238,238,main,positivefb,-99,hard,37,0.4334169000001111,['c'],0,right,['2'],5,0.43952949999993507,,,37,32,Vrouw,Rechts,1,
,dotcolour,dotcolour,dotcolour,59,3,239,239,main,positivefb,-99,easy,63,0.5347360999999182,['c'],1,left,['1'],6,0.24954860000002554,,,37,32,Vrouw,Rechts,1,
,dotcolour,dotcolour,dotcolour,0,4,240,240,main,positivefb,-99,average,55,1.0006587000000309,['c'],1,left,['1'],6,0.1930174999999963,,,37,32,Vrouw,Rechts,1,
,dotcolour,dotcolour,dotcolour,1,4,241,241,main,positivefb,-99,easy,61,0.48293820000003507,['c'],1,left,['1'],6,0.11116389999983767,,,37,32,Vrouw,Rechts,1,
,dotcolour,dotcolour,dotcolour,2,4,242,242,main,positivefb,-99,average,51,0.4686805999999706,['c'],1,left,['1'],6,0.06471370000008392,,,37,32,Vrouw,Rechts,1,
,dotcolour,dotcolour,dotcolour,3,4,243,243,main,positivefb,-99,average,25,1.0328914000001532,['n'],1,right,['1'],6,0.1655355000000327,,,37,32,Vrouw,Rechts,1,
,dotcolour,dotcolour,dotcolour,4,4,244,244,main,positivefb,-99,hard,44,0.6175458999998682,['n'],0,left,['3'],4,0.2631309999999303,,,37,32,Vrouw,Rechts,1,
,dotcolour,dotcolour,dotcolour,5,4,245,245,main,positivefb,-99,average,55,0.5833072000000357,['c'],1,left,['1'],6,0.11083910000002106,,,37,32,Vrouw,Rechts,1,
,dotcolour,dotcolour,dotcolour,6,4,246,246,main,positivefb,-99,hard,41,0.4502511000000595,['c'],1,left,['1'],6,0.10560499999996864,,,37,32,Vrouw,Rechts,1,
,dotcolour,dotcolour,dotcolour,7,4,247,247,main,positivefb,-99,average,55,0.38417299999991883,['c'],1,left,['1'],6,0.0782337999999072,,,37,32,Vrouw,Rechts,1,
,dotcolour,dotcolour,dotcolour,8,4,248,248,main,positivefb,-99,hard,37,0.6175705000000562,['n'],1,right,['3'],4,0.5803430999999364,,,37,32,Vrouw,Rechts,1,
,dotcolour,dotcolour,dotcolour,9,4,249,249,main,positivefb,-99,average,27,0.6336243999999169,['n'],1,right,['1'],6,0.24476019999997334,,,37,32,Vrouw,Rechts,1,
,dotcolour,dotcolour,dotcolour,10,4,250,250,main,positivefb,-99,easy,64,0.5831230000001142,['c'],1,left,['1'],6,0.18896079999990434,,,37,32,Vrouw,Rechts,1,
,dotcolour,dotcolour,dotcolour,11,4,251,251,main,positivefb,-99,hard,43,0.3836845999999241,['c'],1,left,['1'],6,0.12693549999994502,,,37,32,Vrouw,Rechts,1,
,dotcolour,dotcolour,dotcolour,12,4,252,252,main,positivefb,-99,average,51,0.4667349999999715,['c'],1,left,['1'],6,0.024292299999842726,,,37,32,Vrouw,Rechts,1,
,dotcolour,dotcolour,dotcolour,13,4,253,253,main,positivefb,-99,hard,45,0.6169737000000168,['n'],0,left,['3'],4,0.13569090000009965,,,37,32,Vrouw,Rechts,1,
,dotcolour,dotcolour,dotcolour,14,4,254,254,main,positivefb,-99,hard,35,0.816463800000065,['n'],1,right,['1'],6,0.13022090000004027,,,37,32,Vrouw,Rechts,1,
,dotcolour,dotcolour,dotcolour,15,4,255,255,main,positivefb,-99,average,29,0.4675312000001668,['n'],1,right,['1'],6,0.1238020000000688,,,37,32,Vrouw,Rechts,1,
,dotcolour,dotcolour,dotcolour,16,4,256,256,main,positivefb,-99,easy,63,0.6167747000001782,['c'],1,left,['1'],6,0.08700390000012703,,,37,32,Vrouw,Rechts,1,
,dotcolour,dotcolour,dotcolour,17,4,257,257,main,positivefb,-99,average,27,0.5841914000000088,['n'],1,right,['1'],6,0.14026909999984127,,,37,32,Vrouw,Rechts,1,
,dotcolour,dotcolour,dotcolour,18,4,258,258,main,positivefb,-99,hard,41,0.5497808000000077,['c'],1,left,['3'],4,0.5384771999999884,,,37,32,Vrouw,Rechts,1,
,dotcolour,dotcolour,dotcolour,19,4,259,259,main,positivefb,-99,hard,38,0.816256199999998,['n'],1,right,['3'],4,0.14090029999988474,,,37,32,Vrouw,Rechts,1,
,dotcolour,dotcolour,dotcolour,20,4,260,260,main,positivefb,-99,easy,18,0.5176309000000856,['n'],1,right,['1'],6,0.2832017000000633,,,37,32,Vrouw,Rechts,1,
,dotcolour,dotcolour,dotcolour,21,4,261,261,main,positivefb,-99,hard,37,0.5169137000000319,['n'],1,right,['1'],6,0.1082797000001392,,,37,32,Vrouw,Rechts,1,
,dotcolour,dotcolour,dotcolour,22,4,262,262,main,positivefb,-99,easy,63,0.46655660000010357,['c'],1,left,['1'],6,0.09424930000000131,,,37,32,Vrouw,Rechts,1,
,dotcolour,dotcolour,dotcolour,23,4,263,263,main,positivefb,-99,easy,64,0.4837547999998151,['c'],1,left,['1'],6,0.04033720000006724,,,37,32,Vrouw,Rechts,1,
,dotcolour,dotcolour,dotcolour,24,4,264,264,main,positivefb,-99,hard,42,0.4013468999999077,['c'],1,left,['1'],6,0.0076030999998693005,,,37,32,Vrouw,Rechts,1,
,dotcolour,dotcolour,dotcolour,25,4,265,265,main,positivefb,-99,hard,39,0.8170144999999138,['n'],1,right,['3'],4,0.11159369999995761,,,37,32,Vrouw,Rechts,1,
,dotcolour,dotcolour,dotcolour,26,4,266,266,main,positivefb,-99,easy,15,0.5006299000001491,['n'],1,right,['1'],6,0.10363280000001396,,,37,32,Vrouw,Rechts,1,
,dotcolour,dotcolour,dotcolour,27,4,267,267,main,positivefb,-99,easy,17,0.46760410000001684,['n'],1,right,['1'],6,0.08238940000001094,,,37,32,Vrouw,Rechts,1,
,dotcolour,dotcolour,dotcolour,28,4,268,268,main,positivefb,-99,hard,42,0.667116999999962,['n'],0,left,['1'],6,0.22827870000014627,,,37,32,Vrouw,Rechts,1,
,dotcolour,dotcolour,dotcolour,29,4,269,269,main,positivefb,-99,hard,36,0.6843896999998833,['n'],1,right,['3'],4,0.18530660000010357,,,37,32,Vrouw,Rechts,1,
,dotcolour,dotcolour,dotcolour,30,4,270,270,main,positivefb,-99,easy,15,0.5175460999998904,['n'],1,right,['1'],6,0.15054090000012366,,,37,32,Vrouw,Rechts,1,
,dotcolour,dotcolour,dotcolour,31,4,271,271,main,positivefb,-99,easy,62,0.5160713000000214,['n'],0,left,['9'],2,0.8844186999999692,,,37,32,Vrouw,Rechts,1,
,dotcolour,dotcolour,dotcolour,32,4,272,272,main,positivefb,-99,average,54,0.849891899999875,['n'],0,left,['3'],4,0.207992799999829,,,37,32,Vrouw,Rechts,1,
,dotcolour,dotcolour,dotcolour,33,4,273,273,main,positivefb,-99,hard,39,0.7170836000000236,['n'],1,right,['3'],4,0.6997994000000745,,,37,32,Vrouw,Rechts,1,
,dotcolour,dotcolour,dotcolour,34,4,274,274,main,positivefb,-99,average,25,0.9336487000000488,['c'],0,right,['1'],6,0.7951150000001235,,,37,32,Vrouw,Rechts,1,
,dotcolour,dotcolour,dotcolour,35,4,275,275,main,positivefb,-99,average,54,0.6176883999999063,['n'],0,left,['1'],6,0.12286119999998846,,,37,32,Vrouw,Rechts,1,
,dotcolour,dotcolour,dotcolour,36,4,276,276,main,positivefb,-99,average,55,0.4001074999998764,['n'],0,left,['1'],6,0.18372090000002572,,,37,32,Vrouw,Rechts,1,
,dotcolour,dotcolour,dotcolour,37,4,277,277,main,positivefb,-99,easy,17,0.5347378999999819,['n'],1,right,['1'],6,0.13878909999993994,,,37,32,Vrouw,Rechts,1,
,dotcolour,dotcolour,dotcolour,38,4,278,278,main,positivefb,-99,easy,16,0.4173319999999876,['n'],1,right,['1'],6,0.08610229999999319,,,37,32,Vrouw,Rechts,1,
,dotcolour,dotcolour,dotcolour,39,4,279,279,main,positivefb,-99,average,28,0.517492700000048,['n'],1,right,['1'],6,0.08696820000000116,,,37,32,Vrouw,Rechts,1,
,dotcolour,dotcolour,dotcolour,40,4,280,280,main,positivefb,-99,easy,18,0.483563199999935,['n'],1,right,['1'],6,0.0729318000001058,,,37,32,Vrouw,Rechts,1,
,dotcolour,dotcolour,dotcolour,41,4,281,281,main,positivefb,-99,average,28,0.6172411000000011,['n'],1,right,['1'],6,0.046394599999985076,,,37,32,Vrouw,Rechts,1,
,dotcolour,dotcolour,dotcolour,42,4,282,282,main,positivefb,-99,easy,19,0.5178674999999657,['n'],1,right,['1'],6,0.05642509999984213,,,37,32,Vrouw,Rechts,1,
,dotcolour,dotcolour,dotcolour,43,4,283,283,main,positivefb,-99,hard,44,0.6181331000000228,['n'],0,left,['3'],4,0.13510480000013558,,,37,32,Vrouw,Rechts,1,
,dotcolour,dotcolour,dotcolour,44,4,284,284,main,positivefb,-99,hard,42,0.6828207999999449,['n'],0,left,['3'],4,0.09453419999999824,,,37,32,Vrouw,Rechts,1,
,dotcolour,dotcolour,dotcolour,45,4,285,285,main,positivefb,-99,easy,63,0.8173862000001009,['c'],1,left,['1'],6,0.09875209999995604,,,37,32,Vrouw,Rechts,1,
,dotcolour,dotcolour,dotcolour,46,4,286,286,main,positivefb,-99,easy,63,0.4005724999999529,['c'],1,left,['1'],6,0.8159610999998677,,,37,32,Vrouw,Rechts,1,
,dotcolour,dotcolour,dotcolour,47,4,287,287,main,positivefb,-99,easy,65,0.45060190000003786,['c'],1,left,['1'],6,0.05441069999983483,,,37,32,Vrouw,Rechts,1,
,dotcolour,dotcolour,dotcolour,48,4,288,288,main,positivefb,-99,average,53,0.6013065000001916,['c'],1,left,['1'],6,0.061058499999944615,,,37,32,Vrouw,Rechts,1,
,dotcolour,dotcolour,dotcolour,49,4,289,289,main,positivefb,-99,average,29,0.6505319999998846,['n'],1,right,['3'],4,0.16165639999985615,,,37,32,Vrouw,Rechts,1,
,dotcolour,dotcolour,dotcolour,50,4,290,290,main,positivefb,-99,easy,16,0.5837922000000617,['n'],1,right,['1'],6,0.25279669999986254,,,37,32,Vrouw,Rechts,1,
,dotcolour,dotcolour,dotcolour,51,4,291,291,main,positivefb,-99,hard,44,0.7666116000000329,['n'],0,left,['3'],4,0.13302219999991394,,,37,32,Vrouw,Rechts,1,
,dotcolour,dotcolour,dotcolour,52,4,292,292,main,positivefb,-99,hard,35,0.5824975999998969,['n'],1,right,['3'],4,0.20913440000003902,,,37,32,Vrouw,Rechts,1,
,dotcolour,dotcolour,dotcolour,53,4,293,293,main,positivefb,-99,average,25,0.683573000000024,['n'],1,right,['1'],6,0.19842319999997926,,,37,32,Vrouw,Rechts,1,
,dotcolour,dotcolour,dotcolour,54,4,294,294,main,positivefb,-99,average,51,0.8510873999998694,['c'],1,left,['1'],6,0.20509450000008655,,,37,32,Vrouw,Rechts,1,
,dotcolour,dotcolour,dotcolour,55,4,295,295,main,positivefb,-99,hard,35,0.6508596999999554,['n'],1,right,['1'],6,0.20386580000013055,,,37,32,Vrouw,Rechts,1,
,dotcolour,dotcolour,dotcolour,56,4,296,296,main,positivefb,-99,easy,16,0.5506828000000041,['n'],1,right,['1'],6,0.37482010000007904,,,37,32,Vrouw,Rechts,1,
,dotcolour,dotcolour,dotcolour,57,4,297,297,main,positivefb,-99,hard,35,0.599991399999908,['n'],1,right,['1'],6,0.12045650000004571,,,37,32,Vrouw,Rechts,1,
,dotcolour,dotcolour,dotcolour,58,4,298,298,main,positivefb,-99,easy,64,0.4684861999999157,['c'],1,left,['1'],6,0.20185209999999643,,,37,32,Vrouw,Rechts,1,
,dotcolour,dotcolour,dotcolour,59,4,299,299,main,positivefb,-99,average,27,0.5509116000000631,['n'],1,right,['1'],6,0.11650699999995595,,,37,32,Vrouw,Rechts,1,
,dotcolour,dotcolour,dotcolour,0,0,0,300,training,positivefb,90,hard,36,1.5336430999998356,['n'],1,right,['1'],6,0.10956020000003264,,,37,32,Vrouw,Rechts,1,
,dotcolour,dotcolour,dotcolour,1,0,1,301,training,positivefb,97,average,26,0.4179272999999739,['n'],1,right,['1'],6,0.18507049999993797,,,37,32,Vrouw,Rechts,1,
,dotcolour,dotcolour,dotcolour,2,0,2,302,training,positivefb,98,easy,64,0.132304700000077,['n'],0,left,['1'],6,0.05775139999991552,,,37,32,Vrouw,Rechts,1,
,dotcolour,dotcolour,dotcolour,3,0,3,303,training,positivefb,94,easy,18,0.7837741999999253,['n'],1,right,['1'],6,0.008267000000159896,,,37,32,Vrouw,Rechts,1,
,dotcolour,dotcolour,dotcolour,4,0,4,304,training,positivefb,99,easy,19,0.40006080000011934,['n'],1,right,['1'],6,0.08024040000009336,,,37,32,Vrouw,Rechts,1,
,dotcolour,dotcolour,dotcolour,5,0,5,305,training,positivefb,88,easy,62,1.0677256999999827,['c'],1,left,['1'],6,0.12308670000015809,,,37,32,Vrouw,Rechts,1,
,dotcolour,dotcolour,dotcolour,6,0,6,306,training,positivefb,98,easy,62,0.46717080000007627,['c'],1,left,['1'],6,0.05997069999989435,,,37,32,Vrouw,Rechts,1,
,dotcolour,dotcolour,dotcolour,7,0,7,307,training,positivefb,79,average,26,0.43329819999985375,['c'],0,right,['1'],6,0.41649250000000393,,,37,32,Vrouw,Rechts,1,
,dotcolour,dotcolour,dotcolour,8,0,8,308,training,positivefb,96,hard,39,0.5501914999999826,['n'],1,right,['3'],4,0.9619434000001092,,,37,32,Vrouw,Rechts,1,
,dotcolour,dotcolour,dotcolour,9,0,9,309,training,positivefb,95,average,53,0.6673605999999381,['n'],0,left,['3'],4,0.0011130999998840707,,,37,32,Vrouw,Rechts,1,
,dotcolour,dotcolour,dotcolour,10,0,10,310,training,positivefb,89,hard,36,0.6010229000000891,['n'],1,right,['3'],4,0.09678810000013982,,,37,32,Vrouw,Rechts,1,
,dotcolour,dotcolour,dotcolour,11,0,11,311,training,positivefb,93,average,55,0.6166419999999562,['n'],0,left,['3'],4,0.10030659999983982,,,37,32,Vrouw,Rechts,1,
,dotcolour,dotcolour,dotcolour,12,0,12,312,training,positivefb,93,easy,18,0.6827568999999585,['n'],1,right,['1'],6,0.17323430000010376,,,37,32,Vrouw,Rechts,1,
,dotcolour,dotcolour,dotcolour,13,0,13,313,training,positivefb,65,hard,41,0.5667108000000098,['n'],0,left,['3'],4,0.7206533999999465,,,37,32,Vrouw,Rechts,1,
,dotcolour,dotcolour,dotcolour,14,0,14,314,training,positivefb,90,hard,35,0.6156197000000247,['n'],1,right,['3'],4,0.21918570000002546,,,37,32,Vrouw,Rechts,1,
,dotcolour,dotcolour,dotcolour,15,0,15,315,training,positivefb,91,average,51,0.9659477000000152,['c'],1,left,['1'],6,0.0998931999999968,,,37,32,Vrouw,Rechts,1,
,dotcolour,dotcolour,dotcolour,16,0,16,316,training,positivefb,96,easy,65,0.7161768999999367,['c'],1,left,['1'],6,0.09146850000001905,,,37,32,Vrouw,Rechts,1,
,dotcolour,dotcolour,dotcolour,17,0,17,317,training,positivefb,91,average,25,0.6665901000001213,['n'],1,right,['3'],4,0.084850200000119,,,37,32,Vrouw,Rechts,1,
,dotcolour,dotcolour,dotcolour,18,0,18,318,training,positivefb,94,average,26,0.4827383000001646,['n'],1,right,['3'],4,0.1345389000000523,,,37,32,Vrouw,Rechts,1,
,dotcolour,dotcolour,dotcolour,19,0,19,319,training,positivefb,94,average,28,0.917038600000069,['n'],1,right,['3'],4,0.012599300000147196,,,37,32,Vrouw,Rechts,1,
,dotcolour,dotcolour,dotcolour,20,0,20,320,training,positivefb,95,easy,17,0.7337276000000656,['n'],1,right,['1'],6,0.22323430000005828,,,37,32,Vrouw,Rechts,1,
,dotcolour,dotcolour,dotcolour,21,0,21,321,training,positivefb,92,hard,37,0.8680623999998716,['n'],1,right,['3'],4,0.2909971999999925,,,37,32,Vrouw,Rechts,1,
,dotcolour,dotcolour,dotcolour,22,0,22,322,training,positivefb,93,easy,19,1.0166830000000573,['n'],1,right,['1'],6,0.06288410000001932,,,37,32,Vrouw,Rechts,1,
,dotcolour,dotcolour,dotcolour,23,0,23,323,training,positivefb,81,easy,63,0.7666008000001057,['c'],1,left,['1'],6,0.11922479999998359,,,37,32,Vrouw,Rechts,1,
,dotcolour,dotcolour,dotcolour,24,0,24,324,training,positivefb,96,hard,38,0.7336022999998022,['n'],1,right,['3'],4,0.08498770000005607,,,37,32,Vrouw,Rechts,1,
,dotcolour,dotcolour,dotcolour,25,0,25,325,training,positivefb,97,easy,65,0.6995603000000301,['c'],1,left,['1'],6,0.09339460000001054,,,37,32,Vrouw,Rechts,1,
,dotcolour,dotcolour,dotcolour,26,0,26,326,training,positivefb,95,average,53,0.7496874999999363,['n'],0,left,['3'],4,0.08446589999994103,,,37,32,Vrouw,Rechts,1,
,dotcolour,dotcolour,dotcolour,27,0,27,327,training,positivefb,95,easy,16,0.7169739000000845,['n'],1,right,['1'],6,0.13258790000008958,,,37,32,Vrouw,Rechts,1,
,dotcolour,dotcolour,dotcolour,28,0,28,328,training,positivefb,95,easy,63,0.6675418999998328,['c'],1,left,['1'],6,0.11553449999996701,,,37,32,Vrouw,Rechts,1,
,dotcolour,dotcolour,dotcolour,29,0,29,329,training,positivefb,77,hard,43,0.7001050999999734,['n'],0,left,['3'],4,0.1241626000000906,,,37,32,Vrouw,Rechts,1,
,dotcolour,dotcolour,dotcolour,30,0,30,330,training,positivefb,81,average,27,0.7330034000001433,['n'],1,right,['1'],6,0.18583220000004985,,,37,32,Vrouw,Rechts,1,
,dotcolour,dotcolour,dotcolour,31,0,31,331,training,positivefb,93,hard,45,0.8170412999998007,['n'],0,left,['3'],4,0.0818438999999671,,,37,32,Vrouw,Rechts,1,
,dotcolour,dotcolour,dotcolour,32,0,32,332,training,positivefb,98,easy,64,0.6839425999999094,['c'],1,left,['1'],6,0.14729400000010173,,,37,32,Vrouw,Rechts,1,
,dotcolour,dotcolour,dotcolour,33,0,33,333,training,positivefb,97,hard,45,0.6509582000001046,['c'],1,left,['1'],6,0.09201740000003156,,,37,32,Vrouw,Rechts,1,
,dotcolour,dotcolour,dotcolour,34,0,34,334,training,positivefb,85,easy,61,0.7004097999999885,['n'],0,left,['3'],4,0.13167599999997037,,,37,32,Vrouw,Rechts,1,
,dotcolour,dotcolour,dotcolour,35,0,35,335,training,positivefb,87,easy,15,0.7330991999999696,['n'],1,right,['1'],6,0.05823849999978847,,,37,32,Vrouw,Rechts,1,
,dotcolour,dotcolour,dotcolour,36,0,36,336,training,positivefb,99,easy,15,0.5839354000002004,['n'],1,right,['1'],6,0.056495100000120146,,,37,32,Vrouw,Rechts,1,
,dotcolour,dotcolour,dotcolour,37,0,37,337,training,positivefb,90,hard,41,0.7341820999999982,['c'],1,left,['3'],4,0.07305190000010953,,,37,32,Vrouw,Rechts,1,
,dotcolour,dotcolour,dotcolour,38,0,38,338,training,positivefb,88,average,26,0.6512096999999812,['n'],1,right,['1'],6,0.11663159999989148,,,37,32,Vrouw,Rechts,1,
,dotcolour,dotcolour,dotcolour,39,0,39,339,training,positivefb,97,average,25,0.48432709999997314,['n'],1,right,['1'],6,0.0923854999998639,,,37,32,Vrouw,Rechts,1,
,dotcolour,dotcolour,dotcolour,40,0,40,340,training,positivefb,87,hard,44,0.4172206999999162,['n'],0,left,['1'],6,0.07288329999983034,,,37,32,Vrouw,Rechts,1,
,dotcolour,dotcolour,dotcolour,41,0,41,341,training,positivefb,95,easy,19,0.3494569000001775,['n'],1,right,['3'],4,0.04757289999997738,,,37,32,Vrouw,Rechts,1,
,dotcolour,dotcolour,dotcolour,42,0,42,342,training,positivefb,63,average,51,0.4329271999999946,['n'],0,left,['9'],2,0.7653658000001542,,,37,32,Vrouw,Rechts,1,
,dotcolour,dotcolour,dotcolour,43,0,43,343,training,positivefb,98,hard,45,1.1169704999999794,['c'],1,left,['3'],4,0.3298549000001003,,,37,32,Vrouw,Rechts,1,
,dotcolour,dotcolour,dotcolour,44,0,44,344,training,positivefb,92,hard,44,0.6831783999998606,['c'],1,left,['3'],4,0.08912719999989349,,,37,32,Vrouw,Rechts,1,
,dotcolour,dotcolour,dotcolour,45,0,45,345,training,positivefb,97,average,53,0.5835474999998951,['c'],1,left,['3'],4,0.06246680000003835,,,37,32,Vrouw,Rechts,1,
,dotcolour,dotcolour,dotcolour,46,0,46,346,training,positivefb,97,average,53,0.5007914999998775,['c'],1,left,['3'],4,0.008528000000069369,,,37,32,Vrouw,Rechts,1,
,dotcolour,dotcolour,dotcolour,47,0,47,347,training,positivefb,94,average,26,1.0012179000000287,['n'],1,right,['1'],6,0.11263589999998658,,,37,32,Vrouw,Rechts,1,
,dotcolour,dotcolour,dotcolour,48,0,48,348,training,positivefb,96,average,28,0.41521850000003724,['n'],1,right,['1'],6,0.052277499999945576,,,37,32,Vrouw,Rechts,1,
,dotcolour,dotcolour,dotcolour,49,0,49,349,training,positivefb,98,hard,37,0.4168265999999221,['n'],1,right,['1'],6,0.034094100000174876,,,37,32,Vrouw,Rechts,1,
,dotcolour,dotcolour,dotcolour,50,0,50,350,training,positivefb,59,average,52,0.4513965000001008,['n'],0,left,['9'],2,0.6459024000000682,,,37,32,Vrouw,Rechts,1,
,dotcolour,dotcolour,dotcolour,51,0,51,351,training,positivefb,95,average,51,0.7007507000000714,['c'],1,left,['1'],6,0.11253139999985251,,,37,32,Vrouw,Rechts,1,
,dotcolour,dotcolour,dotcolour,52,0,52,352,training,positivefb,95,hard,37,0.6496315000001687,['n'],1,right,['3'],4,0.07531169999992926,,,37,32,Vrouw,Rechts,1,
,dotcolour,dotcolour,dotcolour,53,0,53,353,training,positivefb,75,hard,39,1.0669593000000077,['c'],0,right,['3'],4,0.12581090000003314,,,37,32,Vrouw,Rechts,1,
,dotcolour,dotcolour,dotcolour,54,0,54,354,training,positivefb,96,easy,64,0.4669016999998803,['n'],0,left,['1'],6,0.08664589999989403,,,37,32,Vrouw,Rechts,1,
,dotcolour,dotcolour,dotcolour,55,0,55,355,training,positivefb,90,hard,39,0.45044849999999315,['c'],0,right,['1'],6,0.08943040000008295,,,37,32,Vrouw,Rechts,1,
,dotcolour,dotcolour,dotcolour,56,0,56,356,training,positivefb,98,average,54,0.3834659000001466,['c'],1,left,['1'],6,0.0708491000000322,,,37,32,Vrouw,Rechts,1,
,dotcolour,dotcolour,dotcolour,57,0,57,357,training,positivefb,95,hard,44,0.3168324000000666,['c'],1,left,['1'],6,0.06346289999987675,,,37,32,Vrouw,Rechts,1,
,dotcolour,dotcolour,dotcolour,58,0,58,358,training,positivefb,99,easy,19,0.3174569000000247,['c'],0,right,['1'],6,0.07994920000010097,,,37,32,Vrouw,Rechts,1,
,dotcolour,dotcolour,dotcolour,59,0,59,359,training,positivefb,59,hard,44,0.5326970000000983,['n'],0,left,['3'],4,0.36054409999997006,,,37,32,Vrouw,Rechts,1,
,dotcolour,dotcolour,dotcolour,0,1,60,360,training,positivefb,96,easy,61,0.9344743999999992,['c'],1,left,['1'],6,0.08613800000011906,,,37,32,Vrouw,Rechts,1,
,dotcolour,dotcolour,dotcolour,1,1,61,361,training,positivefb,95,hard,43,0.6330586000001404,['n'],0,left,['3'],4,0.12222969999993438,,,37,32,Vrouw,Rechts,1,
,dotcolour,dotcolour,dotcolour,2,1,62,362,training,positivefb,96,average,25,0.5014143000000786,['n'],1,right,['3'],4,0.12070579999999609,,,37,32,Vrouw,Rechts,1,
,dotcolour,dotcolour,dotcolour,3,1,63,363,training,positivefb,92,hard,41,0.632849300000089,['n'],0,left,['3'],4,0.07449930000007043,,,37,32,Vrouw,Rechts,1,
,dotcolour,dotcolour,dotcolour,4,1,64,364,training,positivefb,96,hard,37,0.6499867999998514,['n'],1,right,['3'],4,0.08684830000015609,,,37,32,Vrouw,Rechts,1,
,dotcolour,dotcolour,dotcolour,5,1,65,365,training,positivefb,6,easy,63,0.3006195000000389,['n'],0,left,['1'],6,0.487834600000042,,,37,32,Vrouw,Rechts,1,
,dotcolour,dotcolour,dotcolour,6,1,66,366,training,positivefb,91,average,27,0.7344961000001149,['n'],1,right,['3'],4,0.02221959999997125,,,37,32,Vrouw,Rechts,1,
,dotcolour,dotcolour,dotcolour,7,1,67,367,training,positivefb,92,hard,43,0.617668999999978,['n'],0,left,['3'],4,0.04563959999995859,,,37,32,Vrouw,Rechts,1,
,dotcolour,dotcolour,dotcolour,8,1,68,368,training,positivefb,93,average,53,0.7343848999998954,['c'],1,left,['1'],6,0.0630957999999282,,,37,32,Vrouw,Rechts,1,
,dotcolour,dotcolour,dotcolour,9,1,69,369,training,positivefb,95,hard,38,0.567734400000063,['n'],1,right,['3'],4,0.06212340000001859,,,37,32,Vrouw,Rechts,1,
,dotcolour,dotcolour,dotcolour,10,1,70,370,training,positivefb,90,easy,19,0.6005244000000403,['c'],0,right,['1'],6,0.03604500000005828,,,37,32,Vrouw,Rechts,1,
,dotcolour,dotcolour,dotcolour,11,1,71,371,training,positivefb,97,easy,61,0.6663877000000866,['c'],1,left,['1'],6,0.04800750000003973,,,37,32,Vrouw,Rechts,1,
,dotcolour,dotcolour,dotcolour,12,1,72,372,training,positivefb,92,average,28,0.5996369000001778,['n'],1,right,['3'],4,0.05479489999993348,,,37,32,Vrouw,Rechts,1,
,dotcolour,dotcolour,dotcolour,13,1,73,373,training,positivefb,97,easy,17,0.5503524999999172,['n'],1,right,['3'],4,0.3262723000000278,,,37,32,Vrouw,Rechts,1,
,dotcolour,dotcolour,dotcolour,14,1,74,374,training,positivefb,98,average,53,0.5660397999999986,['c'],1,left,['1'],6,0.05871479999996154,,,37,32,Vrouw,Rechts,1,
,dotcolour,dotcolour,dotcolour,15,1,75,375,training,positivefb,96,hard,38,0.7995464999999058,['n'],1,right,['3'],4,0.08914159999994808,,,37,32,Vrouw,Rechts,1,
,dotcolour,dotcolour,dotcolour,16,1,76,376,training,positivefb,97,average,27,0.5002833999999439,['n'],1,right,['3'],4,0.050237499999866486,,,37,32,Vrouw,Rechts,1,
,dotcolour,dotcolour,dotcolour,17,1,77,377,training,positivefb,98,hard,38,0.6666316999999253,['n'],1,right,['3'],4,0.06152529999985745,,,37,32,Vrouw,Rechts,1,
,dotcolour,dotcolour,dotcolour,18,1,78,378,training,positivefb,94,average,53,0.6656969999999092,['c'],1,left,['1'],6,0.06478460000016639,,,37,32,Vrouw,Rechts,1,
,dotcolour,dotcolour,dotcolour,19,1,79,379,training,positivefb,94,average,25,0.5169276000001446,['n'],1,right,['1'],6,0.1302954000000227,,,37,32,Vrouw,Rechts,1,
,dotcolour,dotcolour,dotcolour,20,1,80,380,training,positivefb,90,easy,15,0.5173244999998587,['n'],1,right,['1'],6,0.11283389999994142,,,37,32,Vrouw,Rechts,1,
,dotcolour,dotcolour,dotcolour,21,1,81,381,training,positivefb,96,easy,19,0.4849673999999595,['n'],1,right,['1'],6,0.04947259999994458,,,37,32,Vrouw,Rechts,1,
,dotcolour,dotcolour,dotcolour,22,1,82,382,training,positivefb,89,average,54,1.00050269999997,['c'],1,left,['1'],6,0.054904699999951845,,,37,32,Vrouw,Rechts,1,
,dotcolour,dotcolour,dotcolour,23,1,83,383,training,positivefb,96,average,27,0.5999100999999882,['c'],0,right,['1'],6,0.053606200000103854,,,37,32,Vrouw,Rechts,1,
,dotcolour,dotcolour,dotcolour,24,1,84,384,training,positivefb,95,easy,17,0.46595490000004247,['n'],1,right,['1'],6,0.07238439999991897,,,37,32,Vrouw,Rechts,1,
,dotcolour,dotcolour,dotcolour,25,1,85,385,training,positivefb,97,easy,15,0.4506363999998939,['n'],1,right,['1'],6,0.03613820000009582,,,37,32,Vrouw,Rechts,1,
,dotcolour,dotcolour,dotcolour,26,1,86,386,training,positivefb,53,hard,43,0.5491734000001998,['n'],0,left,['3'],4,0.18085980000000745,,,37,32,Vrouw,Rechts,1,
,dotcolour,dotcolour,dotcolour,27,1,87,387,training,positivefb,98,hard,42,0.5670093000001089,['n'],0,left,['3'],4,0.07957099999998718,,,37,32,Vrouw,Rechts,1,
,dotcolour,dotcolour,dotcolour,28,1,88,388,training,positivefb,93,hard,43,0.399788400000034,['n'],0,left,['3'],4,0.052618200000097204,,,37,32,Vrouw,Rechts,1,
,dotcolour,dotcolour,dotcolour,29,1,89,389,training,positivefb,98,easy,19,0.4499534000001404,['n'],1,right,['1'],6,0.06428869999990638,,,37,32,Vrouw,Rechts,1,
,dotcolour,dotcolour,dotcolour,30,1,90,390,training,positivefb,97,easy,17,0.45081690000006347,['n'],1,right,['1'],6,0.02041670000016893,,,37,32,Vrouw,Rechts,1,
,dotcolour,dotcolour,dotcolour,31,1,91,391,training,positivefb,98,hard,45,0.7500138000000334,['n'],0,left,['3'],4,0.08556780000003528,,,37,32,Vrouw,Rechts,1,
,dotcolour,dotcolour,dotcolour,32,1,92,392,training,positivefb,83,easy,63,3.0502645000001394,['c'],1,left,['1'],6,0.2322111999999379,,,37,32,Vrouw,Rechts,1,
,dotcolour,dotcolour,dotcolour,33,1,93,393,training,positivefb,90,average,52,0.616417599999977,['n'],0,left,['3'],4,0.06208559999981844,,,37,32,Vrouw,Rechts,1,
,dotcolour,dotcolour,dotcolour,34,1,94,394,training,positivefb,93,average,26,0.6158299999999599,['n'],1,right,['1'],6,0.13912759999993796,,,37,32,Vrouw,Rechts,1,
,dotcolour,dotcolour,dotcolour,35,1,95,395,training,positivefb,94,average,53,0.8671093000000383,['c'],1,left,['1'],6,0.1152646000000459,,,37,32,Vrouw,Rechts,1,
,dotcolour,dotcolour,dotcolour,36,1,96,396,training,positivefb,88,hard,35,0.5840677999999571,['n'],1,right,['3'],4,0.12752009999985603,,,37,32,Vrouw,Rechts,1,
,dotcolour,dotcolour,dotcolour,37,1,97,397,training,positivefb,90,easy,65,0.733130699999947,['c'],1,left,['1'],6,0.18069689999992988,,,37,32,Vrouw,Rechts,1,
,dotcolour,dotcolour,dotcolour,38,1,98,398,training,positivefb,78,hard,37,0.5843076999999539,['n'],1,right,['3'],4,0.10227970000005371,,,37,32,Vrouw,Rechts,1,
,dotcolour,dotcolour,dotcolour,39,1,99,399,training,positivefb,92,easy,62,0.783339500000011,['c'],1,left,['1'],6,0.12340860000017528,,,37,32,Vrouw,Rechts,1,
,dotcolour,dotcolour,dotcolour,40,1,100,400,training,positivefb,79,hard,36,0.516602599999942,['n'],1,right,['3'],4,0.07404129999986253,,,37,32,Vrouw,Rechts,1,
,dotcolour,dotcolour,dotcolour,41,1,101,401,training,positivefb,98,average,25,0.583949599999869,['n'],1,right,['3'],4,0.0323439999999664,,,37,32,Vrouw,Rechts,1,
,dotcolour,dotcolour,dotcolour,42,1,102,402,training,positivefb,95,average,53,0.5500137000001359,['n'],0,left,['3'],4,0.05707980000011048,,,37,32,Vrouw,Rechts,1,
,dotcolour,dotcolour,dotcolour,43,1,103,403,training,positivefb,92,easy,64,0.8667374999999993,['c'],1,left,['1'],6,0.25937070000009044,,,37,32,Vrouw,Rechts,1,
,dotcolour,dotcolour,dotcolour,44,1,104,404,training,positivefb,95,hard,38,0.600300500000003,['n'],1,right,['3'],4,0.058552399999825866,,,37,32,Vrouw,Rechts,1,
,dotcolour,dotcolour,dotcolour,45,1,105,405,training,positivefb,83,easy,61,1.4167371000000912,['c'],1,left,['1'],6,0.20734929999980523,,,37,32,Vrouw,Rechts,1,
,dotcolour,dotcolour,dotcolour,46,1,106,406,training,positivefb,96,average,52,0.5827257000000827,['n'],0,left,['3'],4,0.06437549999986913,,,37,32,Vrouw,Rechts,1,
,dotcolour,dotcolour,dotcolour,47,1,107,407,training,positivefb,92,average,28,0.7841753000000153,['n'],1,right,['1'],6,0.22219649999988178,,,37,32,Vrouw,Rechts,1,
,dotcolour,dotcolour,dotcolour,48,1,108,408,training,positivefb,93,average,51,0.6013450000000375,['n'],0,left,['3'],4,0.11808350000001155,,,37,32,Vrouw,Rechts,1,
,dotcolour,dotcolour,dotcolour,49,1,109,409,training,positivefb,94,easy,61,1.5514596999998957,['c'],1,left,['1'],6,0.14722459999984494,,,37,32,Vrouw,Rechts,1,
,dotcolour,dotcolour,dotcolour,50,1,110,410,training,positivefb,91,easy,16,0.600195900000017,['n'],1,right,['1'],6,0.1744994000000588,,,37,32,Vrouw,Rechts,1,
,dotcolour,dotcolour,dotcolour,51,1,111,411,training,positivefb,96,hard,37,0.567331299999978,['n'],1,right,['3'],4,0.0805316999999377,,,37,32,Vrouw,Rechts,1,
,dotcolour,dotcolour,dotcolour,52,1,112,412,training,positivefb,92,hard,41,0.5998094999999921,['n'],0,left,['3'],4,0.062292500000012296,,,37,32,Vrouw,Rechts,1,
,dotcolour,dotcolour,dotcolour,53,1,113,413,training,positivefb,89,easy,17,0.7661990999999944,['n'],1,right,['3'],4,0.24571149999997033,,,37,32,Vrouw,Rechts,1,
,dotcolour,dotcolour,dotcolour,54,1,114,414,training,positivefb,97,easy,65,0.7661532000001898,['c'],1,left,['1'],6,0.26061090000007425,,,37,32,Vrouw,Rechts,1,
,dotcolour,dotcolour,dotcolour,55,1,115,415,training,positivefb,96,average,27,0.5157341999999971,['n'],1,right,['3'],4,0.19092110000019602,,,37,32,Vrouw,Rechts,1,
,dotcolour,dotcolour,dotcolour,56,1,116,416,training,positivefb,85,average,52,0.566532099999904,['n'],0,left,['3'],4,0.15300679999995737,,,37,32,Vrouw,Rechts,1,
,dotcolour,dotcolour,dotcolour,57,1,117,417,training,positivefb,98,hard,38,0.6667718999999579,['c'],0,right,['3'],4,0.2801253000000088,,,37,32,Vrouw,Rechts,1,
,dotcolour,dotcolour,dotcolour,58,1,118,418,training,positivefb,97,hard,45,0.4500064999999722,['n'],0,left,['3'],4,0.14761849999990773,,,37,32,Vrouw,Rechts,1,
,dotcolour,dotcolour,dotcolour,59,1,119,419,training,positivefb,96,hard,45,0.5340578999998797,['n'],0,left,['3'],4,0.12056450000000041,,,37,32,Vrouw,Rechts,1,
,xotask,dotcolour,dotcolour,0,2,120,420,main,positivefb,-99,hard,,1.7337754999998651,['c'],0,right,['3'],4,0.6429445000001124,29,,37,32,Vrouw,Rechts,1,
,xotask,dotcolour,dotcolour,1,2,121,421,main,positivefb,-99,hard,,1.0174011999999948,['c'],1,left,['3'],4,0.24976740000010977,50,,37,32,Vrouw,Rechts,1,
,xotask,dotcolour,dotcolour,2,2,122,422,main,positivefb,-99,hard,,0.6673359999999775,['c'],1,left,['3'],4,0.16538949999994657,52,,37,32,Vrouw,Rechts,1,
,xotask,dotcolour,dotcolour,3,2,123,423,main,positivefb,-99,hard,,0.6001969999999801,['c'],1,left,['3'],4,0.12772850000010294,53,,37,32,Vrouw,Rechts,1,
,xotask,dotcolour,dotcolour,4,2,124,424,main,positivefb,-99,average,,0.3837902000000213,['c'],0,right,['9'],2,0.9797249000000647,19,,37,32,Vrouw,Rechts,1,
,xotask,dotcolour,dotcolour,5,2,125,425,main,positivefb,-99,average,,1.5508649000000787,['n'],1,right,['3'],4,0.5120326999999634,17,,37,32,Vrouw,Rechts,1,
,xotask,dotcolour,dotcolour,6,2,126,426,main,positivefb,-99,average,,0.5180622999998832,['c'],0,right,['3'],4,0.19182619999992312,19,,37,32,Vrouw,Rechts,1,
,xotask,dotcolour,dotcolour,7,2,127,427,main,positivefb,-99,easy,,0.4006314000000657,['c'],1,left,['3'],4,0.12886639999987892,73,,37,32,Vrouw,Rechts,1,
,xotask,dotcolour,dotcolour,8,2,128,428,main,positivefb,-99,average,,0.40024190000008275,['c'],1,left,['3'],4,0.08518980000008014,60,,37,32,Vrouw,Rechts,1,
,xotask,dotcolour,dotcolour,9,2,129,429,main,positivefb,-99,hard,,0.31739390000007006,['c'],0,right,['3'],4,0.09419789999992645,25,,37,32,Vrouw,Rechts,1,
,xotask,dotcolour,dotcolour,10,2,130,430,main,positivefb,-99,hard,,0.2673462999998719,['n'],0,left,['3'],4,0.1052346999999827,54,,37,32,Vrouw,Rechts,1,
,xotask,dotcolour,dotcolour,11,2,131,431,main,positivefb,-99,hard,,0.2663610999998127,['n'],1,right,['3'],4,0.16284139999993386,27,,37,32,Vrouw,Rechts,1,
,xotask,dotcolour,dotcolour,12,2,132,432,main,positivefb,-99,easy,,0.3017194000001382,['n'],1,right,['3'],4,0.04102029999990009,9,,37,32,Vrouw,Rechts,1,
,xotask,dotcolour,dotcolour,13,2,133,433,main,positivefb,-99,average,,0.30085520000011456,['c'],0,right,['3'],4,0.061043800000106785,16,,37,32,Vrouw,Rechts,1,
,xotask,dotcolour,dotcolour,14,2,134,434,main,positivefb,-99,hard,,0.12498540000001412,['n'],1,right,['3'],4,0.012011199999960809,26,,37,32,Vrouw,Rechts,1,
,xotask,dotcolour,dotcolour,15,2,135,435,main,positivefb,-99,hard,,0.3172951000001376,['n'],0,left,['3'],4,1.2954377999999451,53,,37,32,Vrouw,Rechts,1,
,xotask,dotcolour,dotcolour,16,2,136,436,main,positivefb,-99,easy,,0.6001894000000902,['n'],1,right,['3'],4,0.14908029999992323,5,,37,32,Vrouw,Rechts,1,
,xotask,dotcolour,dotcolour,17,2,137,437,main,positivefb,-99,average,,0.6001208999998653,['n'],1,right,['3'],4,0.15979730000003656,18,,37,32,Vrouw,Rechts,1,
,xotask,dotcolour,dotcolour,18,2,138,438,main,positivefb,-99,easy,,0.550975100000187,['n'],0,left,['3'],4,0.11546530000009625,72,,37,32,Vrouw,Rechts,1,
,xotask,dotcolour,dotcolour,19,2,139,439,main,positivefb,-99,easy,,0.33431290000021363,['c'],0,right,['3'],4,0.11491060000003017,7,,37,32,Vrouw,Rechts,1,
,xotask,dotcolour,dotcolour,20,2,140,440,main,positivefb,-99,hard,,0.6832649000000401,['n'],1,right,['3'],4,0.13175580000006448,25,,37,32,Vrouw,Rechts,1,
,xotask,dotcolour,dotcolour,21,2,141,441,main,positivefb,-99,average,,0.767033900000115,['n'],0,left,['3'],4,0.11239130000012665,61,,37,32,Vrouw,Rechts,1,
,xotask,dotcolour,dotcolour,22,2,142,442,main,positivefb,-99,hard,,0.5836885000001075,['n'],1,right,['3'],4,0.06180269999981647,29,,37,32,Vrouw,Rechts,1,
,xotask,dotcolour,dotcolour,23,2,143,443,main,positivefb,-99,average,,1.1006674000000203,['n'],1,right,['3'],4,0.0395600999997896,17,,37,32,Vrouw,Rechts,1,
,xotask,dotcolour,dotcolour,24,2,144,444,main,positivefb,-99,average,,0.4668151000000762,['n'],0,left,['3'],4,0.013009900000042762,61,,37,32,Vrouw,Rechts,1,
,xotask,dotcolour,dotcolour,25,2,145,445,main,positivefb,-99,easy,,0.8331327000000783,['n'],1,right,['3'],4,0.07646230000000287,5,,37,32,Vrouw,Rechts,1,
,xotask,dotcolour,dotcolour,26,2,146,446,main,positivefb,-99,average,,0.36746960000004947,['n'],1,right,['3'],4,0.04290689999993447,17,,37,32,Vrouw,Rechts,1,
,xotask,dotcolour,dotcolour,27,2,147,447,main,positivefb,-99,average,,0.9508982999998352,['n'],0,left,['3'],4,0.9731047000000217,62,,37,32,Vrouw,Rechts,1,
,xotask,dotcolour,dotcolour,28,2,148,448,main,positivefb,-99,easy,,0.9503303999999844,['c'],1,left,['3'],4,0.5294384999999693,70,,37,32,Vrouw,Rechts,1,
,xotask,dotcolour,dotcolour,29,2,149,449,main,positivefb,-99,easy,,0.6170763999998599,['n'],1,right,['3'],4,0.22023190000004433,5,,37,32,Vrouw,Rechts,1,
,xotask,dotcolour,dotcolour,30,2,150,450,main,positivefb,-99,average,,0.6680550999999468,['c'],1,left,['3'],4,0.14615660000004027,62,,37,32,Vrouw,Rechts,1,
,xotask,dotcolour,dotcolour,31,2,151,451,main,positivefb,-99,easy,,0.5838469000000259,['n'],1,right,['3'],4,0.14127060000009806,8,,37,32,Vrouw,Rechts,1,
,xotask,dotcolour,dotcolour,32,2,152,452,main,positivefb,-99,easy,,0.46621750000008433,['c'],1,left,['3'],4,0.1422995999998875,71,,37,32,Vrouw,Rechts,1,
,xotask,dotcolour,dotcolour,33,2,153,453,main,positivefb,-99,average,,0.3673428000001877,['n'],1,right,['3'],4,0.13112500000011096,17,,37,32,Vrouw,Rechts,1,
,xotask,dotcolour,dotcolour,34,2,154,454,main,positivefb,-99,easy,,0.2838771000001543,['c'],0,right,['3'],4,0.09940809999989142,8,,37,32,Vrouw,Rechts,1,
,xotask,dotcolour,dotcolour,35,2,155,455,main,positivefb,-99,hard,,0.21694719999982226,['n'],0,left,['3'],4,0.11135570000010375,53,,37,32,Vrouw,Rechts,1,
,xotask,dotcolour,dotcolour,36,2,156,456,main,positivefb,-99,easy,,0.11885189999998147,['n'],0,left,['3'],4,0.03667249999989508,74,,37,32,Vrouw,Rechts,1,
,xotask,dotcolour,dotcolour,37,2,157,457,main,positivefb,-99,average,,0.19006260000014663,['n'],1,right,['3'],4,0.034763999999995576,19,,37,32,Vrouw,Rechts,1,
,xotask,dotcolour,dotcolour,38,2,158,458,main,positivefb,-99,average,,0.2990215999998327,['n'],0,left,['3'],4,0.07922899999994115,61,,37,32,Vrouw,Rechts,1,
,xotask,dotcolour,dotcolour,39,2,159,459,main,positivefb,-99,hard,,0.07920139999987441,['c'],1,left,['3'],4,0.7732876000000033,53,,37,32,Vrouw,Rechts,1,
,xotask,dotcolour,dotcolour,40,2,160,460,main,positivefb,-99,easy,,0.383288900000025,['c'],0,right,['1'],6,0.8557989999999336,5,,37,32,Vrouw,Rechts,1,
,xotask,dotcolour,dotcolour,41,2,161,461,main,positivefb,-99,hard,,0.35059369999999035,['n'],1,right,['3'],4,0.09612940000010894,29,,37,32,Vrouw,Rechts,1,
,xotask,dotcolour,dotcolour,42,2,162,462,main,positivefb,-99,average,,0.2506475000000137,['n'],1,right,['3'],4,0.04365570000004482,16,,37,32,Vrouw,Rechts,1,
,xotask,dotcolour,dotcolour,43,2,163,463,main,positivefb,-99,average,,0.28411099999993894,['n'],0,left,['3'],4,0.9194483999999647,61,,37,32,Vrouw,Rechts,1,
,xotask,dotcolour,dotcolour,44,2,164,464,main,positivefb,-99,average,,0.2506923999999344,['n'],0,left,['3'],4,0.06491400000004433,63,,37,32,Vrouw,Rechts,1,
,xotask,dotcolour,dotcolour,45,2,165,465,main,positivefb,-99,easy,,0.2826038000000608,['c'],0,right,['3'],4,0.09216719999994893,8,,37,32,Vrouw,Rechts,1,
,xotask,dotcolour,dotcolour,46,2,166,466,main,positivefb,-99,easy,,0.3332801000001382,['c'],1,left,['3'],4,0.052121100000022125,70,,37,32,Vrouw,Rechts,1,
,xotask,dotcolour,dotcolour,47,2,167,467,main,positivefb,-99,easy,,0.31717279999998027,['c'],1,left,['3'],4,0.9824241999999686,74,,37,32,Vrouw,Rechts,1,
,xotask,dotcolour,dotcolour,48,2,168,468,main,positivefb,-99,hard,,0.584794299999885,['c'],1,left,['3'],4,0.048208699999804594,54,,37,32,Vrouw,Rechts,1,
,xotask,dotcolour,dotcolour,49,2,169,469,main,positivefb,-99,average,,0.30034999999998035,['c'],1,left,['3'],4,0.051240400000097,63,,37,32,Vrouw,Rechts,1,
,xotask,dotcolour,dotcolour,50,2,170,470,main,positivefb,-99,easy,,0.2501508999998805,['c'],1,left,['3'],4,0.8638625000000957,74,,37,32,Vrouw,Rechts,1,
,xotask,dotcolour,dotcolour,51,2,171,471,main,positivefb,-99,easy,,0.6681935999999951,['n'],1,right,['3'],4,0.4673259000001053,6,,37,32,Vrouw,Rechts,1,
,xotask,dotcolour,dotcolour,52,2,172,472,main,positivefb,-99,hard,,0.6835479999999734,['n'],1,right,['3'],4,0.11046149999992849,26,,37,32,Vrouw,Rechts,1,
,xotask,dotcolour,dotcolour,53,2,173,473,main,positivefb,-99,hard,,0.5498411999999462,['c'],1,left,['3'],4,0.14015679999988606,52,,37,32,Vrouw,Rechts,1,
,xotask,dotcolour,dotcolour,54,2,174,474,main,positivefb,-99,hard,,0.40125239999997575,['n'],1,right,['3'],4,0.18345399999998335,29,,37,32,Vrouw,Rechts,1,
,xotask,dotcolour,dotcolour,55,2,175,475,main,positivefb,-99,easy,,0.301109199999928,['n'],0,left,['3'],4,0.12571479999996882,70,,37,32,Vrouw,Rechts,1,
,xotask,dotcolour,dotcolour,56,2,176,476,main,positivefb,-99,hard,,0.11539880000009362,['c'],1,left,['3'],4,0.03376730000013595,54,,37,32,Vrouw,Rechts,1,
,xotask,dotcolour,dotcolour,57,2,177,477,main,positivefb,-99,easy,,0.31694880000009107,['c'],1,left,['3'],4,0.15606700000012097,72,,37,32,Vrouw,Rechts,1,
,xotask,dotcolour,dotcolour,58,2,178,478,main,positivefb,-99,average,,0.21747439999990092,['c'],1,left,['3'],4,0.17477779999990162,64,,37,32,Vrouw,Rechts,1,
,xotask,dotcolour,dotcolour,59,2,179,479,main,positivefb,-99,hard,,0.0579721999999947,['c'],0,right,['3'],4,0.032605899999907706,28,,37,32,Vrouw,Rechts,1,
,xotask,dotcolour,dotcolour,0,3,180,480,main,positivefb,-99,hard,,0.7851256999999805,['n'],0,left,['3'],4,0.09224470000003748,54,,37,32,Vrouw,Rechts,1,
,xotask,dotcolour,dotcolour,1,3,181,481,main,positivefb,-99,hard,,0.5506886999999097,['c'],1,left,['3'],4,0.0840031000000181,50,,37,32,Vrouw,Rechts,1,
,xotask,dotcolour,dotcolour,2,3,182,482,main,positivefb,-99,average,,0.3175588000001426,['n'],0,left,['3'],4,0.08403729999986354,61,,37,32,Vrouw,Rechts,1,
,xotask,dotcolour,dotcolour,3,3,183,483,main,positivefb,-99,average,,0.31736210000008214,['n'],1,right,['3'],4,0.07721280000009756,18,,37,32,Vrouw,Rechts,1,
,xotask,dotcolour,dotcolour,4,3,184,484,main,positivefb,-99,average,,0.46777829999996356,['n'],1,right,['3'],4,0.03140769999981785,16,,37,32,Vrouw,Rechts,1,
,xotask,dotcolour,dotcolour,5,3,185,485,main,positivefb,-99,easy,,0.31806959999994433,['c'],1,left,['3'],4,0.7227802000002157,73,,37,32,Vrouw,Rechts,1,
,xotask,dotcolour,dotcolour,6,3,186,486,main,positivefb,-99,easy,,0.4512755999999172,['n'],0,left,['3'],4,0.045317099999920174,70,,37,32,Vrouw,Rechts,1,
,xotask,dotcolour,dotcolour,7,3,187,487,main,positivefb,-99,hard,,0.4678458999999293,['c'],0,right,['3'],4,0.025909100000035323,29,,37,32,Vrouw,Rechts,1,
,xotask,dotcolour,dotcolour,8,3,188,488,main,positivefb,-99,hard,,0.3653805999999804,['n'],0,left,['3'],4,0.05128190000004906,53,,37,32,Vrouw,Rechts,1,
,xotask,dotcolour,dotcolour,9,3,189,489,main,positivefb,-99,average,,0.5181012000000464,['n'],1,right,['3'],4,0.052367100000083155,15,,37,32,Vrouw,Rechts,1,
,xotask,dotcolour,dotcolour,10,3,190,490,main,positivefb,-99,average,,0.39978899999982787,['n'],1,right,['3'],4,0.011397299999998722,19,,37,32,Vrouw,Rechts,1,
,xotask,dotcolour,dotcolour,11,3,191,491,main,positivefb,-99,average,,0.6002195999999458,['c'],1,left,['3'],4,0.06826589999991484,64,,37,32,Vrouw,Rechts,1,
,xotask,dotcolour,dotcolour,12,3,192,492,main,positivefb,-99,hard,,0.38368020000007164,['n'],0,left,['3'],4,0.04324199999996381,50,,37,32,Vrouw,Rechts,1,
,xotask,dotcolour,dotcolour,13,3,193,493,main,positivefb,-99,hard,,0.49935630000004494,['c'],1,left,['3'],4,0.038541099999974904,53,,37,32,Vrouw,Rechts,1,
,xotask,dotcolour,dotcolour,14,3,194,494,main,positivefb,-99,easy,,0.3500029000001632,['n'],1,right,['3'],4,0.008189700000002631,7,,37,32,Vrouw,Rechts,1,
,xotask,dotcolour,dotcolour,15,3,195,495,main,positivefb,-99,average,,0.5013810999998896,['n'],1,right,['3'],4,0.7798838999999589,17,,37,32,Vrouw,Rechts,1,
,xotask,dotcolour,dotcolour,16,3,196,496,main,positivefb,-99,hard,,0.6502029999999195,['n'],0,left,['3'],4,0.051912099999981365,51,,37,32,Vrouw,Rechts,1,
,xotask,dotcolour,dotcolour,17,3,197,497,main,positivefb,-99,easy,,0.48466229999985444,['n'],1,right,['3'],4,0.01557160000015756,5,,37,32,Vrouw,Rechts,1,
,xotask,dotcolour,dotcolour,18,3,198,498,main,positivefb,-99,average,,0.46802790000015193,['n'],1,right,['3'],4,0.03663920000008147,19,,37,32,Vrouw,Rechts,1,
,xotask,dotcolour,dotcolour,19,3,199,499,main,positivefb,-99,hard,,0.36620349999998325,['n'],1,right,['3'],4,0.029861100000061924,28,,37,32,Vrouw,Rechts,1,
,xotask,dotcolour,dotcolour,20,3,200,500,main,positivefb,-99,hard,,0.3668165000001409,['n'],1,right,['3'],4,0.046947199999976874,27,,37,32,Vrouw,Rechts,1,
,xotask,dotcolour,dotcolour,21,3,201,501,main,positivefb,-99,easy,,0.5005896000000121,['n'],1,right,['3'],4,0.018382299999984753,5,,37,32,Vrouw,Rechts,1,
,xotask,dotcolour,dotcolour,22,3,202,502,main,positivefb,-99,hard,,0.5331017000000884,['n'],0,left,['3'],4,0.02045330000009926,54,,37,32,Vrouw,Rechts,1,
,xotask,dotcolour,dotcolour,23,3,203,503,main,positivefb,-99,hard,,0.8013059999998404,['c'],0,right,['3'],4,0.021190999999816995,29,,37,32,Vrouw,Rechts,1,
,xotask,dotcolour,dotcolour,24,3,204,504,main,positivefb,-99,hard,,0.3835809000001973,['n'],1,right,['3'],4,0.05379470000002584,25,,37,32,Vrouw,Rechts,1,
,xotask,dotcolour,dotcolour,25,3,205,505,main,positivefb,-99,easy,,0.5664447999999993,['c'],1,left,['3'],4,0.022129599999971106,72,,37,32,Vrouw,Rechts,1,
,xotask,dotcolour,dotcolour,26,3,206,506,main,positivefb,-99,easy,,0.3506519999998545,['n'],1,right,['3'],4,0.06427239999993617,5,,37,32,Vrouw,Rechts,1,
,xotask,dotcolour,dotcolour,27,3,207,507,main,positivefb,-99,hard,,0.5337824999999157,['n'],1,right,['3'],4,0.05714340000008633,25,,37,32,Vrouw,Rechts,1,
,xotask,dotcolour,dotcolour,28,3,208,508,main,positivefb,-99,easy,,0.38355490000003556,['n'],1,right,['3'],4,0.056710099999918384,6,,37,32,Vrouw,Rechts,1,
,xotask,dotcolour,dotcolour,29,3,209,509,main,positivefb,-99,easy,,0.36753459999999905,['n'],1,right,['3'],4,0.05668169999989914,5,,37,32,Vrouw,Rechts,1,
,xotask,dotcolour,dotcolour,30,3,210,510,main,positivefb,-99,average,,0.4165527000000111,['n'],0,left,['3'],4,0.03805899999997564,62,,37,32,Vrouw,Rechts,1,
,xotask,dotcolour,dotcolour,31,3,211,511,main,positivefb,-99,easy,,0.4339892000000418,['n'],0,left,['3'],4,0.0995845999998437,72,,37,32,Vrouw,Rechts,1,
,xotask,dotcolour,dotcolour,32,3,212,512,main,positivefb,-99,average,,0.4678707000000486,['c'],1,left,['3'],4,0.03852979999987838,62,,37,32,Vrouw,Rechts,1,
,xotask,dotcolour,dotcolour,33,3,213,513,main,positivefb,-99,average,,0.5340005000000474,['n'],1,right,['3'],4,0.03987839999990683,16,,37,32,Vrouw,Rechts,1,
,xotask,dotcolour,dotcolour,34,3,214,514,main,positivefb,-99,hard,,0.367464899999959,['n'],1,right,['3'],4,0.04092869999999493,25,,37,32,Vrouw,Rechts,1,
,xotask,dotcolour,dotcolour,35,3,215,515,main,positivefb,-99,easy,,0.35036700000000565,['n'],1,right,['3'],4,0.03393670000014026,5,,37,32,Vrouw,Rechts,1,
,xotask,dotcolour,dotcolour,36,3,216,516,main,positivefb,-99,easy,,0.3495452000001933,['n'],0,left,['3'],4,0.05214509999996153,72,,37,32,Vrouw,Rechts,1,
,xotask,dotcolour,dotcolour,37,3,217,517,main,positivefb,-99,average,,0.3339182999998229,['c'],1,left,['3'],4,0.6206910000000789,64,,37,32,Vrouw,Rechts,1,
,xotask,dotcolour,dotcolour,38,3,218,518,main,positivefb,-99,easy,,0.45106449999980214,['n'],1,right,['3'],4,0.0266850999998951,8,,37,32,Vrouw,Rechts,1,
,xotask,dotcolour,dotcolour,39,3,219,519,main,positivefb,-99,average,,0.49952329999996437,['n'],1,right,['3'],4,0.04731449999985671,19,,37,32,Vrouw,Rechts,1,
,xotask,dotcolour,dotcolour,40,3,220,520,main,positivefb,-99,easy,,0.4011084999999639,['n'],1,right,['3'],4,0.029901999999992768,7,,37,32,Vrouw,Rechts,1,
,xotask,dotcolour,dotcolour,41,3,221,521,main,positivefb,-99,hard,,0.599635600000056,['c'],0,right,['3'],4,0.0547655999998824,25,,37,32,Vrouw,Rechts,1,
,xotask,dotcolour,dotcolour,42,3,222,522,main,positivefb,-99,average,,0.33366620000015246,['n'],0,left,['3'],4,0.03205499999990025,63,,37,32,Vrouw,Rechts,1,
,xotask,dotcolour,dotcolour,43,3,223,523,main,positivefb,-99,easy,,0.36801439999999275,['n'],0,left,['3'],4,0.6720577999999477,71,,37,32,Vrouw,Rechts,1,
,xotask,dotcolour,dotcolour,44,3,224,524,main,positivefb,-99,average,,0.41662429999996675,['c'],1,left,['3'],4,0.6458662000000004,63,,37,32,Vrouw,Rechts,1,
,xotask,dotcolour,dotcolour,45,3,225,525,main,positivefb,-99,average,,0.649998000000096,['n'],1,right,['3'],4,0.05837729999984731,19,,37,32,Vrouw,Rechts,1,
,xotask,dotcolour,dotcolour,46,3,226,526,main,positivefb,-99,average,,0.5003904999998667,['c'],1,left,['3'],4,0.05408099999999649,62,,37,32,Vrouw,Rechts,1,
,xotask,dotcolour,dotcolour,47,3,227,527,main,positivefb,-99,hard,,0.41667069999994055,['n'],1,right,['3'],4,0.06792489999997997,26,,37,32,Vrouw,Rechts,1,
,xotask,dotcolour,dotcolour,48,3,228,528,main,positivefb,-99,hard,,0.8015416000000641,['c'],1,left,['3'],4,0.0015872999999828608,53,,37,32,Vrouw,Rechts,1,
,xotask,dotcolour,dotcolour,49,3,229,529,main,positivefb,-99,average,,1.5843270000000302,['c'],0,right,['3'],4,0.4742762999999286,17,,37,32,Vrouw,Rechts,1,
,xotask,dotcolour,dotcolour,50,3,230,530,main,positivefb,-99,easy,,0.8005396999999448,['n'],0,left,['3'],4,0.6730663000000732,71,,37,32,Vrouw,Rechts,1,
,xotask,dotcolour,dotcolour,51,3,231,531,main,positivefb,-99,easy,,0.59998470000005,['c'],1,left,['3'],4,0.26281349999999293,72,,37,32,Vrouw,Rechts,1,
,xotask,dotcolour,dotcolour,52,3,232,532,main,positivefb,-99,easy,,0.500555200000008,['c'],1,left,['3'],4,0.04998299999988376,70,,37,32,Vrouw,Rechts,1,
,xotask,dotcolour,dotcolour,53,3,233,533,main,positivefb,-99,average,,0.4675760000000082,['c'],1,left,['3'],4,0.0455146000001605,64,,37,32,Vrouw,Rechts,1,
,xotask,dotcolour,dotcolour,54,3,234,534,main,positivefb,-99,easy,,0.3829560000001493,['c'],1,left,['3'],4,0.03697039999997287,70,,37,32,Vrouw,Rechts,1,
,xotask,dotcolour,dotcolour,55,3,235,535,main,positivefb,-99,hard,,0.5829948999999033,['c'],1,left,['3'],4,0.021904599999970742,51,,37,32,Vrouw,Rechts,1,
,xotask,dotcolour,dotcolour,56,3,236,536,main,positivefb,-99,hard,,0.45101499999987027,['n'],1,right,['3'],4,0.04372200000011617,27,,37,32,Vrouw,Rechts,1,
,xotask,dotcolour,dotcolour,57,3,237,537,main,positivefb,-99,easy,,0.4167389000001549,['c'],0,right,['3'],4,0.9698738999998113,5,,37,32,Vrouw,Rechts,1,
,xotask,dotcolour,dotcolour,58,3,238,538,main,positivefb,-99,hard,,0.40037250000000313,['n'],0,left,['3'],4,0.564060500000096,51,,37,32,Vrouw,Rechts,1,
,xotask,dotcolour,dotcolour,59,3,239,539,main,positivefb,-99,average,,0.35095780000006016,['n'],0,left,['3'],4,0.04033750000007785,61,,37,32,Vrouw,Rechts,1,
,xotask,dotcolour,dotcolour,0,4,240,540,main,positivefb,-99,hard,,0.6340434999999616,['n'],1,right,['3'],4,0.04852570000002743,25,,37,32,Vrouw,Rechts,1,
,xotask,dotcolour,dotcolour,1,4,241,541,main,positivefb,-99,average,,0.5177031999999144,['n'],1,right,['3'],4,0.05096049999997376,19,,37,32,Vrouw,Rechts,1,
,xotask,dotcolour,dotcolour,2,4,242,542,main,positivefb,-99,easy,,0.6000136999998631,['c'],1,left,['3'],4,0.041514499999948384,70,,37,32,Vrouw,Rechts,1,
,xotask,dotcolour,dotcolour,3,4,243,543,main,positivefb,-99,hard,,0.5170473000000584,['n'],0,left,['3'],4,0.07594349999999395,54,,37,32,Vrouw,Rechts,1,
,xotask,dotcolour,dotcolour,4,4,244,544,main,positivefb,-99,hard,,0.36717879999991965,['c'],1,left,['3'],4,0.027255799999920782,54,,37,32,Vrouw,Rechts,1,
,xotask,dotcolour,dotcolour,5,4,245,545,main,positivefb,-99,hard,,0.43335949999982404,['n'],1,right,['3'],4,0.042063299999881565,28,,37,32,Vrouw,Rechts,1,
,xotask,dotcolour,dotcolour,6,4,246,546,main,positivefb,-99,average,,0.533147500000041,['n'],1,right,['3'],4,0.0760213000000931,16,,37,32,Vrouw,Rechts,1,
,xotask,dotcolour,dotcolour,7,4,247,547,main,positivefb,-99,average,,0.5340701000000081,['n'],1,right,['3'],4,0.07687099999998281,16,,37,32,Vrouw,Rechts,1,
,xotask,dotcolour,dotcolour,8,4,248,548,main,positivefb,-99,hard,,0.4669089999999869,['n'],1,right,['3'],4,0.05622229999994488,29,,37,32,Vrouw,Rechts,1,
,xotask,dotcolour,dotcolour,9,4,249,549,main,positivefb,-99,easy,,0.44986979999998766,['n'],1,right,['3'],4,0.0846712000000025,9,,37,32,Vrouw,Rechts,1,
,xotask,dotcolour,dotcolour,10,4,250,550,main,positivefb,-99,average,,0.5845385000000078,['n'],1,right,['3'],4,0.7226286000000073,17,,37,32,Vrouw,Rechts,1,
,xotask,dotcolour,dotcolour,11,4,251,551,main,positivefb,-99,average,,0.4339460000001054,['n'],1,right,['3'],4,0.07621180000001004,19,,37,32,Vrouw,Rechts,1,
,xotask,dotcolour,dotcolour,12,4,252,552,main,positivefb,-99,easy,,0.5177690000000439,['c'],1,left,['3'],4,0.07063499999981104,70,,37,32,Vrouw,Rechts,1,
,xotask,dotcolour,dotcolour,13,4,253,553,main,positivefb,-99,easy,,0.5835506000000805,['c'],1,left,['3'],4,0.06141200000001845,74,,37,32,Vrouw,Rechts,1,
,xotask,dotcolour,dotcolour,14,4,254,554,main,positivefb,-99,easy,,0.39940210000008847,['c'],1,left,['3'],4,0.09182179999993423,70,,37,32,Vrouw,Rechts,1,
,xotask,dotcolour,dotcolour,15,4,255,555,main,positivefb,-99,average,,0.3838416999999481,['c'],1,left,['3'],4,0.017015300000139177,62,,37,32,Vrouw,Rechts,1,
,xotask,dotcolour,dotcolour,16,4,256,556,main,positivefb,-99,average,,0.40004670000007536,['c'],0,right,['3'],4,0.6415117999999893,16,,37,32,Vrouw,Rechts,1,
,xotask,dotcolour,dotcolour,17,4,257,557,main,positivefb,-99,easy,,0.6005356999999094,['c'],1,left,['3'],4,0.057242099999939455,70,,37,32,Vrouw,Rechts,1,
,xotask,dotcolour,dotcolour,18,4,258,558,main,positivefb,-99,average,,0.600387499999897,['n'],1,right,['3'],4,0.07087070000011408,18,,37,32,Vrouw,Rechts,1,
,xotask,dotcolour,dotcolour,19,4,259,559,main,positivefb,-99,hard,,0.6841760999998314,['c'],1,left,['3'],4,0.049731500000007145,51,,37,32,Vrouw,Rechts,1,
,xotask,dotcolour,dotcolour,20,4,260,560,main,positivefb,-99,easy,,0.5016489999998157,['n'],1,right,['3'],4,0.08493330000010246,9,,37,32,Vrouw,Rechts,1,
,xotask,dotcolour,dotcolour,21,4,261,561,main,positivefb,-99,hard,,0.7347202999999354,['n'],0,left,['3'],4,0.052661600000192266,51,,37,32,Vrouw,Rechts,1,
,xotask,dotcolour,dotcolour,22,4,262,562,main,positivefb,-99,average,,0.534575200000063,['c'],1,left,['3'],4,0.037980699999934586,60,,37,32,Vrouw,Rechts,1,
,xotask,dotcolour,dotcolour,23,4,263,563,main,positivefb,-99,hard,,0.5994253000001208,['c'],0,right,['3'],4,0.03760200000010627,29,,37,32,Vrouw,Rechts,1,
,xotask,dotcolour,dotcolour,24,4,264,564,main,positivefb,-99,average,,0.450019999999995,['c'],1,left,['3'],4,0.03559830000017428,64,,37,32,Vrouw,Rechts,1,
,xotask,dotcolour,dotcolour,25,4,265,565,main,positivefb,-99,average,,0.3832915000000412,['c'],1,left,['3'],4,0.03487719999998262,63,,37,32,Vrouw,Rechts,1,
,xotask,dotcolour,dotcolour,26,4,266,566,main,positivefb,-99,easy,,0.40038860000004206,['c'],0,right,['3'],4,0.010564100000010512,9,,37,32,Vrouw,Rechts,1,
,xotask,dotcolour,dotcolour,27,4,267,567,main,positivefb,-99,average,,0.43305899999995745,['c'],1,left,['3'],4,0.06612479999989773,61,,37,32,Vrouw,Rechts,1,
,xotask,dotcolour,dotcolour,28,4,268,568,main,positivefb,-99,average,,0.5660956000001534,['n'],1,right,['3'],4,0.0653353000000152,19,,37,32,Vrouw,Rechts,1,
,xotask,dotcolour,dotcolour,29,4,269,569,main,positivefb,-99,hard,,0.41674059999991186,['c'],1,left,['3'],4,0.11864669999999933,51,,37,32,Vrouw,Rechts,1,
,xotask,dotcolour,dotcolour,30,4,270,570,main,positivefb,-99,hard,,0.717706200000066,['n'],0,left,['3'],4,0.02957590000005439,51,,37,32,Vrouw,Rechts,1,
,xotask,dotcolour,dotcolour,31,4,271,571,main,positivefb,-99,average,,0.6506867999999031,['n'],0,left,['3'],4,0.044184399999949164,60,,37,32,Vrouw,Rechts,1,
,xotask,dotcolour,dotcolour,32,4,272,572,main,positivefb,-99,hard,,0.4672235999998975,['c'],1,left,['3'],4,0.023845199999868782,53,,37,32,Vrouw,Rechts,1,
,xotask,dotcolour,dotcolour,33,4,273,573,main,positivefb,-99,easy,,0.7172056000001703,['c'],1,left,['3'],4,0.027909700000009252,70,,37,32,Vrouw,Rechts,1,
,xotask,dotcolour,dotcolour,34,4,274,574,main,positivefb,-99,easy,,0.4502658999999767,['n'],1,right,['3'],4,0.05797640000014326,8,,37,32,Vrouw,Rechts,1,
,xotask,dotcolour,dotcolour,35,4,275,575,main,positivefb,-99,hard,,0.49987420000002203,['n'],1,right,['3'],4,0.04462130000001707,29,,37,32,Vrouw,Rechts,1,
,xotask,dotcolour,dotcolour,36,4,276,576,main,positivefb,-99,easy,,0.43451200000004064,['n'],1,right,['3'],4,0.10575530000005529,7,,37,32,Vrouw,Rechts,1,
,xotask,dotcolour,dotcolour,37,4,277,577,main,positivefb,-99,easy,,0.6842737000001762,['c'],1,left,['3'],4,0.052077000000053886,74,,37,32,Vrouw,Rechts,1,
,xotask,dotcolour,dotcolour,38,4,278,578,main,positivefb,-99,easy,,0.48356699999999364,['n'],1,right,['3'],4,0.0475687000000562,5,,37,32,Vrouw,Rechts,1,
,xotask,dotcolour,dotcolour,39,4,279,579,main,positivefb,-99,average,,0.5833345999999437,['n'],0,left,['3'],4,0.02223479999997835,63,,37,32,Vrouw,Rechts,1,
,xotask,dotcolour,dotcolour,40,4,280,580,main,positivefb,-99,average,,0.6830998999998883,['c'],1,left,['3'],4,0.06714370000008785,63,,37,32,Vrouw,Rechts,1,
,xotask,dotcolour,dotcolour,41,4,281,581,main,positivefb,-99,hard,,0.5681646000000455,['n'],0,left,['3'],4,0.6675993000001199,51,,37,32,Vrouw,Rechts,1,
,xotask,dotcolour,dotcolour,42,4,282,582,main,positivefb,-99,average,,0.6003415000000132,['c'],1,left,['3'],4,0.05759499999999207,60,,37,32,Vrouw,Rechts,1,
,xotask,dotcolour,dotcolour,43,4,283,583,main,positivefb,-99,hard,,0.5170603999999912,['n'],1,right,['3'],4,0.0909682999999859,27,,37,32,Vrouw,Rechts,1,
,xotask,dotcolour,dotcolour,44,4,284,584,main,positivefb,-99,easy,,0.4504970000000412,['c'],1,left,['3'],4,0.054595500000004904,73,,37,32,Vrouw,Rechts,1,
,xotask,dotcolour,dotcolour,45,4,285,585,main,positivefb,-99,average,,0.7843100999998569,['n'],0,left,['3'],4,0.08535879999999452,64,,37,32,Vrouw,Rechts,1,
,xotask,dotcolour,dotcolour,46,4,286,586,main,positivefb,-99,hard,,0.6680239999998321,['n'],1,right,['3'],4,0.05573980000008305,25,,37,32,Vrouw,Rechts,1,
,xotask,dotcolour,dotcolour,47,4,287,587,main,positivefb,-99,easy,,0.5008217999998124,['c'],0,right,['3'],4,0.06676010000001042,7,,37,32,Vrouw,Rechts,1,
,xotask,dotcolour,dotcolour,48,4,288,588,main,positivefb,-99,easy,,0.4169454999998834,['n'],1,right,['3'],4,0.06444510000005721,6,,37,32,Vrouw,Rechts,1,
,xotask,dotcolour,dotcolour,49,4,289,589,main,positivefb,-99,average,,0.5010455999999976,['n'],1,right,['3'],4,0.05838810000000194,16,,37,32,Vrouw,Rechts,1,
,xotask,dotcolour,dotcolour,50,4,290,590,main,positivefb,-99,easy,,0.583582799999931,['c'],1,left,['3'],4,0.033779800000047544,74,,37,32,Vrouw,Rechts,1,
,xotask,dotcolour,dotcolour,51,4,291,591,main,positivefb,-99,easy,,0.5002719999999954,['c'],1,left,['3'],4,0.05272510000008879,74,,37,32,Vrouw,Rechts,1,
,xotask,dotcolour,dotcolour,52,4,292,592,main,positivefb,-99,hard,,0.466953999999987,['c'],1,left,['3'],4,0.049345200000061595,53,,37,32,Vrouw,Rechts,1,
,xotask,dotcolour,dotcolour,53,4,293,593,main,positivefb,-99,hard,,0.417633399999886,['c'],0,right,['3'],4,0.03877569999986008,28,,37,32,Vrouw,Rechts,1,
,xotask,dotcolour,dotcolour,54,4,294,594,main,positivefb,-99,easy,,0.36663499999986016,['n'],1,right,['3'],4,0.0720837000001211,7,,37,32,Vrouw,Rechts,1,
,xotask,dotcolour,dotcolour,55,4,295,595,main,positivefb,-99,hard,,1.0011420999999245,['n'],1,right,['3'],4,0.06188290000000052,29,,37,32,Vrouw,Rechts,1,
,xotask,dotcolour,dotcolour,56,4,296,596,main,positivefb,-99,easy,,0.5004222000000027,['n'],1,right,['3'],4,0.07284170000002632,9,,37,32,Vrouw,Rechts,1,
,xotask,dotcolour,dotcolour,57,4,297,597,main,positivefb,-99,hard,,1.0167916000000332,['c'],0,right,['3'],4,0.5422263000000385,26,,37,32,Vrouw,Rechts,1,
,xotask,dotcolour,dotcolour,58,4,298,598,main,positivefb,-99,average,,0.48380710000014915,['n'],1,right,['3'],4,0.05410210000013649,16,,37,32,Vrouw,Rechts,1,
,xotask,dotcolour,dotcolour,59,4,299,599,main,positivefb,-99,hard,,0.46811959999990904,['n'],0,left,['3'],4,0.06544090000011238,51,,37,32,Vrouw,Rechts,1,
,dotcolour,dotcolour,dotcolour,0,0,0,600,training,positivefb,86,easy,16,1.0673406000000796,['n'],1,right,['1'],6,0.3227777999998125,,,37,32,Vrouw,Rechts,1,
,dotcolour,dotcolour,dotcolour,1,0,1,601,training,positivefb,95,hard,45,0.36750069999993684,['n'],0,left,['1'],6,0.11891689999993105,,,37,32,Vrouw,Rechts,1,
,dotcolour,dotcolour,dotcolour,2,0,2,602,training,positivefb,99,easy,61,0.3150722999998834,['n'],0,left,['1'],6,0.08670699999993303,,,37,32,Vrouw,Rechts,1,
,dotcolour,dotcolour,dotcolour,3,0,3,603,training,positivefb,96,hard,44,0.4671730000000025,['c'],1,left,['1'],6,0.10360179999997854,,,37,32,Vrouw,Rechts,1,
,dotcolour,dotcolour,dotcolour,4,0,4,604,training,positivefb,97,easy,18,0.28315489999999954,['n'],1,right,['1'],6,0.08793930000001637,,,37,32,Vrouw,Rechts,1,
,dotcolour,dotcolour,dotcolour,5,0,5,605,training,positivefb,99,easy,18,0.3823135000000093,['n'],1,right,['1'],6,0.07028299999979026,,,37,32,Vrouw,Rechts,1,
,dotcolour,dotcolour,dotcolour,6,0,6,606,training,positivefb,97,hard,44,0.3998595000000478,['n'],0,left,['1'],6,0.09152420000009442,,,37,32,Vrouw,Rechts,1,
,dotcolour,dotcolour,dotcolour,7,0,7,607,training,positivefb,96,hard,35,0.6170455999999831,['n'],1,right,['1'],6,0.07939569999984997,,,37,32,Vrouw,Rechts,1,
,dotcolour,dotcolour,dotcolour,8,0,8,608,training,positivefb,96,average,55,0.3667748999998821,['c'],1,left,['1'],6,0.045889900000020134,,,37,32,Vrouw,Rechts,1,
,dotcolour,dotcolour,dotcolour,9,0,9,609,training,positivefb,98,average,28,0.36633550000010473,['n'],1,right,['1'],6,0.005941399999983332,,,37,32,Vrouw,Rechts,1,
,dotcolour,dotcolour,dotcolour,10,0,10,610,training,positivefb,96,easy,19,0.40025900000000547,['n'],1,right,['1'],6,0.733587899999975,,,37,32,Vrouw,Rechts,1,
,dotcolour,dotcolour,dotcolour,11,0,11,611,training,positivefb,94,hard,41,0.667045700000017,['c'],1,left,['1'],6,0.022187399999893387,,,37,32,Vrouw,Rechts,1,
,dotcolour,dotcolour,dotcolour,12,0,12,612,training,positivefb,98,easy,18,0.383135399999901,['n'],1,right,['1'],6,0.030132299999877432,,,37,32,Vrouw,Rechts,1,
,dotcolour,dotcolour,dotcolour,13,0,13,613,training,positivefb,96,average,25,0.39985249999995176,['n'],1,right,['1'],6,0.05323029999999562,,,37,32,Vrouw,Rechts,1,
,dotcolour,dotcolour,dotcolour,14,0,14,614,training,positivefb,97,hard,44,0.5826775999998972,['c'],1,left,['1'],6,0.06814329999997426,,,37,32,Vrouw,Rechts,1,
,dotcolour,dotcolour,dotcolour,15,0,15,615,training,positivefb,93,average,55,0.7678807999998298,['c'],1,left,['1'],6,0.057867599999781305,,,37,32,Vrouw,Rechts,1,
,dotcolour,dotcolour,dotcolour,16,0,16,616,training,positivefb,92,average,25,0.43279660000007425,['n'],1,right,['1'],6,0.04749200000014753,,,37,32,Vrouw,Rechts,1,
,dotcolour,dotcolour,dotcolour,17,0,17,617,training,positivefb,96,average,26,0.5004093000000012,['n'],1,right,['1'],6,0.07310770000003686,,,37,32,Vrouw,Rechts,1,
,dotcolour,dotcolour,dotcolour,18,0,18,618,training,positivefb,93,hard,44,0.6661722000001191,['n'],0,left,['1'],6,0.02883560000009311,,,37,32,Vrouw,Rechts,1,
,dotcolour,dotcolour,dotcolour,19,0,19,619,training,positivefb,96,average,28,0.5339450999999826,['n'],1,right,['1'],6,0.13468780000016523,,,37,32,Vrouw,Rechts,1,
,dotcolour,dotcolour,dotcolour,20,0,20,620,training,positivefb,90,easy,63,0.41787649999992027,['c'],1,left,['1'],6,0.06488219999982903,,,37,32,Vrouw,Rechts,1,
,dotcolour,dotcolour,dotcolour,21,0,21,621,training,positivefb,93,average,54,0.6166306000000077,['c'],1,left,['1'],6,0.029625300000134303,,,37,32,Vrouw,Rechts,1,
,dotcolour,dotcolour,dotcolour,22,0,22,622,training,positivefb,93,average,51,0.6666480000001229,['c'],1,left,['1'],6,0.03342300000008436,,,37,32,Vrouw,Rechts,1,
,dotcolour,dotcolour,dotcolour,23,0,23,623,training,positivefb,95,average,51,0.6327665999999681,['c'],1,left,['1'],6,0.04760610000016641,,,37,32,Vrouw,Rechts,1,
,dotcolour,dotcolour,dotcolour,24,0,24,624,training,positivefb,95,hard,43,0.4500376999999389,['n'],0,left,['1'],6,0.04422279999994316,,,37,32,Vrouw,Rechts,1,
,dotcolour,dotcolour,dotcolour,25,0,25,625,training,positivefb,97,average,51,0.5187682000000677,['n'],0,left,['1'],6,0.02989460000003419,,,37,32,Vrouw,Rechts,1,
,dotcolour,dotcolour,dotcolour,26,0,26,626,training,positivefb,95,easy,62,0.5673021000000062,['c'],1,left,['1'],6,0.030476600000156395,,,37,32,Vrouw,Rechts,1,
,dotcolour,dotcolour,dotcolour,27,0,27,627,training,positivefb,94,average,53,0.4167353999998795,['c'],1,left,['1'],6,0.05377679999992324,,,37,32,Vrouw,Rechts,1,
,dotcolour,dotcolour,dotcolour,28,0,28,628,training,positivefb,92,hard,43,0.38415200000008554,['c'],1,left,['1'],6,0.7722890000000007,,,37,32,Vrouw,Rechts,1,
,dotcolour,dotcolour,dotcolour,29,0,29,629,training,positivefb,98,average,51,0.43382150000002184,['c'],1,left,['1'],6,0.03519689999984621,,,37,32,Vrouw,Rechts,1,
,dotcolour,dotcolour,dotcolour,30,0,30,630,training,positivefb,92,hard,38,0.5501228999999057,['c'],0,right,['1'],6,0.10055290000013883,,,37,32,Vrouw,Rechts,1,
,dotcolour,dotcolour,dotcolour,31,0,31,631,training,positivefb,97,average,25,0.44976699999983794,['n'],1,right,['1'],6,0.0061190999999780615,,,37,32,Vrouw,Rechts,1,
,dotcolour,dotcolour,dotcolour,32,0,32,632,training,positivefb,97,average,26,0.4827440999999908,['n'],1,right,['1'],6,0.04326509999987138,,,37,32,Vrouw,Rechts,1,
,dotcolour,dotcolour,dotcolour,33,0,33,633,training,positivefb,97,average,28,0.5500675000000683,['n'],1,right,['1'],6,0.0513085999998566,,,37,32,Vrouw,Rechts,1,
,dotcolour,dotcolour,dotcolour,34,0,34,634,training,positivefb,66,easy,63,0.533487599999944,['n'],0,left,['1'],6,0.40509190000011586,,,37,32,Vrouw,Rechts,1,
