starttime,task,fbtask,firsttask,withinblocktrial,block,withintasktrial,trial,running,feedback,fbscore,difflevel,n_xes,rt,resp,cor,cresp,conf_press,cj,RTconf,reddots,stoptime,sub,age,gender,handedness,session,
1714984234,xotask,xotask,xotask,0,0,0,0,training,negativefb,1,easy,70,0.8173329999999623,['n'],0,left,['9'],2,1.4703382999996393,,,18,18,Vrouw,Rechts,1,
,xotask,xotask,xotask,1,0,1,1,training,negativefb,19,easy,9,1.7673038000002634,['c'],0,right,['9'],2,1.1963723999997455,,,18,18,Vrouw,Rechts,1,
,xotask,xotask,xotask,2,0,2,2,training,negativefb,68,average,61,1.1512125999997807,['n'],0,left,['8'],3,1.4955689999997048,,,18,18,Vrouw,Rechts,1,
,xotask,xotask,xotask,3,0,3,3,training,negativefb,51,hard,50,1.666220500000236,['n'],0,left,['9'],2,0.9849332999992839,,,18,18,Vrouw,Rechts,1,
,xotask,xotask,xotask,4,0,4,4,training,negativefb,93,easy,72,1.2169658000002528,['c'],1,left,['3'],4,0.9359395000001314,,,18,18,Vrouw,Rechts,1,
,xotask,xotask,xotask,5,0,5,5,training,negativefb,76,easy,73,1.465679099999761,['c'],1,left,['3'],4,0.7126136000006227,,,18,18,Vrouw,Rechts,1,
,xotask,xotask,xotask,6,0,6,6,training,negativefb,96,hard,28,1.2837142000007589,['n'],1,right,['8'],3,0.7769131000004563,,,18,18,Vrouw,Rechts,1,
,xotask,xotask,xotask,7,0,7,7,training,negativefb,61,average,62,1.5838405000004059,['n'],0,left,['8'],3,0.4505944000002273,,,18,18,Vrouw,Rechts,1,
,xotask,xotask,xotask,8,0,8,8,training,negativefb,96,average,64,0.9672160999998596,['c'],1,left,['3'],4,1.0347431999998662,,,18,18,Vrouw,Rechts,1,
,xotask,xotask,xotask,9,0,9,9,training,negativefb,76,average,16,1.400585499999579,['n'],1,right,['3'],4,0.4972498999995878,,,18,18,Vrouw,Rechts,1,
,xotask,xotask,xotask,10,0,10,10,training,negativefb,71,average,15,1.9004304999998567,['n'],1,right,['3'],4,0.969565500000499,,,18,18,Vrouw,Rechts,1,
,xotask,xotask,xotask,11,0,11,11,training,negativefb,96,average,62,1.7999885999997787,['c'],1,left,['9'],2,0.7870554999999513,,,18,18,Vrouw,Rechts,1,
,xotask,xotask,xotask,12,0,12,12,training,negativefb,47,hard,28,1.5498133000000962,['n'],1,right,['8'],3,1.4544997000002695,,,18,18,Vrouw,Rechts,1,
,xotask,xotask,xotask,13,0,13,13,training,negativefb,52,easy,8,1.365581199999724,['n'],1,right,['2'],5,0.8768019999997705,,,18,18,Vrouw,Rechts,1,
,xotask,xotask,xotask,14,0,14,14,training,negativefb,95,easy,6,1.0494541999996727,['n'],1,right,['1'],6,0.49621579999984533,,,18,18,Vrouw,Rechts,1,
,xotask,xotask,xotask,15,0,15,15,training,negativefb,59,easy,6,0.9504485000006753,['n'],1,right,['1'],6,0.3667933999995512,,,18,18,Vrouw,Rechts,1,
,xotask,xotask,xotask,16,0,16,16,training,negativefb,68,average,17,1.066904500000419,['n'],1,right,['2'],5,0.38118630000008125,,,18,18,Vrouw,Rechts,1,
,xotask,xotask,xotask,17,0,17,17,training,negativefb,98,easy,71,0.8662987999996403,['c'],1,left,['8'],3,1.187465599999996,,,18,18,Vrouw,Rechts,1,
,xotask,xotask,xotask,18,0,18,18,training,negativefb,87,easy,73,0.9502779999993436,['c'],1,left,['2'],5,0.5261488999994981,,,18,18,Vrouw,Rechts,1,
,xotask,xotask,xotask,19,0,19,19,training,negativefb,10,hard,29,1.4166401000002224,['c'],0,right,['3'],4,0.9281683999997767,,,18,18,Vrouw,Rechts,1,
,xotask,xotask,xotask,20,0,20,20,training,negativefb,39,average,63,0.8325084999996761,['c'],1,left,['2'],5,0.8111142999996446,,,18,18,Vrouw,Rechts,1,
,xotask,xotask,xotask,21,0,21,21,training,negativefb,91,average,15,0.8673395999994682,['n'],1,right,['2'],5,1.1440630999995847,,,18,18,Vrouw,Rechts,1,
,xotask,xotask,xotask,22,0,22,22,training,negativefb,92,hard,52,1.0674967000004472,['c'],1,left,['8'],3,0.9682459999994535,,,18,18,Vrouw,Rechts,1,
,xotask,xotask,xotask,23,0,23,23,training,negativefb,91,easy,8,0.8510526000000027,['n'],1,right,['2'],5,0.48749899999984336,,,18,18,Vrouw,Rechts,1,
,xotask,xotask,xotask,24,0,24,24,training,negativefb,41,hard,29,1.0005640999997922,['n'],1,right,['3'],4,0.348200899999938,,,18,18,Vrouw,Rechts,1,
,xotask,xotask,xotask,25,0,25,25,training,negativefb,91,average,16,0.899947500000053,['n'],1,right,['2'],5,0.6584972000000562,,,18,18,Vrouw,Rechts,1,
,xotask,xotask,xotask,26,0,26,26,training,negativefb,54,hard,54,1.2654644999993252,['n'],0,left,['8'],3,0.7492595000003348,,,18,18,Vrouw,Rechts,1,
,xotask,xotask,xotask,27,0,27,27,training,negativefb,83,average,62,1.050981899999897,['c'],1,left,['9'],2,0.8851970000005167,,,18,18,Vrouw,Rechts,1,
,xotask,xotask,xotask,28,0,28,28,training,negativefb,55,easy,74,0.96643849999964,['c'],1,left,['3'],4,0.915328099999897,,,18,18,Vrouw,Rechts,1,
,xotask,xotask,xotask,29,0,29,29,training,negativefb,31,hard,51,1.0997760000000198,['n'],0,left,['8'],3,0.979403899999852,,,18,18,Vrouw,Rechts,1,
,xotask,xotask,xotask,30,0,30,30,training,negativefb,94,hard,26,1.1666709000000992,['c'],0,right,['9'],2,0.8059252000002743,,,18,18,Vrouw,Rechts,1,
,xotask,xotask,xotask,31,0,31,31,training,negativefb,62,easy,71,1.7671627999998236,['c'],1,left,['2'],5,0.6634928000003129,,,18,18,Vrouw,Rechts,1,
,xotask,xotask,xotask,32,0,32,32,training,negativefb,37,average,61,1.566813700000239,['c'],1,left,['8'],3,0.6459863000000041,,,18,18,Vrouw,Rechts,1,
,xotask,xotask,xotask,33,0,33,33,training,negativefb,58,average,19,1.2334542999997211,['n'],1,right,['9'],2,0.6433194000001095,,,18,18,Vrouw,Rechts,1,
,xotask,xotask,xotask,34,0,34,34,training,negativefb,58,easy,7,1.0675458000005165,['n'],1,right,['2'],5,0.5836036000000604,,,18,18,Vrouw,Rechts,1,
,xotask,xotask,xotask,35,0,35,35,training,negativefb,63,average,19,1.033519000000524,['n'],1,right,['3'],4,0.42303960000026564,,,18,18,Vrouw,Rechts,1,
,xotask,xotask,xotask,36,0,36,36,training,negativefb,76,hard,52,1.2163000999998985,['c'],1,left,['3'],4,0.9097157999995034,,,18,18,Vrouw,Rechts,1,
,xotask,xotask,xotask,37,0,37,37,training,negativefb,50,average,19,1.316035699999702,['n'],1,right,['3'],4,0.4289070000004358,,,18,18,Vrouw,Rechts,1,
,xotask,xotask,xotask,38,0,38,38,training,negativefb,58,easy,73,1.100518799999918,['c'],1,left,['2'],5,0.45665269999972224,,,18,18,Vrouw,Rechts,1,
,xotask,xotask,xotask,39,0,39,39,training,negativefb,31,average,17,1.2499399000007543,['n'],1,right,['3'],4,0.44431019999956334,,,18,18,Vrouw,Rechts,1,
,xotask,xotask,xotask,40,0,40,40,training,negativefb,74,average,15,1.0172295000002123,['n'],1,right,['3'],4,0.21044309999979305,,,18,18,Vrouw,Rechts,1,
,xotask,xotask,xotask,41,0,41,41,training,negativefb,57,hard,26,1.1169719999998051,['n'],1,right,['8'],3,0.3579338999998072,,,18,18,Vrouw,Rechts,1,
,xotask,xotask,xotask,42,0,42,42,training,negativefb,85,easy,74,0.9841064000002007,['c'],1,left,['2'],5,0.34459999999944557,,,18,18,Vrouw,Rechts,1,
,xotask,xotask,xotask,43,0,43,43,training,negativefb,66,hard,27,1.33414300000004,['n'],1,right,['2'],5,0.7820241999997961,,,18,18,Vrouw,Rechts,1,
,xotask,xotask,xotask,44,0,44,44,training,negativefb,92,easy,8,0.9012219999995068,['n'],1,right,['1'],6,0.2501478000003772,,,18,18,Vrouw,Rechts,1,
,xotask,xotask,xotask,45,0,45,45,training,negativefb,77,easy,7,0.7676578999999037,['n'],1,right,['1'],6,0.19458810000014637,,,18,18,Vrouw,Rechts,1,
,xotask,xotask,xotask,46,0,46,46,training,negativefb,92,average,62,1.2663608000002569,['c'],1,left,['3'],4,0.8399944000002506,,,18,18,Vrouw,Rechts,1,
,xotask,xotask,xotask,47,0,47,47,training,negativefb,80,hard,50,1.2658492000000479,['c'],1,left,['3'],4,0.33967389999997977,,,18,18,Vrouw,Rechts,1,
,xotask,xotask,xotask,48,0,48,48,training,negativefb,75,average,60,1.0498499999994237,['c'],1,left,['8'],3,0.4532980999993015,,,18,18,Vrouw,Rechts,1,
,xotask,xotask,xotask,49,0,49,49,training,negativefb,49,hard,27,1.366868500000237,['c'],0,right,['3'],4,0.5801262000004499,,,18,18,Vrouw,Rechts,1,
,xotask,xotask,xotask,50,0,50,50,training,negativefb,50,hard,27,1.083438099999512,['n'],1,right,['3'],4,0.5460156999997707,,,18,18,Vrouw,Rechts,1,
,xotask,xotask,xotask,51,0,51,51,training,negativefb,39,hard,53,1.1336693000002924,['c'],1,left,['2'],5,0.5034881999999925,,,18,18,Vrouw,Rechts,1,
,xotask,xotask,xotask,52,0,52,52,training,negativefb,49,hard,50,1.117496800000481,['c'],1,left,['3'],4,0.2469560999998066,,,18,18,Vrouw,Rechts,1,
,xotask,xotask,xotask,53,0,53,53,training,negativefb,50,hard,54,1.2166866000006848,['c'],1,left,['8'],3,0.4923479999997653,,,18,18,Vrouw,Rechts,1,
,xotask,xotask,xotask,54,0,54,54,training,negativefb,49,easy,6,0.834282699999676,['n'],1,right,['2'],5,0.360720499999843,,,18,18,Vrouw,Rechts,1,
,xotask,xotask,xotask,55,0,55,55,training,negativefb,25,easy,7,0.9162363000004916,['n'],1,right,['2'],5,0.5173071999997774,,,18,18,Vrouw,Rechts,1,
,xotask,xotask,xotask,56,0,56,56,training,negativefb,56,average,61,1.483879800000068,['c'],1,left,['8'],3,0.4775374999999258,,,18,18,Vrouw,Rechts,1,
,xotask,xotask,xotask,57,0,57,57,training,negativefb,85,easy,72,0.8832521000003908,['c'],1,left,['1'],6,0.4955054000001837,,,18,18,Vrouw,Rechts,1,
,xotask,xotask,xotask,58,0,58,58,training,negativefb,76,hard,50,1.450196199999482,['c'],1,left,['8'],3,0.6820731999996497,,,18,18,Vrouw,Rechts,1,
,xotask,xotask,xotask,59,0,59,59,training,negativefb,65,hard,26,1.0837043999999878,['n'],1,right,['3'],4,0.5557180999994671,,,18,18,Vrouw,Rechts,1,
,xotask,xotask,xotask,0,1,60,60,training,negativefb,94,easy,8,1.1012212999994517,['n'],1,right,['1'],6,0.9146874999996726,,,18,18,Vrouw,Rechts,1,
,xotask,xotask,xotask,1,1,61,61,training,negativefb,92,average,15,0.9004285000000891,['n'],1,right,['2'],5,0.28997309999977006,,,18,18,Vrouw,Rechts,1,
,xotask,xotask,xotask,2,1,62,62,training,negativefb,55,hard,25,1.2003888999997798,['c'],0,right,['3'],4,0.4787225000000035,,,18,18,Vrouw,Rechts,1,
,xotask,xotask,xotask,3,1,63,63,training,negativefb,53,average,61,0.9502280000006067,['c'],1,left,['3'],4,0.24605979999978445,,,18,18,Vrouw,Rechts,1,
,xotask,xotask,xotask,4,1,64,64,training,negativefb,64,hard,52,0.9827392999995936,['n'],0,left,['3'],4,0.30973589999939577,,,18,18,Vrouw,Rechts,1,
,xotask,xotask,xotask,5,1,65,65,training,negativefb,45,hard,52,1.0833441999993738,['n'],0,left,['8'],3,0.3096112000002904,,,18,18,Vrouw,Rechts,1,
,xotask,xotask,xotask,6,1,66,66,training,negativefb,55,hard,54,1.2662422000003062,['c'],1,left,['2'],5,0.5432447000002867,,,18,18,Vrouw,Rechts,1,
,xotask,xotask,xotask,7,1,67,67,training,negativefb,77,hard,29,1.2172133000003669,['n'],1,right,['2'],5,0.5448664999994435,,,18,18,Vrouw,Rechts,1,
,xotask,xotask,xotask,8,1,68,68,training,negativefb,56,hard,51,0.9987375999999131,['n'],0,left,['3'],4,0.19626530000005005,,,18,18,Vrouw,Rechts,1,
,xotask,xotask,xotask,9,1,69,69,training,negativefb,91,easy,72,1.1168836000006195,['c'],1,left,['3'],4,0.9522515999997267,,,18,18,Vrouw,Rechts,1,
,xotask,xotask,xotask,10,1,70,70,training,negativefb,66,average,62,1.033099599999332,['c'],1,left,['3'],4,0.35319689999960246,,,18,18,Vrouw,Rechts,1,
,xotask,xotask,xotask,11,1,71,71,training,negativefb,75,average,17,0.700019599999905,['n'],1,right,['1'],6,0.4868103999997402,,,18,18,Vrouw,Rechts,1,
,xotask,xotask,xotask,12,1,72,72,training,negativefb,80,easy,5,0.8503950000003897,['n'],1,right,['1'],6,0.2812757000001511,,,18,18,Vrouw,Rechts,1,
,xotask,xotask,xotask,13,1,73,73,training,negativefb,61,hard,26,1.0168610999999146,['n'],1,right,['3'],4,0.4371455000000424,,,18,18,Vrouw,Rechts,1,
,xotask,xotask,xotask,14,1,74,74,training,negativefb,29,easy,9,0.6667690000003859,['n'],1,right,['2'],5,0.5212506999996549,,,18,18,Vrouw,Rechts,1,
,xotask,xotask,xotask,15,1,75,75,training,negativefb,48,hard,27,0.8333738000001176,['n'],1,right,['3'],4,0.41968999999971857,,,18,18,Vrouw,Rechts,1,
,xotask,xotask,xotask,16,1,76,76,training,negativefb,70,average,61,0.9664199999997436,['c'],1,left,['3'],4,0.37204380000002857,,,18,18,Vrouw,Rechts,1,
,xotask,xotask,xotask,17,1,77,77,training,negativefb,35,hard,53,1.0344446999997672,['n'],0,left,['2'],5,0.6524183000001358,,,18,18,Vrouw,Rechts,1,
,xotask,xotask,xotask,18,1,78,78,training,negativefb,89,average,61,1.049445999999989,['n'],0,left,['8'],3,0.5121775999996316,,,18,18,Vrouw,Rechts,1,
,xotask,xotask,xotask,19,1,79,79,training,negativefb,43,hard,50,1.1996689999996306,['n'],0,left,['1'],6,0.42816490000041085,,,18,18,Vrouw,Rechts,1,
,xotask,xotask,xotask,20,1,80,80,training,negativefb,73,easy,72,1.1005303000001732,['c'],1,left,['2'],5,0.26386770000044635,,,18,18,Vrouw,Rechts,1,
,xotask,xotask,xotask,21,1,81,81,training,negativefb,72,easy,71,1.1832596000003832,['c'],1,left,['1'],6,0.3430159999998068,,,18,18,Vrouw,Rechts,1,
,xotask,xotask,xotask,22,1,82,82,training,negativefb,36,easy,73,1.0673719000005804,['c'],1,left,['1'],6,0.21456709999984014,,,18,18,Vrouw,Rechts,1,
,xotask,xotask,xotask,23,1,83,83,training,negativefb,41,hard,50,0.8828589000004285,['n'],0,left,['2'],5,0.2661880999994537,,,18,18,Vrouw,Rechts,1,
,xotask,xotask,xotask,24,1,84,84,training,negativefb,29,average,19,0.9674288999995042,['n'],1,right,['2'],5,0.3768444000006639,,,18,18,Vrouw,Rechts,1,
,xotask,xotask,xotask,25,1,85,85,training,negativefb,36,average,15,0.8509305000006862,['n'],1,right,['2'],5,0.47188639999967563,,,18,18,Vrouw,Rechts,1,
,xotask,xotask,xotask,26,1,86,86,training,negativefb,25,average,16,0.9166945999995733,['n'],1,right,['3'],4,0.43318060000001424,,,18,18,Vrouw,Rechts,1,
,xotask,xotask,xotask,27,1,87,87,training,negativefb,93,easy,6,0.8831952000000456,['n'],1,right,['2'],5,0.9329103999998551,,,18,18,Vrouw,Rechts,1,
,xotask,xotask,xotask,28,1,88,88,training,negativefb,78,hard,28,0.8342631000004985,['n'],1,right,['2'],5,0.3177323999998407,,,18,18,Vrouw,Rechts,1,
,xotask,xotask,xotask,29,1,89,89,training,negativefb,76,average,19,0.5840323000002172,['n'],1,right,['2'],5,0.3217038999991928,,,18,18,Vrouw,Rechts,1,
,xotask,xotask,xotask,30,1,90,90,training,negativefb,92,easy,5,0.7662350000000515,['n'],1,right,['1'],6,0.30230850000043574,,,18,18,Vrouw,Rechts,1,
,xotask,xotask,xotask,31,1,91,91,training,negativefb,64,easy,7,0.6177747000001546,['n'],1,right,['1'],6,0.27362189999985276,,,18,18,Vrouw,Rechts,1,
,xotask,xotask,xotask,32,1,92,92,training,negativefb,68,average,19,0.6677549999994881,['n'],1,right,['2'],5,0.41264849999970465,,,18,18,Vrouw,Rechts,1,
,xotask,xotask,xotask,33,1,93,93,training,negativefb,88,easy,8,0.6334330999998201,['n'],1,right,['1'],6,0.4032184999996389,,,18,18,Vrouw,Rechts,1,
,xotask,xotask,xotask,34,1,94,94,training,negativefb,62,easy,70,0.9169444999997722,['c'],1,left,['1'],6,0.39840169999934005,,,18,18,Vrouw,Rechts,1,
,xotask,xotask,xotask,35,1,95,95,training,negativefb,60,average,63,0.9180291999991823,['c'],1,left,['2'],5,0.22543519999999262,,,18,18,Vrouw,Rechts,1,
,xotask,xotask,xotask,36,1,96,96,training,negativefb,83,average,60,1.0669185999995534,['c'],1,left,['8'],3,0.35869800000000396,,,18,18,Vrouw,Rechts,1,
,xotask,xotask,xotask,37,1,97,97,training,negativefb,58,easy,72,0.9675064000002749,['c'],1,left,['2'],5,0.12999049999962153,,,18,18,Vrouw,Rechts,1,
,xotask,xotask,xotask,38,1,98,98,training,negativefb,61,hard,50,1.0669857000002594,['c'],1,left,['2'],5,0.22658969999974943,,,18,18,Vrouw,Rechts,1,
,xotask,xotask,xotask,39,1,99,99,training,negativefb,50,easy,70,0.9328820999999152,['c'],1,left,['1'],6,0.1644760999997743,,,18,18,Vrouw,Rechts,1,
,xotask,xotask,xotask,40,1,100,100,training,negativefb,49,average,60,0.9827894000000015,['c'],1,left,['1'],6,0.17497800000001007,,,18,18,Vrouw,Rechts,1,
,xotask,xotask,xotask,41,1,101,101,training,negativefb,61,easy,70,0.966981499999747,['c'],1,left,['1'],6,0.20097600000008242,,,18,18,Vrouw,Rechts,1,
,xotask,xotask,xotask,42,1,102,102,training,negativefb,44,hard,26,1.000731299999643,['c'],0,right,['2'],5,0.41694749999987835,,,18,18,Vrouw,Rechts,1,
,xotask,xotask,xotask,43,1,103,103,training,negativefb,58,easy,9,0.7497238000005382,['n'],1,right,['1'],6,0.3867229999996198,,,18,18,Vrouw,Rechts,1,
,xotask,xotask,xotask,44,1,104,104,training,negativefb,68,hard,54,1.2828446999992593,['c'],1,left,['3'],4,0.5119783999998617,,,18,18,Vrouw,Rechts,1,
,xotask,xotask,xotask,45,1,105,105,training,negativefb,39,average,61,0.8684773999993922,['c'],1,left,['2'],5,0.1935350000003382,,,18,18,Vrouw,Rechts,1,
,xotask,xotask,xotask,46,1,106,106,training,negativefb,76,easy,72,0.9675219999999172,['c'],1,left,['3'],4,0.491430400000354,,,18,18,Vrouw,Rechts,1,
,xotask,xotask,xotask,47,1,107,107,training,negativefb,69,average,19,0.9170758999998725,['c'],0,right,['8'],3,0.4910957000001872,,,18,18,Vrouw,Rechts,1,
,xotask,xotask,xotask,48,1,108,108,training,negativefb,73,average,63,0.8330793000004633,['c'],1,left,['3'],4,0.24621320000005653,,,18,18,Vrouw,Rechts,1,
,xotask,xotask,xotask,49,1,109,109,training,negativefb,57,hard,27,0.9840304999997898,['c'],0,right,['3'],4,0.5343991999998252,,,18,18,Vrouw,Rechts,1,
,xotask,xotask,xotask,50,1,110,110,training,negativefb,79,easy,6,1.1830046000004586,['n'],1,right,['3'],4,0.34507880000001023,,,18,18,Vrouw,Rechts,1,
,xotask,xotask,xotask,51,1,111,111,training,negativefb,75,easy,71,0.882966099999976,['c'],1,left,['3'],4,0.43308729999989737,,,18,18,Vrouw,Rechts,1,
,xotask,xotask,xotask,52,1,112,112,training,negativefb,64,easy,9,0.8496869999999035,['n'],1,right,['2'],5,0.18968880000011268,,,18,18,Vrouw,Rechts,1,
,xotask,xotask,xotask,53,1,113,113,training,negativefb,36,hard,27,1.0667026000000988,['c'],0,right,['8'],3,0.33913589999974647,,,18,18,Vrouw,Rechts,1,
,xotask,xotask,xotask,54,1,114,114,training,negativefb,19,average,18,1.2829570000003514,['c'],0,right,['8'],3,0.5864181000006283,,,18,18,Vrouw,Rechts,1,
,xotask,xotask,xotask,55,1,115,115,training,negativefb,47,hard,28,1.1833180000003267,['n'],1,right,['3'],4,0.35601370000040333,,,18,18,Vrouw,Rechts,1,
,xotask,xotask,xotask,56,1,116,116,training,negativefb,66,average,17,0.9839785999993182,['n'],1,right,['8'],3,0.6708985999994184,,,18,18,Vrouw,Rechts,1,
,xotask,xotask,xotask,57,1,117,117,training,negativefb,88,average,64,0.9502810000003592,['c'],1,left,['3'],4,0.37489780000032624,,,18,18,Vrouw,Rechts,1,
,xotask,xotask,xotask,58,1,118,118,training,negativefb,75,hard,26,0.8671462000002066,['n'],1,right,['3'],4,0.2609738000001016,,,18,18,Vrouw,Rechts,1,
,xotask,xotask,xotask,59,1,119,119,training,negativefb,60,hard,52,1.016547499999433,['n'],0,left,['3'],4,0.20193410000047152,,,18,18,Vrouw,Rechts,1,
,xotask,xotask,xotask,0,2,120,120,main,negativefb,-99,hard,53,0.9350418000003629,['c'],1,left,['3'],4,0.23060199999963515,,,18,18,Vrouw,Rechts,1,
,xotask,xotask,xotask,1,2,121,121,main,negativefb,-99,easy,72,1.150862700000289,['c'],1,left,['3'],4,0.16845109999940178,,,18,18,Vrouw,Rechts,1,
,xotask,xotask,xotask,2,2,122,122,main,negativefb,-99,easy,71,0.8343722999998135,['c'],1,left,['2'],5,0.3052852000000712,,,18,18,Vrouw,Rechts,1,
,xotask,xotask,xotask,3,2,123,123,main,negativefb,-99,average,16,0.8675954999998794,['n'],1,right,['8'],3,0.4915531999995437,,,18,18,Vrouw,Rechts,1,
,xotask,xotask,xotask,4,2,124,124,main,negativefb,-99,average,19,1.1501036999998178,['n'],1,right,['8'],3,0.38647820000005595,,,18,18,Vrouw,Rechts,1,
,xotask,xotask,xotask,5,2,125,125,main,negativefb,-99,average,19,1.350768400000561,['c'],0,right,['8'],3,0.41373680000015156,,,18,18,Vrouw,Rechts,1,
,xotask,xotask,xotask,6,2,126,126,main,negativefb,-99,hard,25,1.0186234000002514,['n'],1,right,['3'],4,0.23009360000014567,,,18,18,Vrouw,Rechts,1,
,xotask,xotask,xotask,7,2,127,127,main,negativefb,-99,hard,25,1.0679486999997607,['n'],1,right,['9'],2,0.5228645999995933,,,18,18,Vrouw,Rechts,1,
,xotask,xotask,xotask,8,2,128,128,main,negativefb,-99,hard,50,1.0007675999995627,['c'],1,left,['9'],2,0.25533180000002176,,,18,18,Vrouw,Rechts,1,
,xotask,xotask,xotask,9,2,129,129,main,negativefb,-99,average,62,1.134970300000532,['c'],1,left,['3'],4,0.3846791999994821,,,18,18,Vrouw,Rechts,1,
,xotask,xotask,xotask,10,2,130,130,main,negativefb,-99,average,60,1.3007104999996955,['c'],1,left,['9'],2,0.21385379999992438,,,18,18,Vrouw,Rechts,1,
,xotask,xotask,xotask,11,2,131,131,main,negativefb,-99,easy,70,1.0846272999997382,['n'],0,left,['9'],2,0.3792964000003849,,,18,18,Vrouw,Rechts,1,
,xotask,xotask,xotask,12,2,132,132,main,negativefb,-99,hard,29,1.2174851999998282,['n'],1,right,['2'],5,0.8289858999996795,,,18,18,Vrouw,Rechts,1,
,xotask,xotask,xotask,13,2,133,133,main,negativefb,-99,easy,70,0.9503515999995216,['c'],1,left,['2'],5,0.20677470000009635,,,18,18,Vrouw,Rechts,1,
,xotask,xotask,xotask,14,2,134,134,main,negativefb,-99,average,63,1.451980800000456,['c'],1,left,['8'],3,0.36540579999928013,,,18,18,Vrouw,Rechts,1,
,xotask,xotask,xotask,15,2,135,135,main,negativefb,-99,hard,28,1.0172016999995321,['n'],1,right,['8'],3,0.5907807000003231,,,18,18,Vrouw,Rechts,1,
,xotask,xotask,xotask,16,2,136,136,main,negativefb,-99,average,15,1.2837356,['n'],1,right,['2'],5,0.6203326000004381,,,18,18,Vrouw,Rechts,1,
,xotask,xotask,xotask,17,2,137,137,main,negativefb,-99,easy,7,1.2017780999995011,['n'],1,right,['1'],6,0.316062800000509,,,18,18,Vrouw,Rechts,1,
,xotask,xotask,xotask,18,2,138,138,main,negativefb,-99,easy,71,1.134192599999551,['c'],1,left,['1'],6,0.2989588000000367,,,18,18,Vrouw,Rechts,1,
,xotask,xotask,xotask,19,2,139,139,main,negativefb,-99,easy,6,0.7335970000003726,['n'],1,right,['2'],5,0.25813379999999597,,,18,18,Vrouw,Rechts,1,
,xotask,xotask,xotask,20,2,140,140,main,negativefb,-99,hard,52,1.0846215999999913,['n'],0,left,['3'],4,0.26969909999934316,,,18,18,Vrouw,Rechts,1,
,xotask,xotask,xotask,21,2,141,141,main,negativefb,-99,average,16,0.9663598999995884,['n'],1,right,['2'],5,0.15753050000057556,,,18,18,Vrouw,Rechts,1,
,xotask,xotask,xotask,22,2,142,142,main,negativefb,-99,easy,70,1.017736299999342,['c'],1,left,['2'],5,0.1753908999999112,,,18,18,Vrouw,Rechts,1,
,xotask,xotask,xotask,23,2,143,143,main,negativefb,-99,average,63,0.783642499999587,['c'],1,left,['2'],5,0.2099054000000251,,,18,18,Vrouw,Rechts,1,
,xotask,xotask,xotask,24,2,144,144,main,negativefb,-99,easy,6,0.9679637999997794,['n'],1,right,['2'],5,0.20387980000032258,,,18,18,Vrouw,Rechts,1,
,xotask,xotask,xotask,25,2,145,145,main,negativefb,-99,easy,9,0.7015825999997105,['n'],1,right,['1'],6,0.3051977999994051,,,18,18,Vrouw,Rechts,1,
,xotask,xotask,xotask,26,2,146,146,main,negativefb,-99,easy,71,1.1675772999997207,['c'],1,left,['1'],6,0.1428672000001825,,,18,18,Vrouw,Rechts,1,
,xotask,xotask,xotask,27,2,147,147,main,negativefb,-99,average,61,1.1675979000001462,['n'],0,left,['8'],3,0.3074179000004733,,,18,18,Vrouw,Rechts,1,
,xotask,xotask,xotask,28,2,148,148,main,negativefb,-99,easy,73,0.9688249999999243,['c'],1,left,['3'],4,0.3455889999995634,,,18,18,Vrouw,Rechts,1,
,xotask,xotask,xotask,29,2,149,149,main,negativefb,-99,average,61,1.050435600000128,['c'],1,left,['3'],4,0.2591453000004549,,,18,18,Vrouw,Rechts,1,
,xotask,xotask,xotask,30,2,150,150,main,negativefb,-99,easy,9,0.9179415999997218,['n'],1,right,['2'],5,0.205183300000499,,,18,18,Vrouw,Rechts,1,
,xotask,xotask,xotask,31,2,151,151,main,negativefb,-99,average,19,0.7511960999991061,['n'],1,right,['1'],6,0.3354892999996082,,,18,18,Vrouw,Rechts,1,
,xotask,xotask,xotask,32,2,152,152,main,negativefb,-99,hard,29,0.9842609999996057,['n'],1,right,['2'],5,0.2111789000000499,,,18,18,Vrouw,Rechts,1,
,xotask,xotask,xotask,33,2,153,153,main,negativefb,-99,easy,7,0.8506502999998702,['n'],1,right,['2'],5,0.19431820000045263,,,18,18,Vrouw,Rechts,1,
,xotask,xotask,xotask,34,2,154,154,main,negativefb,-99,average,63,1.0343533999994179,['c'],1,left,['2'],5,0.1942841000000044,,,18,18,Vrouw,Rechts,1,
,xotask,xotask,xotask,35,2,155,155,main,negativefb,-99,hard,28,0.9342649000000165,['n'],1,right,['2'],5,0.23074220000034984,,,18,18,Vrouw,Rechts,1,
,xotask,xotask,xotask,36,2,156,156,main,negativefb,-99,hard,29,0.9344388999998046,['n'],1,right,['8'],3,0.2644476000004943,,,18,18,Vrouw,Rechts,1,
,xotask,xotask,xotask,37,2,157,157,main,negativefb,-99,average,61,1.0341180000004897,['c'],1,left,['8'],3,0.29371870000068157,,,18,18,Vrouw,Rechts,1,
,xotask,xotask,xotask,38,2,158,158,main,negativefb,-99,average,16,1.0013545000001614,['c'],0,right,['2'],5,0.2749607999994623,,,18,18,Vrouw,Rechts,1,
,xotask,xotask,xotask,39,2,159,159,main,negativefb,-99,average,64,1.0014140999992378,['c'],1,left,['2'],5,0.1370017999997799,,,18,18,Vrouw,Rechts,1,
,xotask,xotask,xotask,40,2,160,160,main,negativefb,-99,hard,54,1.0015197000002445,['c'],1,left,['9'],2,0.5165156999992178,,,18,18,Vrouw,Rechts,1,
,xotask,xotask,xotask,41,2,161,161,main,negativefb,-99,average,17,0.9012212999996336,['n'],1,right,['1'],6,0.25235929999962536,,,18,18,Vrouw,Rechts,1,
,xotask,xotask,xotask,42,2,162,162,main,negativefb,-99,hard,51,1.034511300000304,['c'],1,left,['2'],5,0.35336180000012973,,,18,18,Vrouw,Rechts,1,
,xotask,xotask,xotask,43,2,163,163,main,negativefb,-99,hard,53,1.0165606999999,['c'],1,left,['3'],4,0.235316000000239,,,18,18,Vrouw,Rechts,1,
,xotask,xotask,xotask,44,2,164,164,main,negativefb,-99,average,19,1.001686200000222,['n'],1,right,['3'],4,0.3227820000001884,,,18,18,Vrouw,Rechts,1,
,xotask,xotask,xotask,45,2,165,165,main,negativefb,-99,hard,29,1.3176455999991958,['n'],1,right,['2'],5,0.3148123000000851,,,18,18,Vrouw,Rechts,1,
,xotask,xotask,xotask,46,2,166,166,main,negativefb,-99,easy,70,0.9345859000004566,['c'],1,left,['2'],5,0.25671630000033474,,,18,18,Vrouw,Rechts,1,
,xotask,xotask,xotask,47,2,167,167,main,negativefb,-99,hard,54,1.0845136000007187,['n'],0,left,['8'],3,0.3164220999997269,,,18,18,Vrouw,Rechts,1,
,xotask,xotask,xotask,48,2,168,168,main,negativefb,-99,easy,5,1.0503207000001566,['n'],1,right,['1'],6,0.2702420000005077,,,18,18,Vrouw,Rechts,1,
,xotask,xotask,xotask,49,2,169,169,main,negativefb,-99,easy,7,0.8174440000002505,['n'],1,right,['1'],6,0.25164609999956156,,,18,18,Vrouw,Rechts,1,
,xotask,xotask,xotask,50,2,170,170,main,negativefb,-99,hard,52,0.9835186000000249,['n'],0,left,['8'],3,0.6027319000004354,,,18,18,Vrouw,Rechts,1,
,xotask,xotask,xotask,51,2,171,171,main,negativefb,-99,average,62,1.217996100000164,['c'],1,left,['2'],5,0.2508655000001454,,,18,18,Vrouw,Rechts,1,
,xotask,xotask,xotask,52,2,172,172,main,negativefb,-99,hard,53,1.034853799999837,['c'],1,left,['2'],5,0.23228370000015275,,,18,18,Vrouw,Rechts,1,
,xotask,xotask,xotask,53,2,173,173,main,negativefb,-99,hard,26,0.9007571000001917,['n'],1,right,['2'],5,0.25936689999980445,,,18,18,Vrouw,Rechts,1,
,xotask,xotask,xotask,54,2,174,174,main,negativefb,-99,easy,71,0.8677189999998518,['c'],1,left,['3'],4,0.3362771000001885,,,18,18,Vrouw,Rechts,1,
,xotask,xotask,xotask,55,2,175,175,main,negativefb,-99,hard,29,0.9345567000000301,['n'],1,right,['2'],5,0.21365079999941372,,,18,18,Vrouw,Rechts,1,
,xotask,xotask,xotask,56,2,176,176,main,negativefb,-99,easy,9,0.8170239999999467,['n'],1,right,['1'],6,0.1816091000000597,,,18,18,Vrouw,Rechts,1,
,xotask,xotask,xotask,57,2,177,177,main,negativefb,-99,average,15,0.7175455999995393,['n'],1,right,['1'],6,0.31515870000021096,,,18,18,Vrouw,Rechts,1,
,xotask,xotask,xotask,58,2,178,178,main,negativefb,-99,hard,54,0.9342357000004995,['c'],1,left,['3'],4,0.32106019999991986,,,18,18,Vrouw,Rechts,1,
,xotask,xotask,xotask,59,2,179,179,main,negativefb,-99,easy,8,0.867204799999854,['n'],1,right,['2'],5,0.21052319999944302,,,18,18,Vrouw,Rechts,1,
,xotask,xotask,xotask,0,3,180,180,main,negativefb,-99,hard,27,0.8511993000001894,['n'],1,right,['8'],3,0.4448325000003024,,,18,18,Vrouw,Rechts,1,
,xotask,xotask,xotask,1,3,181,181,main,negativefb,-99,average,17,0.9846497999997155,['n'],1,right,['2'],5,0.20469450000018696,,,18,18,Vrouw,Rechts,1,
,xotask,xotask,xotask,2,3,182,182,main,negativefb,-99,easy,6,0.7499228999995466,['n'],1,right,['1'],6,0.20723829999951704,,,18,18,Vrouw,Rechts,1,
,xotask,xotask,xotask,3,3,183,183,main,negativefb,-99,average,18,0.6506509000000733,['n'],1,right,['1'],6,0.25398840000070777,,,18,18,Vrouw,Rechts,1,
,xotask,xotask,xotask,4,3,184,184,main,negativefb,-99,average,64,1.0171736000002056,['c'],1,left,['2'],5,0.26810160000059113,,,18,18,Vrouw,Rechts,1,
,xotask,xotask,xotask,5,3,185,185,main,negativefb,-99,hard,53,0.8678448000000571,['n'],0,left,['3'],4,0.5912466999998287,,,18,18,Vrouw,Rechts,1,
,xotask,xotask,xotask,6,3,186,186,main,negativefb,-99,average,15,0.8671541999992769,['n'],1,right,['2'],5,0.23825709999982791,,,18,18,Vrouw,Rechts,1,
,xotask,xotask,xotask,7,3,187,187,main,negativefb,-99,hard,50,0.9348637000002782,['n'],0,left,['3'],4,0.22383960000024672,,,18,18,Vrouw,Rechts,1,
,xotask,xotask,xotask,8,3,188,188,main,negativefb,-99,average,16,0.8179562000004807,['n'],1,right,['2'],5,0.18353030000071158,,,18,18,Vrouw,Rechts,1,
,xotask,xotask,xotask,9,3,189,189,main,negativefb,-99,easy,9,0.8010079999994559,['n'],1,right,['2'],5,0.23260860000027606,,,18,18,Vrouw,Rechts,1,
,xotask,xotask,xotask,10,3,190,190,main,negativefb,-99,hard,53,1.0167080000001079,['c'],1,left,['3'],4,0.27974600000015926,,,18,18,Vrouw,Rechts,1,
,xotask,xotask,xotask,11,3,191,191,main,negativefb,-99,average,61,0.8679529000000912,['c'],1,left,['3'],4,0.23436190000029455,,,18,18,Vrouw,Rechts,1,
,xotask,xotask,xotask,12,3,192,192,main,negativefb,-99,easy,73,1.233748600000581,['c'],1,left,['2'],5,0.24108929999965767,,,18,18,Vrouw,Rechts,1,
,xotask,xotask,xotask,13,3,193,193,main,negativefb,-99,easy,7,0.7998740000002726,['n'],1,right,['2'],5,0.2165711999996347,,,18,18,Vrouw,Rechts,1,
,xotask,xotask,xotask,14,3,194,194,main,negativefb,-99,easy,5,0.7337015000002793,['n'],1,right,['1'],6,0.2188436999995247,,,18,18,Vrouw,Rechts,1,
,xotask,xotask,xotask,15,3,195,195,main,negativefb,-99,average,64,1.0842472000003909,['c'],1,left,['2'],5,0.22265750000042317,,,18,18,Vrouw,Rechts,1,
,xotask,xotask,xotask,16,3,196,196,main,negativefb,-99,average,15,0.900593200000003,['n'],1,right,['2'],5,0.21895750000021508,,,18,18,Vrouw,Rechts,1,
,xotask,xotask,xotask,17,3,197,197,main,negativefb,-99,hard,27,0.9672307999999248,['n'],1,right,['3'],4,0.19662700000026234,,,18,18,Vrouw,Rechts,1,
,xotask,xotask,xotask,18,3,198,198,main,negativefb,-99,easy,6,0.8502703999993173,['n'],1,right,['2'],5,0.16462369999953808,,,18,18,Vrouw,Rechts,1,
,xotask,xotask,xotask,19,3,199,199,main,negativefb,-99,average,62,0.9506187999995745,['c'],1,left,['2'],5,0.5210071000001335,,,18,18,Vrouw,Rechts,1,
,xotask,xotask,xotask,20,3,200,200,main,negativefb,-99,average,63,1.2010568999994575,['c'],1,left,['3'],4,0.3011429999996835,,,18,18,Vrouw,Rechts,1,
,xotask,xotask,xotask,21,3,201,201,main,negativefb,-99,hard,52,0.9339805999998134,['c'],1,left,['2'],5,0.23668799999995827,,,18,18,Vrouw,Rechts,1,
,xotask,xotask,xotask,22,3,202,202,main,negativefb,-99,hard,27,1.1011236999993343,['n'],1,right,['8'],3,0.31218559999979334,,,18,18,Vrouw,Rechts,1,
,xotask,xotask,xotask,23,3,203,203,main,negativefb,-99,easy,73,0.9511570000004212,['c'],1,left,['2'],5,0.18225489999986166,,,18,18,Vrouw,Rechts,1,
,xotask,xotask,xotask,24,3,204,204,main,negativefb,-99,easy,72,0.834205799999836,['c'],1,left,['2'],5,0.22286149999945337,,,18,18,Vrouw,Rechts,1,
,xotask,xotask,xotask,25,3,205,205,main,negativefb,-99,average,64,0.8339665000003151,['c'],1,left,['2'],5,0.20443359999990207,,,18,18,Vrouw,Rechts,1,
,xotask,xotask,xotask,26,3,206,206,main,negativefb,-99,easy,9,0.9848050000000512,['n'],1,right,['3'],4,0.27857589999985066,,,18,18,Vrouw,Rechts,1,
,xotask,xotask,xotask,27,3,207,207,main,negativefb,-99,easy,73,0.9174002999998265,['c'],1,left,['3'],4,0.30338990000018384,,,18,18,Vrouw,Rechts,1,
,xotask,xotask,xotask,28,3,208,208,main,negativefb,-99,hard,52,1.1006101000002673,['n'],0,left,['3'],4,0.19234809999943536,,,18,18,Vrouw,Rechts,1,
,xotask,xotask,xotask,29,3,209,209,main,negativefb,-99,hard,53,0.9333693999997195,['c'],1,left,['8'],3,0.2848272999999608,,,18,18,Vrouw,Rechts,1,
,xotask,xotask,xotask,30,3,210,210,main,negativefb,-99,hard,27,0.949546900000314,['n'],1,right,['2'],5,0.1720418000004429,,,18,18,Vrouw,Rechts,1,
,xotask,xotask,xotask,31,3,211,211,main,negativefb,-99,hard,28,0.7997128999995766,['n'],1,right,['2'],5,0.6618945000000167,,,18,18,Vrouw,Rechts,1,
,xotask,xotask,xotask,32,3,212,212,main,negativefb,-99,hard,25,1.067653899999641,['n'],1,right,['8'],3,0.33007439999983035,,,18,18,Vrouw,Rechts,1,
,xotask,xotask,xotask,33,3,213,213,main,negativefb,-99,average,60,0.9664869999996881,['c'],1,left,['3'],4,0.19061580000015965,,,18,18,Vrouw,Rechts,1,
,xotask,xotask,xotask,34,3,214,214,main,negativefb,-99,hard,29,1.1007423999999446,['n'],1,right,['3'],4,0.5726783000000069,,,18,18,Vrouw,Rechts,1,
,xotask,xotask,xotask,35,3,215,215,main,negativefb,-99,hard,28,1.0849066000000676,['n'],1,right,['8'],3,0.338767000000189,,,18,18,Vrouw,Rechts,1,
,xotask,xotask,xotask,36,3,216,216,main,negativefb,-99,easy,72,1.1018832999998267,['n'],0,left,['2'],5,0.1943527000003087,,,18,18,Vrouw,Rechts,1,
,xotask,xotask,xotask,37,3,217,217,main,negativefb,-99,average,62,1.9840722999997524,['c'],1,left,['2'],5,0.356824499999675,,,18,18,Vrouw,Rechts,1,
,xotask,xotask,xotask,38,3,218,218,main,negativefb,-99,average,16,0.8832658999999694,['n'],1,right,['3'],4,0.2199067000001378,,,18,18,Vrouw,Rechts,1,
,xotask,xotask,xotask,39,3,219,219,main,negativefb,-99,hard,27,0.9176292000001922,['n'],1,right,['3'],4,0.23872620000020106,,,18,18,Vrouw,Rechts,1,
,xotask,xotask,xotask,40,3,220,220,main,negativefb,-99,hard,50,0.9853341999996701,['n'],0,left,['8'],3,0.2633289999994304,,,18,18,Vrouw,Rechts,1,
,xotask,xotask,xotask,41,3,221,221,main,negativefb,-99,average,16,0.9506418999999369,['n'],1,right,['3'],4,0.2478274999994028,,,18,18,Vrouw,Rechts,1,
,xotask,xotask,xotask,42,3,222,222,main,negativefb,-99,easy,5,1.1016254000005574,['n'],1,right,['8'],3,0.6668233000000328,,,18,18,Vrouw,Rechts,1,
,xotask,xotask,xotask,43,3,223,223,main,negativefb,-99,hard,50,1.018189700000221,['n'],0,left,['8'],3,0.28019469999981084,,,18,18,Vrouw,Rechts,1,
,xotask,xotask,xotask,44,3,224,224,main,negativefb,-99,average,19,1.2340371000000232,['n'],1,right,['3'],4,0.3485190000001239,,,18,18,Vrouw,Rechts,1,
,xotask,xotask,xotask,45,3,225,225,main,negativefb,-99,easy,71,1.1841636999997718,['c'],1,left,['2'],5,0.24002550000022893,,,18,18,Vrouw,Rechts,1,
,xotask,xotask,xotask,46,3,226,226,main,negativefb,-99,easy,72,0.9512457000000722,['c'],1,left,['2'],5,0.20151439999972354,,,18,18,Vrouw,Rechts,1,
,xotask,xotask,xotask,47,3,227,227,main,negativefb,-99,easy,6,0.8014818999999989,['n'],1,right,['1'],6,0.2339361000003919,,,18,18,Vrouw,Rechts,1,
,xotask,xotask,xotask,48,3,228,228,main,negativefb,-99,hard,29,0.8835483000002569,['n'],1,right,['2'],5,0.5097287999997206,,,18,18,Vrouw,Rechts,1,
,xotask,xotask,xotask,49,3,229,229,main,negativefb,-99,easy,6,0.7013897000006182,['n'],1,right,['1'],6,0.31066609999925276,,,18,18,Vrouw,Rechts,1,
,xotask,xotask,xotask,50,3,230,230,main,negativefb,-99,hard,52,1.0348015999998097,['n'],0,left,['3'],4,0.38635840000006283,,,18,18,Vrouw,Rechts,1,
,xotask,xotask,xotask,51,3,231,231,main,negativefb,-99,average,15,0.7177286000005552,['n'],1,right,['2'],5,0.24673379999967437,,,18,18,Vrouw,Rechts,1,
,xotask,xotask,xotask,52,3,232,232,main,negativefb,-99,easy,73,0.9341514999996434,['c'],1,left,['2'],5,0.23287059999984194,,,18,18,Vrouw,Rechts,1,
,xotask,xotask,xotask,53,3,233,233,main,negativefb,-99,average,64,0.9514220000000932,['c'],1,left,['1'],6,0.41766110000025947,,,18,18,Vrouw,Rechts,1,
,xotask,xotask,xotask,54,3,234,234,main,negativefb,-99,easy,70,0.9184237999998004,['c'],1,left,['1'],6,0.24516099999982544,,,18,18,Vrouw,Rechts,1,
,xotask,xotask,xotask,55,3,235,235,main,negativefb,-99,hard,50,0.8174596999997448,['n'],0,left,['3'],4,0.276182699999481,,,18,18,Vrouw,Rechts,1,
,xotask,xotask,xotask,56,3,236,236,main,negativefb,-99,average,15,0.9008038000001761,['n'],1,right,['2'],5,0.13388209999993705,,,18,18,Vrouw,Rechts,1,
,xotask,xotask,xotask,57,3,237,237,main,negativefb,-99,average,64,1.0014240000000427,['c'],1,left,['2'],5,0.2412968999997247,,,18,18,Vrouw,Rechts,1,
,xotask,xotask,xotask,58,3,238,238,main,negativefb,-99,easy,8,0.7004149000003963,['n'],1,right,['1'],6,0.2443686999995407,,,18,18,Vrouw,Rechts,1,
,xotask,xotask,xotask,59,3,239,239,main,negativefb,-99,easy,70,1.0183741999999256,['c'],1,left,['2'],5,0.32332359999963955,,,18,18,Vrouw,Rechts,1,
,xotask,xotask,xotask,0,4,240,240,main,negativefb,-99,average,15,0.6671021000001929,['n'],1,right,['2'],5,0.18654530000003433,,,18,18,Vrouw,Rechts,1,
,xotask,xotask,xotask,1,4,241,241,main,negativefb,-99,average,63,0.7348763999998482,['c'],1,left,['2'],5,0.2145407999996678,,,18,18,Vrouw,Rechts,1,
,xotask,xotask,xotask,2,4,242,242,main,negativefb,-99,average,16,0.6506020999995599,['n'],1,right,['1'],6,0.2596997000000556,,,18,18,Vrouw,Rechts,1,
,xotask,xotask,xotask,3,4,243,243,main,negativefb,-99,average,60,0.8180465000004915,['c'],1,left,['3'],4,0.24261419999947975,,,18,18,Vrouw,Rechts,1,
,xotask,xotask,xotask,4,4,244,244,main,negativefb,-99,easy,71,0.8338739999999234,['c'],1,left,['2'],5,0.1045763000001898,,,18,18,Vrouw,Rechts,1,
,xotask,xotask,xotask,5,4,245,245,main,negativefb,-99,hard,53,0.8505845999998201,['c'],1,left,['2'],5,0.11498769999980141,,,18,18,Vrouw,Rechts,1,
,xotask,xotask,xotask,6,4,246,246,main,negativefb,-99,hard,25,0.9168580999994447,['n'],1,right,['3'],4,0.24241559999973106,,,18,18,Vrouw,Rechts,1,
,xotask,xotask,xotask,7,4,247,247,main,negativefb,-99,easy,70,0.7511499000002004,['c'],1,left,['2'],5,0.17938839999987977,,,18,18,Vrouw,Rechts,1,
,xotask,xotask,xotask,8,4,248,248,main,negativefb,-99,average,17,0.7010880999996516,['n'],1,right,['2'],5,0.21738300000015442,,,18,18,Vrouw,Rechts,1,
,xotask,xotask,xotask,9,4,249,249,main,negativefb,-99,average,18,0.8006391999997504,['n'],1,right,['2'],5,0.2655512000001181,,,18,18,Vrouw,Rechts,1,
,xotask,xotask,xotask,10,4,250,250,main,negativefb,-99,easy,73,0.6338299999997616,['c'],1,left,['1'],6,0.2546484000004057,,,18,18,Vrouw,Rechts,1,
,xotask,xotask,xotask,11,4,251,251,main,negativefb,-99,easy,73,0.8509469000000536,['c'],1,left,['1'],6,0.1706104000004416,,,18,18,Vrouw,Rechts,1,
,xotask,xotask,xotask,12,4,252,252,main,negativefb,-99,hard,28,0.8005140999994182,['n'],1,right,['2'],5,0.22076299999935145,,,18,18,Vrouw,Rechts,1,
,xotask,xotask,xotask,13,4,253,253,main,negativefb,-99,hard,54,0.9175752999999531,['n'],0,left,['3'],4,0.26412750000054075,,,18,18,Vrouw,Rechts,1,
,xotask,xotask,xotask,14,4,254,254,main,negativefb,-99,average,18,0.7165046000000075,['n'],1,right,['8'],3,0.2986250000003565,,,18,18,Vrouw,Rechts,1,
,xotask,xotask,xotask,15,4,255,255,main,negativefb,-99,average,64,0.9172377000004417,['c'],1,left,['3'],4,0.2821516999993037,,,18,18,Vrouw,Rechts,1,
,xotask,xotask,xotask,16,4,256,256,main,negativefb,-99,easy,6,0.5666332999999213,['n'],1,right,['1'],6,0.2805852999999843,,,18,18,Vrouw,Rechts,1,
,xotask,xotask,xotask,17,4,257,257,main,negativefb,-99,average,16,0.7682268999997177,['n'],1,right,['3'],4,0.2401212000004307,,,18,18,Vrouw,Rechts,1,
,xotask,xotask,xotask,18,4,258,258,main,negativefb,-99,easy,6,0.7344548000000941,['n'],1,right,['2'],5,0.1697278000001461,,,18,18,Vrouw,Rechts,1,
,xotask,xotask,xotask,19,4,259,259,main,negativefb,-99,average,63,1.0682289999995191,['c'],1,left,['3'],4,0.23257740000008198,,,18,18,Vrouw,Rechts,1,
,xotask,xotask,xotask,20,4,260,260,main,negativefb,-99,easy,6,0.7006748999992851,['n'],1,right,['2'],5,0.21983450000061566,,,18,18,Vrouw,Rechts,1,
,xotask,xotask,xotask,21,4,261,261,main,negativefb,-99,easy,72,0.9167631000000256,['c'],1,left,['3'],4,0.21543199999996432,,,18,18,Vrouw,Rechts,1,
,xotask,xotask,xotask,22,4,262,262,main,negativefb,-99,easy,74,0.7837752000004912,['c'],1,left,['2'],5,0.17644800000016403,,,18,18,Vrouw,Rechts,1,
,xotask,xotask,xotask,23,4,263,263,main,negativefb,-99,hard,25,0.8673687999998947,['n'],1,right,['8'],3,0.3274314999998751,,,18,18,Vrouw,Rechts,1,
,xotask,xotask,xotask,24,4,264,264,main,negativefb,-99,hard,54,0.8505531000000701,['c'],1,left,['3'],4,0.25799499999993714,,,18,18,Vrouw,Rechts,1,
,xotask,xotask,xotask,25,4,265,265,main,negativefb,-99,hard,25,0.8843140999997559,['c'],0,right,['8'],3,0.15709640000022773,,,18,18,Vrouw,Rechts,1,
,xotask,xotask,xotask,26,4,266,266,main,negativefb,-99,hard,53,0.8683399999999892,['c'],1,left,['3'],4,0.22113199999967037,,,18,18,Vrouw,Rechts,1,
,xotask,xotask,xotask,27,4,267,267,main,negativefb,-99,hard,29,0.8840515000001687,['c'],0,right,['3'],4,0.1935880000000907,,,18,18,Vrouw,Rechts,1,
,xotask,xotask,xotask,28,4,268,268,main,negativefb,-99,hard,29,0.7504546999998638,['n'],1,right,['3'],4,0.32486210000024585,,,18,18,Vrouw,Rechts,1,
,xotask,xotask,xotask,29,4,269,269,main,negativefb,-99,hard,54,1.1516655999994327,['n'],0,left,['3'],4,0.25065769999946497,,,18,18,Vrouw,Rechts,1,
,xotask,xotask,xotask,30,4,270,270,main,negativefb,-99,hard,27,0.8355564999992566,['c'],0,right,['3'],4,0.3600220000007539,,,18,18,Vrouw,Rechts,1,
,xotask,xotask,xotask,31,4,271,271,main,negativefb,-99,hard,54,0.9338490999998612,['c'],1,left,['3'],4,0.18134050000026036,,,18,18,Vrouw,Rechts,1,
,xotask,xotask,xotask,32,4,272,272,main,negativefb,-99,easy,9,1.0512128999998822,['n'],1,right,['3'],4,0.18060010000044713,,,18,18,Vrouw,Rechts,1,
,xotask,xotask,xotask,33,4,273,273,main,negativefb,-99,easy,74,0.9014308000005258,['c'],1,left,['3'],4,0.33816920000026585,,,18,18,Vrouw,Rechts,1,
,xotask,xotask,xotask,34,4,274,274,main,negativefb,-99,easy,74,0.8681137999992643,['c'],1,left,['2'],5,0.20375229999990552,,,18,18,Vrouw,Rechts,1,
,xotask,xotask,xotask,35,4,275,275,main,negativefb,-99,average,62,0.9502065999995466,['c'],1,left,['2'],5,0.22167970000009518,,,18,18,Vrouw,Rechts,1,
,xotask,xotask,xotask,36,4,276,276,main,negativefb,-99,average,15,0.8342043999991802,['n'],1,right,['1'],6,0.19601289999991423,,,18,18,Vrouw,Rechts,1,
,xotask,xotask,xotask,37,4,277,277,main,negativefb,-99,average,61,0.816111500000261,['c'],1,left,['2'],5,0.24457390000043233,,,18,18,Vrouw,Rechts,1,
,xotask,xotask,xotask,38,4,278,278,main,negativefb,-99,hard,51,0.8847339000003558,['n'],0,left,['3'],4,0.3210319999998319,,,18,18,Vrouw,Rechts,1,
,xotask,xotask,xotask,39,4,279,279,main,negativefb,-99,easy,6,0.7677499000001262,['n'],1,right,['2'],5,0.31870619999972405,,,18,18,Vrouw,Rechts,1,
,xotask,xotask,xotask,40,4,280,280,main,negativefb,-99,average,63,0.8343342999996821,['c'],1,left,['2'],5,0.2891407999995863,,,18,18,Vrouw,Rechts,1,
,xotask,xotask,xotask,41,4,281,281,main,negativefb,-99,easy,5,0.9179599999997663,['n'],1,right,['1'],6,0.20990359999996144,,,18,18,Vrouw,Rechts,1,
,xotask,xotask,xotask,42,4,282,282,main,negativefb,-99,average,16,0.8172331000005215,['n'],1,right,['1'],6,0.21796790000007604,,,18,18,Vrouw,Rechts,1,
,xotask,xotask,xotask,43,4,283,283,main,negativefb,-99,average,61,0.9498658000002251,['n'],0,left,['3'],4,0.2767966000001252,,,18,18,Vrouw,Rechts,1,
,xotask,xotask,xotask,44,4,284,284,main,negativefb,-99,hard,50,0.8343784999997297,['n'],0,left,['3'],4,0.280501500000355,,,18,18,Vrouw,Rechts,1,
,xotask,xotask,xotask,45,4,285,285,main,negativefb,-99,average,61,1.0507349999998041,['n'],0,left,['3'],4,0.2525196999995387,,,18,18,Vrouw,Rechts,1,
,xotask,xotask,xotask,46,4,286,286,main,negativefb,-99,hard,53,0.8844030999998722,['n'],0,left,['2'],5,0.32036410000000615,,,18,18,Vrouw,Rechts,1,
,xotask,xotask,xotask,47,4,287,287,main,negativefb,-99,easy,5,0.7685955999995713,['n'],1,right,['1'],6,0.22942520000015065,,,18,18,Vrouw,Rechts,1,
,xotask,xotask,xotask,48,4,288,288,main,negativefb,-99,average,15,0.8842820999998366,['n'],1,right,['3'],4,0.2657408999994004,,,18,18,Vrouw,Rechts,1,
,xotask,xotask,xotask,49,4,289,289,main,negativefb,-99,easy,6,0.983667699999387,['n'],1,right,['2'],5,0.392962400000215,,,18,18,Vrouw,Rechts,1,
,xotask,xotask,xotask,50,4,290,290,main,negativefb,-99,hard,28,1.0341057000005094,['n'],1,right,['8'],3,0.39314290000038454,,,18,18,Vrouw,Rechts,1,
,xotask,xotask,xotask,51,4,291,291,main,negativefb,-99,easy,6,0.8338540000004286,['n'],1,right,['1'],6,0.18484239999997953,,,18,18,Vrouw,Rechts,1,
,xotask,xotask,xotask,52,4,292,292,main,negativefb,-99,easy,5,0.9510995000000548,['n'],1,right,['2'],5,0.3080737999998746,,,18,18,Vrouw,Rechts,1,
,xotask,xotask,xotask,53,4,293,293,main,negativefb,-99,hard,50,0.9001340000004348,['n'],0,left,['3'],4,0.42903430000023945,,,18,18,Vrouw,Rechts,1,
,xotask,xotask,xotask,54,4,294,294,main,negativefb,-99,easy,71,1.0172619000004488,['c'],1,left,['3'],4,0.2923979999995936,,,18,18,Vrouw,Rechts,1,
,xotask,xotask,xotask,55,4,295,295,main,negativefb,-99,average,17,0.6841905999999653,['n'],1,right,['3'],4,0.27021180000065215,,,18,18,Vrouw,Rechts,1,
,xotask,xotask,xotask,56,4,296,296,main,negativefb,-99,average,64,0.9512187999998787,['c'],1,left,['3'],4,0.16608180000002903,,,18,18,Vrouw,Rechts,1,
,xotask,xotask,xotask,57,4,297,297,main,negativefb,-99,hard,27,0.917483700000048,['n'],1,right,['2'],5,0.15508870000030583,,,18,18,Vrouw,Rechts,1,
,xotask,xotask,xotask,58,4,298,298,main,negativefb,-99,easy,73,0.8510116999996171,['c'],1,left,['2'],5,0.19608569999945757,,,18,18,Vrouw,Rechts,1,
,xotask,xotask,xotask,59,4,299,299,main,negativefb,-99,hard,27,0.9347155000004932,['c'],0,right,['3'],4,0.23254120000001421,,,18,18,Vrouw,Rechts,1,
,xotask,xotask,xotask,0,0,0,300,training,negativefb,57,hard,54,1.2173649000005753,['c'],1,left,['3'],4,0.501680800000031,,,18,18,Vrouw,Rechts,1,
,xotask,xotask,xotask,1,0,1,301,training,negativefb,57,easy,70,0.8677983999996286,['c'],1,left,['2'],5,0.19095590000051743,,,18,18,Vrouw,Rechts,1,
,xotask,xotask,xotask,2,0,2,302,training,negativefb,68,average,18,0.766700199999832,['n'],1,right,['3'],4,0.18495099999927334,,,18,18,Vrouw,Rechts,1,
,xotask,xotask,xotask,3,0,3,303,training,negativefb,67,easy,7,0.8847350000005463,['n'],1,right,['1'],6,0.16657130000021425,,,18,18,Vrouw,Rechts,1,
,xotask,xotask,xotask,4,0,4,304,training,negativefb,57,easy,72,0.7331844999998793,['c'],1,left,['2'],5,0.24186490000010963,,,18,18,Vrouw,Rechts,1,
,xotask,xotask,xotask,5,0,5,305,training,negativefb,69,hard,54,0.9161549999998897,['c'],1,left,['2'],5,0.13247099999989587,,,18,18,Vrouw,Rechts,1,
,xotask,xotask,xotask,6,0,6,306,training,negativefb,49,average,60,0.9172034000002895,['c'],1,left,['3'],4,0.4185975000000326,,,18,18,Vrouw,Rechts,1,
,xotask,xotask,xotask,7,0,7,307,training,negativefb,62,hard,26,1.099227200000314,['c'],0,right,['3'],4,0.42211829999996553,,,18,18,Vrouw,Rechts,1,
,xotask,xotask,xotask,8,0,8,308,training,negativefb,45,average,16,0.7666197000007742,['n'],1,right,['3'],4,0.28657050000038,,,18,18,Vrouw,Rechts,1,
,xotask,xotask,xotask,9,0,9,309,training,negativefb,38,easy,72,0.9327422999995179,['c'],1,left,['3'],4,0.33381809999991674,,,18,18,Vrouw,Rechts,1,
,xotask,xotask,xotask,10,0,10,310,training,negativefb,40,hard,53,1.3344137999993109,['n'],0,left,['3'],4,0.23527539999940927,,,18,18,Vrouw,Rechts,1,
,xotask,xotask,xotask,11,0,11,311,training,negativefb,66,easy,72,1.0825906999998551,['c'],1,left,['2'],5,0.24657209999986662,,,18,18,Vrouw,Rechts,1,
,xotask,xotask,xotask,12,0,12,312,training,negativefb,50,average,60,0.8175872000001618,['c'],1,left,['3'],4,0.3964716000000408,,,18,18,Vrouw,Rechts,1,
,xotask,xotask,xotask,13,0,13,313,training,negativefb,44,hard,27,0.9339367000002312,['n'],1,right,['3'],4,0.1762061999997968,,,18,18,Vrouw,Rechts,1,
,xotask,xotask,xotask,14,0,14,314,training,negativefb,49,hard,50,1.0167037999999593,['c'],1,left,['3'],4,0.23249359999954322,,,18,18,Vrouw,Rechts,1,
,xotask,xotask,xotask,15,0,15,315,training,negativefb,58,hard,28,1.016361400000278,['c'],0,right,['3'],4,0.09472780000032799,,,18,18,Vrouw,Rechts,1,
,xotask,xotask,xotask,16,0,16,316,training,negativefb,50,hard,29,1.1676334000003408,['n'],1,right,['3'],4,0.1734070000002248,,,18,18,Vrouw,Rechts,1,
,xotask,xotask,xotask,17,0,17,317,training,negativefb,37,average,15,1.0000700999999026,['n'],1,right,['3'],4,0.22205600000052073,,,18,18,Vrouw,Rechts,1,
,xotask,xotask,xotask,18,0,18,318,training,negativefb,78,easy,8,0.5831767999998192,['n'],1,right,['2'],5,0.4139586999999665,,,18,18,Vrouw,Rechts,1,
,xotask,xotask,xotask,19,0,19,319,training,negativefb,63,easy,7,0.650180999999975,['n'],1,right,['1'],6,0.28407549999974435,,,18,18,Vrouw,Rechts,1,
,xotask,xotask,xotask,20,0,20,320,training,negativefb,66,easy,8,0.6498240000000806,['n'],1,right,['1'],6,0.20646520000082091,,,18,18,Vrouw,Rechts,1,
,xotask,xotask,xotask,21,0,21,321,training,negativefb,84,easy,6,0.58353950000037,['n'],1,right,['1'],6,0.19089470000017172,,,18,18,Vrouw,Rechts,1,
,xotask,xotask,xotask,22,0,22,322,training,negativefb,67,average,18,0.7672459000004892,['n'],1,right,['2'],5,0.13747440000042843,,,18,18,Vrouw,Rechts,1,
,xotask,xotask,xotask,23,0,23,323,training,negativefb,45,average,64,1.0497766000007687,['c'],1,left,['3'],4,0.4342483999998876,,,18,18,Vrouw,Rechts,1,
,xotask,xotask,xotask,24,0,24,324,training,negativefb,72,hard,28,0.7343364000007568,['n'],1,right,['2'],5,0.38725780000004306,,,18,18,Vrouw,Rechts,1,
,xotask,xotask,xotask,25,0,25,325,training,negativefb,70,average,61,1.1337609000001976,['c'],1,left,['3'],4,0.58232820000012,,,18,18,Vrouw,Rechts,1,
,xotask,xotask,xotask,26,0,26,326,training,negativefb,66,hard,50,1.3842137999999977,['c'],1,left,['2'],5,0.5358070000002044,,,18,18,Vrouw,Rechts,1,
,xotask,xotask,xotask,27,0,27,327,training,negativefb,52,average,18,0.8168606999997792,['n'],1,right,['3'],4,0.20218670000031125,,,18,18,Vrouw,Rechts,1,
,xotask,xotask,xotask,28,0,28,328,training,negativefb,74,average,62,0.7169845000007626,['c'],1,left,['3'],4,0.23735359999955108,,,18,18,Vrouw,Rechts,1,
,xotask,xotask,xotask,29,0,29,329,training,negativefb,71,easy,72,0.9168264999998428,['c'],1,left,['2'],5,0.23958289999973204,,,18,18,Vrouw,Rechts,1,
,xotask,xotask,xotask,30,0,30,330,training,negativefb,60,hard,52,1.2499952999996822,['c'],1,left,['3'],4,0.260827000000063,,,18,18,Vrouw,Rechts,1,
,xotask,xotask,xotask,31,0,31,331,training,negativefb,83,hard,26,0.7326706999992894,['n'],1,right,['3'],4,0.276508200000535,,,18,18,Vrouw,Rechts,1,
,xotask,xotask,xotask,32,0,32,332,training,negativefb,43,hard,28,0.8007237000001624,['n'],1,right,['3'],4,0.16192959999989398,,,18,18,Vrouw,Rechts,1,
,xotask,xotask,xotask,33,0,33,333,training,negativefb,48,easy,73,1.2831194000000323,['c'],1,left,['2'],5,0.272390500000256,,,18,18,Vrouw,Rechts,1,
,xotask,xotask,xotask,34,0,34,334,training,negativefb,67,easy,6,0.8161361000002216,['n'],1,right,['1'],6,0.18942299999980605,,,18,18,Vrouw,Rechts,1,
,xotask,xotask,xotask,35,0,35,335,training,negativefb,72,average,15,0.7830456000001504,['n'],1,right,['3'],4,0.31065940000007686,,,18,18,Vrouw,Rechts,1,
,xotask,xotask,xotask,36,0,36,336,training,negativefb,53,average,16,0.6999909999994998,['n'],1,right,['2'],5,0.18236690000048839,,,18,18,Vrouw,Rechts,1,
,xotask,xotask,xotask,37,0,37,337,training,negativefb,91,easy,9,0.5509775000000445,['n'],1,right,['2'],5,0.32170769999993354,,,18,18,Vrouw,Rechts,1,
,xotask,xotask,xotask,38,0,38,338,training,negativefb,86,average,64,1.1664639999999054,['c'],1,left,['3'],4,0.31822699999975157,,,18,18,Vrouw,Rechts,1,
,xotask,xotask,xotask,39,0,39,339,training,negativefb,91,easy,72,0.7828564999999799,['c'],1,left,['3'],4,0.26679540000077395,,,18,18,Vrouw,Rechts,1,
,xotask,xotask,xotask,40,0,40,340,training,negativefb,78,easy,73,0.8334771999998338,['c'],1,left,['1'],6,0.2376641999999265,,,18,18,Vrouw,Rechts,1,
,xotask,xotask,xotask,41,0,41,341,training,negativefb,58,easy,74,0.8827515000002677,['c'],1,left,['2'],5,0.20966709999993327,,,18,18,Vrouw,Rechts,1,
,xotask,xotask,xotask,42,0,42,342,training,negativefb,49,easy,7,0.6166879000002154,['n'],1,right,['1'],6,0.4328402000001006,,,18,18,Vrouw,Rechts,1,
,xotask,xotask,xotask,43,0,43,343,training,negativefb,89,average,62,0.7827982999997403,['c'],1,left,['3'],4,0.28056259999993927,,,18,18,Vrouw,Rechts,1,
,xotask,xotask,xotask,44,0,44,344,training,negativefb,91,hard,52,0.7674662999997963,['c'],1,left,['3'],4,0.16764879999936966,,,18,18,Vrouw,Rechts,1,
,xotask,xotask,xotask,45,0,45,345,training,negativefb,74,hard,52,0.9666896999997334,['n'],0,left,['8'],3,0.45816720000038913,,,18,18,Vrouw,Rechts,1,
,xotask,xotask,xotask,46,0,46,346,training,negativefb,26,average,61,0.9678993999996237,['n'],0,left,['8'],3,1.0008787999995548,,,18,18,Vrouw,Rechts,1,
,xotask,xotask,xotask,47,0,47,347,training,negativefb,69,easy,6,0.7325477999993382,['n'],1,right,['2'],5,0.363506800000323,,,18,18,Vrouw,Rechts,1,
,xotask,xotask,xotask,48,0,48,348,training,negativefb,68,average,15,0.7008169000000635,['n'],1,right,['3'],4,0.4179722999997466,,,18,18,Vrouw,Rechts,1,
,xotask,xotask,xotask,49,0,49,349,training,negativefb,74,easy,8,0.8343518000001495,['n'],1,right,['3'],4,0.20743649999985792,,,18,18,Vrouw,Rechts,1,
,xotask,xotask,xotask,50,0,50,350,training,negativefb,85,average,62,0.7837440000002971,['c'],1,left,['3'],4,0.280115399999886,,,18,18,Vrouw,Rechts,1,
,xotask,xotask,xotask,51,0,51,351,training,negativefb,46,average,17,0.883640000000014,['n'],1,right,['3'],4,0.26648930000010296,,,18,18,Vrouw,Rechts,1,
,xotask,xotask,xotask,52,0,52,352,training,negativefb,72,hard,26,1.0500369000001228,['n'],1,right,['8'],3,0.29297569999926054,,,18,18,Vrouw,Rechts,1,
,xotask,xotask,xotask,53,0,53,353,training,negativefb,60,hard,28,0.9339091000001645,['n'],1,right,['3'],4,0.2687343999996301,,,18,18,Vrouw,Rechts,1,
,xotask,xotask,xotask,54,0,54,354,training,negativefb,68,easy,71,0.8335613999997804,['c'],1,left,['3'],4,0.21626720000040223,,,18,18,Vrouw,Rechts,1,
,xotask,xotask,xotask,55,0,55,355,training,negativefb,68,hard,27,0.8501167000003989,['n'],1,right,['3'],4,0.17416289999982837,,,18,18,Vrouw,Rechts,1,
,xotask,xotask,xotask,56,0,56,356,training,negativefb,15,average,60,0.667404699999679,['c'],1,left,['3'],4,0.43678109999927983,,,18,18,Vrouw,Rechts,1,
,xotask,xotask,xotask,57,0,57,357,training,negativefb,75,average,17,0.8164460999996663,['n'],1,right,['3'],4,0.22648949999984325,,,18,18,Vrouw,Rechts,1,
,xotask,xotask,xotask,58,0,58,358,training,negativefb,71,hard,50,1.5004695000006905,['n'],0,left,['9'],2,0.7181661000004169,,,18,18,Vrouw,Rechts,1,
,xotask,xotask,xotask,59,0,59,359,training,negativefb,76,hard,54,1.034599700000399,['c'],1,left,['2'],5,0.39233380000041507,,,18,18,Vrouw,Rechts,1,
,xotask,xotask,xotask,0,1,60,360,training,negativefb,91,average,18,0.734610800000155,['n'],1,right,['3'],4,1.5300757999993948,,,18,18,Vrouw,Rechts,1,
,xotask,xotask,xotask,1,1,61,361,training,negativefb,19,average,17,0.8826574999993682,['n'],1,right,['2'],5,0.6503545999994458,,,18,18,Vrouw,Rechts,1,
,xotask,xotask,xotask,2,1,62,362,training,negativefb,44,average,19,1.1172254000002795,['c'],0,right,['9'],2,0.29055760000028386,,,18,18,Vrouw,Rechts,1,
,xotask,xotask,xotask,3,1,63,363,training,negativefb,64,hard,50,0.8164129999995566,['n'],0,left,['3'],4,0.1991721000003963,,,18,18,Vrouw,Rechts,1,
,xotask,xotask,xotask,4,1,64,364,training,negativefb,53,easy,6,0.8495272000000114,['n'],1,right,['1'],6,0.2691541000003781,,,18,18,Vrouw,Rechts,1,
,xotask,xotask,xotask,5,1,65,365,training,negativefb,55,easy,9,0.7507335000000239,['n'],1,right,['1'],6,0.2922205999993821,,,18,18,Vrouw,Rechts,1,
,xotask,xotask,xotask,6,1,66,366,training,negativefb,71,average,62,0.9337941999992836,['c'],1,left,['3'],4,0.32352390000050946,,,18,18,Vrouw,Rechts,1,
,xotask,xotask,xotask,7,1,67,367,training,negativefb,92,easy,74,0.7999872999998843,['c'],1,left,['2'],5,0.6866255999993882,,,18,18,Vrouw,Rechts,1,
,xotask,xotask,xotask,8,1,68,368,training,negativefb,61,hard,28,0.7825322000007873,['n'],1,right,['3'],4,0.23633040000004257,,,18,18,Vrouw,Rechts,1,
,xotask,xotask,xotask,9,1,69,369,training,negativefb,91,easy,70,0.7170721000002231,['c'],1,left,['3'],4,0.3102455000007467,,,18,18,Vrouw,Rechts,1,
,xotask,xotask,xotask,10,1,70,370,training,negativefb,73,easy,74,0.9166567000002033,['c'],1,left,['2'],5,0.17417089999980817,,,18,18,Vrouw,Rechts,1,
,xotask,xotask,xotask,11,1,71,371,training,negativefb,66,easy,72,0.934092899999996,['c'],1,left,['3'],4,0.11417059999985213,,,18,18,Vrouw,Rechts,1,
,xotask,xotask,xotask,12,1,72,372,training,negativefb,76,average,62,0.8175962000004802,['c'],1,left,['3'],4,0.23629689999961556,,,18,18,Vrouw,Rechts,1,
,xotask,xotask,xotask,13,1,73,373,training,negativefb,78,easy,70,0.7672839999995631,['c'],1,left,['2'],5,0.19595079999999143,,,18,18,Vrouw,Rechts,1,
,xotask,xotask,xotask,14,1,74,374,training,negativefb,15,hard,51,0.8169146000000183,['n'],0,left,['3'],4,0.628074000000197,,,18,18,Vrouw,Rechts,1,
,xotask,xotask,xotask,15,1,75,375,training,negativefb,69,average,18,0.6829747000001589,['n'],1,right,['3'],4,0.3766045000002123,,,18,18,Vrouw,Rechts,1,
,xotask,xotask,xotask,16,1,76,376,training,negativefb,63,easy,72,0.8338622000001124,['c'],1,left,['3'],4,0.20877120000022842,,,18,18,Vrouw,Rechts,1,
,xotask,xotask,xotask,17,1,77,377,training,negativefb,66,easy,9,1.1840658000000985,['n'],1,right,['3'],4,0.2569835999993302,,,18,18,Vrouw,Rechts,1,
,xotask,xotask,xotask,18,1,78,378,training,negativefb,45,hard,51,1.015950399999383,['c'],1,left,['3'],4,0.10241130000031262,,,18,18,Vrouw,Rechts,1,
,xotask,xotask,xotask,19,1,79,379,training,negativefb,55,hard,29,0.9999316000003091,['n'],1,right,['8'],3,0.3383547000003091,,,18,18,Vrouw,Rechts,1,
,xotask,xotask,xotask,20,1,80,380,training,negativefb,58,hard,53,0.8166362000001754,['c'],1,left,['3'],4,0.5649881999997888,,,18,18,Vrouw,Rechts,1,
,xotask,xotask,xotask,21,1,81,381,training,negativefb,52,easy,5,0.9659388999998555,['n'],1,right,['2'],5,0.19146360000013374,,,18,18,Vrouw,Rechts,1,
,xotask,xotask,xotask,22,1,82,382,training,negativefb,53,average,18,0.7674304999991364,['n'],1,right,['2'],5,0.13710449999962293,,,18,18,Vrouw,Rechts,1,
,xotask,xotask,xotask,23,1,83,383,training,negativefb,68,hard,52,0.90083549999963,['c'],1,left,['3'],4,0.30408929999975953,,,18,18,Vrouw,Rechts,1,
,xotask,xotask,xotask,24,1,84,384,training,negativefb,64,average,62,1.0832359999994878,['c'],1,left,['3'],4,0.2408410999996704,,,18,18,Vrouw,Rechts,1,
,xotask,xotask,xotask,25,1,85,385,training,negativefb,80,hard,25,0.9010788999994475,['n'],1,right,['3'],4,0.2589662000000317,,,18,18,Vrouw,Rechts,1,
,xotask,xotask,xotask,26,1,86,386,training,negativefb,64,hard,27,1.1674897000002602,['n'],1,right,['3'],4,0.25829720000001544,,,18,18,Vrouw,Rechts,1,
,xotask,xotask,xotask,27,1,87,387,training,negativefb,80,easy,5,0.7011517999999342,['n'],1,right,['2'],5,0.2763798999994833,,,18,18,Vrouw,Rechts,1,
,xotask,xotask,xotask,28,1,88,388,training,negativefb,80,hard,29,0.8008063999996011,['n'],1,right,['3'],4,0.2182725999991817,,,18,18,Vrouw,Rechts,1,
,xotask,xotask,xotask,29,1,89,389,training,negativefb,74,easy,71,0.800233400000252,['c'],1,left,['3'],4,0.30526499999996304,,,18,18,Vrouw,Rechts,1,
,xotask,xotask,xotask,30,1,90,390,training,negativefb,5,hard,53,1.333466199999748,['c'],1,left,['3'],4,0.9040723999996771,,,18,18,Vrouw,Rechts,1,
,xotask,xotask,xotask,31,1,91,391,training,negativefb,78,average,17,0.6833372000000963,['n'],1,right,['3'],4,0.30514899999980116,,,18,18,Vrouw,Rechts,1,
,xotask,xotask,xotask,32,1,92,392,training,negativefb,74,easy,71,0.9507490999994843,['c'],1,left,['3'],4,0.19906230000015057,,,18,18,Vrouw,Rechts,1,
,xotask,xotask,xotask,33,1,93,393,training,negativefb,99,easy,74,0.7997433000000456,['c'],1,left,['2'],5,0.7104697000004307,,,18,18,Vrouw,Rechts,1,
,xotask,xotask,xotask,34,1,94,394,training,negativefb,27,hard,53,1.0661040000004505,['c'],1,left,['3'],4,0.4482310999992478,,,18,18,Vrouw,Rechts,1,
,xotask,xotask,xotask,35,1,95,395,training,negativefb,77,average,17,0.6011109999999462,['n'],1,right,['3'],4,0.33426909999980126,,,18,18,Vrouw,Rechts,1,
,xotask,xotask,xotask,36,1,96,396,training,negativefb,48,hard,29,0.7330859000003329,['n'],1,right,['2'],5,0.29996589999973367,,,18,18,Vrouw,Rechts,1,
,xotask,xotask,xotask,37,1,97,397,training,negativefb,72,hard,26,1.0343966999998884,['n'],1,right,['3'],4,0.27787720000014815,,,18,18,Vrouw,Rechts,1,
,xotask,xotask,xotask,38,1,98,398,training,negativefb,96,easy,7,1.3831317000003764,['n'],1,right,['3'],4,0.7404513000001316,,,18,18,Vrouw,Rechts,1,
,xotask,xotask,xotask,39,1,99,399,training,negativefb,92,easy,72,0.9336206999996648,['c'],1,left,['1'],6,0.4019980000002761,,,18,18,Vrouw,Rechts,1,
,xotask,xotask,xotask,40,1,100,400,training,negativefb,28,average,64,1.0172442000002775,['c'],1,left,['2'],5,0.3369447000004584,,,18,18,Vrouw,Rechts,1,
,xotask,xotask,xotask,41,1,101,401,training,negativefb,65,average,62,0.9665302000003066,['c'],1,left,['3'],4,0.1807661000002554,,,18,18,Vrouw,Rechts,1,
,xotask,xotask,xotask,42,1,102,402,training,negativefb,66,hard,26,0.7672781000001123,['n'],1,right,['3'],4,0.23921489999975165,,,18,18,Vrouw,Rechts,1,
,xotask,xotask,xotask,43,1,103,403,training,negativefb,31,hard,53,0.9497332000000824,['n'],0,left,['8'],3,0.5200948000001517,,,18,18,Vrouw,Rechts,1,
,xotask,xotask,xotask,44,1,104,404,training,negativefb,24,average,61,0.8999424000003273,['c'],1,left,['3'],4,0.5508350999998584,,,18,18,Vrouw,Rechts,1,
,xotask,xotask,xotask,45,1,105,405,training,negativefb,37,hard,26,0.8836455000000569,['n'],1,right,['3'],4,0.4135660000001735,,,18,18,Vrouw,Rechts,1,
,xotask,xotask,xotask,46,1,106,406,training,negativefb,64,average,15,1.0157774999997855,['n'],1,right,['8'],3,0.27755880000040634,,,18,18,Vrouw,Rechts,1,
,xotask,xotask,xotask,47,1,107,407,training,negativefb,77,average,61,0.9171952999995483,['c'],1,left,['3'],4,0.20590119999997114,,,18,18,Vrouw,Rechts,1,
,xotask,xotask,xotask,48,1,108,408,training,negativefb,87,average,63,0.7834787000001597,['c'],1,left,['2'],5,0.2782120000001669,,,18,18,Vrouw,Rechts,1,
,xotask,xotask,xotask,49,1,109,409,training,negativefb,82,easy,8,0.5828069999997751,['n'],1,right,['1'],6,0.20427889999973559,,,18,18,Vrouw,Rechts,1,
,xotask,xotask,xotask,50,1,110,410,training,negativefb,67,average,15,0.7340414999998757,['n'],1,right,['3'],4,0.2311675999999352,,,18,18,Vrouw,Rechts,1,
,xotask,xotask,xotask,51,1,111,411,training,negativefb,64,easy,9,0.5678593000002365,['n'],1,right,['2'],5,0.26306299999941984,,,18,18,Vrouw,Rechts,1,
,xotask,xotask,xotask,52,1,112,412,training,negativefb,69,easy,6,0.6165252000000692,['n'],1,right,['1'],6,0.2684391000002506,,,18,18,Vrouw,Rechts,1,
,xotask,xotask,xotask,53,1,113,413,training,negativefb,60,hard,50,0.8502706999997827,['n'],0,left,['8'],3,0.4801146999998309,,,18,18,Vrouw,Rechts,1,
,xotask,xotask,xotask,54,1,114,414,training,negativefb,61,average,62,1.6167699000006905,['c'],1,left,['3'],4,0.23691899999994348,,,18,18,Vrouw,Rechts,1,
,xotask,xotask,xotask,55,1,115,415,training,negativefb,54,hard,26,1.017084000000068,['n'],1,right,['3'],4,0.24277059999985795,,,18,18,Vrouw,Rechts,1,
,xotask,xotask,xotask,56,1,116,416,training,negativefb,78,average,63,0.6174155999997311,['c'],1,left,['2'],5,0.2961019000003944,,,18,18,Vrouw,Rechts,1,
,xotask,xotask,xotask,57,1,117,417,training,negativefb,68,hard,52,1.1178421000004164,['c'],1,left,['3'],4,0.3764971999999034,,,18,18,Vrouw,Rechts,1,
,xotask,xotask,xotask,58,1,118,418,training,negativefb,96,easy,9,0.6844850000006772,['n'],1,right,['2'],5,0.9267417000000933,,,18,18,Vrouw,Rechts,1,
,xotask,xotask,xotask,59,1,119,419,training,negativefb,83,average,17,0.7666817999997875,['n'],1,right,['1'],6,0.2671607000002041,,,18,18,Vrouw,Rechts,1,
,dotcolour,xotask,xotask,0,2,120,420,main,negativefb,-99,average,,0.8344400000005407,['c'],1,left,['2'],5,1.4625255999999354,51,,18,18,Vrouw,Rechts,1,
,dotcolour,xotask,xotask,1,2,121,421,main,negativefb,-99,hard,,1.1846849000003203,['n'],1,right,['3'],4,0.9660295000003316,35,,18,18,Vrouw,Rechts,1,
,dotcolour,xotask,xotask,2,2,122,422,main,negativefb,-99,average,,0.7344162999997934,['c'],1,left,['3'],4,0.5864290999998047,51,,18,18,Vrouw,Rechts,1,
,dotcolour,xotask,xotask,3,2,123,423,main,negativefb,-99,hard,,0.6347998000001098,['n'],1,right,['3'],4,0.4028306000000157,38,,18,18,Vrouw,Rechts,1,
,dotcolour,xotask,xotask,4,2,124,424,main,negativefb,-99,hard,,0.767641200000071,['n'],1,right,['3'],4,0.2133402000008573,35,,18,18,Vrouw,Rechts,1,
,dotcolour,xotask,xotask,5,2,125,425,main,negativefb,-99,hard,,1.033817900000031,['c'],1,left,['8'],3,0.2284644000001208,43,,18,18,Vrouw,Rechts,1,
,dotcolour,xotask,xotask,6,2,126,426,main,negativefb,-99,easy,,1.2177984999998444,['n'],1,right,['2'],5,0.2274781999994957,16,,18,18,Vrouw,Rechts,1,
,dotcolour,xotask,xotask,7,2,127,427,main,negativefb,-99,average,,0.8503239000001486,['c'],1,left,['3'],4,0.2732998999999836,54,,18,18,Vrouw,Rechts,1,
,dotcolour,xotask,xotask,8,2,128,428,main,negativefb,-99,hard,,0.9343693000000712,['c'],1,left,['3'],4,0.2826611000000412,41,,18,18,Vrouw,Rechts,1,
,dotcolour,xotask,xotask,9,2,129,429,main,negativefb,-99,easy,,0.8168226999996477,['n'],1,right,['2'],5,0.19132489999992686,15,,18,18,Vrouw,Rechts,1,
,dotcolour,xotask,xotask,10,2,130,430,main,negativefb,-99,average,,0.7003514999996696,['n'],1,right,['2'],5,0.2118519000005108,25,,18,18,Vrouw,Rechts,1,
,dotcolour,xotask,xotask,11,2,131,431,main,negativefb,-99,hard,,1.2177443999999014,['c'],1,left,['3'],4,0.2762822000004235,43,,18,18,Vrouw,Rechts,1,
,dotcolour,xotask,xotask,12,2,132,432,main,negativefb,-99,easy,,0.8669399999998859,['c'],1,left,['2'],5,0.2075489999997444,63,,18,18,Vrouw,Rechts,1,
,dotcolour,xotask,xotask,13,2,133,433,main,negativefb,-99,average,,1.3014346999998452,['c'],1,left,['3'],4,0.43628480000006675,51,,18,18,Vrouw,Rechts,1,
,dotcolour,xotask,xotask,14,2,134,434,main,negativefb,-99,easy,,0.7341243000000759,['c'],1,left,['3'],4,0.18251989999953366,63,,18,18,Vrouw,Rechts,1,
,dotcolour,xotask,xotask,15,2,135,435,main,negativefb,-99,easy,,0.7170945999996547,['c'],1,left,['2'],5,0.23473120000016934,64,,18,18,Vrouw,Rechts,1,
,dotcolour,xotask,xotask,16,2,136,436,main,negativefb,-99,easy,,0.8182080999995378,['c'],1,left,['2'],5,0.17759290000049077,63,,18,18,Vrouw,Rechts,1,
,dotcolour,xotask,xotask,17,2,137,437,main,negativefb,-99,easy,,0.7015071000005264,['n'],1,right,['1'],6,0.2160118000001603,18,,18,18,Vrouw,Rechts,1,
,dotcolour,xotask,xotask,18,2,138,438,main,negativefb,-99,hard,,1.201106599999548,['n'],0,left,['3'],4,0.22366640000018378,44,,18,18,Vrouw,Rechts,1,
,dotcolour,xotask,xotask,19,2,139,439,main,negativefb,-99,average,,0.8492664999994304,['n'],1,right,['3'],4,0.17423039999994216,27,,18,18,Vrouw,Rechts,1,
,dotcolour,xotask,xotask,20,2,140,440,main,negativefb,-99,easy,,0.7847041000004538,['c'],1,left,['2'],5,0.19286250000004657,65,,18,18,Vrouw,Rechts,1,
,dotcolour,xotask,xotask,21,2,141,441,main,negativefb,-99,average,,1.401304699999855,['c'],1,left,['2'],5,0.16932049999923038,52,,18,18,Vrouw,Rechts,1,
,dotcolour,xotask,xotask,22,2,142,442,main,negativefb,-99,easy,,0.81687729999976,['n'],1,right,['1'],6,0.187563799999225,15,,18,18,Vrouw,Rechts,1,
,dotcolour,xotask,xotask,23,2,143,443,main,negativefb,-99,easy,,0.9505750999996962,['c'],1,left,['2'],5,0.3106372000002011,62,,18,18,Vrouw,Rechts,1,
,dotcolour,xotask,xotask,24,2,144,444,main,negativefb,-99,easy,,0.717390499999965,['n'],1,right,['2'],5,0.5266972999997961,19,,18,18,Vrouw,Rechts,1,
,dotcolour,xotask,xotask,25,2,145,445,main,negativefb,-99,average,,1.0513268000004246,['n'],1,right,['1'],6,1.4722050000000309,29,,18,18,Vrouw,Rechts,1,
,dotcolour,xotask,xotask,26,2,146,446,main,negativefb,-99,average,,1.0505168999998205,['c'],1,left,['3'],4,0.17254099999991013,52,,18,18,Vrouw,Rechts,1,
,dotcolour,xotask,xotask,27,2,147,447,main,negativefb,-99,easy,,0.750412200000028,['n'],1,right,['2'],5,0.34493899999961286,18,,18,18,Vrouw,Rechts,1,
,dotcolour,xotask,xotask,28,2,148,448,main,negativefb,-99,hard,,1.0679778000003353,['n'],1,right,['3'],4,0.15339210000001913,35,,18,18,Vrouw,Rechts,1,
,dotcolour,xotask,xotask,29,2,149,449,main,negativefb,-99,average,,0.7669796000000133,['n'],1,right,['2'],5,0.18149540000013076,25,,18,18,Vrouw,Rechts,1,
,dotcolour,xotask,xotask,30,2,150,450,main,negativefb,-99,hard,,0.6999981999997544,['n'],0,left,['3'],4,0.2664282000005187,41,,18,18,Vrouw,Rechts,1,
,dotcolour,xotask,xotask,31,2,151,451,main,negativefb,-99,easy,,0.9012470999996367,['c'],1,left,['3'],4,0.252562300000136,62,,18,18,Vrouw,Rechts,1,
,dotcolour,xotask,xotask,32,2,152,452,main,negativefb,-99,easy,,0.5669711000000461,['n'],1,right,['2'],5,0.22047399999974004,16,,18,18,Vrouw,Rechts,1,
,dotcolour,xotask,xotask,33,2,153,453,main,negativefb,-99,hard,,0.7517280000001847,['c'],1,left,['3'],4,0.2144562000003134,44,,18,18,Vrouw,Rechts,1,
,dotcolour,xotask,xotask,34,2,154,454,main,negativefb,-99,easy,,0.7501284999998461,['n'],1,right,['2'],5,0.25716259999990143,17,,18,18,Vrouw,Rechts,1,
,dotcolour,xotask,xotask,35,2,155,455,main,negativefb,-99,average,,0.8012138999993113,['c'],1,left,['2'],5,0.2227922000001854,51,,18,18,Vrouw,Rechts,1,
,dotcolour,xotask,xotask,36,2,156,456,main,negativefb,-99,easy,,0.6668680000002496,['n'],1,right,['2'],5,0.2688456000005317,18,,18,18,Vrouw,Rechts,1,
,dotcolour,xotask,xotask,37,2,157,457,main,negativefb,-99,hard,,1.2671705000002476,['c'],1,left,['3'],4,0.2154829000000973,44,,18,18,Vrouw,Rechts,1,
,dotcolour,xotask,xotask,38,2,158,458,main,negativefb,-99,easy,,0.668044999999438,['c'],1,left,['2'],5,0.21398000000044703,64,,18,18,Vrouw,Rechts,1,
,dotcolour,xotask,xotask,39,2,159,459,main,negativefb,-99,hard,,0.6674099000001661,['n'],1,right,['3'],4,0.5311378000005789,37,,18,18,Vrouw,Rechts,1,
,dotcolour,xotask,xotask,40,2,160,460,main,negativefb,-99,hard,,0.8005195000005187,['c'],1,left,['3'],4,0.23037449999992532,43,,18,18,Vrouw,Rechts,1,
,dotcolour,xotask,xotask,41,2,161,461,main,negativefb,-99,hard,,0.7009394999995493,['n'],1,right,['3'],4,0.21786079999947106,37,,18,18,Vrouw,Rechts,1,
,dotcolour,xotask,xotask,42,2,162,462,main,negativefb,-99,average,,0.7849952999995367,['c'],1,left,['2'],5,0.1464962000000014,51,,18,18,Vrouw,Rechts,1,
,dotcolour,xotask,xotask,43,2,163,463,main,negativefb,-99,average,,0.6504294999995182,['n'],1,right,['2'],5,0.244389699999374,26,,18,18,Vrouw,Rechts,1,
,dotcolour,xotask,xotask,44,2,164,464,main,negativefb,-99,hard,,0.9011280999993687,['n'],1,right,['3'],4,0.3117499999998472,37,,18,18,Vrouw,Rechts,1,
,dotcolour,xotask,xotask,45,2,165,465,main,negativefb,-99,hard,,0.8013925999994171,['n'],1,right,['3'],4,0.22769940000034694,35,,18,18,Vrouw,Rechts,1,
,dotcolour,xotask,xotask,46,2,166,466,main,negativefb,-99,hard,,1.1506693000001178,['c'],1,left,['3'],4,0.21395029999985127,43,,18,18,Vrouw,Rechts,1,
,dotcolour,xotask,xotask,47,2,167,467,main,negativefb,-99,easy,,0.8181009999998423,['c'],1,left,['2'],5,0.19004340000083175,62,,18,18,Vrouw,Rechts,1,
,dotcolour,xotask,xotask,48,2,168,468,main,negativefb,-99,easy,,0.6840226000003895,['n'],1,right,['2'],5,0.22789410000041244,18,,18,18,Vrouw,Rechts,1,
,dotcolour,xotask,xotask,49,2,169,469,main,negativefb,-99,hard,,0.8503276000001279,['n'],1,right,['2'],5,0.17797320000045147,35,,18,18,Vrouw,Rechts,1,
,dotcolour,xotask,xotask,50,2,170,470,main,negativefb,-99,average,,0.7515129000003071,['n'],1,right,['2'],5,0.253813799999989,27,,18,18,Vrouw,Rechts,1,
,dotcolour,xotask,xotask,51,2,171,471,main,negativefb,-99,easy,,0.6848968999993303,['c'],1,left,['1'],6,0.3136393999993743,65,,18,18,Vrouw,Rechts,1,
,dotcolour,xotask,xotask,52,2,172,472,main,negativefb,-99,hard,,0.9519233000000895,['n'],1,right,['3'],4,0.2083176000005551,37,,18,18,Vrouw,Rechts,1,
,dotcolour,xotask,xotask,53,2,173,473,main,negativefb,-99,average,,0.7006277000000409,['c'],1,left,['3'],4,0.23615500000050815,54,,18,18,Vrouw,Rechts,1,
,dotcolour,xotask,xotask,54,2,174,474,main,negativefb,-99,average,,0.6685557000000699,['n'],1,right,['3'],4,0.24960939999982656,29,,18,18,Vrouw,Rechts,1,
,dotcolour,xotask,xotask,55,2,175,475,main,negativefb,-99,average,,1.0680648999996265,['c'],1,left,['2'],5,0.16581899999982852,53,,18,18,Vrouw,Rechts,1,
,dotcolour,xotask,xotask,56,2,176,476,main,negativefb,-99,hard,,0.9513333000004423,['n'],0,left,['3'],4,0.4255458000006911,42,,18,18,Vrouw,Rechts,1,
,dotcolour,xotask,xotask,57,2,177,477,main,negativefb,-99,average,,0.7998568000002706,['n'],1,right,['3'],4,0.2741420999991533,29,,18,18,Vrouw,Rechts,1,
,dotcolour,xotask,xotask,58,2,178,478,main,negativefb,-99,average,,0.8493250000001353,['n'],1,right,['2'],5,0.1337909000003492,25,,18,18,Vrouw,Rechts,1,
,dotcolour,xotask,xotask,59,2,179,479,main,negativefb,-99,average,,0.6667724999997517,['n'],1,right,['3'],4,0.3584783999995125,27,,18,18,Vrouw,Rechts,1,
,dotcolour,xotask,xotask,0,3,180,480,main,negativefb,-99,hard,,0.6845313000003443,['c'],1,left,['3'],4,0.23953160000019125,45,,18,18,Vrouw,Rechts,1,
,dotcolour,xotask,xotask,1,3,181,481,main,negativefb,-99,hard,,0.700954200000524,['n'],0,left,['3'],4,0.1792366999998194,43,,18,18,Vrouw,Rechts,1,
,dotcolour,xotask,xotask,2,3,182,482,main,negativefb,-99,hard,,0.7011794000000009,['n'],1,right,['3'],4,0.21646969999983412,38,,18,18,Vrouw,Rechts,1,
,dotcolour,xotask,xotask,3,3,183,483,main,negativefb,-99,easy,,0.8172280999997383,['c'],1,left,['2'],5,0.159867999999733,65,,18,18,Vrouw,Rechts,1,
,dotcolour,xotask,xotask,4,3,184,484,main,negativefb,-99,average,,0.7495920000001206,['n'],0,left,['3'],4,0.18892049999976734,52,,18,18,Vrouw,Rechts,1,
,dotcolour,xotask,xotask,5,3,185,485,main,negativefb,-99,average,,0.6512567999998282,['n'],0,left,['3'],4,0.2041140000001178,52,,18,18,Vrouw,Rechts,1,
,dotcolour,xotask,xotask,6,3,186,486,main,negativefb,-99,average,,0.8844732999996268,['c'],1,left,['3'],4,0.25721319999956904,55,,18,18,Vrouw,Rechts,1,
,dotcolour,xotask,xotask,7,3,187,487,main,negativefb,-99,hard,,0.7670684000004258,['n'],0,left,['3'],4,0.19368029999986902,43,,18,18,Vrouw,Rechts,1,
,dotcolour,xotask,xotask,8,3,188,488,main,negativefb,-99,easy,,0.7498979999991207,['n'],1,right,['2'],5,0.196905699999661,18,,18,18,Vrouw,Rechts,1,
,dotcolour,xotask,xotask,9,3,189,489,main,negativefb,-99,easy,,0.6007248000005347,['n'],1,right,['2'],5,0.23845759999949223,19,,18,18,Vrouw,Rechts,1,
,dotcolour,xotask,xotask,10,3,190,490,main,negativefb,-99,hard,,1.183400900000379,['n'],1,right,['3'],4,0.2946985999997196,39,,18,18,Vrouw,Rechts,1,
,dotcolour,xotask,xotask,11,3,191,491,main,negativefb,-99,easy,,0.7670822999998563,['n'],1,right,['2'],5,0.13256410000030883,19,,18,18,Vrouw,Rechts,1,
,dotcolour,xotask,xotask,12,3,192,492,main,negativefb,-99,hard,,0.9329129999996439,['c'],1,left,['3'],4,0.20288669999990816,45,,18,18,Vrouw,Rechts,1,
,dotcolour,xotask,xotask,13,3,193,493,main,negativefb,-99,average,,0.6174412000000302,['n'],1,right,['3'],4,0.24325250000038068,29,,18,18,Vrouw,Rechts,1,
,dotcolour,xotask,xotask,14,3,194,494,main,negativefb,-99,easy,,0.6172725999995237,['n'],1,right,['2'],5,0.22599410000020725,18,,18,18,Vrouw,Rechts,1,
,dotcolour,xotask,xotask,15,3,195,495,main,negativefb,-99,easy,,0.618292800000745,['n'],1,right,['1'],6,0.32889239999985875,19,,18,18,Vrouw,Rechts,1,
,dotcolour,xotask,xotask,16,3,196,496,main,negativefb,-99,average,,0.9332598999999391,['c'],1,left,['2'],5,0.1919631999999183,55,,18,18,Vrouw,Rechts,1,
,dotcolour,xotask,xotask,17,3,197,497,main,negativefb,-99,easy,,0.6508205999998609,['c'],1,left,['2'],5,0.1909949000000779,64,,18,18,Vrouw,Rechts,1,
,dotcolour,xotask,xotask,18,3,198,498,main,negativefb,-99,average,,0.6846470000000409,['c'],1,left,['2'],5,0.22122050000052695,55,,18,18,Vrouw,Rechts,1,
,dotcolour,xotask,xotask,19,3,199,499,main,negativefb,-99,average,,0.6838869000002887,['n'],1,right,['2'],5,0.33797490000051766,29,,18,18,Vrouw,Rechts,1,
,dotcolour,xotask,xotask,20,3,200,500,main,negativefb,-99,hard,,0.7520782999999938,['n'],1,right,['3'],4,0.4630938000000242,37,,18,18,Vrouw,Rechts,1,
,dotcolour,xotask,xotask,21,3,201,501,main,negativefb,-99,hard,,0.7671276999999463,['n'],0,left,['3'],4,0.2153968000002351,41,,18,18,Vrouw,Rechts,1,
,dotcolour,xotask,xotask,22,3,202,502,main,negativefb,-99,hard,,0.8848136999995404,['n'],0,left,['3'],4,0.2353849999999511,41,,18,18,Vrouw,Rechts,1,
,dotcolour,xotask,xotask,23,3,203,503,main,negativefb,-99,average,,0.700778899999932,['n'],1,right,['3'],4,0.21547949999967386,25,,18,18,Vrouw,Rechts,1,
,dotcolour,xotask,xotask,24,3,204,504,main,negativefb,-99,easy,,0.9338041999999405,['c'],1,left,['2'],5,0.15384910000011587,64,,18,18,Vrouw,Rechts,1,
,dotcolour,xotask,xotask,25,3,205,505,main,negativefb,-99,hard,,0.8505769000003056,['n'],1,right,['3'],4,0.22611380000034842,38,,18,18,Vrouw,Rechts,1,
,dotcolour,xotask,xotask,26,3,206,506,main,negativefb,-99,easy,,0.8844250000001921,['c'],1,left,['2'],5,0.21520140000029642,62,,18,18,Vrouw,Rechts,1,
,dotcolour,xotask,xotask,27,3,207,507,main,negativefb,-99,average,,0.8173563000000286,['n'],1,right,['2'],5,0.21390229999997246,27,,18,18,Vrouw,Rechts,1,
,dotcolour,xotask,xotask,28,3,208,508,main,negativefb,-99,easy,,0.7688000999996802,['c'],1,left,['2'],5,0.20033610000064073,62,,18,18,Vrouw,Rechts,1,
,dotcolour,xotask,xotask,29,3,209,509,main,negativefb,-99,average,,0.8675681999993685,['n'],1,right,['2'],5,0.19008649999977933,28,,18,18,Vrouw,Rechts,1,
,dotcolour,xotask,xotask,30,3,210,510,main,negativefb,-99,hard,,0.9177408000005016,['n'],0,left,['2'],5,0.2106247000001531,42,,18,18,Vrouw,Rechts,1,
,dotcolour,xotask,xotask,31,3,211,511,main,negativefb,-99,easy,,0.850614900000437,['c'],1,left,['2'],5,0.2330524000008154,62,,18,18,Vrouw,Rechts,1,
,dotcolour,xotask,xotask,32,3,212,512,main,negativefb,-99,hard,,0.8666253000001234,['n'],1,right,['3'],4,0.24621569999999338,38,,18,18,Vrouw,Rechts,1,
,dotcolour,xotask,xotask,33,3,213,513,main,negativefb,-99,easy,,0.8509007999991809,['n'],1,right,['2'],5,0.1473758000001908,19,,18,18,Vrouw,Rechts,1,
,dotcolour,xotask,xotask,34,3,214,514,main,negativefb,-99,average,,1.0340705999997226,['n'],1,right,['2'],5,0.18218290000004345,29,,18,18,Vrouw,Rechts,1,
,dotcolour,xotask,xotask,35,3,215,515,main,negativefb,-99,easy,,0.7000412999996115,['c'],1,left,['2'],5,0.23525919999974576,65,,18,18,Vrouw,Rechts,1,
,dotcolour,xotask,xotask,36,3,216,516,main,negativefb,-99,hard,,1.0175774999997884,['n'],1,right,['3'],4,0.2974271000002773,39,,18,18,Vrouw,Rechts,1,
,dotcolour,xotask,xotask,37,3,217,517,main,negativefb,-99,easy,,0.7838073000002623,['c'],1,left,['2'],5,0.34330949999912264,62,,18,18,Vrouw,Rechts,1,
,dotcolour,xotask,xotask,38,3,218,518,main,negativefb,-99,hard,,0.9164840000003096,['n'],0,left,['3'],4,0.5896261999996568,45,,18,18,Vrouw,Rechts,1,
,dotcolour,xotask,xotask,39,3,219,519,main,negativefb,-99,average,,0.6996758000004775,['n'],1,right,['2'],5,0.25136270000075456,25,,18,18,Vrouw,Rechts,1,
,dotcolour,xotask,xotask,40,3,220,520,main,negativefb,-99,average,,0.7342759000002843,['c'],1,left,['3'],4,0.36456920000000537,53,,18,18,Vrouw,Rechts,1,
,dotcolour,xotask,xotask,41,3,221,521,main,negativefb,-99,easy,,0.6674585000000661,['c'],1,left,['2'],5,0.20415329999923415,63,,18,18,Vrouw,Rechts,1,
,dotcolour,xotask,xotask,42,3,222,522,main,negativefb,-99,average,,0.6836222000001726,['n'],1,right,['2'],5,0.4416702999997142,27,,18,18,Vrouw,Rechts,1,
,dotcolour,xotask,xotask,43,3,223,523,main,negativefb,-99,easy,,0.5510992999998052,['n'],1,right,['2'],5,0.24236020000080316,17,,18,18,Vrouw,Rechts,1,
,dotcolour,xotask,xotask,44,3,224,524,main,negativefb,-99,easy,,0.6173400999996375,['n'],1,right,['1'],6,0.24955810000028578,18,,18,18,Vrouw,Rechts,1,
,dotcolour,xotask,xotask,45,3,225,525,main,negativefb,-99,average,,0.9345436000003247,['c'],1,left,['3'],4,0.26657759999943664,52,,18,18,Vrouw,Rechts,1,
,dotcolour,xotask,xotask,46,3,226,526,main,negativefb,-99,easy,,0.9331224999996266,['n'],1,right,['3'],4,0.34779510000043956,17,,18,18,Vrouw,Rechts,1,
,dotcolour,xotask,xotask,47,3,227,527,main,negativefb,-99,hard,,1.2178409999996802,['n'],1,right,['2'],5,0.3344405999996525,39,,18,18,Vrouw,Rechts,1,
,dotcolour,xotask,xotask,48,3,228,528,main,negativefb,-99,hard,,1.0667633000002752,['n'],0,left,['3'],4,0.2868412999996508,45,,18,18,Vrouw,Rechts,1,
,dotcolour,xotask,xotask,49,3,229,529,main,negativefb,-99,hard,,0.7674010000000635,['n'],1,right,['3'],4,0.30210560000068654,36,,18,18,Vrouw,Rechts,1,
,dotcolour,xotask,xotask,50,3,230,530,main,negativefb,-99,easy,,0.7838944000004631,['n'],1,right,['1'],6,0.1785626000000775,15,,18,18,Vrouw,Rechts,1,
,dotcolour,xotask,xotask,51,3,231,531,main,negativefb,-99,average,,0.6512515000003987,['n'],1,right,['1'],6,0.24308539999947243,25,,18,18,Vrouw,Rechts,1,
,dotcolour,xotask,xotask,52,3,232,532,main,negativefb,-99,average,,1.0343523999999888,['c'],1,left,['2'],5,0.2006188999994265,51,,18,18,Vrouw,Rechts,1,
,dotcolour,xotask,xotask,53,3,233,533,main,negativefb,-99,hard,,1.016933699999754,['n'],1,right,['3'],4,0.24122750000060478,37,,18,18,Vrouw,Rechts,1,
,dotcolour,xotask,xotask,54,3,234,534,main,negativefb,-99,average,,0.7521372000001065,['c'],1,left,['2'],5,0.5946767000004911,51,,18,18,Vrouw,Rechts,1,
,dotcolour,xotask,xotask,55,3,235,535,main,negativefb,-99,hard,,1.234153499999593,['c'],0,right,['2'],5,0.1381455000000642,37,,18,18,Vrouw,Rechts,1,
,dotcolour,xotask,xotask,56,3,236,536,main,negativefb,-99,average,,0.7836721999992733,['c'],1,left,['2'],5,0.1739229000004343,51,,18,18,Vrouw,Rechts,1,
,dotcolour,xotask,xotask,57,3,237,537,main,negativefb,-99,hard,,1.4345780000003288,['c'],1,left,['3'],4,0.23063790000014706,41,,18,18,Vrouw,Rechts,1,
,dotcolour,xotask,xotask,58,3,238,538,main,negativefb,-99,average,,0.9009514999997918,['n'],1,right,['2'],5,0.17896229999951174,27,,18,18,Vrouw,Rechts,1,
,dotcolour,xotask,xotask,59,3,239,539,main,negativefb,-99,easy,,0.7337418999995862,['c'],1,left,['1'],6,0.23946949999935896,63,,18,18,Vrouw,Rechts,1,
,dotcolour,xotask,xotask,0,4,240,540,main,negativefb,-99,easy,,0.7182446999995591,['n'],1,right,['2'],5,0.1745747000004485,15,,18,18,Vrouw,Rechts,1,
,dotcolour,xotask,xotask,1,4,241,541,main,negativefb,-99,easy,,0.5846995000001698,['n'],1,right,['1'],6,0.20889350000015838,17,,18,18,Vrouw,Rechts,1,
,dotcolour,xotask,xotask,2,4,242,542,main,negativefb,-99,average,,0.9006096000002799,['n'],1,right,['2'],5,0.2620041999998648,26,,18,18,Vrouw,Rechts,1,
,dotcolour,xotask,xotask,3,4,243,543,main,negativefb,-99,easy,,0.6175923999999213,['n'],1,right,['1'],6,0.29997929999990447,18,,18,18,Vrouw,Rechts,1,
,dotcolour,xotask,xotask,4,4,244,544,main,negativefb,-99,easy,,0.6510048000000097,['n'],1,right,['1'],6,0.22257710000030784,19,,18,18,Vrouw,Rechts,1,
,dotcolour,xotask,xotask,5,4,245,545,main,negativefb,-99,hard,,1.1180818000002546,['c'],1,left,['3'],4,0.26618580000013026,45,,18,18,Vrouw,Rechts,1,
,dotcolour,xotask,xotask,6,4,246,546,main,negativefb,-99,easy,,0.6350124000000505,['n'],1,right,['2'],5,0.23877640000046085,16,,18,18,Vrouw,Rechts,1,
,dotcolour,xotask,xotask,7,4,247,547,main,negativefb,-99,average,,0.6512181999996756,['n'],1,right,['2'],5,0.1716817999995328,29,,18,18,Vrouw,Rechts,1,
,dotcolour,xotask,xotask,8,4,248,548,main,negativefb,-99,average,,0.750602500000241,['c'],1,left,['3'],4,0.24794510000083392,52,,18,18,Vrouw,Rechts,1,
,dotcolour,xotask,xotask,9,4,249,549,main,negativefb,-99,easy,,0.7674482000002172,['c'],1,left,['3'],4,0.19999230000030366,64,,18,18,Vrouw,Rechts,1,
,dotcolour,xotask,xotask,10,4,250,550,main,negativefb,-99,easy,,0.6676749000007476,['n'],1,right,['2'],5,0.26980509999975766,17,,18,18,Vrouw,Rechts,1,
,dotcolour,xotask,xotask,11,4,251,551,main,negativefb,-99,hard,,0.984081900000092,['n'],1,right,['3'],4,0.23674550000032468,38,,18,18,Vrouw,Rechts,1,
,dotcolour,xotask,xotask,12,4,252,552,main,negativefb,-99,average,,0.9509785000000193,['c'],1,left,['3'],4,0.21385490000011487,54,,18,18,Vrouw,Rechts,1,
,dotcolour,xotask,xotask,13,4,253,553,main,negativefb,-99,easy,,0.9676057999995464,['n'],1,right,['2'],5,0.14419140000063635,18,,18,18,Vrouw,Rechts,1,
,dotcolour,xotask,xotask,14,4,254,554,main,negativefb,-99,average,,0.6008970000002591,['n'],1,right,['2'],5,0.395416600000317,25,,18,18,Vrouw,Rechts,1,
,dotcolour,xotask,xotask,15,4,255,555,main,negativefb,-99,average,,0.8846651000003476,['c'],1,left,['2'],5,0.24121960000047693,51,,18,18,Vrouw,Rechts,1,
,dotcolour,xotask,xotask,16,4,256,556,main,negativefb,-99,average,,0.7015644000002794,['n'],1,right,['2'],5,0.21259509999981674,27,,18,18,Vrouw,Rechts,1,
,dotcolour,xotask,xotask,17,4,257,557,main,negativefb,-99,hard,,0.9677768000001379,['c'],1,left,['3'],4,0.3101361999997607,43,,18,18,Vrouw,Rechts,1,
,dotcolour,xotask,xotask,18,4,258,558,main,negativefb,-99,average,,0.8680853999994724,['c'],1,left,['2'],5,0.25584359999993467,51,,18,18,Vrouw,Rechts,1,
,dotcolour,xotask,xotask,19,4,259,559,main,negativefb,-99,easy,,0.6677510999998049,['c'],1,left,['3'],4,0.2526582000000417,61,,18,18,Vrouw,Rechts,1,
,dotcolour,xotask,xotask,20,4,260,560,main,negativefb,-99,easy,,0.801191800000197,['n'],1,right,['2'],5,0.13158999999996013,18,,18,18,Vrouw,Rechts,1,
,dotcolour,xotask,xotask,21,4,261,561,main,negativefb,-99,average,,0.7683730000007927,['n'],1,right,['2'],5,0.327960599999642,25,,18,18,Vrouw,Rechts,1,
,dotcolour,xotask,xotask,22,4,262,562,main,negativefb,-99,hard,,0.8353286999999909,['c'],0,right,['3'],4,0.2981663999999,35,,18,18,Vrouw,Rechts,1,
,dotcolour,xotask,xotask,23,4,263,563,main,negativefb,-99,easy,,0.6506793000007747,['n'],1,right,['3'],4,0.34148110000023735,17,,18,18,Vrouw,Rechts,1,
,dotcolour,xotask,xotask,24,4,264,564,main,negativefb,-99,hard,,1.1508514999995896,['n'],1,right,['3'],4,0.27480780000041705,37,,18,18,Vrouw,Rechts,1,
,dotcolour,xotask,xotask,25,4,265,565,main,negativefb,-99,average,,0.8676808999998684,['c'],1,left,['3'],4,0.2134394999993674,52,,18,18,Vrouw,Rechts,1,
,dotcolour,xotask,xotask,26,4,266,566,main,negativefb,-99,hard,,0.9346646000003602,['n'],0,left,['3'],4,0.29680699999971694,42,,18,18,Vrouw,Rechts,1,
,dotcolour,xotask,xotask,27,4,267,567,main,negativefb,-99,average,,0.735430699999597,['c'],1,left,['2'],5,0.34544999999980064,51,,18,18,Vrouw,Rechts,1,
,dotcolour,xotask,xotask,28,4,268,568,main,negativefb,-99,hard,,0.8343263000006118,['n'],1,right,['3'],4,0.17138789999989967,39,,18,18,Vrouw,Rechts,1,
,dotcolour,xotask,xotask,29,4,269,569,main,negativefb,-99,hard,,1.0666221000001315,['c'],1,left,['3'],4,0.1708468000006178,41,,18,18,Vrouw,Rechts,1,
,dotcolour,xotask,xotask,30,4,270,570,main,negativefb,-99,hard,,0.884214200000315,['c'],1,left,['2'],5,0.1615486000000601,43,,18,18,Vrouw,Rechts,1,
,dotcolour,xotask,xotask,31,4,271,571,main,negativefb,-99,easy,,0.635013600000093,['c'],1,left,['2'],5,0.19458169999961683,62,,18,18,Vrouw,Rechts,1,
,dotcolour,xotask,xotask,32,4,272,572,main,negativefb,-99,hard,,0.7503795000002356,['n'],1,right,['2'],5,0.17449949999991077,36,,18,18,Vrouw,Rechts,1,
,dotcolour,xotask,xotask,33,4,273,573,main,negativefb,-99,hard,,0.8347211000000243,['c'],1,left,['3'],4,0.08627429999978631,44,,18,18,Vrouw,Rechts,1,
,dotcolour,xotask,xotask,34,4,274,574,main,negativefb,-99,easy,,1.016389700000218,['c'],1,left,['2'],5,0.2274824999994962,65,,18,18,Vrouw,Rechts,1,
,dotcolour,xotask,xotask,35,4,275,575,main,negativefb,-99,hard,,1.0513009000005695,['c'],0,right,['3'],4,0.32097280000016326,38,,18,18,Vrouw,Rechts,1,
,dotcolour,xotask,xotask,36,4,276,576,main,negativefb,-99,average,,0.650888500000292,['n'],1,right,['3'],4,0.22721670000009908,25,,18,18,Vrouw,Rechts,1,
,dotcolour,xotask,xotask,37,4,277,577,main,negativefb,-99,hard,,0.8169575000001714,['c'],1,left,['3'],4,0.242693700000018,45,,18,18,Vrouw,Rechts,1,
,dotcolour,xotask,xotask,38,4,278,578,main,negativefb,-99,hard,,0.9671139000001858,['n'],1,right,['3'],4,0.21145900000010442,38,,18,18,Vrouw,Rechts,1,
,dotcolour,xotask,xotask,39,4,279,579,main,negativefb,-99,average,,0.768271800000548,['c'],1,left,['3'],4,0.14977129999988392,51,,18,18,Vrouw,Rechts,1,
,dotcolour,xotask,xotask,40,4,280,580,main,negativefb,-99,easy,,0.6675832999999329,['c'],1,left,['3'],4,0.2536450999996305,62,,18,18,Vrouw,Rechts,1,
,dotcolour,xotask,xotask,41,4,281,581,main,negativefb,-99,average,,0.9669616999999562,['n'],1,right,['3'],4,0.22951569999986532,26,,18,18,Vrouw,Rechts,1,
,dotcolour,xotask,xotask,42,4,282,582,main,negativefb,-99,hard,,0.767886599999656,['c'],1,left,['3'],4,0.19826180000018212,42,,18,18,Vrouw,Rechts,1,
,dotcolour,xotask,xotask,43,4,283,583,main,negativefb,-99,hard,,0.6999119000001883,['c'],0,right,['3'],4,0.2997626999995191,37,,18,18,Vrouw,Rechts,1,
,dotcolour,xotask,xotask,44,4,284,584,main,negativefb,-99,easy,,0.8011399999995774,['c'],1,left,['2'],5,0.19182089999958407,61,,18,18,Vrouw,Rechts,1,
,dotcolour,xotask,xotask,45,4,285,585,main,negativefb,-99,average,,1.2009777000002941,['n'],0,left,['3'],4,0.1772479999999632,51,,18,18,Vrouw,Rechts,1,
,dotcolour,xotask,xotask,46,4,286,586,main,negativefb,-99,easy,,0.7509325000000899,['c'],1,left,['2'],5,0.22944340000049124,64,,18,18,Vrouw,Rechts,1,
,dotcolour,xotask,xotask,47,4,287,587,main,negativefb,-99,easy,,0.650805200000832,['c'],1,left,['1'],6,0.1955770999993547,65,,18,18,Vrouw,Rechts,1,
,dotcolour,xotask,xotask,48,4,288,588,main,negativefb,-99,hard,,1.3678978999996616,['c'],1,left,['3'],4,0.15798780000022816,41,,18,18,Vrouw,Rechts,1,
,dotcolour,xotask,xotask,49,4,289,589,main,negativefb,-99,average,,0.7503726000004463,['c'],1,left,['3'],4,0.17056750000028842,54,,18,18,Vrouw,Rechts,1,
,dotcolour,xotask,xotask,50,4,290,590,main,negativefb,-99,average,,0.7348182999994606,['c'],1,left,['3'],4,0.24776010000005044,55,,18,18,Vrouw,Rechts,1,
,dotcolour,xotask,xotask,51,4,291,591,main,negativefb,-99,average,,0.6009217000000717,['n'],1,right,['3'],4,0.21446469999955298,26,,18,18,Vrouw,Rechts,1,
,dotcolour,xotask,xotask,52,4,292,592,main,negativefb,-99,hard,,0.7509123999998337,['n'],0,left,['3'],4,0.16053460000057385,41,,18,18,Vrouw,Rechts,1,
,dotcolour,xotask,xotask,53,4,293,593,main,negativefb,-99,average,,0.7005454999998619,['n'],1,right,['3'],4,0.19852540000010777,28,,18,18,Vrouw,Rechts,1,
,dotcolour,xotask,xotask,54,4,294,594,main,negativefb,-99,easy,,0.833778700000039,['c'],1,left,['2'],5,0.16604709999955958,61,,18,18,Vrouw,Rechts,1,
,dotcolour,xotask,xotask,55,4,295,595,main,negativefb,-99,easy,,0.5844182999999248,['n'],1,right,['2'],5,0.24053830000048038,19,,18,18,Vrouw,Rechts,1,
,dotcolour,xotask,xotask,56,4,296,596,main,negativefb,-99,easy,,0.9008856999998898,['c'],1,left,['1'],6,0.22804050000013376,62,,18,18,Vrouw,Rechts,1,
,dotcolour,xotask,xotask,57,4,297,597,main,negativefb,-99,hard,,1.1672094000005018,['c'],0,right,['3'],4,0.38991170000008424,37,,18,18,Vrouw,Rechts,1,
,dotcolour,xotask,xotask,58,4,298,598,main,negativefb,-99,hard,,0.8014953000001697,['n'],1,right,['3'],4,0.31098840000049677,37,,18,18,Vrouw,Rechts,1,
,dotcolour,xotask,xotask,59,4,299,599,main,negativefb,-99,average,,0.7012837000002037,['n'],1,right,['2'],5,0.18395890000010695,26,,18,18,Vrouw,Rechts,1,
,xotask,xotask,xotask,0,0,0,600,training,negativefb,80,easy,70,0.8997457000004943,['c'],1,left,['3'],4,0.22989460000007966,,,18,18,Vrouw,Rechts,1,
,xotask,xotask,xotask,1,0,1,601,training,negativefb,94,average,61,0.9172910000006596,['c'],1,left,['2'],5,0.36933030000000144,,,18,18,Vrouw,Rechts,1,
,xotask,xotask,xotask,2,0,2,602,training,negativefb,87,average,64,0.7167614999998477,['c'],1,left,['2'],5,0.1737557000005836,,,18,18,Vrouw,Rechts,1,
,xotask,xotask,xotask,3,0,3,603,training,negativefb,87,average,64,0.8831451000005472,['c'],1,left,['3'],4,0.24422020000019984,,,18,18,Vrouw,Rechts,1,
,xotask,xotask,xotask,4,0,4,604,training,negativefb,25,easy,74,0.5667874000000666,['c'],1,left,['2'],5,0.19622999999955937,,,18,18,Vrouw,Rechts,1,
,xotask,xotask,xotask,5,0,5,605,training,negativefb,85,easy,6,0.7160819999999148,['n'],1,right,['2'],5,0.17627019999963522,,,18,18,Vrouw,Rechts,1,
,xotask,xotask,xotask,6,0,6,606,training,negativefb,73,easy,73,0.6994846999996298,['c'],1,left,['2'],5,0.2051233999991382,,,18,18,Vrouw,Rechts,1,
,xotask,xotask,xotask,7,0,7,607,training,negativefb,68,hard,52,0.933738099999573,['c'],1,left,['3'],4,0.328178000000662,,,18,18,Vrouw,Rechts,1,
,xotask,xotask,xotask,8,0,8,608,training,negativefb,38,hard,52,0.8996476999991501,['c'],1,left,['3'],4,0.24721930000032444,,,18,18,Vrouw,Rechts,1,
,xotask,xotask,xotask,9,0,9,609,training,negativefb,76,easy,9,0.6172691000001578,['n'],1,right,['3'],4,0.29229099999975006,,,18,18,Vrouw,Rechts,1,
,xotask,xotask,xotask,10,0,10,610,training,negativefb,84,hard,54,1.1499862999999095,['c'],1,left,['3'],4,0.283456500000284,,,18,18,Vrouw,Rechts,1,
,xotask,xotask,xotask,11,0,11,611,training,negativefb,61,average,62,0.8510110000006534,['c'],1,left,['2'],5,0.14996619999965333,,,18,18,Vrouw,Rechts,1,
,xotask,xotask,xotask,12,0,12,612,training,negativefb,52,easy,71,0.6659066000001985,['c'],1,left,['1'],6,0.21328690000063943,,,18,18,Vrouw,Rechts,1,
,xotask,xotask,xotask,13,0,13,613,training,negativefb,50,hard,53,0.8833785999995598,['c'],1,left,['2'],5,0.18566219999956957,,,18,18,Vrouw,Rechts,1,
,xotask,xotask,xotask,14,0,14,614,training,negativefb,73,hard,52,0.6837814999998955,['c'],1,left,['3'],4,0.278766600000381,,,18,18,Vrouw,Rechts,1,
,xotask,xotask,xotask,15,0,15,615,training,negativefb,54,easy,5,0.6497795000004771,['n'],1,right,['2'],5,0.2747761000000537,,,18,18,Vrouw,Rechts,1,
,xotask,xotask,xotask,16,0,16,616,training,negativefb,56,easy,8,0.8170505000007324,['n'],1,right,['3'],4,0.23971220000021276,,,18,18,Vrouw,Rechts,1,
,xotask,xotask,xotask,17,0,17,617,training,negativefb,88,easy,5,0.6837742000006983,['n'],1,right,['2'],5,0.35440830000061396,,,18,18,Vrouw,Rechts,1,
,xotask,xotask,xotask,18,0,18,618,training,negativefb,77,easy,74,0.7158671000006507,['c'],1,left,['2'],5,0.23216279999996914,,,18,18,Vrouw,Rechts,1,
,xotask,xotask,xotask,19,0,19,619,training,negativefb,60,hard,26,1.1992319999999381,['c'],0,right,['3'],4,0.29480270000021846,,,18,18,Vrouw,Rechts,1,
,xotask,xotask,xotask,20,0,20,620,training,negativefb,75,easy,8,0.7664254000001165,['n'],1,right,['2'],5,0.18839980000029755,,,18,18,Vrouw,Rechts,1,
,xotask,xotask,xotask,21,0,21,621,training,negativefb,86,average,15,0.7179175000001123,['n'],1,right,['2'],5,0.1846562000000631,,,18,18,Vrouw,Rechts,1,
,xotask,xotask,xotask,22,0,22,622,training,negativefb,81,average,60,0.7507918999999674,['c'],1,left,['2'],5,0.21223359999930835,,,18,18,Vrouw,Rechts,1,
,xotask,xotask,xotask,23,0,23,623,training,negativefb,45,hard,28,0.9663645999999062,['n'],1,right,['3'],4,0.17288829999961308,,,18,18,Vrouw,Rechts,1,
,xotask,xotask,xotask,24,0,24,624,training,negativefb,63,easy,73,0.633008200000404,['c'],1,left,['2'],5,0.3170300000001589,,,18,18,Vrouw,Rechts,1,
,xotask,xotask,xotask,25,0,25,625,training,negativefb,67,hard,28,1.0501383000000715,['n'],1,right,['3'],4,0.12592620000032184,,,18,18,Vrouw,Rechts,1,
,xotask,xotask,xotask,26,0,26,626,training,negativefb,72,easy,74,0.6175475000000006,['c'],1,left,['3'],4,0.27276809999966645,,,18,18,Vrouw,Rechts,1,
,xotask,xotask,xotask,27,0,27,627,training,negativefb,70,hard,50,0.6668095999993966,['c'],1,left,['3'],4,0.24365800000123272,,,18,18,Vrouw,Rechts,1,
,xotask,xotask,xotask,28,0,28,628,training,negativefb,51,hard,53,0.866451900001266,['c'],1,left,['3'],4,0.2475458000008075,,,18,18,Vrouw,Rechts,1,
,xotask,xotask,xotask,29,0,29,629,training,negativefb,87,hard,29,1.1005960999991657,['n'],1,right,['3'],4,0.34599880000132544,,,18,18,Vrouw,Rechts,1,
,xotask,xotask,xotask,30,0,30,630,training,negativefb,36,average,18,0.8003272999994806,['n'],1,right,['3'],4,0.14923690000068746,,,18,18,Vrouw,Rechts,1,
,xotask,xotask,xotask,31,0,31,631,training,negativefb,85,hard,26,0.8172441000006074,['n'],1,right,['3'],4,0.20623460000024352,,,18,18,Vrouw,Rechts,1,
,xotask,xotask,xotask,32,0,32,632,training,negativefb,36,hard,28,0.8332270999999309,['n'],1,right,['3'],4,0.19709420000071987,,,18,18,Vrouw,Rechts,1,
,xotask,xotask,xotask,33,0,33,633,training,negativefb,75,hard,27,0.9506129000001238,['n'],1,right,['2'],5,0.39140880000013567,,,18,18,Vrouw,Rechts,1,
,xotask,xotask,xotask,34,0,34,634,training,negativefb,45,easy,72,0.6670674999986659,['c'],1,left,['2'],5,0.3732361000002129,,,18,18,Vrouw,Rechts,1,
,xotask,xotask,xotask,35,0,35,635,training,negativefb,82,average,16,0.7343844000006357,['n'],1,right,['2'],5,0.21029359999920416,,,18,18,Vrouw,Rechts,1,
,xotask,xotask,xotask,36,0,36,636,training,negativefb,73,average,15,0.7828941000007035,['n'],1,right,['3'],4,0.1622006000015972,,,18,18,Vrouw,Rechts,1,
,xotask,xotask,xotask,37,0,37,637,training,negativefb,39,hard,29,0.9998805999985052,['n'],1,right,['3'],4,0.268425300000672,,,18,18,Vrouw,Rechts,1,
,xotask,xotask,xotask,38,0,38,638,training,negativefb,82,easy,9,0.6488525999993726,['n'],1,right,['2'],5,0.2235118999997212,,,18,18,Vrouw,Rechts,1,
,xotask,xotask,xotask,39,0,39,639,training,negativefb,63,average,16,0.5660895000000892,['n'],1,right,['2'],5,0.20032129999890458,,,18,18,Vrouw,Rechts,1,
,xotask,xotask,xotask,40,0,40,640,training,negativefb,86,easy,74,0.7998228999986168,['c'],1,left,['2'],5,0.18411170000035781,,,18,18,Vrouw,Rechts,1,
,xotask,xotask,xotask,41,0,41,641,training,negativefb,74,average,19,1.0498230000011972,['n'],1,right,['3'],4,0.2392096000003221,,,18,18,Vrouw,Rechts,1,
,xotask,xotask,xotask,42,0,42,642,training,negativefb,52,easy,6,0.6829618000010669,['n'],1,right,['2'],5,0.15453659999911906,,,18,18,Vrouw,Rechts,1,
,xotask,xotask,xotask,43,0,43,643,training,negativefb,94,hard,50,1.0003637999998318,['c'],1,left,['3'],4,0.25263489999997546,,,18,18,Vrouw,Rechts,1,
,xotask,xotask,xotask,44,0,44,644,training,negativefb,31,hard,53,0.8998978999989049,['n'],0,left,['3'],4,0.23861279999982798,,,18,18,Vrouw,Rechts,1,
,xotask,xotask,xotask,45,0,45,645,training,negativefb,23,hard,26,0.7342650999999023,['n'],1,right,['2'],5,0.13578170000073442,,,18,18,Vrouw,Rechts,1,
,xotask,xotask,xotask,46,0,46,646,training,negativefb,41,easy,7,0.5673686999998608,['n'],1,right,['2'],5,0.4761084000001574,,,18,18,Vrouw,Rechts,1,
,xotask,xotask,xotask,47,0,47,647,training,negativefb,72,average,17,0.7659971000011865,['n'],1,right,['2'],5,0.23476830000072368,,,18,18,Vrouw,Rechts,1,
,xotask,xotask,xotask,48,0,48,648,training,negativefb,91,easy,71,0.7667888999985735,['c'],1,left,['3'],4,0.4110141000001022,,,18,18,Vrouw,Rechts,1,
,xotask,xotask,xotask,49,0,49,649,training,negativefb,51,hard,53,1.0502726000013354,['n'],0,left,['3'],4,0.4092859000011231,,,18,18,Vrouw,Rechts,1,
,xotask,xotask,xotask,50,0,50,650,training,negativefb,78,average,60,0.916849799999909,['c'],1,left,['3'],4,0.37175030000071274,,,18,18,Vrouw,Rechts,1,
,xotask,xotask,xotask,51,0,51,651,training,negativefb,59,average,60,0.784188699999504,['c'],1,left,['3'],4,0.23811690000002272,,,18,18,Vrouw,Rechts,1,
,xotask,xotask,xotask,52,0,52,652,training,negativefb,83,average,16,0.783117899998615,['n'],1,right,['3'],4,0.6052626999990025,,,18,18,Vrouw,Rechts,1,
,xotask,xotask,xotask,53,0,53,653,training,negativefb,13,average,60,0.9502694000002521,['n'],0,left,['3'],4,0.31944540000040433,,,18,18,Vrouw,Rechts,1,
,xotask,xotask,xotask,54,0,54,654,training,negativefb,93,easy,7,0.6665369000002102,['n'],1,right,['3'],4,0.3365987999986828,,,18,18,Vrouw,Rechts,1,
,xotask,xotask,xotask,55,0,55,655,training,negativefb,49,average,64,0.6497576000001573,['c'],1,left,['2'],5,0.2410249999993539,,,18,18,Vrouw,Rechts,1,
,xotask,xotask,xotask,56,0,56,656,training,negativefb,88,average,19,0.7672282999992603,['n'],1,right,['3'],4,0.31313850000151433,,,18,18,Vrouw,Rechts,1,
,xotask,xotask,xotask,57,0,57,657,training,negativefb,78,hard,26,0.883379300001252,['n'],1,right,['3'],4,0.20135800000025483,,,18,18,Vrouw,Rechts,1,
,xotask,xotask,xotask,58,0,58,658,training,negativefb,69,average,61,0.8004588999992848,['c'],1,left,['3'],4,0.21774449999975332,,,18,18,Vrouw,Rechts,1,
,xotask,xotask,xotask,59,0,59,659,training,negativefb,62,average,15,0.8657531999997445,['n'],1,right,['2'],5,0.11883970000053523,,,18,18,Vrouw,Rechts,1,
,xotask,xotask,xotask,0,1,60,660,training,negativefb,79,average,61,0.9168382000007114,['c'],1,left,['3'],4,0.1832667999988189,,,18,18,Vrouw,Rechts,1,
,xotask,xotask,xotask,1,1,61,661,training,negativefb,53,easy,72,0.6509881000001769,['c'],1,left,['3'],4,0.17389080000066315,,,18,18,Vrouw,Rechts,1,
,xotask,xotask,xotask,2,1,62,662,training,negativefb,33,hard,51,0.9159209999997984,['c'],1,left,['3'],4,0.2099367999999231,,,18,18,Vrouw,Rechts,1,
,xotask,xotask,xotask,3,1,63,663,training,negativefb,44,easy,74,0.6336878999991313,['c'],1,left,['2'],5,0.18529540000054112,,,18,18,Vrouw,Rechts,1,
,xotask,xotask,xotask,4,1,64,664,training,negativefb,68,average,63,0.6329124999992928,['c'],1,left,['2'],5,0.14445060000070953,,,18,18,Vrouw,Rechts,1,
,xotask,xotask,xotask,5,1,65,665,training,negativefb,57,average,19,0.650214599998435,['n'],1,right,['2'],5,0.1694616999993741,,,18,18,Vrouw,Rechts,1,
,xotask,xotask,xotask,6,1,66,666,training,negativefb,78,easy,7,0.6340593000004446,['n'],1,right,['2'],5,0.32105500000034226,,,18,18,Vrouw,Rechts,1,
,xotask,xotask,xotask,7,1,67,667,training,negativefb,46,average,18,0.6509102999989409,['n'],1,right,['2'],5,0.12264289999984612,,,18,18,Vrouw,Rechts,1,
,xotask,xotask,xotask,8,1,68,668,training,negativefb,85,easy,73,0.7334038999997574,['c'],1,left,['2'],5,0.1842569000000367,,,18,18,Vrouw,Rechts,1,
