starttime,task,fbtask,firsttask,withinblocktrial,block,withintasktrial,trial,running,feedback,fbscore,difflevel,n_xes,rt,resp,cor,cresp,conf_press,cj,RTconf,reddots,stoptime,sub,age,gender,handedness,session,
1715070706,xotask,xotask,dotcolour,0,0,0,0,training,positivefb,53,hard,52,9.018256099999917,['n'],0,left,['9'],2,6.509383500000013,,,17,20,Man,Rechts,1,
,xotask,xotask,dotcolour,1,0,1,1,training,positivefb,21,hard,25,12.100262899999962,['c'],0,right,['9'],2,7.300043199999891,,,17,20,Man,Rechts,1,
,xotask,xotask,dotcolour,2,0,2,2,training,positivefb,95,average,15,3.532762699999921,['n'],1,right,['8'],3,2.4967486000000463,,,17,20,Man,Rechts,1,
,xotask,xotask,dotcolour,3,0,3,3,training,positivefb,95,average,63,2.1664210999999796,['c'],1,left,['3'],4,3.702359500000057,,,17,20,Man,Rechts,1,
,xotask,xotask,dotcolour,4,0,4,4,training,positivefb,98,average,15,2.1996124000002055,['n'],1,right,['2'],5,6.008771399999887,,,17,20,Man,Rechts,1,
,xotask,xotask,dotcolour,5,0,5,5,training,positivefb,100,easy,8,1.9824857000000975,['n'],1,right,['2'],5,2.648226700000123,,,17,20,Man,Rechts,1,
,xotask,xotask,dotcolour,6,0,6,6,training,positivefb,97,hard,26,2.583198200000197,['n'],1,right,['2'],5,2.133590599999934,,,17,20,Man,Rechts,1,
,xotask,xotask,dotcolour,7,0,7,7,training,positivefb,100,easy,8,1.6832910999999058,['n'],1,right,['1'],6,1.852560799999992,,,17,20,Man,Rechts,1,
,xotask,xotask,dotcolour,8,0,8,8,training,positivefb,100,easy,73,2.549504500000012,['c'],1,left,['1'],6,2.7397764999998344,,,17,20,Man,Rechts,1,
,xotask,xotask,dotcolour,9,0,9,9,training,positivefb,78,hard,29,3.817054999999982,['n'],1,right,['3'],4,5.245053599999892,,,17,20,Man,Rechts,1,
,xotask,xotask,dotcolour,10,0,10,10,training,positivefb,84,easy,5,1.6836172999999235,['n'],1,right,['1'],6,1.223240399999895,,,17,20,Man,Rechts,1,
,xotask,xotask,dotcolour,11,0,11,11,training,positivefb,62,average,18,2.4335237000000234,['n'],1,right,['2'],5,0.9571693000000323,,,17,20,Man,Rechts,1,
,xotask,xotask,dotcolour,12,0,12,12,training,positivefb,97,average,62,2.4001625000000786,['c'],1,left,['3'],4,4.263338900000008,,,17,20,Man,Rechts,1,
,xotask,xotask,dotcolour,13,0,13,13,training,positivefb,43,average,61,3.133802699999933,['n'],0,left,['3'],4,3.0701567999999497,,,17,20,Man,Rechts,1,
,xotask,xotask,dotcolour,14,0,14,14,training,positivefb,95,hard,27,1.3007173999999395,['n'],1,right,['3'],4,2.0553322000000662,,,17,20,Man,Rechts,1,
,xotask,xotask,dotcolour,15,0,15,15,training,positivefb,46,hard,25,1.999925600000097,['c'],0,right,['8'],3,2.004145600000129,,,17,20,Man,Rechts,1,
,xotask,xotask,dotcolour,16,0,16,16,training,positivefb,99,average,18,2.3172355000001517,['n'],1,right,['2'],5,2.9195159000000785,,,17,20,Man,Rechts,1,
,xotask,xotask,dotcolour,17,0,17,17,training,positivefb,99,hard,52,2.033458799999835,['c'],1,left,['3'],4,3.289830400000028,,,17,20,Man,Rechts,1,
,xotask,xotask,dotcolour,18,0,18,18,training,positivefb,89,hard,28,1.5826861999998982,['c'],0,right,['2'],5,2.1898104000001695,,,17,20,Man,Rechts,1,
,xotask,xotask,dotcolour,19,0,19,19,training,positivefb,100,easy,71,1.4516626000001907,['c'],1,left,['1'],6,1.2354491999999482,,,17,20,Man,Rechts,1,
,xotask,xotask,dotcolour,20,0,20,20,training,positivefb,61,hard,53,4.266501299999845,['n'],0,left,['8'],3,1.1514841999999135,,,17,20,Man,Rechts,1,
,xotask,xotask,dotcolour,21,0,21,21,training,positivefb,90,hard,27,2.3507882000001246,['n'],1,right,['3'],4,1.971048299999893,,,17,20,Man,Rechts,1,
,xotask,xotask,dotcolour,22,0,22,22,training,positivefb,92,easy,9,2.183123700000124,['n'],1,right,['1'],6,0.47665600000004815,,,17,20,Man,Rechts,1,
,xotask,xotask,dotcolour,23,0,23,23,training,positivefb,96,average,19,1.9664404000000104,['n'],1,right,['3'],4,1.6032087999999476,,,17,20,Man,Rechts,1,
,xotask,xotask,dotcolour,24,0,24,24,training,positivefb,95,easy,9,0.9996553000000858,['n'],1,right,['1'],6,0.45844000000010965,,,17,20,Man,Rechts,1,
,xotask,xotask,dotcolour,25,0,25,25,training,positivefb,89,average,64,1.3000509999999394,['c'],1,left,['1'],6,0.5885152000000744,,,17,20,Man,Rechts,1,
,xotask,xotask,dotcolour,26,0,26,26,training,positivefb,93,easy,71,1.4844038999999611,['c'],1,left,['2'],5,0.5218957000001865,,,17,20,Man,Rechts,1,
,xotask,xotask,dotcolour,27,0,27,27,training,positivefb,61,easy,9,2.8662506000000576,['n'],1,right,['1'],6,0.4516441999999188,,,17,20,Man,Rechts,1,
,xotask,xotask,dotcolour,28,0,28,28,training,positivefb,67,easy,72,1.482931100000087,['c'],1,left,['1'],6,0.4777767999999014,,,17,20,Man,Rechts,1,
,xotask,xotask,dotcolour,29,0,29,29,training,positivefb,98,average,16,1.8006928000002063,['n'],1,right,['2'],5,3.235129299999926,,,17,20,Man,Rechts,1,
,xotask,xotask,dotcolour,30,0,30,30,training,positivefb,98,easy,7,2.416870499999959,['n'],1,right,['1'],6,0.7688794999999118,,,17,20,Man,Rechts,1,
,xotask,xotask,dotcolour,31,0,31,31,training,positivefb,52,hard,27,2.083792899999935,['c'],0,right,['2'],5,2.2301764999999705,,,17,20,Man,Rechts,1,
,xotask,xotask,dotcolour,32,0,32,32,training,positivefb,87,hard,53,1.450032100000044,['c'],1,left,['1'],6,1.1390066999999817,,,17,20,Man,Rechts,1,
,xotask,xotask,dotcolour,33,0,33,33,training,positivefb,87,easy,71,1.466231900000139,['c'],1,left,['1'],6,0.6991543999999976,,,17,20,Man,Rechts,1,
,xotask,xotask,dotcolour,34,0,34,34,training,positivefb,98,average,61,1.1165667999998732,['c'],1,left,['2'],5,0.9867002999999386,,,17,20,Man,Rechts,1,
,xotask,xotask,dotcolour,35,0,35,35,training,positivefb,98,average,18,1.2996338000000378,['n'],1,right,['2'],5,0.9840306000000965,,,17,20,Man,Rechts,1,
,xotask,xotask,dotcolour,36,0,36,36,training,positivefb,96,easy,7,1.816430599999876,['n'],1,right,['1'],6,0.751329799999894,,,17,20,Man,Rechts,1,
,xotask,xotask,dotcolour,37,0,37,37,training,positivefb,90,easy,73,1.2832352000000355,['c'],1,left,['1'],6,0.5497998999999254,,,17,20,Man,Rechts,1,
,xotask,xotask,dotcolour,38,0,38,38,training,positivefb,98,average,64,1.0829787000000124,['c'],1,left,['2'],5,0.6680807000000186,,,17,20,Man,Rechts,1,
,xotask,xotask,dotcolour,39,0,39,39,training,positivefb,99,easy,73,1.2169314000000213,['c'],1,left,['1'],6,0.7534339999999702,,,17,20,Man,Rechts,1,
,xotask,xotask,dotcolour,40,0,40,40,training,positivefb,93,hard,28,1.4003104000000803,['n'],1,right,['3'],4,1.3950434999999288,,,17,20,Man,Rechts,1,
,xotask,xotask,dotcolour,41,0,41,41,training,positivefb,99,average,16,1.1174191000000064,['n'],1,right,['2'],5,1.4075712999999723,,,17,20,Man,Rechts,1,
,xotask,xotask,dotcolour,42,0,42,42,training,positivefb,99,easy,70,1.6338392999998632,['c'],1,left,['3'],4,1.462447099999963,,,17,20,Man,Rechts,1,
,xotask,xotask,dotcolour,43,0,43,43,training,positivefb,99,easy,6,1.1015107000000626,['n'],1,right,['1'],6,0.776106000000027,,,17,20,Man,Rechts,1,
,xotask,xotask,dotcolour,44,0,44,44,training,positivefb,96,easy,9,0.9168073000000732,['n'],1,right,['1'],6,0.6528776000000107,,,17,20,Man,Rechts,1,
,xotask,xotask,dotcolour,45,0,45,45,training,positivefb,69,hard,50,1.6001061000001755,['n'],0,left,['2'],5,0.8265430999997534,,,17,20,Man,Rechts,1,
,xotask,xotask,dotcolour,46,0,46,46,training,positivefb,90,average,17,1.7326496000000589,['n'],1,right,['3'],4,0.8051900000000387,,,17,20,Man,Rechts,1,
,xotask,xotask,dotcolour,47,0,47,47,training,positivefb,94,hard,50,1.9838693000001513,['c'],1,left,['2'],5,0.7571780999996918,,,17,20,Man,Rechts,1,
,xotask,xotask,dotcolour,48,0,48,48,training,positivefb,93,average,64,1.1833308000000216,['c'],1,left,['2'],5,1.400496000000203,,,17,20,Man,Rechts,1,
,xotask,xotask,dotcolour,49,0,49,49,training,positivefb,98,average,16,1.0841503000001467,['n'],1,right,['2'],5,0.564205099999981,,,17,20,Man,Rechts,1,
,xotask,xotask,dotcolour,50,0,50,50,training,positivefb,96,hard,51,1.6827867000001788,['c'],1,left,['2'],5,0.602241800000229,,,17,20,Man,Rechts,1,
,xotask,xotask,dotcolour,51,0,51,51,training,positivefb,71,average,62,1.9667208999999275,['c'],1,left,['3'],4,0.7559056999998575,,,17,20,Man,Rechts,1,
,xotask,xotask,dotcolour,52,0,52,52,training,positivefb,100,easy,72,1.617026800000076,['c'],1,left,['2'],5,3.253494299999602,,,17,20,Man,Rechts,1,
,xotask,xotask,dotcolour,53,0,53,53,training,positivefb,96,easy,74,1.1172126999999819,['c'],1,left,['1'],6,0.47745990000021266,,,17,20,Man,Rechts,1,
,xotask,xotask,dotcolour,54,0,54,54,training,positivefb,98,hard,52,1.1161746000002495,['c'],1,left,['1'],6,0.7349915999998302,,,17,20,Man,Rechts,1,
,xotask,xotask,dotcolour,55,0,55,55,training,positivefb,91,average,62,1.3338276999998016,['c'],1,left,['1'],6,0.8195623999999953,,,17,20,Man,Rechts,1,
,xotask,xotask,dotcolour,56,0,56,56,training,positivefb,90,hard,28,1.1995809000000008,['n'],1,right,['2'],5,0.5558103999997002,,,17,20,Man,Rechts,1,
,xotask,xotask,dotcolour,57,0,57,57,training,positivefb,48,hard,50,1.4838497000000643,['n'],0,left,['2'],5,0.706572199999755,,,17,20,Man,Rechts,1,
,xotask,xotask,dotcolour,58,0,58,58,training,positivefb,99,average,63,1.367207100000087,['c'],1,left,['3'],4,1.8957887000001392,,,17,20,Man,Rechts,1,
,xotask,xotask,dotcolour,59,0,59,59,training,positivefb,99,hard,53,2.050643200000195,['c'],1,left,['3'],4,1.041881000000103,,,17,20,Man,Rechts,1,
,xotask,xotask,dotcolour,0,1,60,60,training,positivefb,95,easy,70,3.6505942999997387,['c'],1,left,['3'],4,1.2859741000002032,,,17,20,Man,Rechts,1,
,xotask,xotask,dotcolour,1,1,61,61,training,positivefb,95,average,61,1.0675751999997374,['c'],1,left,['2'],5,0.40681229999972857,,,17,20,Man,Rechts,1,
,xotask,xotask,dotcolour,2,1,62,62,training,positivefb,75,average,16,0.934846799999832,['n'],1,right,['1'],6,0.5144426000001658,,,17,20,Man,Rechts,1,
,xotask,xotask,dotcolour,3,1,63,63,training,positivefb,88,easy,71,0.9835861999999906,['c'],1,left,['1'],6,0.33496299999978874,,,17,20,Man,Rechts,1,
,xotask,xotask,dotcolour,4,1,64,64,training,positivefb,51,hard,27,5.816748300000199,['c'],0,right,['8'],3,3.0170373999999356,,,17,20,Man,Rechts,1,
,xotask,xotask,dotcolour,5,1,65,65,training,positivefb,93,average,19,1.133158000000094,['n'],1,right,['3'],4,0.9463221999999405,,,17,20,Man,Rechts,1,
,xotask,xotask,dotcolour,6,1,66,66,training,positivefb,93,average,64,1.3997357000002921,['c'],1,left,['3'],4,0.7010196000001088,,,17,20,Man,Rechts,1,
,xotask,xotask,dotcolour,7,1,67,67,training,positivefb,94,easy,71,1.0333196000001408,['c'],1,left,['2'],5,0.4397052000003896,,,17,20,Man,Rechts,1,
,xotask,xotask,dotcolour,8,1,68,68,training,positivefb,98,easy,70,0.9327613000000383,['c'],1,left,['1'],6,0.4649483000002874,,,17,20,Man,Rechts,1,
,xotask,xotask,dotcolour,9,1,69,69,training,positivefb,97,average,64,0.9336610999998811,['c'],1,left,['2'],5,0.4810548000000381,,,17,20,Man,Rechts,1,
,xotask,xotask,dotcolour,10,1,70,70,training,positivefb,82,average,61,1.1500791000003119,['c'],1,left,['2'],5,0.8234395999998014,,,17,20,Man,Rechts,1,
,xotask,xotask,dotcolour,11,1,71,71,training,positivefb,66,hard,50,1.033450499999617,['c'],1,left,['2'],5,0.6215657000002466,,,17,20,Man,Rechts,1,
,xotask,xotask,dotcolour,12,1,72,72,training,positivefb,92,hard,54,1.9003308000001198,['c'],1,left,['2'],5,1.0813867000001665,,,17,20,Man,Rechts,1,
,xotask,xotask,dotcolour,13,1,73,73,training,positivefb,78,average,64,2.200481700000182,['c'],1,left,['3'],4,0.7899176000000807,,,17,20,Man,Rechts,1,
,xotask,xotask,dotcolour,14,1,74,74,training,positivefb,98,easy,9,0.9333171999996921,['n'],1,right,['1'],6,0.5538784999998825,,,17,20,Man,Rechts,1,
,xotask,xotask,dotcolour,15,1,75,75,training,positivefb,73,hard,52,1.0168518999998923,['c'],1,left,['1'],6,0.37857549999989715,,,17,20,Man,Rechts,1,
,xotask,xotask,dotcolour,16,1,76,76,training,positivefb,92,hard,51,2.7663297000003695,['c'],1,left,['8'],3,1.5176275000003443,,,17,20,Man,Rechts,1,
,xotask,xotask,dotcolour,17,1,77,77,training,positivefb,92,easy,74,2.983215900000232,['c'],1,left,['2'],5,0.5282751999998254,,,17,20,Man,Rechts,1,
,xotask,xotask,dotcolour,18,1,78,78,training,positivefb,98,easy,7,1.317182700000103,['n'],1,right,['2'],5,0.6236580999998296,,,17,20,Man,Rechts,1,
,xotask,xotask,dotcolour,19,1,79,79,training,positivefb,99,average,62,1.1678529999999228,['c'],1,left,['2'],5,0.7119176999999581,,,17,20,Man,Rechts,1,
,xotask,xotask,dotcolour,20,1,80,80,training,positivefb,74,hard,28,2.0843895999996676,['n'],1,right,['2'],5,0.46456920000036916,,,17,20,Man,Rechts,1,
,xotask,xotask,dotcolour,21,1,81,81,training,positivefb,88,hard,27,1.7323583000002145,['n'],1,right,['1'],6,0.6730234999999993,,,17,20,Man,Rechts,1,
,xotask,xotask,dotcolour,22,1,82,82,training,positivefb,93,hard,29,2.6330204999999296,['n'],1,right,['3'],4,2.2206406999998762,,,17,20,Man,Rechts,1,
,xotask,xotask,dotcolour,23,1,83,83,training,positivefb,88,hard,54,1.3663507000001118,['c'],1,left,['2'],5,0.5895805000000109,,,17,20,Man,Rechts,1,
,xotask,xotask,dotcolour,24,1,84,84,training,positivefb,100,easy,5,1.0678388999999697,['n'],1,right,['2'],5,0.7468100000000959,,,17,20,Man,Rechts,1,
,xotask,xotask,dotcolour,25,1,85,85,training,positivefb,69,hard,52,1.9162895000004028,['c'],1,left,['3'],4,0.7925876999997854,,,17,20,Man,Rechts,1,
,xotask,xotask,dotcolour,26,1,86,86,training,positivefb,95,hard,25,2.1339239999997517,['n'],1,right,['3'],4,1.0680650999997852,,,17,20,Man,Rechts,1,
,xotask,xotask,dotcolour,27,1,87,87,training,positivefb,80,average,64,2.900253799999973,['c'],1,left,['2'],5,0.6380149999999958,,,17,20,Man,Rechts,1,
,xotask,xotask,dotcolour,28,1,88,88,training,positivefb,72,hard,25,1.3510908000002928,['n'],1,right,['3'],4,0.9666692999999213,,,17,20,Man,Rechts,1,
,xotask,xotask,dotcolour,29,1,89,89,training,positivefb,98,easy,5,1.0831265000001622,['n'],1,right,['2'],5,0.7483259000000544,,,17,20,Man,Rechts,1,
,xotask,xotask,dotcolour,30,1,90,90,training,positivefb,79,hard,51,3.2660874000002877,['c'],1,left,['3'],4,0.5235517000000982,,,17,20,Man,Rechts,1,
,xotask,xotask,dotcolour,31,1,91,91,training,positivefb,100,easy,73,1.3667874000002485,['c'],1,left,['1'],6,1.4567550000001575,,,17,20,Man,Rechts,1,
,xotask,xotask,dotcolour,32,1,92,92,training,positivefb,94,easy,6,1.1328848000002836,['n'],1,right,['1'],6,0.5536660999996457,,,17,20,Man,Rechts,1,
,xotask,xotask,dotcolour,33,1,93,93,training,positivefb,69,hard,29,3.1826897999999346,['c'],0,right,['3'],4,0.3159335000000283,,,17,20,Man,Rechts,1,
,xotask,xotask,dotcolour,34,1,94,94,training,positivefb,95,average,18,1.2002328000003217,['n'],1,right,['3'],4,0.41526539999995293,,,17,20,Man,Rechts,1,
,xotask,xotask,dotcolour,35,1,95,95,training,positivefb,61,hard,28,2.6830990999997084,['n'],1,right,['3'],4,0.4752631000001202,,,17,20,Man,Rechts,1,
,xotask,xotask,dotcolour,36,1,96,96,training,positivefb,74,average,63,1.1492170000001352,['c'],1,left,['2'],5,0.7068137999999635,,,17,20,Man,Rechts,1,
,xotask,xotask,dotcolour,37,1,97,97,training,positivefb,96,easy,73,1.0499745000001894,['c'],1,left,['1'],6,0.5564141999998355,,,17,20,Man,Rechts,1,
,xotask,xotask,dotcolour,38,1,98,98,training,positivefb,93,easy,72,1.7003379000002496,['c'],1,left,['2'],5,0.5788265000001047,,,17,20,Man,Rechts,1,
,xotask,xotask,dotcolour,39,1,99,99,training,positivefb,98,easy,73,0.8843642000001637,['c'],1,left,['1'],6,0.40863149999995585,,,17,20,Man,Rechts,1,
,xotask,xotask,dotcolour,40,1,100,100,training,positivefb,84,hard,26,0.9828916999999819,['n'],1,right,['2'],5,0.35359999999991487,,,17,20,Man,Rechts,1,
,xotask,xotask,dotcolour,41,1,101,101,training,positivefb,91,average,61,1.0003615999999056,['c'],1,left,['1'],6,0.30799779999961174,,,17,20,Man,Rechts,1,
,xotask,xotask,dotcolour,42,1,102,102,training,positivefb,94,easy,5,2.416800500000136,['n'],1,right,['1'],6,0.247215899999901,,,17,20,Man,Rechts,1,
,xotask,xotask,dotcolour,43,1,103,103,training,positivefb,91,easy,6,0.9335915000001478,['n'],1,right,['2'],5,0.2723425000003772,,,17,20,Man,Rechts,1,
,xotask,xotask,dotcolour,44,1,104,104,training,positivefb,96,average,18,0.8346243999999388,['n'],1,right,['1'],6,0.30009590000008757,,,17,20,Man,Rechts,1,
,xotask,xotask,dotcolour,45,1,105,105,training,positivefb,89,hard,52,1.1503229999998439,['c'],1,left,['3'],4,0.9945221000002675,,,17,20,Man,Rechts,1,
,xotask,xotask,dotcolour,46,1,106,106,training,positivefb,88,easy,74,0.9175531999999293,['c'],1,left,['1'],6,0.7266804999999295,,,17,20,Man,Rechts,1,
,xotask,xotask,dotcolour,47,1,107,107,training,positivefb,88,easy,8,0.783395400000245,['n'],1,right,['1'],6,0.21800409999968906,,,17,20,Man,Rechts,1,
,xotask,xotask,dotcolour,48,1,108,108,training,positivefb,94,hard,26,1.2165964000000713,['c'],0,right,['3'],4,0.3135730999997577,,,17,20,Man,Rechts,1,
,xotask,xotask,dotcolour,49,1,109,109,training,positivefb,84,average,18,2.7829046000001654,['n'],1,right,['1'],6,0.4459612999999081,,,17,20,Man,Rechts,1,
,xotask,xotask,dotcolour,50,1,110,110,training,positivefb,98,average,19,0.8991465999997672,['n'],1,right,['2'],5,0.27207399999997506,,,17,20,Man,Rechts,1,
,xotask,xotask,dotcolour,51,1,111,111,training,positivefb,88,easy,8,0.9843319999999949,['n'],1,right,['2'],5,0.254344299999957,,,17,20,Man,Rechts,1,
,xotask,xotask,dotcolour,52,1,112,112,training,positivefb,80,average,61,1.9166880999996465,['c'],1,left,['2'],5,0.2320426999999654,,,17,20,Man,Rechts,1,
,xotask,xotask,dotcolour,53,1,113,113,training,positivefb,95,average,16,1.5669716000002154,['n'],1,right,['3'],4,0.4081509999996342,,,17,20,Man,Rechts,1,
,xotask,xotask,dotcolour,54,1,114,114,training,positivefb,92,average,16,1.0331647000002704,['n'],1,right,['2'],5,0.26286260000006223,,,17,20,Man,Rechts,1,
,xotask,xotask,dotcolour,55,1,115,115,training,positivefb,88,average,18,1.050390100000186,['n'],1,right,['1'],6,0.23411320000013802,,,17,20,Man,Rechts,1,
,xotask,xotask,dotcolour,56,1,116,116,training,positivefb,74,average,16,2.383288200000152,['n'],1,right,['3'],4,0.2742653000000246,,,17,20,Man,Rechts,1,
,xotask,xotask,dotcolour,57,1,117,117,training,positivefb,89,hard,51,1.9185301000002255,['n'],0,left,['3'],4,0.2983025000003181,,,17,20,Man,Rechts,1,
,xotask,xotask,dotcolour,58,1,118,118,training,positivefb,97,easy,5,0.9345817999997053,['n'],1,right,['1'],6,0.25740829999995185,,,17,20,Man,Rechts,1,
,xotask,xotask,dotcolour,59,1,119,119,training,positivefb,83,hard,52,1.8999030999998467,['c'],1,left,['2'],5,0.5478820000002997,,,17,20,Man,Rechts,1,
,dotcolour,xotask,dotcolour,0,2,120,120,main,positivefb,-99,average,,3.6015754999998535,['n'],1,right,['2'],5,2.061996100000215,27,,17,20,Man,Rechts,1,
,dotcolour,xotask,dotcolour,1,2,121,121,main,positivefb,-99,average,,1.4177953999997044,['n'],1,right,['2'],5,6.044277700000293,27,,17,20,Man,Rechts,1,
,dotcolour,xotask,dotcolour,2,2,122,122,main,positivefb,-99,hard,,1.7345766999997068,['n'],1,right,['3'],4,1.6619794999996884,35,,17,20,Man,Rechts,1,
,dotcolour,xotask,dotcolour,3,2,123,123,main,positivefb,-99,hard,,2.334006699999918,['c'],1,left,['3'],4,0.543654399999923,44,,17,20,Man,Rechts,1,
,dotcolour,xotask,dotcolour,4,2,124,124,main,positivefb,-99,hard,,2.7011171999997714,['c'],0,right,['8'],3,2.2226353999999446,35,,17,20,Man,Rechts,1,
,dotcolour,xotask,dotcolour,5,2,125,125,main,positivefb,-99,easy,,1.768086200000198,['c'],1,left,['1'],6,1.4643144000001485,64,,17,20,Man,Rechts,1,
,dotcolour,xotask,dotcolour,6,2,126,126,main,positivefb,-99,average,,2.8008170000002792,['c'],1,left,['2'],5,0.21420590000025186,52,,17,20,Man,Rechts,1,
,dotcolour,xotask,dotcolour,7,2,127,127,main,positivefb,-99,hard,,3.0167292999999518,['n'],1,right,['2'],5,0.7098550000000614,35,,17,20,Man,Rechts,1,
,dotcolour,xotask,dotcolour,8,2,128,128,main,positivefb,-99,easy,,1.6348125999998047,['c'],1,left,['1'],6,0.3775126000000455,62,,17,20,Man,Rechts,1,
,dotcolour,xotask,dotcolour,9,2,129,129,main,positivefb,-99,easy,,1.36708950000002,['c'],1,left,['1'],6,0.5490967000000637,65,,17,20,Man,Rechts,1,
,dotcolour,xotask,dotcolour,10,2,130,130,main,positivefb,-99,easy,,1.0499045999999908,['n'],1,right,['1'],6,0.30119369999965784,19,,17,20,Man,Rechts,1,
,dotcolour,xotask,dotcolour,11,2,131,131,main,positivefb,-99,hard,,3.2352805999998964,['n'],0,left,['3'],4,1.000965499999893,41,,17,20,Man,Rechts,1,
,dotcolour,xotask,dotcolour,12,2,132,132,main,positivefb,-99,average,,1.2677420999998503,['c'],1,left,['2'],5,0.45468179999988934,55,,17,20,Man,Rechts,1,
,dotcolour,xotask,dotcolour,13,2,133,133,main,positivefb,-99,average,,1.6506939999999304,['c'],1,left,['2'],5,0.5713599000000613,55,,17,20,Man,Rechts,1,
,dotcolour,xotask,dotcolour,14,2,134,134,main,positivefb,-99,easy,,1.2010173999997278,['c'],1,left,['1'],6,0.4936732999999549,64,,17,20,Man,Rechts,1,
,dotcolour,xotask,dotcolour,15,2,135,135,main,positivefb,-99,hard,,4.134977600000184,['n'],1,right,['3'],4,1.6134541999999783,37,,17,20,Man,Rechts,1,
,dotcolour,xotask,dotcolour,16,2,136,136,main,positivefb,-99,average,,1.1843441999999413,['c'],1,left,['2'],5,0.3984522000000652,51,,17,20,Man,Rechts,1,
,dotcolour,xotask,dotcolour,17,2,137,137,main,positivefb,-99,average,,2.1337020999999368,['c'],1,left,['2'],5,0.5058312000001024,52,,17,20,Man,Rechts,1,
,dotcolour,xotask,dotcolour,18,2,138,138,main,positivefb,-99,hard,,3.1176571000000877,['c'],1,left,['3'],4,1.0023802000000614,45,,17,20,Man,Rechts,1,
,dotcolour,xotask,dotcolour,19,2,139,139,main,positivefb,-99,average,,0.9666660000002594,['n'],1,right,['2'],5,1.1724993000002542,26,,17,20,Man,Rechts,1,
,dotcolour,xotask,dotcolour,20,2,140,140,main,positivefb,-99,easy,,0.9849334999998973,['c'],1,left,['2'],5,0.6390661000000364,61,,17,20,Man,Rechts,1,
,dotcolour,xotask,dotcolour,21,2,141,141,main,positivefb,-99,average,,1.3174761000000217,['c'],1,left,['2'],5,0.9461294000002454,54,,17,20,Man,Rechts,1,
,dotcolour,xotask,dotcolour,22,2,142,142,main,positivefb,-99,easy,,0.9001565999997183,['n'],1,right,['1'],6,0.7855266000001393,15,,17,20,Man,Rechts,1,
,dotcolour,xotask,dotcolour,23,2,143,143,main,positivefb,-99,hard,,2.567009700000199,['c'],1,left,['3'],4,0.4201516000002812,45,,17,20,Man,Rechts,1,
,dotcolour,xotask,dotcolour,24,2,144,144,main,positivefb,-99,easy,,1.9010356999997384,['n'],1,right,['2'],5,0.6315638999999464,17,,17,20,Man,Rechts,1,
,dotcolour,xotask,dotcolour,25,2,145,145,main,positivefb,-99,easy,,1.350394999999935,['n'],1,right,['2'],5,0.5530131000000438,18,,17,20,Man,Rechts,1,
,dotcolour,xotask,dotcolour,26,2,146,146,main,positivefb,-99,hard,,3.2836652000000868,['n'],1,right,['3'],4,1.400692600000184,36,,17,20,Man,Rechts,1,
,dotcolour,xotask,dotcolour,27,2,147,147,main,positivefb,-99,hard,,8.201802199999747,['n'],1,right,['8'],3,1.2570818000003783,39,,17,20,Man,Rechts,1,
,dotcolour,xotask,dotcolour,28,2,148,148,main,positivefb,-99,easy,,2.317372500000147,['c'],1,left,['2'],5,1.7551695000001928,61,,17,20,Man,Rechts,1,
,dotcolour,xotask,dotcolour,29,2,149,149,main,positivefb,-99,hard,,3.4507377999998425,['c'],1,left,['3'],4,0.4522060999997848,42,,17,20,Man,Rechts,1,
,dotcolour,xotask,dotcolour,30,2,150,150,main,positivefb,-99,average,,4.417098099999748,['c'],1,left,['3'],4,0.3384708000003229,55,,17,20,Man,Rechts,1,
,dotcolour,xotask,dotcolour,31,2,151,151,main,positivefb,-99,hard,,1.951035199999751,['n'],1,right,['3'],4,1.4636437000003752,38,,17,20,Man,Rechts,1,
,dotcolour,xotask,dotcolour,32,2,152,152,main,positivefb,-99,hard,,1.6166664000002129,['n'],0,left,['8'],3,0.6300575999998728,41,,17,20,Man,Rechts,1,
,dotcolour,xotask,dotcolour,33,2,153,153,main,positivefb,-99,easy,,1.4333153000002312,['c'],1,left,['2'],5,0.3724982999997337,63,,17,20,Man,Rechts,1,
,dotcolour,xotask,dotcolour,34,2,154,154,main,positivefb,-99,average,,2.6347740000001068,['c'],1,left,['2'],5,0.716777699999966,55,,17,20,Man,Rechts,1,
,dotcolour,xotask,dotcolour,35,2,155,155,main,positivefb,-99,easy,,1.0517080999998143,['n'],1,right,['1'],6,1.390398400000322,17,,17,20,Man,Rechts,1,
,dotcolour,xotask,dotcolour,36,2,156,156,main,positivefb,-99,average,,5.785316499999681,['n'],0,left,['3'],4,0.3291225999996641,54,,17,20,Man,Rechts,1,
,dotcolour,xotask,dotcolour,37,2,157,157,main,positivefb,-99,hard,,2.551814800000102,['c'],0,right,['3'],4,0.2873197999997501,36,,17,20,Man,Rechts,1,
,dotcolour,xotask,dotcolour,38,2,158,158,main,positivefb,-99,average,,1.53399330000002,['n'],1,right,['2'],5,0.9263904999997976,29,,17,20,Man,Rechts,1,
,dotcolour,xotask,dotcolour,39,2,159,159,main,positivefb,-99,hard,,3.8340579000000616,['c'],1,left,['3'],4,1.8501671000003626,44,,17,20,Man,Rechts,1,
,dotcolour,xotask,dotcolour,40,2,160,160,main,positivefb,-99,easy,,1.551466800000071,['c'],1,left,['2'],5,0.2982603000000381,62,,17,20,Man,Rechts,1,
,dotcolour,xotask,dotcolour,41,2,161,161,main,positivefb,-99,easy,,1.2345728000000236,['c'],1,left,['2'],5,0.30201709999982995,64,,17,20,Man,Rechts,1,
,dotcolour,xotask,dotcolour,42,2,162,162,main,positivefb,-99,hard,,3.050596499999756,['c'],0,right,['3'],4,0.35252170000012484,39,,17,20,Man,Rechts,1,
,dotcolour,xotask,dotcolour,43,2,163,163,main,positivefb,-99,average,,1.5177762000002986,['n'],1,right,['2'],5,0.47833059999993566,28,,17,20,Man,Rechts,1,
,dotcolour,xotask,dotcolour,44,2,164,164,main,positivefb,-99,hard,,2.0673240000000987,['n'],0,left,['3'],4,0.8501523999998426,42,,17,20,Man,Rechts,1,
,dotcolour,xotask,dotcolour,45,2,165,165,main,positivefb,-99,easy,,0.9351808999999776,['n'],1,right,['1'],6,0.258463600000141,15,,17,20,Man,Rechts,1,
,dotcolour,xotask,dotcolour,46,2,166,166,main,positivefb,-99,hard,,2.2510551999998825,['c'],1,left,['2'],5,0.24769990000004327,45,,17,20,Man,Rechts,1,
,dotcolour,xotask,dotcolour,47,2,167,167,main,positivefb,-99,easy,,1.0679356000000553,['n'],1,right,['1'],6,0.2522946999997657,17,,17,20,Man,Rechts,1,
,dotcolour,xotask,dotcolour,48,2,168,168,main,positivefb,-99,easy,,1.651659799999834,['c'],1,left,['1'],6,0.32834520000005796,62,,17,20,Man,Rechts,1,
,dotcolour,xotask,dotcolour,49,2,169,169,main,positivefb,-99,average,,1.6001124999997955,['c'],1,left,['2'],5,0.3173807999996825,53,,17,20,Man,Rechts,1,
,dotcolour,xotask,dotcolour,50,2,170,170,main,positivefb,-99,average,,1.3005693000000065,['n'],1,right,['2'],5,0.30008730000008654,26,,17,20,Man,Rechts,1,
,dotcolour,xotask,dotcolour,51,2,171,171,main,positivefb,-99,easy,,0.9348055000000386,['n'],1,right,['1'],6,0.22004500000002736,19,,17,20,Man,Rechts,1,
,dotcolour,xotask,dotcolour,52,2,172,172,main,positivefb,-99,average,,1.6680378000000928,['n'],1,right,['2'],5,0.20910170000024664,26,,17,20,Man,Rechts,1,
,dotcolour,xotask,dotcolour,53,2,173,173,main,positivefb,-99,easy,,1.0179165999998077,['n'],1,right,['1'],6,0.22477260000005117,16,,17,20,Man,Rechts,1,
,dotcolour,xotask,dotcolour,54,2,174,174,main,positivefb,-99,average,,1.7339945999997326,['n'],1,right,['2'],5,0.13200259999985064,28,,17,20,Man,Rechts,1,
,dotcolour,xotask,dotcolour,55,2,175,175,main,positivefb,-99,hard,,3.5518215000001874,['c'],1,left,['8'],3,1.329323100000238,42,,17,20,Man,Rechts,1,
,dotcolour,xotask,dotcolour,56,2,176,176,main,positivefb,-99,easy,,1.1842979999996714,['n'],1,right,['2'],5,0.2858953999998448,15,,17,20,Man,Rechts,1,
,dotcolour,xotask,dotcolour,57,2,177,177,main,positivefb,-99,average,,1.484619300000304,['n'],1,right,['2'],5,0.7122994000001199,27,,17,20,Man,Rechts,1,
,dotcolour,xotask,dotcolour,58,2,178,178,main,positivefb,-99,hard,,2.484313800000109,['n'],1,right,['3'],4,0.4895248999996511,38,,17,20,Man,Rechts,1,
,dotcolour,xotask,dotcolour,59,2,179,179,main,positivefb,-99,average,,0.9343825999999353,['n'],1,right,['2'],5,0.2497150999997757,25,,17,20,Man,Rechts,1,
,dotcolour,xotask,dotcolour,0,3,180,180,main,positivefb,-99,easy,,0.9518388999999843,['n'],1,right,['2'],5,0.2626188000003822,17,,17,20,Man,Rechts,1,
,dotcolour,xotask,dotcolour,1,3,181,181,main,positivefb,-99,easy,,1.4009394999998221,['c'],1,left,['2'],5,0.2692747999999483,65,,17,20,Man,Rechts,1,
,dotcolour,xotask,dotcolour,2,3,182,182,main,positivefb,-99,hard,,2.2667645999999877,['n'],0,left,['3'],4,0.20075560000032056,43,,17,20,Man,Rechts,1,
,dotcolour,xotask,dotcolour,3,3,183,183,main,positivefb,-99,hard,,3.4176735999999437,['c'],0,right,['3'],4,0.3050740999997288,35,,17,20,Man,Rechts,1,
,dotcolour,xotask,dotcolour,4,3,184,184,main,positivefb,-99,hard,,2.301665999999841,['n'],0,left,['3'],4,0.23329370000010385,44,,17,20,Man,Rechts,1,
,dotcolour,xotask,dotcolour,5,3,185,185,main,positivefb,-99,easy,,1.0012993999998798,['n'],1,right,['2'],5,0.20134360000020024,16,,17,20,Man,Rechts,1,
,dotcolour,xotask,dotcolour,6,3,186,186,main,positivefb,-99,hard,,2.4844414999997753,['c'],1,left,['3'],4,0.29421270000011646,45,,17,20,Man,Rechts,1,
,dotcolour,xotask,dotcolour,7,3,187,187,main,positivefb,-99,easy,,1.1010052000001451,['n'],1,right,['2'],5,0.2152707999998711,16,,17,20,Man,Rechts,1,
,dotcolour,xotask,dotcolour,8,3,188,188,main,positivefb,-99,easy,,0.8338729000001877,['n'],1,right,['2'],5,0.246746499999972,16,,17,20,Man,Rechts,1,
,dotcolour,xotask,dotcolour,9,3,189,189,main,positivefb,-99,average,,0.9344584000000395,['n'],1,right,['2'],5,0.23201739999967685,25,,17,20,Man,Rechts,1,
,dotcolour,xotask,dotcolour,10,3,190,190,main,positivefb,-99,hard,,2.6008316000002196,['c'],0,right,['3'],4,0.23233520000030694,36,,17,20,Man,Rechts,1,
,dotcolour,xotask,dotcolour,11,3,191,191,main,positivefb,-99,average,,2.0184972000001835,['c'],1,left,['3'],4,0.8301088000002892,51,,17,20,Man,Rechts,1,
,dotcolour,xotask,dotcolour,12,3,192,192,main,positivefb,-99,easy,,1.1176441000002342,['n'],1,right,['2'],5,0.24144079999996393,18,,17,20,Man,Rechts,1,
,dotcolour,xotask,dotcolour,13,3,193,193,main,positivefb,-99,hard,,3.0021937000001344,['c'],0,right,['3'],4,0.2728639000001749,36,,17,20,Man,Rechts,1,
,dotcolour,xotask,dotcolour,14,3,194,194,main,positivefb,-99,easy,,1.1671910000000025,['c'],1,left,['2'],5,0.24018290000003617,65,,17,20,Man,Rechts,1,
,dotcolour,xotask,dotcolour,15,3,195,195,main,positivefb,-99,average,,1.984097400000337,['c'],1,left,['2'],5,0.32076820000020234,51,,17,20,Man,Rechts,1,
,dotcolour,xotask,dotcolour,16,3,196,196,main,positivefb,-99,easy,,1.666757299999972,['n'],1,right,['2'],5,0.2419608000000153,19,,17,20,Man,Rechts,1,
,dotcolour,xotask,dotcolour,17,3,197,197,main,positivefb,-99,average,,1.2340445999998337,['n'],1,right,['2'],5,0.27201300000024276,27,,17,20,Man,Rechts,1,
,dotcolour,xotask,dotcolour,18,3,198,198,main,positivefb,-99,average,,1.183902699999635,['n'],1,right,['2'],5,0.21407209999961196,29,,17,20,Man,Rechts,1,
,dotcolour,xotask,dotcolour,19,3,199,199,main,positivefb,-99,easy,,1.2172166000000288,['c'],1,left,['2'],5,0.27811160000010204,65,,17,20,Man,Rechts,1,
,dotcolour,xotask,dotcolour,20,3,200,200,main,positivefb,-99,hard,,2.134347499999876,['c'],0,right,['3'],4,0.28657720000001063,37,,17,20,Man,Rechts,1,
,dotcolour,xotask,dotcolour,21,3,201,201,main,positivefb,-99,hard,,1.635200000000168,['n'],1,right,['3'],4,0.25001290000000154,37,,17,20,Man,Rechts,1,
,dotcolour,xotask,dotcolour,22,3,202,202,main,positivefb,-99,hard,,3.067714299999807,['c'],1,left,['3'],4,0.21420439999974406,41,,17,20,Man,Rechts,1,
,dotcolour,xotask,dotcolour,23,3,203,203,main,positivefb,-99,easy,,1.8343798000000788,['c'],1,left,['1'],6,2.148756200000207,65,,17,20,Man,Rechts,1,
,dotcolour,xotask,dotcolour,24,3,204,204,main,positivefb,-99,easy,,1.501043999999638,['n'],1,right,['1'],6,0.19580859999996392,17,,17,20,Man,Rechts,1,
,dotcolour,xotask,dotcolour,25,3,205,205,main,positivefb,-99,hard,,2.01722749999999,['n'],1,right,['2'],5,0.31635959999994157,38,,17,20,Man,Rechts,1,
,dotcolour,xotask,dotcolour,26,3,206,206,main,positivefb,-99,easy,,0.9841310000001613,['n'],1,right,['2'],5,0.2650214000000233,19,,17,20,Man,Rechts,1,
,dotcolour,xotask,dotcolour,27,3,207,207,main,positivefb,-99,hard,,3.983378999999786,['c'],0,right,['3'],4,0.2640304000001379,38,,17,20,Man,Rechts,1,
,dotcolour,xotask,dotcolour,28,3,208,208,main,positivefb,-99,easy,,0.9182702999996764,['n'],1,right,['2'],5,0.23367490000009639,18,,17,20,Man,Rechts,1,
,dotcolour,xotask,dotcolour,29,3,209,209,main,positivefb,-99,average,,1.683916500000123,['n'],1,right,['2'],5,0.27027459999999337,29,,17,20,Man,Rechts,1,
,dotcolour,xotask,dotcolour,30,3,210,210,main,positivefb,-99,hard,,2.566819300000134,['c'],0,right,['3'],4,0.22899539999980334,39,,17,20,Man,Rechts,1,
,dotcolour,xotask,dotcolour,31,3,211,211,main,positivefb,-99,hard,,3.501547700000174,['n'],0,left,['3'],4,0.25712449999991804,42,,17,20,Man,Rechts,1,
,dotcolour,xotask,dotcolour,32,3,212,212,main,positivefb,-99,easy,,0.9832384999999704,['c'],1,left,['2'],5,0.2251269999997021,61,,17,20,Man,Rechts,1,
,dotcolour,xotask,dotcolour,33,3,213,213,main,positivefb,-99,average,,0.9675893000003271,['n'],1,right,['2'],5,0.2906004000001303,27,,17,20,Man,Rechts,1,
,dotcolour,xotask,dotcolour,34,3,214,214,main,positivefb,-99,average,,2.950691000000006,['c'],1,left,['3'],4,0.29748250000011467,54,,17,20,Man,Rechts,1,
,dotcolour,xotask,dotcolour,35,3,215,215,main,positivefb,-99,average,,1.3172957000001588,['c'],1,left,['3'],4,0.2581022999997913,53,,17,20,Man,Rechts,1,
,dotcolour,xotask,dotcolour,36,3,216,216,main,positivefb,-99,hard,,2.0669075000000703,['n'],0,left,['8'],3,2.5416379999996934,43,,17,20,Man,Rechts,1,
,dotcolour,xotask,dotcolour,37,3,217,217,main,positivefb,-99,average,,1.3167584000002535,['n'],1,right,['2'],5,0.21230270000023665,29,,17,20,Man,Rechts,1,
,dotcolour,xotask,dotcolour,38,3,218,218,main,positivefb,-99,average,,1.15156479999996,['n'],1,right,['2'],5,0.327025500000218,29,,17,20,Man,Rechts,1,
,dotcolour,xotask,dotcolour,39,3,219,219,main,positivefb,-99,hard,,1.7176912999998422,['n'],0,left,['3'],4,0.2623353999997562,42,,17,20,Man,Rechts,1,
,dotcolour,xotask,dotcolour,40,3,220,220,main,positivefb,-99,average,,1.318043399999624,['c'],1,left,['3'],4,0.39241119999996954,52,,17,20,Man,Rechts,1,
,dotcolour,xotask,dotcolour,41,3,221,221,main,positivefb,-99,hard,,1.1839881000000787,['c'],0,right,['3'],4,0.3304591999999502,39,,17,20,Man,Rechts,1,
,dotcolour,xotask,dotcolour,42,3,222,222,main,positivefb,-99,easy,,1.0499762999997984,['c'],1,left,['2'],5,0.24458480000021154,65,,17,20,Man,Rechts,1,
,dotcolour,xotask,dotcolour,43,3,223,223,main,positivefb,-99,hard,,2.3507488999998714,['c'],0,right,['3'],4,0.24597300000004907,39,,17,20,Man,Rechts,1,
,dotcolour,xotask,dotcolour,44,3,224,224,main,positivefb,-99,average,,2.1673993999997947,['c'],1,left,['2'],5,0.21467700000039258,54,,17,20,Man,Rechts,1,
,dotcolour,xotask,dotcolour,45,3,225,225,main,positivefb,-99,average,,1.1686162999999397,['c'],1,left,['2'],5,0.24779520000038247,53,,17,20,Man,Rechts,1,
,dotcolour,xotask,dotcolour,46,3,226,226,main,positivefb,-99,average,,1.801567200000136,['c'],1,left,['2'],5,0.23063580000007278,53,,17,20,Man,Rechts,1,
,dotcolour,xotask,dotcolour,47,3,227,227,main,positivefb,-99,easy,,1.1013082999998005,['c'],1,left,['1'],6,0.2347701000003326,63,,17,20,Man,Rechts,1,
,dotcolour,xotask,dotcolour,48,3,228,228,main,positivefb,-99,easy,,1.5172324000000117,['c'],1,left,['1'],6,0.3007536000000073,62,,17,20,Man,Rechts,1,
,dotcolour,xotask,dotcolour,49,3,229,229,main,positivefb,-99,average,,2.6012642999999116,['n'],1,right,['2'],5,0.2498927999999978,27,,17,20,Man,Rechts,1,
,dotcolour,xotask,dotcolour,50,3,230,230,main,positivefb,-99,hard,,4.200716199999988,['c'],1,left,['3'],4,0.2646687999999813,42,,17,20,Man,Rechts,1,
,dotcolour,xotask,dotcolour,51,3,231,231,main,positivefb,-99,average,,0.8673478000000614,['n'],1,right,['2'],5,0.21959609999976237,25,,17,20,Man,Rechts,1,
,dotcolour,xotask,dotcolour,52,3,232,232,main,positivefb,-99,average,,1.3503788999996686,['c'],1,left,['2'],5,0.24638850000019374,53,,17,20,Man,Rechts,1,
,dotcolour,xotask,dotcolour,53,3,233,233,main,positivefb,-99,hard,,2.5670657000000574,['c'],1,left,['3'],4,1.0313264999999774,45,,17,20,Man,Rechts,1,
,dotcolour,xotask,dotcolour,54,3,234,234,main,positivefb,-99,easy,,1.251546899999994,['n'],1,right,['2'],5,0.2293678999999429,19,,17,20,Man,Rechts,1,
,dotcolour,xotask,dotcolour,55,3,235,235,main,positivefb,-99,average,,1.8000057999997807,['c'],1,left,['2'],5,0.24491459999990184,51,,17,20,Man,Rechts,1,
,dotcolour,xotask,dotcolour,56,3,236,236,main,positivefb,-99,easy,,0.7182661000001644,['c'],1,left,['1'],6,0.22341340000002674,65,,17,20,Man,Rechts,1,
,dotcolour,xotask,dotcolour,57,3,237,237,main,positivefb,-99,hard,,2.3012163000003056,['c'],1,left,['2'],5,0.20334520000005796,42,,17,20,Man,Rechts,1,
,dotcolour,xotask,dotcolour,58,3,238,238,main,positivefb,-99,average,,1.4345908000000236,['n'],1,right,['2'],5,0.30669040000020686,28,,17,20,Man,Rechts,1,
,dotcolour,xotask,dotcolour,59,3,239,239,main,positivefb,-99,easy,,1.833664399999634,['c'],1,left,['1'],6,0.22995229999969524,62,,17,20,Man,Rechts,1,
,dotcolour,xotask,dotcolour,0,4,240,240,main,positivefb,-99,hard,,13.350884100000258,['c'],1,left,['3'],4,1.9028425999999854,41,,17,20,Man,Rechts,1,
,dotcolour,xotask,dotcolour,1,4,241,241,main,positivefb,-99,average,,1.0177330999999867,['c'],1,left,['2'],5,0.2591994999997951,55,,17,20,Man,Rechts,1,
,dotcolour,xotask,dotcolour,2,4,242,242,main,positivefb,-99,hard,,2.2837954000001446,['c'],1,left,['3'],4,0.18223150000039823,41,,17,20,Man,Rechts,1,
,dotcolour,xotask,dotcolour,3,4,243,243,main,positivefb,-99,easy,,0.8012045999998918,['c'],1,left,['2'],5,0.14332899999999427,62,,17,20,Man,Rechts,1,
,dotcolour,xotask,dotcolour,4,4,244,244,main,positivefb,-99,hard,,1.1172290000004068,['n'],1,right,['2'],5,0.26305379999985234,35,,17,20,Man,Rechts,1,
,dotcolour,xotask,dotcolour,5,4,245,245,main,positivefb,-99,average,,1.0170647999998437,['n'],1,right,['2'],5,0.21260849999998754,25,,17,20,Man,Rechts,1,
,dotcolour,xotask,dotcolour,6,4,246,246,main,positivefb,-99,hard,,1.5677163000000292,['n'],0,left,['3'],4,0.4783071000001655,41,,17,20,Man,Rechts,1,
,dotcolour,xotask,dotcolour,7,4,247,247,main,positivefb,-99,easy,,0.9838149000001977,['n'],1,right,['2'],5,0.2446754000002329,17,,17,20,Man,Rechts,1,
,dotcolour,xotask,dotcolour,8,4,248,248,main,positivefb,-99,hard,,5.384736299999986,['n'],1,right,['3'],4,1.7167957999999999,35,,17,20,Man,Rechts,1,
,dotcolour,xotask,dotcolour,9,4,249,249,main,positivefb,-99,hard,,1.6835337000002255,['c'],1,left,['3'],4,0.246125099999972,42,,17,20,Man,Rechts,1,
,dotcolour,xotask,dotcolour,10,4,250,250,main,positivefb,-99,average,,2.48452559999987,['c'],1,left,['2'],5,0.21797830000014073,53,,17,20,Man,Rechts,1,
,dotcolour,xotask,dotcolour,11,4,251,251,main,positivefb,-99,hard,,1.833932399999867,['n'],1,right,['3'],4,0.28904030000012426,38,,17,20,Man,Rechts,1,
,dotcolour,xotask,dotcolour,12,4,252,252,main,positivefb,-99,hard,,0.9346771000000444,['n'],1,right,['3'],4,0.2329819999999927,36,,17,20,Man,Rechts,1,
,dotcolour,xotask,dotcolour,13,4,253,253,main,positivefb,-99,easy,,1.0512450000001081,['c'],1,left,['2'],5,0.2616131999998288,64,,17,20,Man,Rechts,1,
,dotcolour,xotask,dotcolour,14,4,254,254,main,positivefb,-99,average,,2.834084800000255,['c'],1,left,['3'],4,0.21120179999979882,52,,17,20,Man,Rechts,1,
,dotcolour,xotask,dotcolour,15,4,255,255,main,positivefb,-99,easy,,1.3349074000002474,['n'],1,right,['2'],5,0.24648630000001504,18,,17,20,Man,Rechts,1,
,dotcolour,xotask,dotcolour,16,4,256,256,main,positivefb,-99,average,,2.700242899999921,['c'],1,left,['3'],4,1.8500395999999455,54,,17,20,Man,Rechts,1,
,dotcolour,xotask,dotcolour,17,4,257,257,main,positivefb,-99,easy,,2.1348464000002423,['n'],1,right,['2'],5,0.25889539999980116,19,,17,20,Man,Rechts,1,
,dotcolour,xotask,dotcolour,18,4,258,258,main,positivefb,-99,easy,,1.0505897000002733,['c'],1,left,['1'],6,0.2637998999998672,65,,17,20,Man,Rechts,1,
,dotcolour,xotask,dotcolour,19,4,259,259,main,positivefb,-99,average,,3.0999736999997367,['c'],0,right,['3'],4,0.26713680000011664,28,,17,20,Man,Rechts,1,
,dotcolour,xotask,dotcolour,20,4,260,260,main,positivefb,-99,average,,1.5677347000000736,['n'],1,right,['2'],5,0.2343855000003714,25,,17,20,Man,Rechts,1,
,dotcolour,xotask,dotcolour,21,4,261,261,main,positivefb,-99,average,,1.9670000000000982,['c'],1,left,['2'],5,0.24280290000024252,53,,17,20,Man,Rechts,1,
,dotcolour,xotask,dotcolour,22,4,262,262,main,positivefb,-99,easy,,1.0177379000001565,['n'],1,right,['2'],5,0.1851369999999406,18,,17,20,Man,Rechts,1,
,dotcolour,xotask,dotcolour,23,4,263,263,main,positivefb,-99,easy,,0.6999218999999357,['n'],1,right,['2'],5,0.18255629999976009,19,,17,20,Man,Rechts,1,
,dotcolour,xotask,dotcolour,24,4,264,264,main,positivefb,-99,average,,0.8835417000000234,['n'],1,right,['2'],5,0.26917100000036953,27,,17,20,Man,Rechts,1,
,dotcolour,xotask,dotcolour,25,4,265,265,main,positivefb,-99,easy,,0.801324300000033,['n'],1,right,['2'],5,0.33912899999995716,17,,17,20,Man,Rechts,1,
,dotcolour,xotask,dotcolour,26,4,266,266,main,positivefb,-99,hard,,1.8009437999999136,['c'],1,left,['1'],6,0.3110082000002876,45,,17,20,Man,Rechts,1,
,dotcolour,xotask,dotcolour,27,4,267,267,main,positivefb,-99,hard,,5.334771499999988,['n'],0,left,['3'],4,0.22940990000006423,41,,17,20,Man,Rechts,1,
,dotcolour,xotask,dotcolour,28,4,268,268,main,positivefb,-99,average,,1.9664982000003874,['n'],1,right,['3'],4,0.22354430000041248,27,,17,20,Man,Rechts,1,
,dotcolour,xotask,dotcolour,29,4,269,269,main,positivefb,-99,easy,,0.8513640000001033,['c'],1,left,['2'],5,0.2853100000002087,65,,17,20,Man,Rechts,1,
,dotcolour,xotask,dotcolour,30,4,270,270,main,positivefb,-99,hard,,3.634497900000042,['n'],1,right,['3'],4,0.17653299999983574,37,,17,20,Man,Rechts,1,
,dotcolour,xotask,dotcolour,31,4,271,271,main,positivefb,-99,hard,,1.5010115999998561,['c'],1,left,['3'],4,0.27100200000040786,44,,17,20,Man,Rechts,1,
,dotcolour,xotask,dotcolour,32,4,272,272,main,positivefb,-99,hard,,1.5350260000000162,['n'],1,right,['3'],4,0.1994195000002037,36,,17,20,Man,Rechts,1,
,dotcolour,xotask,dotcolour,33,4,273,273,main,positivefb,-99,average,,2.1513348999997106,['c'],1,left,['3'],4,0.47465280000005805,52,,17,20,Man,Rechts,1,
,dotcolour,xotask,dotcolour,34,4,274,274,main,positivefb,-99,easy,,1.251241100000243,['c'],1,left,['2'],5,0.21441950000007637,63,,17,20,Man,Rechts,1,
,dotcolour,xotask,dotcolour,35,4,275,275,main,positivefb,-99,hard,,1.1669907000000421,['n'],1,right,['3'],4,0.2961414000001241,35,,17,20,Man,Rechts,1,
,dotcolour,xotask,dotcolour,36,4,276,276,main,positivefb,-99,hard,,1.4854168000001664,['n'],1,right,['3'],4,0.23361920000024838,38,,17,20,Man,Rechts,1,
,dotcolour,xotask,dotcolour,37,4,277,277,main,positivefb,-99,average,,1.1671031999999286,['n'],1,right,['2'],5,0.2584962999999334,27,,17,20,Man,Rechts,1,
,dotcolour,xotask,dotcolour,38,4,278,278,main,positivefb,-99,average,,1.6353724000000511,['c'],1,left,['2'],5,0.2397041999997782,54,,17,20,Man,Rechts,1,
,dotcolour,xotask,dotcolour,39,4,279,279,main,positivefb,-99,average,,1.8177034000000276,['c'],1,left,['2'],5,2.191131100000348,51,,17,20,Man,Rechts,1,
,dotcolour,xotask,dotcolour,40,4,280,280,main,positivefb,-99,easy,,0.8841213000000607,['n'],1,right,['2'],5,0.27656200000001263,17,,17,20,Man,Rechts,1,
,dotcolour,xotask,dotcolour,41,4,281,281,main,positivefb,-99,easy,,0.9004024000000754,['c'],1,left,['2'],5,0.2781665000002249,65,,17,20,Man,Rechts,1,
,dotcolour,xotask,dotcolour,42,4,282,282,main,positivefb,-99,easy,,1.217360799999824,['c'],1,left,['1'],6,0.21228199999995923,62,,17,20,Man,Rechts,1,
,dotcolour,xotask,dotcolour,43,4,283,283,main,positivefb,-99,hard,,2.8006311000003734,['c'],1,left,['3'],4,0.2846582000001945,42,,17,20,Man,Rechts,1,
,dotcolour,xotask,dotcolour,44,4,284,284,main,positivefb,-99,hard,,1.5182471000002806,['c'],1,left,['2'],5,0.22125370000003386,43,,17,20,Man,Rechts,1,
,dotcolour,xotask,dotcolour,45,4,285,285,main,positivefb,-99,easy,,1.1669068000001062,['n'],1,right,['2'],5,0.24687859999994544,19,,17,20,Man,Rechts,1,
,dotcolour,xotask,dotcolour,46,4,286,286,main,positivefb,-99,easy,,1.3509370000001582,['c'],1,left,['2'],5,0.24003079999965848,61,,17,20,Man,Rechts,1,
,dotcolour,xotask,dotcolour,47,4,287,287,main,positivefb,-99,hard,,2.418005500000163,['c'],1,left,['3'],4,0.2709979999999632,41,,17,20,Man,Rechts,1,
,dotcolour,xotask,dotcolour,48,4,288,288,main,positivefb,-99,hard,,2.734817800000201,['n'],1,right,['3'],4,0.23149229999989984,35,,17,20,Man,Rechts,1,
,dotcolour,xotask,dotcolour,49,4,289,289,main,positivefb,-99,easy,,1.584592199999861,['c'],1,left,['2'],5,0.175088500000129,61,,17,20,Man,Rechts,1,
,dotcolour,xotask,dotcolour,50,4,290,290,main,positivefb,-99,average,,1.3003339000001688,['c'],1,left,['2'],5,0.23702629999979763,55,,17,20,Man,Rechts,1,
,dotcolour,xotask,dotcolour,51,4,291,291,main,positivefb,-99,easy,,0.8835027000000082,['c'],1,left,['2'],5,0.2417777999999089,62,,17,20,Man,Rechts,1,
,dotcolour,xotask,dotcolour,52,4,292,292,main,positivefb,-99,easy,,0.8503678000001855,['n'],1,right,['2'],5,0.2630170000002181,18,,17,20,Man,Rechts,1,
,dotcolour,xotask,dotcolour,53,4,293,293,main,positivefb,-99,average,,0.9349230999996507,['n'],1,right,['2'],5,0.47205199999962133,29,,17,20,Man,Rechts,1,
,dotcolour,xotask,dotcolour,54,4,294,294,main,positivefb,-99,average,,1.0503297000000202,['n'],1,right,['2'],5,0.2764654000002338,29,,17,20,Man,Rechts,1,
,dotcolour,xotask,dotcolour,55,4,295,295,main,positivefb,-99,average,,1.6015847999997277,['n'],1,right,['3'],4,0.19409670000004553,28,,17,20,Man,Rechts,1,
,dotcolour,xotask,dotcolour,56,4,296,296,main,positivefb,-99,easy,,1.0847693000000618,['n'],1,right,['2'],5,0.28844919999983176,17,,17,20,Man,Rechts,1,
,dotcolour,xotask,dotcolour,57,4,297,297,main,positivefb,-99,average,,1.8343541999997797,['c'],1,left,['2'],5,0.26040740000007645,55,,17,20,Man,Rechts,1,
,dotcolour,xotask,dotcolour,58,4,298,298,main,positivefb,-99,average,,2.400459299999966,['n'],1,right,['3'],4,0.1874580000003334,28,,17,20,Man,Rechts,1,
,dotcolour,xotask,dotcolour,59,4,299,299,main,positivefb,-99,hard,,3.668276700000206,['c'],0,right,['3'],4,0.20150680000006105,35,,17,20,Man,Rechts,1,
,xotask,xotask,dotcolour,0,0,0,300,training,positivefb,46,average,64,2.450404299999718,['c'],1,left,['2'],5,1.3417504999997618,,,17,20,Man,Rechts,1,
,xotask,xotask,dotcolour,1,0,1,301,training,positivefb,70,average,19,1.1840857999995933,['n'],1,right,['2'],5,1.2557357999999113,,,17,20,Man,Rechts,1,
,xotask,xotask,dotcolour,2,0,2,302,training,positivefb,68,hard,25,1.1506513999997878,['n'],1,right,['3'],4,0.6720795999999609,,,17,20,Man,Rechts,1,
,xotask,xotask,dotcolour,3,0,3,303,training,positivefb,92,easy,71,1.1991299999999683,['c'],1,left,['3'],4,0.2691442000000279,,,17,20,Man,Rechts,1,
,xotask,xotask,dotcolour,4,0,4,304,training,positivefb,98,easy,70,0.9002427000000353,['c'],1,left,['2'],5,0.34279659999992873,,,17,20,Man,Rechts,1,
,xotask,xotask,dotcolour,5,0,5,305,training,positivefb,88,easy,5,1.0508764999999585,['n'],1,right,['2'],5,0.2955936000003021,,,17,20,Man,Rechts,1,
,xotask,xotask,dotcolour,6,0,6,306,training,positivefb,90,easy,6,0.9503202000000783,['n'],1,right,['1'],6,0.2058367999998154,,,17,20,Man,Rechts,1,
,xotask,xotask,dotcolour,7,0,7,307,training,positivefb,96,average,18,1.0334822999998323,['n'],1,right,['2'],5,0.2289640000003601,,,17,20,Man,Rechts,1,
,xotask,xotask,dotcolour,8,0,8,308,training,positivefb,97,average,63,0.9993443000003026,['c'],1,left,['3'],4,0.2764932999998564,,,17,20,Man,Rechts,1,
,xotask,xotask,dotcolour,9,0,9,309,training,positivefb,81,hard,51,1.6665063999998893,['n'],0,left,['3'],4,0.22296649999998408,,,17,20,Man,Rechts,1,
,xotask,xotask,dotcolour,10,0,10,310,training,positivefb,88,easy,9,0.9501656000002185,['n'],1,right,['3'],4,0.20819600000004357,,,17,20,Man,Rechts,1,
,xotask,xotask,dotcolour,11,0,11,311,training,positivefb,94,easy,5,0.8005113000003803,['n'],1,right,['2'],5,0.1840476999996099,,,17,20,Man,Rechts,1,
,xotask,xotask,dotcolour,12,0,12,312,training,positivefb,86,hard,25,1.1999178000000938,['n'],1,right,['3'],4,0.20147679999990942,,,17,20,Man,Rechts,1,
,xotask,xotask,dotcolour,13,0,13,313,training,positivefb,96,easy,9,0.8671284000001833,['n'],1,right,['2'],5,0.23019350000004124,,,17,20,Man,Rechts,1,
,xotask,xotask,dotcolour,14,0,14,314,training,positivefb,83,average,63,1.2851814000000559,['c'],1,left,['3'],4,0.22626230000014402,,,17,20,Man,Rechts,1,
,xotask,xotask,dotcolour,15,0,15,315,training,positivefb,52,hard,28,0.8846751999999469,['n'],1,right,['2'],5,0.5189711999996689,,,17,20,Man,Rechts,1,
,xotask,xotask,dotcolour,16,0,16,316,training,positivefb,84,hard,27,1.2498344999999063,['n'],1,right,['3'],4,0.19194019999986267,,,17,20,Man,Rechts,1,
,xotask,xotask,dotcolour,17,0,17,317,training,positivefb,99,easy,6,0.8335301000001891,['n'],1,right,['3'],4,0.23117930000034903,,,17,20,Man,Rechts,1,
,xotask,xotask,dotcolour,18,0,18,318,training,positivefb,97,average,63,1.199918499999967,['c'],1,left,['2'],5,0.269905000000108,,,17,20,Man,Rechts,1,
,xotask,xotask,dotcolour,19,0,19,319,training,positivefb,96,easy,71,1.1670982999999069,['c'],1,left,['2'],5,0.23710769999979675,,,17,20,Man,Rechts,1,
,xotask,xotask,dotcolour,20,0,20,320,training,positivefb,96,average,17,1.1833626000002369,['n'],1,right,['2'],5,0.2514421000000766,,,17,20,Man,Rechts,1,
,xotask,xotask,dotcolour,21,0,21,321,training,positivefb,89,average,62,0.9842108000002554,['c'],1,left,['3'],4,0.20218400000021575,,,17,20,Man,Rechts,1,
,xotask,xotask,dotcolour,22,0,22,322,training,positivefb,73,hard,25,1.8996398999997837,['c'],0,right,['3'],4,0.1674075000000812,,,17,20,Man,Rechts,1,
,xotask,xotask,dotcolour,23,0,23,323,training,positivefb,88,average,60,0.949456100000134,['c'],1,left,['3'],4,0.24245329999985188,,,17,20,Man,Rechts,1,
,xotask,xotask,dotcolour,24,0,24,324,training,positivefb,99,hard,54,0.8339739000002737,['c'],1,left,['2'],5,0.22341770000002725,,,17,20,Man,Rechts,1,
,xotask,xotask,dotcolour,25,0,25,325,training,positivefb,76,hard,51,2.884012399999847,['n'],0,left,['3'],4,0.15584420000004684,,,17,20,Man,Rechts,1,
,xotask,xotask,dotcolour,26,0,26,326,training,positivefb,97,average,63,0.9839787000000797,['c'],1,left,['3'],4,0.2225945000000138,,,17,20,Man,Rechts,1,
,xotask,xotask,dotcolour,27,0,27,327,training,positivefb,91,average,60,0.932988000000023,['c'],1,left,['2'],5,0.19178910000027827,,,17,20,Man,Rechts,1,
,xotask,xotask,dotcolour,28,0,28,328,training,positivefb,71,hard,29,1.0664910999998938,['c'],0,right,['3'],4,0.1896451999996316,,,17,20,Man,Rechts,1,
,xotask,xotask,dotcolour,29,0,29,329,training,positivefb,94,easy,73,1.0666458000000603,['c'],1,left,['2'],5,0.21254429999999047,,,17,20,Man,Rechts,1,
,xotask,xotask,dotcolour,30,0,30,330,training,positivefb,87,hard,51,1.050498300000072,['c'],1,left,['2'],5,0.2018794999999045,,,17,20,Man,Rechts,1,
,xotask,xotask,dotcolour,31,0,31,331,training,positivefb,87,average,19,1.816707000000406,['n'],1,right,['3'],4,0.21788640000022497,,,17,20,Man,Rechts,1,
,xotask,xotask,dotcolour,32,0,32,332,training,positivefb,82,hard,50,2.7852520999999797,['c'],1,left,['3'],4,0.2178820000003725,,,17,20,Man,Rechts,1,
,xotask,xotask,dotcolour,33,0,33,333,training,positivefb,92,average,19,1.2658560999998372,['c'],0,right,['3'],4,0.17406220000020767,,,17,20,Man,Rechts,1,
,xotask,xotask,dotcolour,34,0,34,334,training,positivefb,98,easy,74,0.917384200000015,['c'],1,left,['1'],6,0.2033200000000761,,,17,20,Man,Rechts,1,
,xotask,xotask,dotcolour,35,0,35,335,training,positivefb,90,easy,6,1.0003311999998914,['n'],1,right,['1'],6,0.21065720000024157,,,17,20,Man,Rechts,1,
,xotask,xotask,dotcolour,36,0,36,336,training,positivefb,95,easy,9,1.0837478999997074,['n'],1,right,['2'],5,0.19994090000000142,,,17,20,Man,Rechts,1,
,xotask,xotask,dotcolour,37,0,37,337,training,positivefb,98,easy,72,0.9669688999997561,['c'],1,left,['2'],5,0.23288989999991827,,,17,20,Man,Rechts,1,
,xotask,xotask,dotcolour,38,0,38,338,training,positivefb,98,easy,70,0.8665458000000399,['c'],1,left,['2'],5,0.26101089999974647,,,17,20,Man,Rechts,1,
,xotask,xotask,dotcolour,39,0,39,339,training,positivefb,75,hard,51,1.465851400000247,['c'],1,left,['3'],4,0.2488682000002882,,,17,20,Man,Rechts,1,
,xotask,xotask,dotcolour,40,0,40,340,training,positivefb,93,hard,50,1.0508193000000574,['c'],1,left,['3'],4,0.25987560000021404,,,17,20,Man,Rechts,1,
,xotask,xotask,dotcolour,41,0,41,341,training,positivefb,80,average,62,1.2675337999999101,['c'],1,left,['2'],5,0.23945569999978034,,,17,20,Man,Rechts,1,
,xotask,xotask,dotcolour,42,0,42,342,training,positivefb,99,easy,70,0.8167647000000215,['c'],1,left,['1'],6,0.23005650000004607,,,17,20,Man,Rechts,1,
,xotask,xotask,dotcolour,43,0,43,343,training,positivefb,95,easy,72,0.8838625000003049,['c'],1,left,['1'],6,0.1859785000001466,,,17,20,Man,Rechts,1,
,xotask,xotask,dotcolour,44,0,44,344,training,positivefb,97,easy,8,1.050243799999862,['n'],1,right,['1'],6,0.24053679999997257,,,17,20,Man,Rechts,1,
,xotask,xotask,dotcolour,45,0,45,345,training,positivefb,94,average,18,1.0004767999998876,['n'],1,right,['1'],6,0.2315002000000277,,,17,20,Man,Rechts,1,
,xotask,xotask,dotcolour,46,0,46,346,training,positivefb,74,average,17,1.0846231000000444,['n'],1,right,['2'],5,0.21829729999990377,,,17,20,Man,Rechts,1,
,xotask,xotask,dotcolour,47,0,47,347,training,positivefb,96,average,17,0.9002958000000945,['n'],1,right,['2'],5,0.20556929999975182,,,17,20,Man,Rechts,1,
,xotask,xotask,dotcolour,48,0,48,348,training,positivefb,95,hard,28,1.4333193999996183,['n'],1,right,['3'],4,0.2520668000001933,,,17,20,Man,Rechts,1,
,xotask,xotask,dotcolour,49,0,49,349,training,positivefb,85,hard,27,1.1839994000001752,['n'],1,right,['3'],4,0.26760090000016135,,,17,20,Man,Rechts,1,
,xotask,xotask,dotcolour,50,0,50,350,training,positivefb,95,hard,52,1.3343147999999019,['c'],1,left,['3'],4,0.17160640000020067,,,17,20,Man,Rechts,1,
,xotask,xotask,dotcolour,51,0,51,351,training,positivefb,68,hard,52,17.934349999999995,['n'],0,left,['3'],4,0.22355359999983193,,,17,20,Man,Rechts,1,
,xotask,xotask,dotcolour,52,0,52,352,training,positivefb,82,easy,7,1.000012599999991,['n'],1,right,['2'],5,0.18262259999983144,,,17,20,Man,Rechts,1,
,xotask,xotask,dotcolour,53,0,53,353,training,positivefb,93,average,18,0.9171740000001591,['n'],1,right,['2'],5,0.18654530000003433,,,17,20,Man,Rechts,1,
,xotask,xotask,dotcolour,54,0,54,354,training,positivefb,94,hard,28,1.2504391000002215,['n'],1,right,['3'],4,0.24159580000014103,,,17,20,Man,Rechts,1,
,xotask,xotask,dotcolour,55,0,55,355,training,positivefb,87,average,18,2.4001063999999133,['n'],1,right,['3'],4,0.18417909999971016,,,17,20,Man,Rechts,1,
,xotask,xotask,dotcolour,56,0,56,356,training,positivefb,77,average,63,1.0994908000002397,['c'],1,left,['2'],5,0.2773575000001074,,,17,20,Man,Rechts,1,
,xotask,xotask,dotcolour,57,0,57,357,training,positivefb,86,easy,72,0.7657501999997294,['c'],1,left,['1'],6,0.22838259999980437,,,17,20,Man,Rechts,1,
,xotask,xotask,dotcolour,58,0,58,358,training,positivefb,98,hard,29,0.9844276999997419,['n'],1,right,['2'],5,0.1722116000000824,,,17,20,Man,Rechts,1,
,xotask,xotask,dotcolour,59,0,59,359,training,positivefb,88,hard,50,0.9831757000001744,['n'],0,left,['3'],4,0.19758490000003803,,,17,20,Man,Rechts,1,
,xotask,xotask,dotcolour,0,1,60,360,training,positivefb,79,hard,26,2.4849357000002783,['n'],1,right,['2'],5,0.06289339999966614,,,17,20,Man,Rechts,1,
,xotask,xotask,dotcolour,1,1,61,361,training,positivefb,90,average,62,1.1665800999999192,['c'],1,left,['2'],5,0.5668393000000833,,,17,20,Man,Rechts,1,
,xotask,xotask,dotcolour,2,1,62,362,training,positivefb,65,average,61,2.7167891999997664,['n'],0,left,['3'],4,0.18761650000033114,,,17,20,Man,Rechts,1,
,xotask,xotask,dotcolour,3,1,63,363,training,positivefb,73,hard,53,1.2330038000000059,['c'],1,left,['2'],5,0.4903337000000647,,,17,20,Man,Rechts,1,
,xotask,xotask,dotcolour,4,1,64,364,training,positivefb,93,average,19,0.8506802000001699,['n'],1,right,['2'],5,0.18123200000036377,,,17,20,Man,Rechts,1,
,xotask,xotask,dotcolour,5,1,65,365,training,positivefb,86,hard,50,1.2836199999997007,['n'],0,left,['3'],4,0.08287810000001627,,,17,20,Man,Rechts,1,
,xotask,xotask,dotcolour,6,1,66,366,training,positivefb,83,easy,74,2.183828100000028,['c'],1,left,['2'],5,0.11171990000002552,,,17,20,Man,Rechts,1,
,xotask,xotask,dotcolour,7,1,67,367,training,positivefb,93,average,18,0.9003200000001925,['n'],1,right,['2'],5,0.13577889999987747,,,17,20,Man,Rechts,1,
,xotask,xotask,dotcolour,8,1,68,368,training,positivefb,94,hard,27,1.1507601000002978,['n'],1,right,['2'],5,0.10068009999986316,,,17,20,Man,Rechts,1,
,xotask,xotask,dotcolour,9,1,69,369,training,positivefb,91,hard,50,1.9003202000003512,['c'],1,left,['3'],4,0.14085729999987961,,,17,20,Man,Rechts,1,
,xotask,xotask,dotcolour,10,1,70,370,training,positivefb,96,average,61,1.033956699999635,['c'],1,left,['3'],4,0.11790270000028613,,,17,20,Man,Rechts,1,
,xotask,xotask,dotcolour,11,1,71,371,training,positivefb,87,easy,71,1.1167091000002074,['c'],1,left,['1'],6,0.11640379999971628,,,17,20,Man,Rechts,1,
,xotask,xotask,dotcolour,12,1,72,372,training,positivefb,85,easy,71,1.0008513000002495,['c'],1,left,['1'],6,0.11168369999995775,,,17,20,Man,Rechts,1,
,xotask,xotask,dotcolour,13,1,73,373,training,positivefb,97,average,60,0.7008805000000393,['c'],1,left,['1'],6,0.14353040000014516,,,17,20,Man,Rechts,1,
,xotask,xotask,dotcolour,14,1,74,374,training,positivefb,90,average,18,1.049637900000107,['n'],1,right,['1'],6,0.1368422999998984,,,17,20,Man,Rechts,1,
,xotask,xotask,dotcolour,15,1,75,375,training,positivefb,98,easy,9,0.6994122000000971,['n'],1,right,['1'],6,0.10397729999976946,,,17,20,Man,Rechts,1,
,xotask,xotask,dotcolour,16,1,76,376,training,positivefb,86,average,18,0.9336955999997372,['n'],1,right,['1'],6,0.12599520000003395,,,17,20,Man,Rechts,1,
,xotask,xotask,dotcolour,17,1,77,377,training,positivefb,82,average,17,1.0167763999997987,['n'],1,right,['2'],5,0.14471779999985301,,,17,20,Man,Rechts,1,
,xotask,xotask,dotcolour,18,1,78,378,training,positivefb,90,easy,9,0.8336728999997831,['n'],1,right,['1'],6,0.12225570000009611,,,17,20,Man,Rechts,1,
,xotask,xotask,dotcolour,19,1,79,379,training,positivefb,81,hard,50,1.8496728000000076,['c'],1,left,['2'],5,0.13224469999977373,,,17,20,Man,Rechts,1,
,xotask,xotask,dotcolour,20,1,80,380,training,positivefb,90,hard,54,1.2503545999998096,['c'],1,left,['2'],5,0.1563983000000917,,,17,20,Man,Rechts,1,
,xotask,xotask,dotcolour,21,1,81,381,training,positivefb,89,hard,29,1.1337281000000985,['n'],1,right,['2'],5,0.12051179999980377,,,17,20,Man,Rechts,1,
,xotask,xotask,dotcolour,22,1,82,382,training,positivefb,76,average,15,0.8160822999998345,['n'],1,right,['2'],5,0.13126660000034462,,,17,20,Man,Rechts,1,
,xotask,xotask,dotcolour,23,1,83,383,training,positivefb,85,hard,50,1.6163643999998385,['n'],0,left,['3'],4,0.1493295999998736,,,17,20,Man,Rechts,1,
,xotask,xotask,dotcolour,24,1,84,384,training,positivefb,89,average,16,1.1343286000001171,['n'],1,right,['3'],4,0.11452560000043377,,,17,20,Man,Rechts,1,
,xotask,xotask,dotcolour,25,1,85,385,training,positivefb,91,average,15,1.1335768999997526,['n'],1,right,['2'],5,0.11295149999978094,,,17,20,Man,Rechts,1,
,xotask,xotask,dotcolour,26,1,86,386,training,positivefb,77,easy,9,0.8164966999997887,['n'],1,right,['2'],5,0.10830999999961932,,,17,20,Man,Rechts,1,
,xotask,xotask,dotcolour,27,1,87,387,training,positivefb,98,average,18,0.6164358999999422,['n'],1,right,['1'],6,0.10378119999995761,,,17,20,Man,Rechts,1,
,xotask,xotask,dotcolour,28,1,88,388,training,positivefb,87,easy,71,2.549786199999744,['c'],1,left,['1'],6,0.1820026999998845,,,17,20,Man,Rechts,1,
,xotask,xotask,dotcolour,29,1,89,389,training,positivefb,93,easy,70,1.217250800000329,['c'],1,left,['2'],5,0.1898625999997421,,,17,20,Man,Rechts,1,
,xotask,xotask,dotcolour,30,1,90,390,training,positivefb,88,hard,50,0.767833200000041,['c'],1,left,['2'],5,0.12784819999978936,,,17,20,Man,Rechts,1,
,xotask,xotask,dotcolour,31,1,91,391,training,positivefb,92,easy,8,0.9665654000000359,['n'],1,right,['2'],5,0.21241350000036618,,,17,20,Man,Rechts,1,
,xotask,xotask,dotcolour,32,1,92,392,training,positivefb,96,average,64,0.8018939999997201,['c'],1,left,['1'],6,0.1563919000000169,,,17,20,Man,Rechts,1,
,xotask,xotask,dotcolour,33,1,93,393,training,positivefb,90,average,61,0.8675152000000708,['c'],1,left,['1'],6,0.13942919999999503,,,17,20,Man,Rechts,1,
,xotask,xotask,dotcolour,34,1,94,394,training,positivefb,86,easy,70,0.8837264000003415,['c'],1,left,['1'],6,0.17150760000004084,,,17,20,Man,Rechts,1,
,xotask,xotask,dotcolour,35,1,95,395,training,positivefb,95,easy,6,1.2830438000000868,['n'],1,right,['1'],6,0.13786649999974543,,,17,20,Man,Rechts,1,
,xotask,xotask,dotcolour,36,1,96,396,training,positivefb,88,average,62,1.1171985999999379,['c'],1,left,['1'],6,0.13595200000008845,,,17,20,Man,Rechts,1,
,xotask,xotask,dotcolour,37,1,97,397,training,positivefb,96,easy,5,1.0836982000000717,['n'],1,right,['1'],6,0.11878980000028605,,,17,20,Man,Rechts,1,
,xotask,xotask,dotcolour,38,1,98,398,training,positivefb,94,hard,29,1.034123500000078,['n'],1,right,['2'],5,0.14465169999994032,,,17,20,Man,Rechts,1,
,xotask,xotask,dotcolour,39,1,99,399,training,positivefb,98,easy,9,0.6835319000001618,['n'],1,right,['2'],5,0.1599873000000116,,,17,20,Man,Rechts,1,
,xotask,xotask,dotcolour,40,1,100,400,training,positivefb,93,hard,27,1.449485900000127,['n'],1,right,['3'],4,0.10390360000019427,,,17,20,Man,Rechts,1,
,xotask,xotask,dotcolour,41,1,101,401,training,positivefb,56,hard,53,1.0997575000001234,['n'],0,left,['3'],4,0.15154260000008435,,,17,20,Man,Rechts,1,
,xotask,xotask,dotcolour,42,1,102,402,training,positivefb,86,average,60,2.3665728999999374,['n'],0,left,['3'],4,0.15613269999994372,,,17,20,Man,Rechts,1,
,xotask,xotask,dotcolour,43,1,103,403,training,positivefb,85,hard,52,2.216994700000214,['c'],1,left,['3'],4,0.1413287999998829,,,17,20,Man,Rechts,1,
,xotask,xotask,dotcolour,44,1,104,404,training,positivefb,90,hard,29,1.9671471999999994,['n'],1,right,['3'],4,0.1289886999998089,,,17,20,Man,Rechts,1,
,xotask,xotask,dotcolour,45,1,105,405,training,positivefb,96,hard,27,0.8842792999998892,['n'],1,right,['3'],4,0.16139620000012656,,,17,20,Man,Rechts,1,
,xotask,xotask,dotcolour,46,1,106,406,training,positivefb,92,hard,29,1.467497099999946,['c'],0,right,['3'],4,0.08067699999992328,,,17,20,Man,Rechts,1,
,xotask,xotask,dotcolour,47,1,107,407,training,positivefb,83,hard,29,1.2332942999996703,['n'],1,right,['3'],4,0.17286479999984294,,,17,20,Man,Rechts,1,
,xotask,xotask,dotcolour,48,1,108,408,training,positivefb,75,average,60,1.2842499000003045,['c'],1,left,['2'],5,0.1388016000000789,,,17,20,Man,Rechts,1,
,xotask,xotask,dotcolour,49,1,109,409,training,positivefb,91,easy,70,0.8838368000001537,['c'],1,left,['2'],5,0.14622289999988425,,,17,20,Man,Rechts,1,
,xotask,xotask,dotcolour,50,1,110,410,training,positivefb,90,average,62,0.9169603999998799,['c'],1,left,['2'],5,0.15155849999973725,,,17,20,Man,Rechts,1,
,xotask,xotask,dotcolour,51,1,111,411,training,positivefb,88,average,16,1.3671681000000717,['n'],1,right,['2'],5,0.1396258000004309,,,17,20,Man,Rechts,1,
,xotask,xotask,dotcolour,52,1,112,412,training,positivefb,87,hard,52,1.2830920000001242,['c'],1,left,['2'],5,0.12294240000028367,,,17,20,Man,Rechts,1,
,xotask,xotask,dotcolour,53,1,113,413,training,positivefb,93,easy,71,1.0668162000001757,['c'],1,left,['2'],5,0.12364439999964816,,,17,20,Man,Rechts,1,
,xotask,xotask,dotcolour,54,1,114,414,training,positivefb,95,easy,9,1.0674941999996008,['n'],1,right,['2'],5,0.1560181999998349,,,17,20,Man,Rechts,1,
,xotask,xotask,dotcolour,55,1,115,415,training,positivefb,93,easy,71,0.8009166000001642,['c'],1,left,['1'],6,0.16592290000016874,,,17,20,Man,Rechts,1,
,xotask,xotask,dotcolour,56,1,116,416,training,positivefb,92,hard,28,0.8500499000001582,['c'],0,right,['2'],5,0.18115369999986797,,,17,20,Man,Rechts,1,
,xotask,xotask,dotcolour,57,1,117,417,training,positivefb,95,easy,70,1.0168718999998418,['c'],1,left,['1'],6,0.18919580000010683,,,17,20,Man,Rechts,1,
,xotask,xotask,dotcolour,58,1,118,418,training,positivefb,85,easy,5,1.8347478999999112,['n'],1,right,['1'],6,0.11647599999969316,,,17,20,Man,Rechts,1,
,xotask,xotask,dotcolour,59,1,119,419,training,positivefb,92,easy,6,1.634255899999971,['n'],1,right,['1'],6,0.13405039999997825,,,17,20,Man,Rechts,1,
,xotask,xotask,dotcolour,0,2,120,420,main,positivefb,-99,easy,8,1.0173321999996006,['n'],1,right,['1'],6,0.17783820000022388,,,17,20,Man,Rechts,1,
,xotask,xotask,dotcolour,1,2,121,421,main,positivefb,-99,average,61,0.9507806999999957,['c'],1,left,['1'],6,0.1503181999996741,,,17,20,Man,Rechts,1,
,xotask,xotask,dotcolour,2,2,122,422,main,positivefb,-99,hard,26,1.0675107999995816,['n'],1,right,['2'],5,0.1500092000001132,,,17,20,Man,Rechts,1,
,xotask,xotask,dotcolour,3,2,123,423,main,positivefb,-99,average,61,1.1349129000000175,['c'],1,left,['2'],5,0.1476737999996658,,,17,20,Man,Rechts,1,
,xotask,xotask,dotcolour,4,2,124,424,main,positivefb,-99,average,15,1.0839179999998123,['n'],1,right,['2'],5,0.17967410000028394,,,17,20,Man,Rechts,1,
,xotask,xotask,dotcolour,5,2,125,425,main,positivefb,-99,average,60,1.5665131999999176,['c'],1,left,['2'],5,0.2070079000000078,,,17,20,Man,Rechts,1,
,xotask,xotask,dotcolour,6,2,126,426,main,positivefb,-99,hard,26,1.2179959999998573,['n'],1,right,['3'],4,0.15877110000019456,,,17,20,Man,Rechts,1,
,xotask,xotask,dotcolour,7,2,127,427,main,positivefb,-99,hard,54,1.0017514999999548,['c'],1,left,['2'],5,0.22546439999996437,,,17,20,Man,Rechts,1,
,xotask,xotask,dotcolour,8,2,128,428,main,positivefb,-99,average,19,1.0001781000000847,['n'],1,right,['3'],4,0.20956370000021707,,,17,20,Man,Rechts,1,
,xotask,xotask,dotcolour,9,2,129,429,main,positivefb,-99,easy,73,0.9848716999999851,['c'],1,left,['2'],5,0.28243600000041624,,,17,20,Man,Rechts,1,
,xotask,xotask,dotcolour,10,2,130,430,main,positivefb,-99,average,18,0.9340071000001444,['n'],1,right,['1'],6,0.21061150000014095,,,17,20,Man,Rechts,1,
,xotask,xotask,dotcolour,11,2,131,431,main,positivefb,-99,hard,26,0.8673656000000847,['n'],1,right,['2'],5,0.13662139999996725,,,17,20,Man,Rechts,1,
,xotask,xotask,dotcolour,12,2,132,432,main,positivefb,-99,hard,52,1.651074299999891,['c'],1,left,['3'],4,0.10608109999975568,,,17,20,Man,Rechts,1,
,xotask,xotask,dotcolour,13,2,133,433,main,positivefb,-99,hard,53,0.832914499999788,['c'],1,left,['2'],5,0.2539027999996506,,,17,20,Man,Rechts,1,
,xotask,xotask,dotcolour,14,2,134,434,main,positivefb,-99,average,19,0.9830759000001308,['n'],1,right,['2'],5,0.2294198999998116,,,17,20,Man,Rechts,1,
,xotask,xotask,dotcolour,15,2,135,435,main,positivefb,-99,easy,71,1.0836152999995647,['c'],1,left,['2'],5,0.17813509999996313,,,17,20,Man,Rechts,1,
,xotask,xotask,dotcolour,16,2,136,436,main,positivefb,-99,easy,71,1.085219799999777,['c'],1,left,['2'],5,0.2645129000002271,,,17,20,Man,Rechts,1,
,xotask,xotask,dotcolour,17,2,137,437,main,positivefb,-99,hard,52,1.268358100000114,['c'],1,left,['3'],4,0.22855410000011034,,,17,20,Man,Rechts,1,
,xotask,xotask,dotcolour,18,2,138,438,main,positivefb,-99,average,16,0.9341678999999203,['n'],1,right,['2'],5,0.2307596000000558,,,17,20,Man,Rechts,1,
,xotask,xotask,dotcolour,19,2,139,439,main,positivefb,-99,hard,28,0.9014970000002904,['n'],1,right,['2'],5,0.2512664999999288,,,17,20,Man,Rechts,1,
,xotask,xotask,dotcolour,20,2,140,440,main,positivefb,-99,easy,72,1.2343124000003627,['c'],1,left,['2'],5,0.22469460000002073,,,17,20,Man,Rechts,1,
,xotask,xotask,dotcolour,21,2,141,441,main,positivefb,-99,hard,28,2.6661112000001594,['c'],0,right,['3'],4,0.42129879999993136,,,17,20,Man,Rechts,1,
,xotask,xotask,dotcolour,22,2,142,442,main,positivefb,-99,average,61,0.9679313999999977,['c'],1,left,['3'],4,0.286924099999851,,,17,20,Man,Rechts,1,
,xotask,xotask,dotcolour,23,2,143,443,main,positivefb,-99,average,19,0.9018827999998393,['n'],1,right,['3'],4,0.2244857000000593,,,17,20,Man,Rechts,1,
,xotask,xotask,dotcolour,24,2,144,444,main,positivefb,-99,hard,27,1.5514321999999083,['n'],1,right,['3'],4,1.8188147999999273,,,17,20,Man,Rechts,1,
,xotask,xotask,dotcolour,25,2,145,445,main,positivefb,-99,hard,25,1.2350129000001289,['n'],1,right,['2'],5,0.2328603999999359,,,17,20,Man,Rechts,1,
,xotask,xotask,dotcolour,26,2,146,446,main,positivefb,-99,easy,73,0.900580699999864,['c'],1,left,['2'],5,0.19612559999995938,,,17,20,Man,Rechts,1,
,xotask,xotask,dotcolour,27,2,147,447,main,positivefb,-99,hard,52,0.9004319000000578,['c'],1,left,['2'],5,0.19344989999990503,,,17,20,Man,Rechts,1,
,xotask,xotask,dotcolour,28,2,148,448,main,positivefb,-99,easy,72,1.5187221000001045,['c'],1,left,['2'],5,0.20676909999974669,,,17,20,Man,Rechts,1,
,xotask,xotask,dotcolour,29,2,149,449,main,positivefb,-99,hard,50,5.567704199999753,['c'],1,left,['3'],4,0.1610193999999865,,,17,20,Man,Rechts,1,
,xotask,xotask,dotcolour,30,2,150,450,main,positivefb,-99,easy,6,0.9181266999999025,['n'],1,right,['2'],5,0.29423250000036205,,,17,20,Man,Rechts,1,
,xotask,xotask,dotcolour,31,2,151,451,main,positivefb,-99,average,63,1.7185355999999956,['c'],1,left,['3'],4,0.18365079999966838,,,17,20,Man,Rechts,1,
,xotask,xotask,dotcolour,32,2,152,452,main,positivefb,-99,easy,7,0.9678394000002299,['n'],1,right,['2'],5,0.1542352999999821,,,17,20,Man,Rechts,1,
,xotask,xotask,dotcolour,33,2,153,453,main,positivefb,-99,average,61,1.833507499999996,['c'],1,left,['3'],4,0.14685190000000148,,,17,20,Man,Rechts,1,
,xotask,xotask,dotcolour,34,2,154,454,main,positivefb,-99,easy,6,1.3506962000001295,['n'],1,right,['2'],5,0.2730787999998938,,,17,20,Man,Rechts,1,
,xotask,xotask,dotcolour,35,2,155,455,main,positivefb,-99,average,19,0.8342013999999836,['n'],1,right,['3'],4,0.17349160000003394,,,17,20,Man,Rechts,1,
,xotask,xotask,dotcolour,36,2,156,456,main,positivefb,-99,hard,27,0.6842830000000504,['n'],1,right,['3'],4,0.3480841999999029,,,17,20,Man,Rechts,1,
,xotask,xotask,dotcolour,37,2,157,457,main,positivefb,-99,average,61,3.3008561999999984,['c'],1,left,['3'],4,0.24285850000023856,,,17,20,Man,Rechts,1,
,xotask,xotask,dotcolour,38,2,158,458,main,positivefb,-99,easy,73,1.0846698000000288,['c'],1,left,['2'],5,0.2709006000000045,,,17,20,Man,Rechts,1,
,xotask,xotask,dotcolour,39,2,159,459,main,positivefb,-99,average,64,0.9842595000000074,['c'],1,left,['2'],5,0.26978939999980867,,,17,20,Man,Rechts,1,
,xotask,xotask,dotcolour,40,2,160,460,main,positivefb,-99,hard,51,0.7673156999999264,['c'],1,left,['2'],5,0.2686223999999129,,,17,20,Man,Rechts,1,
,xotask,xotask,dotcolour,41,2,161,461,main,positivefb,-99,hard,26,1.3004516000000876,['n'],1,right,['3'],4,0.24670860000014727,,,17,20,Man,Rechts,1,
,xotask,xotask,dotcolour,42,2,162,462,main,positivefb,-99,average,64,1.0013278000001264,['c'],1,left,['2'],5,0.28596980000020267,,,17,20,Man,Rechts,1,
,xotask,xotask,dotcolour,43,2,163,463,main,positivefb,-99,hard,29,1.0841166999998677,['c'],0,right,['8'],3,1.472052900000108,,,17,20,Man,Rechts,1,
,xotask,xotask,dotcolour,44,2,164,464,main,positivefb,-99,easy,70,2.0996006999998826,['c'],1,left,['2'],5,0.25034620000042196,,,17,20,Man,Rechts,1,
,xotask,xotask,dotcolour,45,2,165,465,main,positivefb,-99,hard,51,1.0667034000002786,['c'],1,left,['3'],4,0.2698587000004409,,,17,20,Man,Rechts,1,
,xotask,xotask,dotcolour,46,2,166,466,main,positivefb,-99,easy,74,1.0502591000004031,['c'],1,left,['2'],5,0.18642210000007253,,,17,20,Man,Rechts,1,
,xotask,xotask,dotcolour,47,2,167,467,main,positivefb,-99,easy,71,0.9341592000000674,['c'],1,left,['2'],5,0.35800349999999526,,,17,20,Man,Rechts,1,
,xotask,xotask,dotcolour,48,2,168,468,main,positivefb,-99,easy,9,1.3843842000001132,['n'],1,right,['2'],5,0.21757109999998647,,,17,20,Man,Rechts,1,
,xotask,xotask,dotcolour,49,2,169,469,main,positivefb,-99,average,18,1.9843094000002566,['c'],0,right,['3'],4,0.25021769999966637,,,17,20,Man,Rechts,1,
,xotask,xotask,dotcolour,50,2,170,470,main,positivefb,-99,easy,6,1.1513860999998542,['n'],1,right,['2'],5,0.17912380000007033,,,17,20,Man,Rechts,1,
,xotask,xotask,dotcolour,51,2,171,471,main,positivefb,-99,average,16,0.883718300000055,['n'],1,right,['1'],6,0.21787339999991673,,,17,20,Man,Rechts,1,
,xotask,xotask,dotcolour,52,2,172,472,main,positivefb,-99,hard,51,1.3511619999999311,['c'],1,left,['1'],6,0.24416969999992943,,,17,20,Man,Rechts,1,
,xotask,xotask,dotcolour,53,2,173,473,main,positivefb,-99,easy,5,1.3182092999995803,['n'],1,right,['1'],6,0.19812210000009145,,,17,20,Man,Rechts,1,
,xotask,xotask,dotcolour,54,2,174,474,main,positivefb,-99,easy,5,1.3502135999997336,['n'],1,right,['1'],6,0.18535209999981817,,,17,20,Man,Rechts,1,
,xotask,xotask,dotcolour,55,2,175,475,main,positivefb,-99,average,16,0.7838081999998394,['n'],1,right,['2'],5,0.1947293999996873,,,17,20,Man,Rechts,1,
,xotask,xotask,dotcolour,56,2,176,476,main,positivefb,-99,hard,53,1.1175263999998606,['c'],1,left,['2'],5,0.20818499999995765,,,17,20,Man,Rechts,1,
,xotask,xotask,dotcolour,57,2,177,477,main,positivefb,-99,easy,6,0.9345619999999144,['n'],1,right,['2'],5,0.16283350000003338,,,17,20,Man,Rechts,1,
,xotask,xotask,dotcolour,58,2,178,478,main,positivefb,-99,easy,9,0.8503412999998545,['n'],1,right,['1'],6,0.14013169999998354,,,17,20,Man,Rechts,1,
,xotask,xotask,dotcolour,59,2,179,479,main,positivefb,-99,average,64,1.2174297000001388,['c'],1,left,['2'],5,0.15813849999995,,,17,20,Man,Rechts,1,
,xotask,xotask,dotcolour,0,3,180,480,main,positivefb,-99,average,15,1.1008708999997907,['n'],1,right,['2'],5,0.21222080000006827,,,17,20,Man,Rechts,1,
,xotask,xotask,dotcolour,1,3,181,481,main,positivefb,-99,easy,70,0.8515790000001289,['c'],1,left,['2'],5,0.195448800000122,,,17,20,Man,Rechts,1,
,xotask,xotask,dotcolour,2,3,182,482,main,positivefb,-99,easy,6,0.8841655000001083,['n'],1,right,['2'],5,0.20970320000014908,,,17,20,Man,Rechts,1,
,xotask,xotask,dotcolour,3,3,183,483,main,positivefb,-99,hard,27,1.4177359000000251,['n'],1,right,['2'],5,0.15339270000004035,,,17,20,Man,Rechts,1,
,xotask,xotask,dotcolour,4,3,184,484,main,positivefb,-99,hard,53,2.9342779000003247,['n'],0,left,['3'],4,0.15895940000018527,,,17,20,Man,Rechts,1,
,xotask,xotask,dotcolour,5,3,185,485,main,positivefb,-99,average,19,0.8666560000001482,['n'],1,right,['3'],4,0.12627459999976054,,,17,20,Man,Rechts,1,
,xotask,xotask,dotcolour,6,3,186,486,main,positivefb,-99,hard,27,1.3341182000003755,['n'],1,right,['3'],4,0.20510579999972833,,,17,20,Man,Rechts,1,
,xotask,xotask,dotcolour,7,3,187,487,main,positivefb,-99,hard,52,1.4176188000001275,['c'],1,left,['3'],4,0.4213862000001427,,,17,20,Man,Rechts,1,
,xotask,xotask,dotcolour,8,3,188,488,main,positivefb,-99,easy,8,1.2342524999999114,['n'],1,right,['2'],5,0.1561389999997118,,,17,20,Man,Rechts,1,
,xotask,xotask,dotcolour,9,3,189,489,main,positivefb,-99,average,63,1.3520156999998107,['c'],1,left,['1'],6,0.16014319999976578,,,17,20,Man,Rechts,1,
,xotask,xotask,dotcolour,10,3,190,490,main,positivefb,-99,average,61,0.9172195000001011,['c'],1,left,['2'],5,0.15123980000043957,,,17,20,Man,Rechts,1,
,xotask,xotask,dotcolour,11,3,191,491,main,positivefb,-99,easy,7,0.9843876999998429,['n'],1,right,['1'],6,0.13053590000026816,,,17,20,Man,Rechts,1,
,xotask,xotask,dotcolour,12,3,192,492,main,positivefb,-99,hard,26,1.317845000000034,['n'],1,right,['2'],5,0.14602599999989252,,,17,20,Man,Rechts,1,
,xotask,xotask,dotcolour,13,3,193,493,main,positivefb,-99,hard,26,0.9181193999997959,['n'],1,right,['2'],5,0.14402120000022478,,,17,20,Man,Rechts,1,
,xotask,xotask,dotcolour,14,3,194,494,main,positivefb,-99,average,60,1.20069199999989,['c'],1,left,['2'],5,0.2432547000003069,,,17,20,Man,Rechts,1,
,xotask,xotask,dotcolour,15,3,195,495,main,positivefb,-99,average,17,0.9179669000000104,['n'],1,right,['2'],5,0.1584026000000449,,,17,20,Man,Rechts,1,
,xotask,xotask,dotcolour,16,3,196,496,main,positivefb,-99,easy,73,0.8668135999996593,['c'],1,left,['2'],5,0.48552980000022217,,,17,20,Man,Rechts,1,
,xotask,xotask,dotcolour,17,3,197,497,main,positivefb,-99,easy,70,1.1339170000001104,['c'],1,left,['1'],6,0.1743018000001939,,,17,20,Man,Rechts,1,
,xotask,xotask,dotcolour,18,3,198,498,main,positivefb,-99,average,61,1.1517496000001302,['c'],1,left,['1'],6,0.1941169000001537,,,17,20,Man,Rechts,1,
,xotask,xotask,dotcolour,19,3,199,499,main,positivefb,-99,easy,70,1.101934099999653,['c'],1,left,['2'],5,0.15929049999976996,,,17,20,Man,Rechts,1,
,xotask,xotask,dotcolour,20,3,200,500,main,positivefb,-99,average,60,1.1183915000001434,['c'],1,left,['2'],5,0.25380859999995664,,,17,20,Man,Rechts,1,
,xotask,xotask,dotcolour,21,3,201,501,main,positivefb,-99,hard,26,0.8005080999996608,['c'],0,right,['3'],4,0.20460980000007112,,,17,20,Man,Rechts,1,
,xotask,xotask,dotcolour,22,3,202,502,main,positivefb,-99,average,17,3.067812000000231,['n'],1,right,['8'],3,0.33044509999990623,,,17,20,Man,Rechts,1,
,xotask,xotask,dotcolour,23,3,203,503,main,positivefb,-99,average,17,1.0679971999998088,['c'],0,right,['9'],2,1.699948399999812,,,17,20,Man,Rechts,1,
,xotask,xotask,dotcolour,24,3,204,504,main,positivefb,-99,easy,8,1.4837403999999879,['n'],1,right,['2'],5,0.2772737000000234,,,17,20,Man,Rechts,1,
,xotask,xotask,dotcolour,25,3,205,505,main,positivefb,-99,easy,9,1.067425700000058,['n'],1,right,['2'],5,0.3283486999998786,,,17,20,Man,Rechts,1,
,xotask,xotask,dotcolour,26,3,206,506,main,positivefb,-99,easy,5,0.850403500000084,['n'],1,right,['2'],5,0.2425025999996251,,,17,20,Man,Rechts,1,
,xotask,xotask,dotcolour,27,3,207,507,main,positivefb,-99,easy,7,0.851338499999656,['n'],1,right,['2'],5,0.23124989999996615,,,17,20,Man,Rechts,1,
,xotask,xotask,dotcolour,28,3,208,508,main,positivefb,-99,easy,73,0.9010635000004186,['c'],1,left,['2'],5,0.22679789999983768,,,17,20,Man,Rechts,1,
,xotask,xotask,dotcolour,29,3,209,509,main,positivefb,-99,average,19,0.9005443000000923,['n'],1,right,['2'],5,0.3033986000000368,,,17,20,Man,Rechts,1,
,xotask,xotask,dotcolour,30,3,210,510,main,positivefb,-99,easy,9,0.6510365999997703,['n'],1,right,['2'],5,0.257480399999622,,,17,20,Man,Rechts,1,
,xotask,xotask,dotcolour,31,3,211,511,main,positivefb,-99,hard,28,1.3849702000002253,['n'],1,right,['2'],5,0.289078199999949,,,17,20,Man,Rechts,1,
,xotask,xotask,dotcolour,32,3,212,512,main,positivefb,-99,hard,50,1.5175255999997717,['c'],1,left,['2'],5,0.23401400000011563,,,17,20,Man,Rechts,1,
,xotask,xotask,dotcolour,33,3,213,513,main,positivefb,-99,hard,27,1.1506152000001748,['n'],1,right,['3'],4,0.25941389999979947,,,17,20,Man,Rechts,1,
,xotask,xotask,dotcolour,34,3,214,514,main,positivefb,-99,hard,53,1.199356500000249,['c'],1,left,['3'],4,0.23402189999978873,,,17,20,Man,Rechts,1,
,xotask,xotask,dotcolour,35,3,215,515,main,positivefb,-99,average,19,1.2176781000002848,['n'],1,right,['3'],4,0.2724945999998454,,,17,20,Man,Rechts,1,
,xotask,xotask,dotcolour,36,3,216,516,main,positivefb,-99,hard,27,1.901884500000051,['c'],0,right,['3'],4,0.19414689999985058,,,17,20,Man,Rechts,1,
,xotask,xotask,dotcolour,37,3,217,517,main,positivefb,-99,easy,8,1.050793800000065,['n'],1,right,['2'],5,0.298244899999645,,,17,20,Man,Rechts,1,
,xotask,xotask,dotcolour,38,3,218,518,main,positivefb,-99,hard,26,1.1166556999996828,['n'],1,right,['2'],5,0.17802990000018326,,,17,20,Man,Rechts,1,
,xotask,xotask,dotcolour,39,3,219,519,main,positivefb,-99,hard,25,1.3010086000003867,['n'],1,right,['2'],5,0.30432429999973465,,,17,20,Man,Rechts,1,
,xotask,xotask,dotcolour,40,3,220,520,main,positivefb,-99,easy,6,1.216925000000174,['n'],1,right,['2'],5,0.26008169999977326,,,17,20,Man,Rechts,1,
,xotask,xotask,dotcolour,41,3,221,521,main,positivefb,-99,hard,50,1.315439100000276,['c'],1,left,['3'],4,0.2295340999999098,,,17,20,Man,Rechts,1,
,xotask,xotask,dotcolour,42,3,222,522,main,positivefb,-99,hard,54,1.334704999999758,['c'],1,left,['2'],5,0.240765200000169,,,17,20,Man,Rechts,1,
,xotask,xotask,dotcolour,43,3,223,523,main,positivefb,-99,easy,73,1.0343143000000055,['c'],1,left,['2'],5,0.27043189999994866,,,17,20,Man,Rechts,1,
,xotask,xotask,dotcolour,44,3,224,524,main,positivefb,-99,average,15,1.1673892999997406,['n'],1,right,['3'],4,0.24644160000025295,,,17,20,Man,Rechts,1,
,xotask,xotask,dotcolour,45,3,225,525,main,positivefb,-99,average,61,0.9843328000001748,['n'],0,left,['3'],4,0.21459200000026613,,,17,20,Man,Rechts,1,
,xotask,xotask,dotcolour,46,3,226,526,main,positivefb,-99,average,60,0.868302599999879,['c'],1,left,['2'],5,0.49930730000005497,,,17,20,Man,Rechts,1,
,xotask,xotask,dotcolour,47,3,227,527,main,positivefb,-99,easy,73,0.8839072999999189,['c'],1,left,['2'],5,0.29336689999990995,,,17,20,Man,Rechts,1,
,xotask,xotask,dotcolour,48,3,228,528,main,positivefb,-99,easy,72,0.918248300000414,['c'],1,left,['2'],5,0.3096632000001591,,,17,20,Man,Rechts,1,
,xotask,xotask,dotcolour,49,3,229,529,main,positivefb,-99,easy,74,0.7844942000001538,['c'],1,left,['2'],5,0.27529779999986204,,,17,20,Man,Rechts,1,
,xotask,xotask,dotcolour,50,3,230,530,main,positivefb,-99,easy,71,0.7673186000001806,['c'],1,left,['1'],6,0.24976449999985562,,,17,20,Man,Rechts,1,
,xotask,xotask,dotcolour,51,3,231,531,main,positivefb,-99,average,17,5.251257700000224,['c'],0,right,['3'],4,0.2150366999999278,,,17,20,Man,Rechts,1,
,xotask,xotask,dotcolour,52,3,232,532,main,positivefb,-99,hard,53,1.6174710999998752,['c'],1,left,['3'],4,0.14189470000019355,,,17,20,Man,Rechts,1,
,xotask,xotask,dotcolour,53,3,233,533,main,positivefb,-99,average,64,1.000633199999811,['c'],1,left,['2'],5,0.361094200000025,,,17,20,Man,Rechts,1,
,xotask,xotask,dotcolour,54,3,234,534,main,positivefb,-99,hard,50,1.3500856999999087,['c'],1,left,['2'],5,0.31838939999988725,,,17,20,Man,Rechts,1,
,xotask,xotask,dotcolour,55,3,235,535,main,positivefb,-99,average,15,0.9839112999998179,['n'],1,right,['2'],5,0.25037650000012945,,,17,20,Man,Rechts,1,
,xotask,xotask,dotcolour,56,3,236,536,main,positivefb,-99,average,63,1.5011478000001262,['c'],1,left,['3'],4,0.28560779999997976,,,17,20,Man,Rechts,1,
,xotask,xotask,dotcolour,57,3,237,537,main,positivefb,-99,hard,50,1.1506976999999097,['c'],1,left,['3'],4,0.19696320000002743,,,17,20,Man,Rechts,1,
,xotask,xotask,dotcolour,58,3,238,538,main,positivefb,-99,average,64,0.7847687999997106,['c'],1,left,['3'],4,0.1993475999997827,,,17,20,Man,Rechts,1,
,xotask,xotask,dotcolour,59,3,239,539,main,positivefb,-99,hard,54,2.2511561999999685,['c'],1,left,['3'],4,0.2292077000001882,,,17,20,Man,Rechts,1,
,xotask,xotask,dotcolour,0,4,240,540,main,positivefb,-99,hard,28,1.8671497999998792,['c'],0,right,['3'],4,0.2070971000002828,,,17,20,Man,Rechts,1,
,xotask,xotask,dotcolour,1,4,241,541,main,positivefb,-99,hard,54,0.8352069000002302,['c'],1,left,['3'],4,0.20639780000010433,,,17,20,Man,Rechts,1,
,xotask,xotask,dotcolour,2,4,242,542,main,positivefb,-99,hard,29,3.4005188000001,['n'],1,right,['3'],4,0.0866012999999839,,,17,20,Man,Rechts,1,
,xotask,xotask,dotcolour,3,4,243,543,main,positivefb,-99,easy,72,0.934122699999989,['c'],1,left,['1'],6,0.1425543000000289,,,17,20,Man,Rechts,1,
,xotask,xotask,dotcolour,4,4,244,544,main,positivefb,-99,hard,29,2.5352420999997776,['c'],0,right,['3'],4,0.1005963000002339,,,17,20,Man,Rechts,1,
,xotask,xotask,dotcolour,5,4,245,545,main,positivefb,-99,average,16,1.150481299999683,['n'],1,right,['2'],5,0.12414040000021487,,,17,20,Man,Rechts,1,
,xotask,xotask,dotcolour,6,4,246,546,main,positivefb,-99,hard,52,1.2174971000004007,['c'],1,left,['2'],5,0.1037080999999489,,,17,20,Man,Rechts,1,
,xotask,xotask,dotcolour,7,4,247,547,main,positivefb,-99,easy,6,0.9513416999998299,['n'],1,right,['2'],5,0.12544590000015887,,,17,20,Man,Rechts,1,
,xotask,xotask,dotcolour,8,4,248,548,main,positivefb,-99,average,17,1.2167801000000509,['n'],1,right,['2'],5,0.09746829999994588,,,17,20,Man,Rechts,1,
,xotask,xotask,dotcolour,9,4,249,549,main,positivefb,-99,easy,71,1.018015699999978,['c'],1,left,['1'],6,0.13328760000013062,,,17,20,Man,Rechts,1,
,xotask,xotask,dotcolour,10,4,250,550,main,positivefb,-99,average,60,1.2334515000002284,['c'],1,left,['2'],5,0.11982279999983803,,,17,20,Man,Rechts,1,
,xotask,xotask,dotcolour,11,4,251,551,main,positivefb,-99,hard,51,1.3001924000000145,['c'],1,left,['2'],5,0.12802700000020195,,,17,20,Man,Rechts,1,
,xotask,xotask,dotcolour,12,4,252,552,main,positivefb,-99,easy,74,0.9345143999998982,['c'],1,left,['2'],5,0.11810650000006717,,,17,20,Man,Rechts,1,
,xotask,xotask,dotcolour,13,4,253,553,main,positivefb,-99,hard,52,1.1671614000001682,['c'],1,left,['2'],5,0.1558599999998478,,,17,20,Man,Rechts,1,
,xotask,xotask,dotcolour,14,4,254,554,main,positivefb,-99,average,63,1.3338807999998608,['c'],1,left,['3'],4,0.14504260000012437,,,17,20,Man,Rechts,1,
,xotask,xotask,dotcolour,15,4,255,555,main,positivefb,-99,hard,28,1.8511450000000877,['n'],1,right,['2'],5,0.10690269999986413,,,17,20,Man,Rechts,1,
,xotask,xotask,dotcolour,16,4,256,556,main,positivefb,-99,average,63,0.8681933999996545,['c'],1,left,['2'],5,0.12481740000021091,,,17,20,Man,Rechts,1,
,xotask,xotask,dotcolour,17,4,257,557,main,positivefb,-99,average,60,0.9342247999998108,['c'],1,left,['2'],5,0.1393287999999302,,,17,20,Man,Rechts,1,
,xotask,xotask,dotcolour,18,4,258,558,main,positivefb,-99,hard,29,0.9333811000001333,['n'],1,right,['3'],4,0.22570970000015222,,,17,20,Man,Rechts,1,
,xotask,xotask,dotcolour,19,4,259,559,main,positivefb,-99,easy,71,1.4181392999998934,['c'],1,left,['3'],4,0.08032559999992372,,,17,20,Man,Rechts,1,
,xotask,xotask,dotcolour,20,4,260,560,main,positivefb,-99,average,16,1.6511278999996648,['n'],1,right,['3'],4,0.1883018999997148,,,17,20,Man,Rechts,1,
,xotask,xotask,dotcolour,21,4,261,561,main,positivefb,-99,average,62,4.9355710000004365,['c'],1,left,['3'],4,0.16905240000005506,,,17,20,Man,Rechts,1,
,xotask,xotask,dotcolour,22,4,262,562,main,positivefb,-99,easy,6,0.968255599999793,['n'],1,right,['1'],6,0.09191289999989749,,,17,20,Man,Rechts,1,
,xotask,xotask,dotcolour,23,4,263,563,main,positivefb,-99,hard,50,2.9676029000002018,['n'],0,left,['3'],4,0.11487810000016907,,,17,20,Man,Rechts,1,
,xotask,xotask,dotcolour,24,4,264,564,main,positivefb,-99,average,15,0.9005609000000732,['n'],1,right,['2'],5,0.14644779999980528,,,17,20,Man,Rechts,1,
,xotask,xotask,dotcolour,25,4,265,565,main,positivefb,-99,average,19,0.7995257999996284,['n'],1,right,['2'],5,0.10997820000011416,,,17,20,Man,Rechts,1,
,xotask,xotask,dotcolour,26,4,266,566,main,positivefb,-99,easy,73,0.8667891000000054,['c'],1,left,['2'],5,0.30455910000000586,,,17,20,Man,Rechts,1,
,xotask,xotask,dotcolour,27,4,267,567,main,positivefb,-99,easy,71,0.9673970000003465,['c'],1,left,['1'],6,0.1503443999999945,,,17,20,Man,Rechts,1,
,xotask,xotask,dotcolour,28,4,268,568,main,positivefb,-99,average,16,0.9344845000000532,['n'],1,right,['1'],6,0.18730820000018866,,,17,20,Man,Rechts,1,
,xotask,xotask,dotcolour,29,4,269,569,main,positivefb,-99,hard,51,1.3674094999996669,['c'],1,left,['2'],5,0.20653089999996155,,,17,20,Man,Rechts,1,
,xotask,xotask,dotcolour,30,4,270,570,main,positivefb,-99,easy,9,0.7845287000000098,['n'],1,right,['1'],6,0.11952700000028926,,,17,20,Man,Rechts,1,
,xotask,xotask,dotcolour,31,4,271,571,main,positivefb,-99,easy,72,0.750684199999796,['c'],1,left,['1'],6,0.5656072000001586,,,17,20,Man,Rechts,1,
,xotask,xotask,dotcolour,32,4,272,572,main,positivefb,-99,hard,25,0.684426700000131,['n'],1,right,['1'],6,0.22827409999990778,,,17,20,Man,Rechts,1,
,xotask,xotask,dotcolour,33,4,273,573,main,positivefb,-99,easy,6,1.2006563999998434,['n'],1,right,['2'],5,0.18858000000000175,,,17,20,Man,Rechts,1,
,xotask,xotask,dotcolour,34,4,274,574,main,positivefb,-99,hard,26,0.8677018999997017,['n'],1,right,['2'],5,0.21123160000024654,,,17,20,Man,Rechts,1,
,xotask,xotask,dotcolour,35,4,275,575,main,positivefb,-99,easy,72,0.817801000000145,['c'],1,left,['1'],6,0.2754150999999183,,,17,20,Man,Rechts,1,
,xotask,xotask,dotcolour,36,4,276,576,main,positivefb,-99,hard,27,0.651441700000305,['n'],1,right,['1'],6,0.1745955999999751,,,17,20,Man,Rechts,1,
,xotask,xotask,dotcolour,37,4,277,577,main,positivefb,-99,average,63,1.6496557999998913,['c'],1,left,['2'],5,0.1831640000000334,,,17,20,Man,Rechts,1,
,xotask,xotask,dotcolour,38,4,278,578,main,positivefb,-99,hard,28,1.0174055000002227,['n'],1,right,['2'],5,0.3280279000000519,,,17,20,Man,Rechts,1,
,xotask,xotask,dotcolour,39,4,279,579,main,positivefb,-99,hard,27,1.5502062000000478,['n'],1,right,['2'],5,0.18953520000013668,,,17,20,Man,Rechts,1,
,xotask,xotask,dotcolour,40,4,280,580,main,positivefb,-99,easy,70,1.1505933000003097,['c'],1,left,['1'],6,0.2008068000000094,,,17,20,Man,Rechts,1,
,xotask,xotask,dotcolour,41,4,281,581,main,positivefb,-99,average,17,1.0842103999998471,['n'],1,right,['1'],6,0.1264977999999246,,,17,20,Man,Rechts,1,
,xotask,xotask,dotcolour,42,4,282,582,main,positivefb,-99,easy,74,0.8850962000001346,['c'],1,left,['1'],6,0.13469190000023445,,,17,20,Man,Rechts,1,
,xotask,xotask,dotcolour,43,4,283,583,main,positivefb,-99,hard,53,1.4507693000000472,['c'],1,left,['2'],5,0.14419230000021344,,,17,20,Man,Rechts,1,
,xotask,xotask,dotcolour,44,4,284,584,main,positivefb,-99,average,64,0.7835068000003957,['c'],1,left,['2'],5,0.20495690000007016,,,17,20,Man,Rechts,1,
,xotask,xotask,dotcolour,45,4,285,585,main,positivefb,-99,easy,7,0.8667648999999074,['n'],1,right,['2'],5,0.1782690999998522,,,17,20,Man,Rechts,1,
,xotask,xotask,dotcolour,46,4,286,586,main,positivefb,-99,hard,53,0.9339952999998786,['c'],1,left,['2'],5,0.15888929999982793,,,17,20,Man,Rechts,1,
,xotask,xotask,dotcolour,47,4,287,587,main,positivefb,-99,average,19,1.851361199999701,['n'],1,right,['2'],5,0.1355530999999246,,,17,20,Man,Rechts,1,
,xotask,xotask,dotcolour,48,4,288,588,main,positivefb,-99,average,62,1.4851690999998937,['c'],1,left,['2'],5,0.143675699999676,,,17,20,Man,Rechts,1,
,xotask,xotask,dotcolour,49,4,289,589,main,positivefb,-99,average,64,1.3511008000000402,['n'],0,left,['2'],5,0.15713199999981953,,,17,20,Man,Rechts,1,
,xotask,xotask,dotcolour,50,4,290,590,main,positivefb,-99,easy,9,0.9504741000000649,['n'],1,right,['1'],6,0.10610419999966325,,,17,20,Man,Rechts,1,
,xotask,xotask,dotcolour,51,4,291,591,main,positivefb,-99,easy,5,0.6842232999997577,['n'],1,right,['1'],6,0.17893520000006902,,,17,20,Man,Rechts,1,
,xotask,xotask,dotcolour,52,4,292,592,main,positivefb,-99,average,60,1.999786700000186,['n'],0,left,['3'],4,0.1092356999997719,,,17,20,Man,Rechts,1,
,xotask,xotask,dotcolour,53,4,293,593,main,positivefb,-99,easy,6,1.017384100000072,['n'],1,right,['1'],6,0.11280909999959476,,,17,20,Man,Rechts,1,
,xotask,xotask,dotcolour,54,4,294,594,main,positivefb,-99,hard,51,2.1335893999998916,['n'],0,left,['2'],5,0.16884619999973438,,,17,20,Man,Rechts,1,
,xotask,xotask,dotcolour,55,4,295,595,main,positivefb,-99,average,15,1.0009146000002147,['n'],1,right,['2'],5,0.5069422999999915,,,17,20,Man,Rechts,1,
,xotask,xotask,dotcolour,56,4,296,596,main,positivefb,-99,hard,51,0.9005981000000247,['n'],0,left,['3'],4,0.22703120000005583,,,17,20,Man,Rechts,1,
,xotask,xotask,dotcolour,57,4,297,597,main,positivefb,-99,easy,7,0.8341791000002559,['n'],1,right,['1'],6,0.14618530000007013,,,17,20,Man,Rechts,1,
,xotask,xotask,dotcolour,58,4,298,598,main,positivefb,-99,average,15,0.8003521000000546,['n'],1,right,['1'],6,0.19795419999991282,,,17,20,Man,Rechts,1,
,xotask,xotask,dotcolour,59,4,299,599,main,positivefb,-99,easy,9,0.8511045000000195,['n'],1,right,['1'],6,0.2678937999999107,,,17,20,Man,Rechts,1,
,xotask,xotask,dotcolour,0,0,0,600,training,positivefb,86,hard,54,1.4339059999997517,['c'],1,left,['3'],4,0.117864599999848,,,17,20,Man,Rechts,1,
,xotask,xotask,dotcolour,1,0,1,601,training,positivefb,83,average,16,1.8828685000003134,['n'],1,right,['3'],4,0.11065129999997225,,,17,20,Man,Rechts,1,
,xotask,xotask,dotcolour,2,0,2,602,training,positivefb,91,easy,74,0.8007096999999703,['c'],1,left,['2'],5,0.13013499999988198,,,17,20,Man,Rechts,1,
,xotask,xotask,dotcolour,3,0,3,603,training,positivefb,86,average,60,1.118199999999888,['c'],1,left,['2'],5,0.096420500000022,,,17,20,Man,Rechts,1,
,xotask,xotask,dotcolour,4,0,4,604,training,positivefb,83,easy,9,1.4005000000001928,['n'],1,right,['2'],5,0.1015375000001768,,,17,20,Man,Rechts,1,
,xotask,xotask,dotcolour,5,0,5,605,training,positivefb,94,average,64,0.8501639000000978,['c'],1,left,['2'],5,0.08843130000013844,,,17,20,Man,Rechts,1,
,xotask,xotask,dotcolour,6,0,6,606,training,positivefb,94,easy,9,0.7835196000000906,['n'],1,right,['2'],5,0.1092713999996704,,,17,20,Man,Rechts,1,
,xotask,xotask,dotcolour,7,0,7,607,training,positivefb,93,hard,54,0.8172574000000168,['c'],1,left,['2'],5,0.10419749999982741,,,17,20,Man,Rechts,1,
,xotask,xotask,dotcolour,8,0,8,608,training,positivefb,93,easy,72,0.7999565999998595,['c'],1,left,['1'],6,0.11623710000003484,,,17,20,Man,Rechts,1,
,xotask,xotask,dotcolour,9,0,9,609,training,positivefb,98,easy,70,0.7671341000000211,['c'],1,left,['1'],6,0.12118529999997918,,,17,20,Man,Rechts,1,
,xotask,xotask,dotcolour,10,0,10,610,training,positivefb,82,easy,72,0.6667198999998618,['c'],1,left,['1'],6,0.12977360000013505,,,17,20,Man,Rechts,1,
,xotask,xotask,dotcolour,11,0,11,611,training,positivefb,95,average,64,0.8017580000000635,['c'],1,left,['2'],5,0.10045839999975215,,,17,20,Man,Rechts,1,
,xotask,xotask,dotcolour,12,0,12,612,training,positivefb,95,easy,74,0.7162481000000298,['c'],1,left,['2'],5,0.10859220000020287,,,17,20,Man,Rechts,1,
,xotask,xotask,dotcolour,13,0,13,613,training,positivefb,97,average,63,0.5844253000000208,['c'],1,left,['2'],5,0.12111090000007607,,,17,20,Man,Rechts,1,
,xotask,xotask,dotcolour,14,0,14,614,training,positivefb,86,hard,51,0.8662789999998495,['c'],1,left,['2'],5,0.08981720000019777,,,17,20,Man,Rechts,1,
,xotask,xotask,dotcolour,15,0,15,615,training,positivefb,92,easy,6,0.984331199999815,['n'],1,right,['1'],6,0.09550840000019889,,,17,20,Man,Rechts,1,
,xotask,xotask,dotcolour,16,0,16,616,training,positivefb,98,average,60,0.9999173999999584,['c'],1,left,['2'],5,0.11551829999962138,,,17,20,Man,Rechts,1,
,xotask,xotask,dotcolour,17,0,17,617,training,positivefb,98,hard,28,0.8510240999999041,['n'],1,right,['2'],5,0.1418641000000207,,,17,20,Man,Rechts,1,
,xotask,xotask,dotcolour,18,0,18,618,training,positivefb,85,easy,5,0.8505945000001702,['n'],1,right,['1'],6,0.14275160000033793,,,17,20,Man,Rechts,1,
,xotask,xotask,dotcolour,19,0,19,619,training,positivefb,87,easy,72,0.8164287999998123,['c'],1,left,['2'],5,0.1765797000002749,,,17,20,Man,Rechts,1,
,xotask,xotask,dotcolour,20,0,20,620,training,positivefb,89,hard,52,0.7505207999997765,['c'],1,left,['2'],5,0.14749239999991914,,,17,20,Man,Rechts,1,
,xotask,xotask,dotcolour,21,0,21,621,training,positivefb,81,easy,74,0.749888600000304,['c'],1,left,['1'],6,0.14472579999983282,,,17,20,Man,Rechts,1,
,xotask,xotask,dotcolour,22,0,22,622,training,positivefb,97,easy,5,0.8848498999996082,['n'],1,right,['1'],6,0.11977780000006533,,,17,20,Man,Rechts,1,
,xotask,xotask,dotcolour,23,0,23,623,training,positivefb,99,easy,5,0.5667855000001509,['n'],1,right,['1'],6,0.17227210000010018,,,17,20,Man,Rechts,1,
,xotask,xotask,dotcolour,24,0,24,624,training,positivefb,86,average,16,2.3837657999997646,['n'],1,right,['3'],4,0.1344832999998289,,,17,20,Man,Rechts,1,
,xotask,xotask,dotcolour,25,0,25,625,training,positivefb,67,hard,52,1.133983199999875,['n'],0,left,['3'],4,0.23575389999996332,,,17,20,Man,Rechts,1,
,xotask,xotask,dotcolour,26,0,26,626,training,positivefb,78,hard,28,1.000013299999864,['n'],1,right,['3'],4,0.13046759999997448,,,17,20,Man,Rechts,1,
,xotask,xotask,dotcolour,27,0,27,627,training,positivefb,90,hard,52,1.8842846000002282,['c'],1,left,['3'],4,0.10690760000034061,,,17,20,Man,Rechts,1,
,xotask,xotask,dotcolour,28,0,28,628,training,positivefb,72,hard,25,1.9346549000001687,['c'],0,right,['3'],4,0.08092440000018541,,,17,20,Man,Rechts,1,
,xotask,xotask,dotcolour,29,0,29,629,training,positivefb,88,average,15,0.9007369999999355,['n'],1,right,['2'],5,0.186073899999883,,,17,20,Man,Rechts,1,
,xotask,xotask,dotcolour,30,0,30,630,training,positivefb,82,hard,28,0.6999353999999585,['n'],1,right,['2'],5,0.11028070000020307,,,17,20,Man,Rechts,1,
,xotask,xotask,dotcolour,31,0,31,631,training,positivefb,96,easy,5,0.6328952999997455,['n'],1,right,['2'],5,0.12063309999984995,,,17,20,Man,Rechts,1,
,xotask,xotask,dotcolour,32,0,32,632,training,positivefb,88,easy,70,0.8493411999997988,['n'],0,left,['1'],6,0.09839620000002469,,,17,20,Man,Rechts,1,
,xotask,xotask,dotcolour,33,0,33,633,training,positivefb,68,average,16,1.1499950000002173,['n'],1,right,['2'],5,0.16056680000019696,,,17,20,Man,Rechts,1,
,xotask,xotask,dotcolour,34,0,34,634,training,positivefb,95,easy,6,0.8836057000003166,['n'],1,right,['1'],6,0.13463499999988926,,,17,20,Man,Rechts,1,
,xotask,xotask,dotcolour,35,0,35,635,training,positivefb,83,hard,51,2.1676586000003226,['n'],0,left,['2'],5,0.13116300000001502,,,17,20,Man,Rechts,1,
,xotask,xotask,dotcolour,36,0,36,636,training,positivefb,82,hard,27,0.9163429999998698,['n'],1,right,['2'],5,0.15277960000003077,,,17,20,Man,Rechts,1,
,xotask,xotask,dotcolour,37,0,37,637,training,positivefb,94,average,16,1.1329458000000159,['n'],1,right,['3'],4,0.09341440000025614,,,17,20,Man,Rechts,1,
,xotask,xotask,dotcolour,38,0,38,638,training,positivefb,97,hard,29,0.9668942000002971,['n'],1,right,['3'],4,0.10814339999978984,,,17,20,Man,Rechts,1,
,xotask,xotask,dotcolour,39,0,39,639,training,positivefb,89,average,17,1.3500364000001355,['n'],1,right,['3'],4,0.10624109999980647,,,17,20,Man,Rechts,1,
,xotask,xotask,dotcolour,40,0,40,640,training,positivefb,91,hard,51,1.5336471000000529,['c'],1,left,['3'],4,0.11273030000029394,,,17,20,Man,Rechts,1,
,xotask,xotask,dotcolour,41,0,41,641,training,positivefb,89,hard,54,1.4662333999999646,['c'],1,left,['3'],4,0.08219379999991361,,,17,20,Man,Rechts,1,
,xotask,xotask,dotcolour,42,0,42,642,training,positivefb,92,average,64,0.8001020000001517,['c'],1,left,['3'],4,0.0946524999999383,,,17,20,Man,Rechts,1,
,xotask,xotask,dotcolour,43,0,43,643,training,positivefb,89,hard,27,1.0502514999998311,['n'],1,right,['3'],4,0.08883240000022852,,,17,20,Man,Rechts,1,
,xotask,xotask,dotcolour,44,0,44,644,training,positivefb,85,easy,71,1.5167584999999235,['c'],1,left,['3'],4,0.05714639999996507,,,17,20,Man,Rechts,1,
,xotask,xotask,dotcolour,45,0,45,645,training,positivefb,96,hard,53,1.3338926000001265,['c'],1,left,['2'],5,0.11365859999978056,,,17,20,Man,Rechts,1,
,xotask,xotask,dotcolour,46,0,46,646,training,positivefb,91,easy,73,1.0828393000001597,['c'],1,left,['1'],6,0.09090379999997822,,,17,20,Man,Rechts,1,
,xotask,xotask,dotcolour,47,0,47,647,training,positivefb,87,hard,26,1.1002301999997144,['n'],1,right,['3'],4,0.09927720000041518,,,17,20,Man,Rechts,1,
,xotask,xotask,dotcolour,48,0,48,648,training,positivefb,97,easy,8,0.8002814999999828,['n'],1,right,['2'],5,0.14334490000010192,,,17,20,Man,Rechts,1,
,xotask,xotask,dotcolour,49,0,49,649,training,positivefb,95,average,16,0.7329030999999304,['n'],1,right,['2'],5,0.11649750000015047,,,17,20,Man,Rechts,1,
,xotask,xotask,dotcolour,50,0,50,650,training,positivefb,92,average,16,0.7663773999997829,['n'],1,right,['2'],5,0.09002989999999045,,,17,20,Man,Rechts,1,
,xotask,xotask,dotcolour,51,0,51,651,training,positivefb,86,hard,28,1.2001640999997107,['n'],1,right,['3'],4,0.11813220000021829,,,17,20,Man,Rechts,1,
,xotask,xotask,dotcolour,52,0,52,652,training,positivefb,92,average,61,0.9667779999999766,['c'],1,left,['2'],5,0.11511500000005981,,,17,20,Man,Rechts,1,
,xotask,xotask,dotcolour,53,0,53,653,training,positivefb,88,average,15,1.4008998000003885,['n'],1,right,['2'],5,0.08638750000000073,,,17,20,Man,Rechts,1,
,xotask,xotask,dotcolour,54,0,54,654,training,positivefb,92,average,60,1.2501665999998295,['c'],1,left,['2'],5,0.10504070000024512,,,17,20,Man,Rechts,1,
,xotask,xotask,dotcolour,55,0,55,655,training,positivefb,90,average,16,1.4007294999996702,['n'],1,right,['1'],6,0.08491219999996247,,,17,20,Man,Rechts,1,
,xotask,xotask,dotcolour,56,0,56,656,training,positivefb,91,average,62,1.0002254000000903,['c'],1,left,['2'],5,0.12205589999985023,,,17,20,Man,Rechts,1,
,xotask,xotask,dotcolour,57,0,57,657,training,positivefb,86,hard,25,1.5162540999999692,['n'],1,right,['2'],5,0.08871480000016163,,,17,20,Man,Rechts,1,
,xotask,xotask,dotcolour,58,0,58,658,training,positivefb,89,easy,8,0.8672574000001987,['n'],1,right,['2'],5,0.0828417000002446,,,17,20,Man,Rechts,1,
,xotask,xotask,dotcolour,59,0,59,659,training,positivefb,86,average,60,0.899276799999825,['c'],1,left,['2'],5,0.07509509999999864,,,17,20,Man,Rechts,1,
,xotask,xotask,dotcolour,0,1,60,660,training,positivefb,82,hard,51,3.4333143999997446,['c'],1,left,['3'],4,0.15892480000002251,,,17,20,Man,Rechts,1,
,xotask,xotask,dotcolour,1,1,61,661,training,positivefb,83,easy,74,0.833867299999838,['c'],1,left,['2'],5,0.0874601000000439,,,17,20,Man,Rechts,1,
,xotask,xotask,dotcolour,2,1,62,662,training,positivefb,76,average,15,1.1839802000004056,['n'],1,right,['2'],5,0.13257699999985562,,,17,20,Man,Rechts,1,
,xotask,xotask,dotcolour,3,1,63,663,training,positivefb,97,easy,74,0.7844186000002082,['c'],1,left,['2'],5,0.08752289999983986,,,17,20,Man,Rechts,1,
,xotask,xotask,dotcolour,4,1,64,664,training,positivefb,90,hard,51,1.049480399999993,['c'],1,left,['3'],4,0.027241000000230997,,,17,20,Man,Rechts,1,
