starttime,task,fbtask,firsttask,withinblocktrial,block,withintasktrial,trial,running,feedback,fbscore,difflevel,n_xes,rt,resp,cor,cresp,conf_press,cj,RTconf,reddots,post1,post2,post3,post4,post5,stoptime,sub,age,gender,handedness,session,
1715588953,xotask,xotask,xotask,0,0,0,0,training,positivefb,75,hard,51,1.000331200000801,['c'],1,left,['2'],5,0.7549655000002531,,,,,,,,18,18,Vrouw,Rechts,2,
,xotask,xotask,xotask,1,0,1,1,training,positivefb,66,hard,50,0.9502099000001181,['n'],0,left,['3'],4,0.7901769999998578,,,,,,,,18,18,Vrouw,Rechts,2,
,xotask,xotask,xotask,2,0,2,2,training,positivefb,99,easy,70,0.798854399999982,['c'],1,left,['3'],4,0.34304009999959817,,,,,,,,18,18,Vrouw,Rechts,2,
,xotask,xotask,xotask,3,0,3,3,training,positivefb,97,easy,71,0.699737400000231,['c'],1,left,['2'],5,0.26176070000019536,,,,,,,,18,18,Vrouw,Rechts,2,
,xotask,xotask,xotask,4,0,4,4,training,positivefb,99,easy,6,0.7673150000000533,['n'],1,right,['1'],6,0.6052644000001237,,,,,,,,18,18,Vrouw,Rechts,2,
,xotask,xotask,xotask,5,0,5,5,training,positivefb,90,average,64,0.9001177000000098,['c'],1,left,['3'],4,0.3374151999996684,,,,,,,,18,18,Vrouw,Rechts,2,
,xotask,xotask,xotask,6,0,6,6,training,positivefb,97,hard,54,0.7491133000003174,['c'],1,left,['2'],5,0.34201540000049135,,,,,,,,18,18,Vrouw,Rechts,2,
,xotask,xotask,xotask,7,0,7,7,training,positivefb,82,hard,52,0.6832926999995834,['c'],1,left,['3'],4,0.3334580000000642,,,,,,,,18,18,Vrouw,Rechts,2,
,xotask,xotask,xotask,8,0,8,8,training,positivefb,97,average,19,0.7004074999995282,['n'],1,right,['2'],5,0.4842253000006167,,,,,,,,18,18,Vrouw,Rechts,2,
,xotask,xotask,xotask,9,0,9,9,training,positivefb,91,hard,28,0.8664018999998007,['n'],1,right,['3'],4,0.18193519999931596,,,,,,,,18,18,Vrouw,Rechts,2,
,xotask,xotask,xotask,10,0,10,10,training,positivefb,99,easy,7,0.7005659000005835,['n'],1,right,['2'],5,0.23546489999989717,,,,,,,,18,18,Vrouw,Rechts,2,
,xotask,xotask,xotask,11,0,11,11,training,positivefb,98,hard,50,0.8672964999996111,['n'],0,left,['3'],4,0.3918421999997008,,,,,,,,18,18,Vrouw,Rechts,2,
,xotask,xotask,xotask,12,0,12,12,training,positivefb,96,easy,9,0.5832158000002892,['n'],1,right,['1'],6,0.30505450000055134,,,,,,,,18,18,Vrouw,Rechts,2,
,xotask,xotask,xotask,13,0,13,13,training,positivefb,80,hard,52,1.0167617999995855,['c'],1,left,['3'],4,0.24352449999969394,,,,,,,,18,18,Vrouw,Rechts,2,
,xotask,xotask,xotask,14,0,14,14,training,positivefb,92,hard,29,0.7830254999998942,['n'],1,right,['3'],4,0.5231897999992725,,,,,,,,18,18,Vrouw,Rechts,2,
,xotask,xotask,xotask,15,0,15,15,training,positivefb,93,average,17,0.7171456000005492,['n'],1,right,['2'],5,0.19454790000054345,,,,,,,,18,18,Vrouw,Rechts,2,
,xotask,xotask,xotask,16,0,16,16,training,positivefb,91,hard,26,0.866027899999608,['n'],1,right,['3'],4,0.16774089999944408,,,,,,,,18,18,Vrouw,Rechts,2,
,xotask,xotask,xotask,17,0,17,17,training,positivefb,86,easy,7,0.7824516000000585,['n'],1,right,['1'],6,0.1549619999996139,,,,,,,,18,18,Vrouw,Rechts,2,
,xotask,xotask,xotask,18,0,18,18,training,positivefb,98,easy,72,0.6504273000000467,['c'],1,left,['1'],6,0.2899404999998296,,,,,,,,18,18,Vrouw,Rechts,2,
,xotask,xotask,xotask,19,0,19,19,training,positivefb,98,easy,9,0.6339078999999401,['n'],1,right,['1'],6,0.21424720000050002,,,,,,,,18,18,Vrouw,Rechts,2,
,xotask,xotask,xotask,20,0,20,20,training,positivefb,91,average,16,0.5664855000004536,['n'],1,right,['1'],6,0.23907670000062353,,,,,,,,18,18,Vrouw,Rechts,2,
,xotask,xotask,xotask,21,0,21,21,training,positivefb,97,easy,74,0.8673079999998663,['c'],1,left,['1'],6,0.2995040000005247,,,,,,,,18,18,Vrouw,Rechts,2,
,xotask,xotask,xotask,22,0,22,22,training,positivefb,86,average,60,0.684033499999714,['c'],1,left,['1'],6,0.2923713999998654,,,,,,,,18,18,Vrouw,Rechts,2,
,xotask,xotask,xotask,23,0,23,23,training,positivefb,97,easy,6,0.6002085000000079,['n'],1,right,['1'],6,0.24030300000049465,,,,,,,,18,18,Vrouw,Rechts,2,
,xotask,xotask,xotask,24,0,24,24,training,positivefb,99,hard,29,0.7002170000005208,['n'],1,right,['2'],5,0.39611490000061167,,,,,,,,18,18,Vrouw,Rechts,2,
,xotask,xotask,xotask,25,0,25,25,training,positivefb,98,easy,5,0.5671216000000641,['n'],1,right,['1'],6,0.22191249999923457,,,,,,,,18,18,Vrouw,Rechts,2,
,xotask,xotask,xotask,26,0,26,26,training,positivefb,90,hard,51,0.900055500000235,['c'],1,left,['3'],4,0.20944650000001275,,,,,,,,18,18,Vrouw,Rechts,2,
,xotask,xotask,xotask,27,0,27,27,training,positivefb,96,easy,70,0.7506725000002916,['c'],1,left,['3'],4,0.2512953000004927,,,,,,,,18,18,Vrouw,Rechts,2,
,xotask,xotask,xotask,28,0,28,28,training,positivefb,97,hard,25,0.7007878000003984,['n'],1,right,['3'],4,0.17284969999946043,,,,,,,,18,18,Vrouw,Rechts,2,
,xotask,xotask,xotask,29,0,29,29,training,positivefb,86,easy,73,0.7667515000002822,['c'],1,left,['2'],5,0.2237992000000304,,,,,,,,18,18,Vrouw,Rechts,2,
,xotask,xotask,xotask,30,0,30,30,training,positivefb,84,average,60,1.6009242999998605,['n'],0,left,['3'],4,0.12664440000025934,,,,,,,,18,18,Vrouw,Rechts,2,
,xotask,xotask,xotask,31,0,31,31,training,positivefb,84,hard,51,0.9335116000002017,['c'],1,left,['3'],4,0.22930089999954362,,,,,,,,18,18,Vrouw,Rechts,2,
,xotask,xotask,xotask,32,0,32,32,training,positivefb,97,easy,70,0.7166757000004509,['c'],1,left,['2'],5,0.27178939999976137,,,,,,,,18,18,Vrouw,Rechts,2,
,xotask,xotask,xotask,33,0,33,33,training,positivefb,68,average,61,0.6504285999999411,['c'],1,left,['2'],5,0.2671848999998474,,,,,,,,18,18,Vrouw,Rechts,2,
,xotask,xotask,xotask,34,0,34,34,training,positivefb,81,hard,25,0.8337669000002279,['c'],0,right,['3'],4,0.1829211000003852,,,,,,,,18,18,Vrouw,Rechts,2,
,xotask,xotask,xotask,35,0,35,35,training,positivefb,98,average,17,0.7008672000001752,['n'],1,right,['3'],4,0.4118226999999024,,,,,,,,18,18,Vrouw,Rechts,2,
,xotask,xotask,xotask,36,0,36,36,training,positivefb,93,average,18,0.7996362000003501,['n'],1,right,['3'],4,0.1877606999996715,,,,,,,,18,18,Vrouw,Rechts,2,
,xotask,xotask,xotask,37,0,37,37,training,positivefb,86,hard,50,0.7659610999999131,['c'],1,left,['3'],4,0.21455640000021958,,,,,,,,18,18,Vrouw,Rechts,2,
,xotask,xotask,xotask,38,0,38,38,training,positivefb,98,average,16,0.7330807999996978,['n'],1,right,['3'],4,0.16086660000019037,,,,,,,,18,18,Vrouw,Rechts,2,
,xotask,xotask,xotask,39,0,39,39,training,positivefb,70,hard,26,0.8829478999996354,['n'],1,right,['3'],4,0.22416840000005323,,,,,,,,18,18,Vrouw,Rechts,2,
,xotask,xotask,xotask,40,0,40,40,training,positivefb,96,hard,26,0.699540600000546,['n'],1,right,['3'],4,0.17929060000005848,,,,,,,,18,18,Vrouw,Rechts,2,
,xotask,xotask,xotask,41,0,41,41,training,positivefb,97,easy,70,0.6003846999992675,['c'],1,left,['3'],4,0.28532929999983025,,,,,,,,18,18,Vrouw,Rechts,2,
,xotask,xotask,xotask,42,0,42,42,training,positivefb,93,average,16,0.7332966999993005,['n'],1,right,['3'],4,0.14819209999950544,,,,,,,,18,18,Vrouw,Rechts,2,
,xotask,xotask,xotask,43,0,43,43,training,positivefb,98,average,61,0.9510798999999679,['c'],1,left,['3'],4,0.28082350000022416,,,,,,,,18,18,Vrouw,Rechts,2,
,xotask,xotask,xotask,44,0,44,44,training,positivefb,89,hard,26,0.84968470000058,['n'],1,right,['3'],4,0.14024100000006,,,,,,,,18,18,Vrouw,Rechts,2,
,xotask,xotask,xotask,45,0,45,45,training,positivefb,94,average,62,0.7486885999996957,['c'],1,left,['3'],4,0.18466629999966244,,,,,,,,18,18,Vrouw,Rechts,2,
,xotask,xotask,xotask,46,0,46,46,training,positivefb,66,average,60,0.8333633999991434,['c'],1,left,['3'],4,0.17692640000041138,,,,,,,,18,18,Vrouw,Rechts,2,
,xotask,xotask,xotask,47,0,47,47,training,positivefb,93,easy,71,0.7334208000002036,['c'],1,left,['3'],4,0.18884710000020277,,,,,,,,18,18,Vrouw,Rechts,2,
,xotask,xotask,xotask,48,0,48,48,training,positivefb,87,easy,6,0.749373800000285,['n'],1,right,['2'],5,0.17544490000000224,,,,,,,,18,18,Vrouw,Rechts,2,
,xotask,xotask,xotask,49,0,49,49,training,positivefb,97,easy,5,0.7340297000000646,['n'],1,right,['1'],6,0.21161409999967873,,,,,,,,18,18,Vrouw,Rechts,2,
,xotask,xotask,xotask,50,0,50,50,training,positivefb,86,average,62,0.8174680000001899,['c'],1,left,['3'],4,0.11492420000013226,,,,,,,,18,18,Vrouw,Rechts,2,
,xotask,xotask,xotask,51,0,51,51,training,positivefb,87,hard,27,0.9002344000000448,['n'],1,right,['3'],4,0.16269999999985885,,,,,,,,18,18,Vrouw,Rechts,2,
,xotask,xotask,xotask,52,0,52,52,training,positivefb,96,average,17,0.7485022000000754,['n'],1,right,['2'],5,0.18238620000010997,,,,,,,,18,18,Vrouw,Rechts,2,
,xotask,xotask,xotask,53,0,53,53,training,positivefb,97,average,15,0.6165285999995831,['n'],1,right,['2'],5,0.2702329000003374,,,,,,,,18,18,Vrouw,Rechts,2,
,xotask,xotask,xotask,54,0,54,54,training,positivefb,93,hard,51,0.7845867000005455,['n'],0,left,['3'],4,0.16522830000030808,,,,,,,,18,18,Vrouw,Rechts,2,
,xotask,xotask,xotask,55,0,55,55,training,positivefb,95,average,61,0.8154315000001588,['c'],1,left,['2'],5,0.4065643000003547,,,,,,,,18,18,Vrouw,Rechts,2,
,xotask,xotask,xotask,56,0,56,56,training,positivefb,98,average,61,0.6013475999998263,['c'],1,left,['3'],4,0.2459431000006589,,,,,,,,18,18,Vrouw,Rechts,2,
,xotask,xotask,xotask,57,0,57,57,training,positivefb,91,average,18,0.9162859999996726,['n'],1,right,['3'],4,0.1360170999996626,,,,,,,,18,18,Vrouw,Rechts,2,
,xotask,xotask,xotask,58,0,58,58,training,positivefb,96,easy,73,0.7167016000003059,['c'],1,left,['2'],5,0.1830643000002965,,,,,,,,18,18,Vrouw,Rechts,2,
,xotask,xotask,xotask,59,0,59,59,training,positivefb,97,easy,8,0.6493146000002525,['n'],1,right,['2'],5,0.1810144000000946,,,,,,,,18,18,Vrouw,Rechts,2,
,xotask,xotask,xotask,0,1,60,60,training,positivefb,96,average,17,1.1335447999999815,['n'],1,right,['2'],5,0.18753860000015266,,,,,,,,18,18,Vrouw,Rechts,2,
,xotask,xotask,xotask,1,1,61,61,training,positivefb,79,average,60,1.1652524999999514,['n'],0,left,['3'],4,0.13429499999983818,,,,,,,,18,18,Vrouw,Rechts,2,
,xotask,xotask,xotask,2,1,62,62,training,positivefb,96,average,16,0.5833042000003843,['n'],1,right,['2'],5,0.18544719999954395,,,,,,,,18,18,Vrouw,Rechts,2,
,xotask,xotask,xotask,3,1,63,63,training,positivefb,94,average,63,0.6999814000000697,['c'],1,left,['2'],5,0.19873769999958313,,,,,,,,18,18,Vrouw,Rechts,2,
,xotask,xotask,xotask,4,1,64,64,training,positivefb,94,hard,51,0.6338869999999588,['c'],1,left,['2'],5,0.2058460999996896,,,,,,,,18,18,Vrouw,Rechts,2,
,xotask,xotask,xotask,5,1,65,65,training,positivefb,88,hard,54,0.682494300000144,['c'],1,left,['2'],5,0.18621250000069267,,,,,,,,18,18,Vrouw,Rechts,2,
,xotask,xotask,xotask,6,1,66,66,training,positivefb,97,average,18,0.48341829999935726,['n'],1,right,['2'],5,0.12794550000035088,,,,,,,,18,18,Vrouw,Rechts,2,
,xotask,xotask,xotask,7,1,67,67,training,positivefb,95,easy,8,0.49989629999981844,['n'],1,right,['1'],6,0.2626518999995824,,,,,,,,18,18,Vrouw,Rechts,2,
,xotask,xotask,xotask,8,1,68,68,training,positivefb,77,hard,28,0.7174936999999773,['n'],1,right,['3'],4,0.2407441999994262,,,,,,,,18,18,Vrouw,Rechts,2,
,xotask,xotask,xotask,9,1,69,69,training,positivefb,99,easy,70,0.5152977999996438,['c'],1,left,['2'],5,0.18746110000029148,,,,,,,,18,18,Vrouw,Rechts,2,
,xotask,xotask,xotask,10,1,70,70,training,positivefb,96,easy,70,0.5849226000000272,['c'],1,left,['2'],5,0.17142270000022108,,,,,,,,18,18,Vrouw,Rechts,2,
,xotask,xotask,xotask,11,1,71,71,training,positivefb,99,average,61,0.5829325999993671,['c'],1,left,['2'],5,0.13412640000024112,,,,,,,,18,18,Vrouw,Rechts,2,
,xotask,xotask,xotask,12,1,72,72,training,positivefb,98,hard,27,0.5327896999997392,['n'],1,right,['2'],5,0.15577209999992192,,,,,,,,18,18,Vrouw,Rechts,2,
,xotask,xotask,xotask,13,1,73,73,training,positivefb,94,hard,28,0.550006200000098,['n'],1,right,['2'],5,0.1590035999997781,,,,,,,,18,18,Vrouw,Rechts,2,
,xotask,xotask,xotask,14,1,74,74,training,positivefb,98,average,16,0.6341899999997622,['n'],1,right,['1'],6,0.20045669999944948,,,,,,,,18,18,Vrouw,Rechts,2,
,xotask,xotask,xotask,15,1,75,75,training,positivefb,99,average,16,0.5157909999998083,['n'],1,right,['1'],6,0.19579270000031102,,,,,,,,18,18,Vrouw,Rechts,2,
,xotask,xotask,xotask,16,1,76,76,training,positivefb,94,easy,7,0.5171966999996584,['n'],1,right,['1'],6,0.1680002000002787,,,,,,,,18,18,Vrouw,Rechts,2,
,xotask,xotask,xotask,17,1,77,77,training,positivefb,97,easy,71,0.7003969000006691,['c'],1,left,['2'],5,0.30971019999924465,,,,,,,,18,18,Vrouw,Rechts,2,
,xotask,xotask,xotask,18,1,78,78,training,positivefb,90,easy,71,0.6334914000008212,['c'],1,left,['2'],5,0.18379970000023604,,,,,,,,18,18,Vrouw,Rechts,2,
,xotask,xotask,xotask,19,1,79,79,training,positivefb,93,easy,7,0.5659326000004512,['n'],1,right,['1'],6,0.17805500000031316,,,,,,,,18,18,Vrouw,Rechts,2,
,xotask,xotask,xotask,20,1,80,80,training,positivefb,98,hard,50,0.9334477000002153,['c'],1,left,['3'],4,0.30939980000039213,,,,,,,,18,18,Vrouw,Rechts,2,
,xotask,xotask,xotask,21,1,81,81,training,positivefb,97,average,15,0.6008638000002975,['n'],1,right,['2'],5,0.18533240000033402,,,,,,,,18,18,Vrouw,Rechts,2,
,xotask,xotask,xotask,22,1,82,82,training,positivefb,86,hard,25,0.8163115000006655,['n'],1,right,['3'],4,0.23359259999961068,,,,,,,,18,18,Vrouw,Rechts,2,
,xotask,xotask,xotask,23,1,83,83,training,positivefb,98,easy,8,0.5501974999997401,['n'],1,right,['2'],5,0.23409699999956501,,,,,,,,18,18,Vrouw,Rechts,2,
,xotask,xotask,xotask,24,1,84,84,training,positivefb,94,easy,71,0.6168784999999843,['c'],1,left,['2'],5,0.14417989999947167,,,,,,,,18,18,Vrouw,Rechts,2,
,xotask,xotask,xotask,25,1,85,85,training,positivefb,98,average,61,0.8511779999998907,['c'],1,left,['3'],4,0.12974209999993036,,,,,,,,18,18,Vrouw,Rechts,2,
,xotask,xotask,xotask,26,1,86,86,training,positivefb,81,hard,29,0.682813299999907,['n'],1,right,['3'],4,0.2102586999999403,,,,,,,,18,18,Vrouw,Rechts,2,
,xotask,xotask,xotask,27,1,87,87,training,positivefb,89,average,60,1.4346624999998312,['n'],0,left,['3'],4,0.11991059999945719,,,,,,,,18,18,Vrouw,Rechts,2,
,xotask,xotask,xotask,28,1,88,88,training,positivefb,93,hard,25,0.7839658000002601,['n'],1,right,['3'],4,0.17258419999961916,,,,,,,,18,18,Vrouw,Rechts,2,
,xotask,xotask,xotask,29,1,89,89,training,positivefb,97,hard,54,0.6501224000003276,['c'],1,left,['3'],4,0.17962480000005598,,,,,,,,18,18,Vrouw,Rechts,2,
,xotask,xotask,xotask,30,1,90,90,training,positivefb,90,hard,53,0.6164673000002949,['c'],1,left,['3'],4,0.22900850000041828,,,,,,,,18,18,Vrouw,Rechts,2,
,xotask,xotask,xotask,31,1,91,91,training,positivefb,90,hard,28,0.9171707999994396,['n'],1,right,['3'],4,0.1672753000002558,,,,,,,,18,18,Vrouw,Rechts,2,
,xotask,xotask,xotask,32,1,92,92,training,positivefb,79,easy,8,0.816718399999445,['n'],1,right,['2'],5,0.1286904999997205,,,,,,,,18,18,Vrouw,Rechts,2,
,xotask,xotask,xotask,33,1,93,93,training,positivefb,95,average,16,0.5662328999997044,['n'],1,right,['2'],5,0.18880589999935182,,,,,,,,18,18,Vrouw,Rechts,2,
,xotask,xotask,xotask,34,1,94,94,training,positivefb,93,hard,53,0.832399599999917,['c'],1,left,['2'],5,0.16440390000025218,,,,,,,,18,18,Vrouw,Rechts,2,
,xotask,xotask,xotask,35,1,95,95,training,positivefb,82,average,64,0.9995162999994136,['c'],1,left,['3'],4,0.17463709999992716,,,,,,,,18,18,Vrouw,Rechts,2,
,xotask,xotask,xotask,36,1,96,96,training,positivefb,97,easy,6,0.7333580000004076,['n'],1,right,['2'],5,0.15463030000046274,,,,,,,,18,18,Vrouw,Rechts,2,
,xotask,xotask,xotask,37,1,97,97,training,positivefb,90,hard,50,0.6499289000003046,['c'],1,left,['3'],4,0.1705709999996543,,,,,,,,18,18,Vrouw,Rechts,2,
,xotask,xotask,xotask,38,1,98,98,training,positivefb,95,hard,28,0.7175467999995817,['n'],1,right,['2'],5,0.15889510000033624,,,,,,,,18,18,Vrouw,Rechts,2,
,xotask,xotask,xotask,39,1,99,99,training,positivefb,94,easy,5,0.6000664000002871,['n'],1,right,['2'],5,0.1609721000004356,,,,,,,,18,18,Vrouw,Rechts,2,
,xotask,xotask,xotask,40,1,100,100,training,positivefb,85,average,17,0.5826962999999523,['n'],1,right,['2'],5,0.163926199999878,,,,,,,,18,18,Vrouw,Rechts,2,
,xotask,xotask,xotask,41,1,101,101,training,positivefb,98,average,16,0.5994132000005266,['n'],1,right,['2'],5,0.2137537999997221,,,,,,,,18,18,Vrouw,Rechts,2,
,xotask,xotask,xotask,42,1,102,102,training,positivefb,88,easy,5,0.6006767999997464,['n'],1,right,['1'],6,0.31867609999972046,,,,,,,,18,18,Vrouw,Rechts,2,
,xotask,xotask,xotask,43,1,103,103,training,positivefb,96,easy,73,0.6990083000000595,['c'],1,left,['1'],6,0.20494630000030156,,,,,,,,18,18,Vrouw,Rechts,2,
,xotask,xotask,xotask,44,1,104,104,training,positivefb,98,easy,74,0.6501441000000341,['c'],1,left,['1'],6,0.18812590000015916,,,,,,,,18,18,Vrouw,Rechts,2,
,xotask,xotask,xotask,45,1,105,105,training,positivefb,85,hard,27,0.7493620999994164,['n'],1,right,['3'],4,0.16651490000003832,,,,,,,,18,18,Vrouw,Rechts,2,
,xotask,xotask,xotask,46,1,106,106,training,positivefb,98,easy,7,0.6507501999994929,['n'],1,right,['2'],5,0.14127299999927345,,,,,,,,18,18,Vrouw,Rechts,2,
,xotask,xotask,xotask,47,1,107,107,training,positivefb,97,easy,6,0.5008211999993364,['n'],1,right,['1'],6,0.2365246000008483,,,,,,,,18,18,Vrouw,Rechts,2,
,xotask,xotask,xotask,48,1,108,108,training,positivefb,98,easy,71,0.8671890999994503,['c'],1,left,['3'],4,0.1841738000002806,,,,,,,,18,18,Vrouw,Rechts,2,
,xotask,xotask,xotask,49,1,109,109,training,positivefb,85,average,61,0.6837131000002046,['c'],1,left,['3'],4,0.15817650000008143,,,,,,,,18,18,Vrouw,Rechts,2,
,xotask,xotask,xotask,50,1,110,110,training,positivefb,97,hard,53,0.6674573999998756,['c'],1,left,['3'],4,0.18141220000052272,,,,,,,,18,18,Vrouw,Rechts,2,
,xotask,xotask,xotask,51,1,111,111,training,positivefb,90,average,60,0.6338980999998967,['c'],1,left,['3'],4,0.18135559999973339,,,,,,,,18,18,Vrouw,Rechts,2,
,xotask,xotask,xotask,52,1,112,112,training,positivefb,92,easy,72,0.7325491000001421,['c'],1,left,['2'],5,0.17771970000012516,,,,,,,,18,18,Vrouw,Rechts,2,
,xotask,xotask,xotask,53,1,113,113,training,positivefb,94,average,17,0.833218400000078,['n'],1,right,['3'],4,0.16157560000010562,,,,,,,,18,18,Vrouw,Rechts,2,
,xotask,xotask,xotask,54,1,114,114,training,positivefb,88,hard,53,0.7008781000004092,['n'],0,left,['3'],4,0.1841195000006337,,,,,,,,18,18,Vrouw,Rechts,2,
,xotask,xotask,xotask,55,1,115,115,training,positivefb,85,hard,29,0.5339328000000023,['n'],1,right,['3'],4,0.17873990000043705,,,,,,,,18,18,Vrouw,Rechts,2,
,xotask,xotask,xotask,56,1,116,116,training,positivefb,98,average,64,0.7337889999998879,['c'],1,left,['3'],4,0.10256149999986519,,,,,,,,18,18,Vrouw,Rechts,2,
,xotask,xotask,xotask,57,1,117,117,training,positivefb,91,average,60,0.6993672999997216,['c'],1,left,['3'],4,0.1030200999994122,,,,,,,,18,18,Vrouw,Rechts,2,
,xotask,xotask,xotask,58,1,118,118,training,positivefb,97,easy,73,0.7503283000005467,['c'],1,left,['2'],5,0.1330524000004516,,,,,,,,18,18,Vrouw,Rechts,2,
,xotask,xotask,xotask,59,1,119,119,training,positivefb,92,hard,52,0.7997068000004219,['c'],1,left,['3'],4,0.08728809999956866,,,,,,,,18,18,Vrouw,Rechts,2,
,xotask,xotask,xotask,0,2,120,120,main,positivefb,-99,average,62,0.8504628999999113,['c'],1,left,['2'],5,0.2329982999999629,,,,,,,,18,18,Vrouw,Rechts,2,
,xotask,xotask,xotask,1,2,121,121,main,positivefb,-99,easy,6,0.7506871000005049,['n'],1,right,['2'],5,0.17071360000045388,,,,,,,,18,18,Vrouw,Rechts,2,
,xotask,xotask,xotask,2,2,122,122,main,positivefb,-99,average,19,0.7675183999999717,['n'],1,right,['3'],4,0.3020108999999138,,,,,,,,18,18,Vrouw,Rechts,2,
,xotask,xotask,xotask,3,2,123,123,main,positivefb,-99,average,18,0.5673128000007637,['n'],1,right,['2'],5,0.19560290000026725,,,,,,,,18,18,Vrouw,Rechts,2,
,xotask,xotask,xotask,4,2,124,124,main,positivefb,-99,easy,8,0.5337698000003002,['n'],1,right,['2'],5,0.18383640000047308,,,,,,,,18,18,Vrouw,Rechts,2,
,xotask,xotask,xotask,5,2,125,125,main,positivefb,-99,hard,29,0.533789699999943,['n'],1,right,['2'],5,0.21174749999954656,,,,,,,,18,18,Vrouw,Rechts,2,
,xotask,xotask,xotask,6,2,126,126,main,positivefb,-99,hard,51,0.6182393000008233,['c'],1,left,['3'],4,0.16421530000025086,,,,,,,,18,18,Vrouw,Rechts,2,
,xotask,xotask,xotask,7,2,127,127,main,positivefb,-99,hard,25,0.567495900000722,['n'],1,right,['2'],5,0.15953059999992547,,,,,,,,18,18,Vrouw,Rechts,2,
,xotask,xotask,xotask,8,2,128,128,main,positivefb,-99,easy,5,0.601036899999599,['n'],1,right,['1'],6,0.15405400000054215,,,,,,,,18,18,Vrouw,Rechts,2,
,xotask,xotask,xotask,9,2,129,129,main,positivefb,-99,average,60,0.8173649000000296,['c'],1,left,['2'],5,0.13214419999985694,,,,,,,,18,18,Vrouw,Rechts,2,
,xotask,xotask,xotask,10,2,130,130,main,positivefb,-99,average,63,0.6659300999999687,['c'],1,left,['2'],5,0.14928349999991042,,,,,,,,18,18,Vrouw,Rechts,2,
,xotask,xotask,xotask,11,2,131,131,main,positivefb,-99,easy,71,0.6825492000007216,['c'],1,left,['1'],6,0.1806877999997596,,,,,,,,18,18,Vrouw,Rechts,2,
,xotask,xotask,xotask,12,2,132,132,main,positivefb,-99,easy,5,0.583932200000163,['n'],1,right,['1'],6,0.19196850000025734,,,,,,,,18,18,Vrouw,Rechts,2,
,xotask,xotask,xotask,13,2,133,133,main,positivefb,-99,average,17,0.5163549999997485,['n'],1,right,['2'],5,0.21215240000037738,,,,,,,,18,18,Vrouw,Rechts,2,
,xotask,xotask,xotask,14,2,134,134,main,positivefb,-99,hard,54,0.7008458000000246,['c'],1,left,['1'],6,0.18445560000054684,,,,,,,,18,18,Vrouw,Rechts,2,
,xotask,xotask,xotask,15,2,135,135,main,positivefb,-99,hard,25,0.5174537000002601,['n'],1,right,['2'],5,0.26830620000055205,,,,,,,,18,18,Vrouw,Rechts,2,
,xotask,xotask,xotask,16,2,136,136,main,positivefb,-99,easy,71,0.7166886000004524,['n'],0,left,['1'],6,0.2556163999997807,,,,,,,,18,18,Vrouw,Rechts,2,
,xotask,xotask,xotask,17,2,137,137,main,positivefb,-99,hard,51,0.7834431999999651,['c'],1,left,['2'],5,0.1662003999999797,,,,,,,,18,18,Vrouw,Rechts,2,
,xotask,xotask,xotask,18,2,138,138,main,positivefb,-99,hard,29,0.9676319999998668,['c'],0,right,['3'],4,0.13810649999959423,,,,,,,,18,18,Vrouw,Rechts,2,
,xotask,xotask,xotask,19,2,139,139,main,positivefb,-99,hard,29,0.6343664999994871,['n'],1,right,['3'],4,0.23567860000002838,,,,,,,,18,18,Vrouw,Rechts,2,
,xotask,xotask,xotask,20,2,140,140,main,positivefb,-99,hard,26,0.7671167999997124,['n'],1,right,['2'],5,0.13999630000034813,,,,,,,,18,18,Vrouw,Rechts,2,
,xotask,xotask,xotask,21,2,141,141,main,positivefb,-99,hard,50,0.6336009000006015,['c'],1,left,['2'],5,0.2869525000005524,,,,,,,,18,18,Vrouw,Rechts,2,
,xotask,xotask,xotask,22,2,142,142,main,positivefb,-99,easy,5,0.6840136999999231,['n'],1,right,['1'],6,0.1929559000000154,,,,,,,,18,18,Vrouw,Rechts,2,
,xotask,xotask,xotask,23,2,143,143,main,positivefb,-99,average,19,0.7846615999997084,['n'],1,right,['3'],4,0.1630557000007684,,,,,,,,18,18,Vrouw,Rechts,2,
,xotask,xotask,xotask,24,2,144,144,main,positivefb,-99,hard,50,0.767818399999669,['c'],1,left,['3'],4,0.13513870000042516,,,,,,,,18,18,Vrouw,Rechts,2,
,xotask,xotask,xotask,25,2,145,145,main,positivefb,-99,hard,52,0.6678774000001795,['c'],1,left,['3'],4,0.19162020000021585,,,,,,,,18,18,Vrouw,Rechts,2,
,xotask,xotask,xotask,26,2,146,146,main,positivefb,-99,average,62,0.6333504000003813,['c'],1,left,['2'],5,0.15952309999920544,,,,,,,,18,18,Vrouw,Rechts,2,
,xotask,xotask,xotask,27,2,147,147,main,positivefb,-99,easy,8,0.6512979999997697,['n'],1,right,['2'],5,0.19982099999924685,,,,,,,,18,18,Vrouw,Rechts,2,
,xotask,xotask,xotask,28,2,148,148,main,positivefb,-99,average,60,0.750887999999577,['n'],0,left,['3'],4,0.411388700000316,,,,,,,,18,18,Vrouw,Rechts,2,
,xotask,xotask,xotask,29,2,149,149,main,positivefb,-99,hard,28,0.750064900000325,['n'],1,right,['3'],4,0.4052445000006628,,,,,,,,18,18,Vrouw,Rechts,2,
,xotask,xotask,xotask,30,2,150,150,main,positivefb,-99,easy,71,0.6669738000000507,['c'],1,left,['2'],5,0.1791638000004241,,,,,,,,18,18,Vrouw,Rechts,2,
,xotask,xotask,xotask,31,2,151,151,main,positivefb,-99,average,64,0.6674848000002385,['c'],1,left,['2'],5,0.186963499999365,,,,,,,,18,18,Vrouw,Rechts,2,
,xotask,xotask,xotask,32,2,152,152,main,positivefb,-99,average,19,0.7006436000001486,['n'],1,right,['1'],6,0.2726161000000502,,,,,,,,18,18,Vrouw,Rechts,2,
,xotask,xotask,xotask,33,2,153,153,main,positivefb,-99,easy,5,0.63397840000016,['n'],1,right,['1'],6,0.18860589999985677,,,,,,,,18,18,Vrouw,Rechts,2,
,xotask,xotask,xotask,34,2,154,154,main,positivefb,-99,hard,50,0.733894699999837,['c'],1,left,['3'],4,0.18588629999976547,,,,,,,,18,18,Vrouw,Rechts,2,
,xotask,xotask,xotask,35,2,155,155,main,positivefb,-99,average,60,0.6343335000001389,['c'],1,left,['3'],4,0.24135630000000674,,,,,,,,18,18,Vrouw,Rechts,2,
,xotask,xotask,xotask,36,2,156,156,main,positivefb,-99,easy,6,0.5846316000006482,['n'],1,right,['2'],5,0.24947270000029675,,,,,,,,18,18,Vrouw,Rechts,2,
,xotask,xotask,xotask,37,2,157,157,main,positivefb,-99,easy,72,0.6505905000003622,['c'],1,left,['1'],6,0.23009430000001885,,,,,,,,18,18,Vrouw,Rechts,2,
,xotask,xotask,xotask,38,2,158,158,main,positivefb,-99,hard,28,0.7501227000002473,['n'],1,right,['3'],4,0.19124229999943054,,,,,,,,18,18,Vrouw,Rechts,2,
,xotask,xotask,xotask,39,2,159,159,main,positivefb,-99,easy,72,0.7344069999999192,['c'],1,left,['2'],5,0.3316762000004019,,,,,,,,18,18,Vrouw,Rechts,2,
,xotask,xotask,xotask,40,2,160,160,main,positivefb,-99,easy,72,0.6335180000005494,['c'],1,left,['3'],4,0.3110019000005195,,,,,,,,18,18,Vrouw,Rechts,2,
,xotask,xotask,xotask,41,2,161,161,main,positivefb,-99,easy,6,0.583816399999705,['n'],1,right,['2'],5,0.22802740000042832,,,,,,,,18,18,Vrouw,Rechts,2,
,xotask,xotask,xotask,42,2,162,162,main,positivefb,-99,average,19,0.7021777999998449,['n'],1,right,['3'],4,0.22440999999980704,,,,,,,,18,18,Vrouw,Rechts,2,
,xotask,xotask,xotask,43,2,163,163,main,positivefb,-99,average,63,0.6180045999999493,['c'],1,left,['3'],4,0.2471841000005952,,,,,,,,18,18,Vrouw,Rechts,2,
,xotask,xotask,xotask,44,2,164,164,main,positivefb,-99,easy,74,0.5332914000000528,['c'],1,left,['2'],5,0.19374710000010964,,,,,,,,18,18,Vrouw,Rechts,2,
,xotask,xotask,xotask,45,2,165,165,main,positivefb,-99,hard,50,0.8833578999992824,['n'],0,left,['3'],4,0.175420500000655,,,,,,,,18,18,Vrouw,Rechts,2,
,xotask,xotask,xotask,46,2,166,166,main,positivefb,-99,easy,72,0.6504557999996905,['c'],1,left,['2'],5,0.19918830000005983,,,,,,,,18,18,Vrouw,Rechts,2,
,xotask,xotask,xotask,47,2,167,167,main,positivefb,-99,easy,72,0.6508859999994456,['c'],1,left,['2'],5,0.21415969999998197,,,,,,,,18,18,Vrouw,Rechts,2,
,xotask,xotask,xotask,48,2,168,168,main,positivefb,-99,hard,54,0.7171271999995952,['c'],1,left,['2'],5,0.21857660000023316,,,,,,,,18,18,Vrouw,Rechts,2,
,xotask,xotask,xotask,49,2,169,169,main,positivefb,-99,average,17,0.6673331000001781,['n'],1,right,['3'],4,0.2718266000001677,,,,,,,,18,18,Vrouw,Rechts,2,
,xotask,xotask,xotask,50,2,170,170,main,positivefb,-99,easy,74,0.5663297999999486,['c'],1,left,['2'],5,0.1589272000001074,,,,,,,,18,18,Vrouw,Rechts,2,
,xotask,xotask,xotask,51,2,171,171,main,positivefb,-99,average,15,0.7506641999998465,['n'],1,right,['2'],5,0.20395320000079664,,,,,,,,18,18,Vrouw,Rechts,2,
,xotask,xotask,xotask,52,2,172,172,main,positivefb,-99,average,15,0.5829185000002326,['n'],1,right,['3'],4,0.19687830000020767,,,,,,,,18,18,Vrouw,Rechts,2,
,xotask,xotask,xotask,53,2,173,173,main,positivefb,-99,average,19,0.6005115000007208,['n'],1,right,['2'],5,0.1256163000007291,,,,,,,,18,18,Vrouw,Rechts,2,
,xotask,xotask,xotask,54,2,174,174,main,positivefb,-99,hard,29,0.7328861999994842,['c'],0,right,['3'],4,0.18042960000002495,,,,,,,,18,18,Vrouw,Rechts,2,
,xotask,xotask,xotask,55,2,175,175,main,positivefb,-99,easy,7,0.5669469999993453,['n'],1,right,['2'],5,0.24043090000031953,,,,,,,,18,18,Vrouw,Rechts,2,
,xotask,xotask,xotask,56,2,176,176,main,positivefb,-99,average,62,0.734534000000167,['c'],1,left,['1'],6,0.25011220000033063,,,,,,,,18,18,Vrouw,Rechts,2,
,xotask,xotask,xotask,57,2,177,177,main,positivefb,-99,average,62,0.7173091000004206,['c'],1,left,['2'],5,0.18055999999978667,,,,,,,,18,18,Vrouw,Rechts,2,
,xotask,xotask,xotask,58,2,178,178,main,positivefb,-99,hard,54,0.8169606000001295,['c'],1,left,['3'],4,0.27817379999942204,,,,,,,,18,18,Vrouw,Rechts,2,
,xotask,xotask,xotask,59,2,179,179,main,positivefb,-99,hard,27,0.7171883999999409,['n'],1,right,['3'],4,0.4399172000003091,,,,,,,,18,18,Vrouw,Rechts,2,
,xotask,xotask,xotask,0,3,180,180,main,positivefb,-99,hard,50,0.7997092000005068,['n'],0,left,['3'],4,0.07377710000037041,,,,,,,,18,18,Vrouw,Rechts,2,
,xotask,xotask,xotask,1,3,181,181,main,positivefb,-99,average,60,0.6171119999999064,['c'],1,left,['3'],4,0.13487250000071072,,,,,,,,18,18,Vrouw,Rechts,2,
,xotask,xotask,xotask,2,3,182,182,main,positivefb,-99,hard,54,0.6344742999999653,['c'],1,left,['2'],5,0.2100590000000011,,,,,,,,18,18,Vrouw,Rechts,2,
,xotask,xotask,xotask,3,3,183,183,main,positivefb,-99,easy,71,0.5333280000004379,['c'],1,left,['2'],5,0.1406128999997236,,,,,,,,18,18,Vrouw,Rechts,2,
,xotask,xotask,xotask,4,3,184,184,main,positivefb,-99,average,19,0.6496102999999493,['n'],1,right,['2'],5,0.16667080000024725,,,,,,,,18,18,Vrouw,Rechts,2,
,xotask,xotask,xotask,5,3,185,185,main,positivefb,-99,average,18,0.7168050000000221,['n'],1,right,['3'],4,0.13918389999980718,,,,,,,,18,18,Vrouw,Rechts,2,
,xotask,xotask,xotask,6,3,186,186,main,positivefb,-99,easy,71,0.5507706999997026,['c'],1,left,['3'],4,0.193218500000512,,,,,,,,18,18,Vrouw,Rechts,2,
,xotask,xotask,xotask,7,3,187,187,main,positivefb,-99,easy,9,0.616908500000136,['n'],1,right,['3'],4,0.12997140000061336,,,,,,,,18,18,Vrouw,Rechts,2,
,xotask,xotask,xotask,8,3,188,188,main,positivefb,-99,average,17,0.6506987000002482,['n'],1,right,['2'],5,0.24363659999926313,,,,,,,,18,18,Vrouw,Rechts,2,
,xotask,xotask,xotask,9,3,189,189,main,positivefb,-99,easy,74,0.5678106000004846,['c'],1,left,['2'],5,0.18898249999983818,,,,,,,,18,18,Vrouw,Rechts,2,
,xotask,xotask,xotask,10,3,190,190,main,positivefb,-99,hard,25,0.8008587999993324,['n'],1,right,['3'],4,0.20582379999996192,,,,,,,,18,18,Vrouw,Rechts,2,
,xotask,xotask,xotask,11,3,191,191,main,positivefb,-99,average,15,0.7496081999997841,['n'],1,right,['2'],5,0.11230719999912253,,,,,,,,18,18,Vrouw,Rechts,2,
,xotask,xotask,xotask,12,3,192,192,main,positivefb,-99,hard,29,0.5840801000003921,['n'],1,right,['3'],4,0.19754939999984344,,,,,,,,18,18,Vrouw,Rechts,2,
,xotask,xotask,xotask,13,3,193,193,main,positivefb,-99,average,63,0.6333340000001044,['n'],0,left,['3'],4,0.14978530000007595,,,,,,,,18,18,Vrouw,Rechts,2,
,xotask,xotask,xotask,14,3,194,194,main,positivefb,-99,hard,50,0.6177820999992036,['c'],1,left,['3'],4,0.14371480000045267,,,,,,,,18,18,Vrouw,Rechts,2,
,xotask,xotask,xotask,15,3,195,195,main,positivefb,-99,easy,5,0.7173362000003181,['n'],1,right,['2'],5,0.12680819999968662,,,,,,,,18,18,Vrouw,Rechts,2,
,xotask,xotask,xotask,16,3,196,196,main,positivefb,-99,average,18,0.6673533000002863,['n'],1,right,['2'],5,0.1522955999998885,,,,,,,,18,18,Vrouw,Rechts,2,
,xotask,xotask,xotask,17,3,197,197,main,positivefb,-99,average,64,0.617158300000483,['c'],1,left,['2'],5,0.1772713999998814,,,,,,,,18,18,Vrouw,Rechts,2,
,xotask,xotask,xotask,18,3,198,198,main,positivefb,-99,hard,50,0.683241600000656,['n'],0,left,['3'],4,0.20854570000028616,,,,,,,,18,18,Vrouw,Rechts,2,
,xotask,xotask,xotask,19,3,199,199,main,positivefb,-99,average,17,0.7166026000004422,['n'],1,right,['1'],6,0.2853311999997459,,,,,,,,18,18,Vrouw,Rechts,2,
,xotask,xotask,xotask,20,3,200,200,main,positivefb,-99,hard,28,0.683333699999821,['n'],1,right,['2'],5,0.1511927999999898,,,,,,,,18,18,Vrouw,Rechts,2,
,xotask,xotask,xotask,21,3,201,201,main,positivefb,-99,average,17,0.6338145999998233,['n'],1,right,['2'],5,0.21607649999987188,,,,,,,,18,18,Vrouw,Rechts,2,
,xotask,xotask,xotask,22,3,202,202,main,positivefb,-99,hard,51,0.5003320999994685,['c'],1,left,['3'],4,0.23659810000026482,,,,,,,,18,18,Vrouw,Rechts,2,
,xotask,xotask,xotask,23,3,203,203,main,positivefb,-99,average,64,0.6166375000002517,['c'],1,left,['2'],5,0.24308100000052946,,,,,,,,18,18,Vrouw,Rechts,2,
,xotask,xotask,xotask,24,3,204,204,main,positivefb,-99,average,16,0.6175395000000208,['n'],1,right,['3'],4,0.20948429999953078,,,,,,,,18,18,Vrouw,Rechts,2,
,xotask,xotask,xotask,25,3,205,205,main,positivefb,-99,average,16,0.584705500000382,['n'],1,right,['2'],5,0.1872267999997348,,,,,,,,18,18,Vrouw,Rechts,2,
,xotask,xotask,xotask,26,3,206,206,main,positivefb,-99,easy,74,0.5519708000001629,['c'],1,left,['2'],5,0.21451260000048933,,,,,,,,18,18,Vrouw,Rechts,2,
,xotask,xotask,xotask,27,3,207,207,main,positivefb,-99,easy,5,0.6165683999997782,['n'],1,right,['2'],5,0.19807830000081594,,,,,,,,18,18,Vrouw,Rechts,2,
,xotask,xotask,xotask,28,3,208,208,main,positivefb,-99,easy,6,0.5170533000000432,['n'],1,right,['1'],6,0.1625506000000314,,,,,,,,18,18,Vrouw,Rechts,2,
,xotask,xotask,xotask,29,3,209,209,main,positivefb,-99,easy,8,0.63327770000069,['n'],1,right,['1'],6,0.16343610000058106,,,,,,,,18,18,Vrouw,Rechts,2,
,xotask,xotask,xotask,30,3,210,210,main,positivefb,-99,hard,50,0.7340887000000293,['c'],1,left,['3'],4,0.17751330000010057,,,,,,,,18,18,Vrouw,Rechts,2,
,xotask,xotask,xotask,31,3,211,211,main,positivefb,-99,easy,5,0.7501486000001023,['c'],0,right,['8'],3,0.7972321999995984,,,,,,,,18,18,Vrouw,Rechts,2,
,xotask,xotask,xotask,32,3,212,212,main,positivefb,-99,average,61,0.7175691000002189,['c'],1,left,['3'],4,0.30607789999976376,,,,,,,,18,18,Vrouw,Rechts,2,
,xotask,xotask,xotask,33,3,213,213,main,positivefb,-99,easy,74,0.6165985000006913,['c'],1,left,['2'],5,0.23705059999974765,,,,,,,,18,18,Vrouw,Rechts,2,
,xotask,xotask,xotask,34,3,214,214,main,positivefb,-99,hard,28,0.7334601000002294,['n'],1,right,['3'],4,0.2086911999995209,,,,,,,,18,18,Vrouw,Rechts,2,
,xotask,xotask,xotask,35,3,215,215,main,positivefb,-99,hard,51,0.6840401999997994,['n'],0,left,['3'],4,0.27775870000004943,,,,,,,,18,18,Vrouw,Rechts,2,
,xotask,xotask,xotask,36,3,216,216,main,positivefb,-99,hard,29,0.783895699999448,['n'],1,right,['3'],4,0.2525751000002856,,,,,,,,18,18,Vrouw,Rechts,2,
,xotask,xotask,xotask,37,3,217,217,main,positivefb,-99,easy,6,0.6333963000006406,['n'],1,right,['1'],6,0.24209979999977804,,,,,,,,18,18,Vrouw,Rechts,2,
,xotask,xotask,xotask,38,3,218,218,main,positivefb,-99,hard,28,0.6999607000007018,['c'],0,right,['3'],4,0.3087666999999783,,,,,,,,18,18,Vrouw,Rechts,2,
,xotask,xotask,xotask,39,3,219,219,main,positivefb,-99,average,64,0.5672769000002518,['c'],1,left,['3'],4,0.27548769999975775,,,,,,,,18,18,Vrouw,Rechts,2,
,xotask,xotask,xotask,40,3,220,220,main,positivefb,-99,hard,52,0.7848127999995995,['n'],0,left,['3'],4,0.17750230000001466,,,,,,,,18,18,Vrouw,Rechts,2,
,xotask,xotask,xotask,41,3,221,221,main,positivefb,-99,average,63,0.9327749000003678,['c'],1,left,['3'],4,0.20623580000028596,,,,,,,,18,18,Vrouw,Rechts,2,
,xotask,xotask,xotask,42,3,222,222,main,positivefb,-99,easy,8,0.5505640000001222,['n'],1,right,['2'],5,0.1445771999997305,,,,,,,,18,18,Vrouw,Rechts,2,
,xotask,xotask,xotask,43,3,223,223,main,positivefb,-99,easy,73,0.7020698999995147,['c'],1,left,['2'],5,0.20808329999999842,,,,,,,,18,18,Vrouw,Rechts,2,
,xotask,xotask,xotask,44,3,224,224,main,positivefb,-99,average,16,0.7000195000000531,['n'],1,right,['3'],4,0.2697932999999466,,,,,,,,18,18,Vrouw,Rechts,2,
,xotask,xotask,xotask,45,3,225,225,main,positivefb,-99,hard,51,0.6346163999996861,['c'],1,left,['3'],4,0.22552420000010898,,,,,,,,18,18,Vrouw,Rechts,2,
,xotask,xotask,xotask,46,3,226,226,main,positivefb,-99,hard,25,0.6681929999995191,['n'],1,right,['2'],5,0.17555040000024746,,,,,,,,18,18,Vrouw,Rechts,2,
,xotask,xotask,xotask,47,3,227,227,main,positivefb,-99,hard,27,0.7184498000005988,['n'],1,right,['2'],5,0.18049339999924996,,,,,,,,18,18,Vrouw,Rechts,2,
,xotask,xotask,xotask,48,3,228,228,main,positivefb,-99,hard,27,0.6846707000004244,['n'],1,right,['2'],5,0.25996850000046834,,,,,,,,18,18,Vrouw,Rechts,2,
,xotask,xotask,xotask,49,3,229,229,main,positivefb,-99,easy,72,1.4343027999993865,['c'],1,left,['3'],4,0.17674850000003062,,,,,,,,18,18,Vrouw,Rechts,2,
,xotask,xotask,xotask,50,3,230,230,main,positivefb,-99,easy,5,0.6514141999996355,['n'],1,right,['2'],5,0.15269900000021153,,,,,,,,18,18,Vrouw,Rechts,2,
,xotask,xotask,xotask,51,3,231,231,main,positivefb,-99,average,64,1.0502596999995149,['n'],0,left,['3'],4,0.2897511000001032,,,,,,,,18,18,Vrouw,Rechts,2,
,xotask,xotask,xotask,52,3,232,232,main,positivefb,-99,easy,70,0.6840283000001364,['c'],1,left,['3'],4,0.18812869999965187,,,,,,,,18,18,Vrouw,Rechts,2,
,xotask,xotask,xotask,53,3,233,233,main,positivefb,-99,hard,53,0.81739430000016,['c'],1,left,['3'],4,0.13225500000044121,,,,,,,,18,18,Vrouw,Rechts,2,
,xotask,xotask,xotask,54,3,234,234,main,positivefb,-99,easy,70,0.6848248000005697,['c'],1,left,['2'],5,0.15652230000068812,,,,,,,,18,18,Vrouw,Rechts,2,
,xotask,xotask,xotask,55,3,235,235,main,positivefb,-99,average,62,0.6169400999997379,['c'],1,left,['3'],4,0.254490899999837,,,,,,,,18,18,Vrouw,Rechts,2,
,xotask,xotask,xotask,56,3,236,236,main,positivefb,-99,average,63,0.617173399999956,['c'],1,left,['3'],4,0.2603350000008504,,,,,,,,18,18,Vrouw,Rechts,2,
,xotask,xotask,xotask,57,3,237,237,main,positivefb,-99,hard,28,0.6168373999998948,['n'],1,right,['3'],4,0.1947030999999697,,,,,,,,18,18,Vrouw,Rechts,2,
,xotask,xotask,xotask,58,3,238,238,main,positivefb,-99,easy,8,0.651101400000698,['n'],1,right,['2'],5,0.14599559999987832,,,,,,,,18,18,Vrouw,Rechts,2,
,xotask,xotask,xotask,59,3,239,239,main,positivefb,-99,easy,74,0.6839366999993217,['c'],1,left,['2'],5,0.20189449999998033,,,,,,,,18,18,Vrouw,Rechts,2,
,xotask,xotask,xotask,0,4,240,240,main,positivefb,-99,hard,53,0.700746600000457,['c'],1,left,['2'],5,0.20075350000024628,,,,,,,,18,18,Vrouw,Rechts,2,
,xotask,xotask,xotask,1,4,241,241,main,positivefb,-99,hard,29,0.7006209000001036,['n'],1,right,['3'],4,0.1423162000000957,,,,,,,,18,18,Vrouw,Rechts,2,
,xotask,xotask,xotask,2,4,242,242,main,positivefb,-99,hard,27,0.5837273999995887,['n'],1,right,['3'],4,0.3450396999996883,,,,,,,,18,18,Vrouw,Rechts,2,
,xotask,xotask,xotask,3,4,243,243,main,positivefb,-99,average,17,0.6005027999999584,['n'],1,right,['3'],4,0.1803120000004128,,,,,,,,18,18,Vrouw,Rechts,2,
,xotask,xotask,xotask,4,4,244,244,main,positivefb,-99,hard,27,0.5836102000002938,['n'],1,right,['3'],4,0.26409310000053665,,,,,,,,18,18,Vrouw,Rechts,2,
,xotask,xotask,xotask,5,4,245,245,main,positivefb,-99,average,15,0.6338739000002533,['n'],1,right,['3'],4,0.26108840000051714,,,,,,,,18,18,Vrouw,Rechts,2,
,xotask,xotask,xotask,6,4,246,246,main,positivefb,-99,average,16,0.5341763000005813,['n'],1,right,['3'],4,0.2707014999996318,,,,,,,,18,18,Vrouw,Rechts,2,
,xotask,xotask,xotask,7,4,247,247,main,positivefb,-99,average,19,0.5338019999999233,['n'],1,right,['2'],5,0.49562270000024,,,,,,,,18,18,Vrouw,Rechts,2,
,xotask,xotask,xotask,8,4,248,248,main,positivefb,-99,average,64,0.6505157000001418,['c'],1,left,['2'],5,0.1547435000002224,,,,,,,,18,18,Vrouw,Rechts,2,
,xotask,xotask,xotask,9,4,249,249,main,positivefb,-99,hard,54,0.8676023999996687,['c'],1,left,['3'],4,0.17876410000008036,,,,,,,,18,18,Vrouw,Rechts,2,
,xotask,xotask,xotask,10,4,250,250,main,positivefb,-99,easy,70,0.7340462000001935,['c'],1,left,['2'],5,0.19165609999981825,,,,,,,,18,18,Vrouw,Rechts,2,
,xotask,xotask,xotask,11,4,251,251,main,positivefb,-99,easy,71,0.6842987999998513,['c'],1,left,['2'],5,0.2061172000003353,,,,,,,,18,18,Vrouw,Rechts,2,
,xotask,xotask,xotask,12,4,252,252,main,positivefb,-99,hard,29,0.8340514999999868,['n'],1,right,['3'],4,0.205200600000353,,,,,,,,18,18,Vrouw,Rechts,2,
,xotask,xotask,xotask,13,4,253,253,main,positivefb,-99,average,15,0.6506595999999263,['n'],1,right,['3'],4,0.25951009999971575,,,,,,,,18,18,Vrouw,Rechts,2,
,xotask,xotask,xotask,14,4,254,254,main,positivefb,-99,average,60,0.6180676000003587,['c'],1,left,['3'],4,0.1861389000005147,,,,,,,,18,18,Vrouw,Rechts,2,
,xotask,xotask,xotask,15,4,255,255,main,positivefb,-99,average,60,0.6342872000004718,['c'],1,left,['3'],4,0.3139059000004636,,,,,,,,18,18,Vrouw,Rechts,2,
,xotask,xotask,xotask,16,4,256,256,main,positivefb,-99,hard,29,0.7337754000000132,['n'],1,right,['3'],4,0.1851305999998658,,,,,,,,18,18,Vrouw,Rechts,2,
,xotask,xotask,xotask,17,4,257,257,main,positivefb,-99,average,61,0.5842173000000912,['c'],1,left,['3'],4,0.2755176000000574,,,,,,,,18,18,Vrouw,Rechts,2,
,xotask,xotask,xotask,18,4,258,258,main,positivefb,-99,average,19,0.6005549000001338,['n'],1,right,['3'],4,0.20906939999986207,,,,,,,,18,18,Vrouw,Rechts,2,
,xotask,xotask,xotask,19,4,259,259,main,positivefb,-99,easy,9,0.6175067000003764,['n'],1,right,['2'],5,0.1444459000003917,,,,,,,,18,18,Vrouw,Rechts,2,
,xotask,xotask,xotask,20,4,260,260,main,positivefb,-99,hard,25,0.7689441000002262,['n'],1,right,['3'],4,0.1736347999994905,,,,,,,,18,18,Vrouw,Rechts,2,
,xotask,xotask,xotask,21,4,261,261,main,positivefb,-99,easy,6,0.5671290000000226,['n'],1,right,['3'],4,0.2821961999998166,,,,,,,,18,18,Vrouw,Rechts,2,
,xotask,xotask,xotask,22,4,262,262,main,positivefb,-99,average,17,0.5671707000001334,['n'],1,right,['2'],5,0.08901869999954215,,,,,,,,18,18,Vrouw,Rechts,2,
,xotask,xotask,xotask,23,4,263,263,main,positivefb,-99,hard,26,0.6842372999999498,['n'],1,right,['2'],5,0.17833059999975376,,,,,,,,18,18,Vrouw,Rechts,2,
,xotask,xotask,xotask,24,4,264,264,main,positivefb,-99,easy,6,0.5516901999999391,['n'],1,right,['1'],6,0.18321800000012445,,,,,,,,18,18,Vrouw,Rechts,2,
,xotask,xotask,xotask,25,4,265,265,main,positivefb,-99,easy,72,0.6845157999996445,['c'],1,left,['1'],6,0.1724885000003269,,,,,,,,18,18,Vrouw,Rechts,2,
,xotask,xotask,xotask,26,4,266,266,main,positivefb,-99,easy,74,0.6155896000000212,['c'],1,left,['3'],4,0.23016159999951924,,,,,,,,18,18,Vrouw,Rechts,2,
,xotask,xotask,xotask,27,4,267,267,main,positivefb,-99,easy,73,0.5672388000002684,['c'],1,left,['2'],5,0.17552669999986392,,,,,,,,18,18,Vrouw,Rechts,2,
,xotask,xotask,xotask,28,4,268,268,main,positivefb,-99,hard,53,0.5835072999998374,['c'],1,left,['3'],4,0.28241390000039246,,,,,,,,18,18,Vrouw,Rechts,2,
,xotask,xotask,xotask,29,4,269,269,main,positivefb,-99,hard,54,0.501092399999834,['c'],1,left,['3'],4,0.1796014000001378,,,,,,,,18,18,Vrouw,Rechts,2,
,xotask,xotask,xotask,30,4,270,270,main,positivefb,-99,average,16,0.6166786000003412,['n'],1,right,['3'],4,0.2531581000002916,,,,,,,,18,18,Vrouw,Rechts,2,
,xotask,xotask,xotask,31,4,271,271,main,positivefb,-99,hard,52,0.8666874999998981,['c'],1,left,['3'],4,0.08852859999933571,,,,,,,,18,18,Vrouw,Rechts,2,
,xotask,xotask,xotask,32,4,272,272,main,positivefb,-99,easy,5,0.5998263000001316,['n'],1,right,['2'],5,0.11823670000012498,,,,,,,,18,18,Vrouw,Rechts,2,
,xotask,xotask,xotask,33,4,273,273,main,positivefb,-99,average,15,0.6508615000002465,['n'],1,right,['1'],6,0.18450430000029883,,,,,,,,18,18,Vrouw,Rechts,2,
,xotask,xotask,xotask,34,4,274,274,main,positivefb,-99,easy,72,0.7178254999998899,['c'],1,left,['1'],6,0.2129906000000119,,,,,,,,18,18,Vrouw,Rechts,2,
,xotask,xotask,xotask,35,4,275,275,main,positivefb,-99,hard,54,0.5996163999998316,['c'],1,left,['3'],4,0.25360839999939344,,,,,,,,18,18,Vrouw,Rechts,2,
,xotask,xotask,xotask,36,4,276,276,main,positivefb,-99,hard,27,0.5013007999996262,['n'],1,right,['3'],4,0.19224399999984598,,,,,,,,18,18,Vrouw,Rechts,2,
,xotask,xotask,xotask,37,4,277,277,main,positivefb,-99,easy,5,0.5001024000002872,['n'],1,right,['2'],5,0.1971542999999656,,,,,,,,18,18,Vrouw,Rechts,2,
,xotask,xotask,xotask,38,4,278,278,main,positivefb,-99,average,62,0.7656233000006978,['c'],1,left,['3'],4,0.2250677000001815,,,,,,,,18,18,Vrouw,Rechts,2,
,xotask,xotask,xotask,39,4,279,279,main,positivefb,-99,easy,8,0.5668872999995074,['n'],1,right,['2'],5,0.1621779000006427,,,,,,,,18,18,Vrouw,Rechts,2,
,xotask,xotask,xotask,40,4,280,280,main,positivefb,-99,easy,8,0.784588900000017,['n'],1,right,['2'],5,0.15745699999934004,,,,,,,,18,18,Vrouw,Rechts,2,
,xotask,xotask,xotask,41,4,281,281,main,positivefb,-99,easy,7,0.5671627000001536,['n'],1,right,['1'],6,0.1536193000001731,,,,,,,,18,18,Vrouw,Rechts,2,
,xotask,xotask,xotask,42,4,282,282,main,positivefb,-99,hard,54,0.6342503999994733,['c'],1,left,['3'],4,0.21035490000031132,,,,,,,,18,18,Vrouw,Rechts,2,
,xotask,xotask,xotask,43,4,283,283,main,positivefb,-99,hard,26,0.5675234999998793,['c'],0,right,['3'],4,0.20512969999981578,,,,,,,,18,18,Vrouw,Rechts,2,
,xotask,xotask,xotask,44,4,284,284,main,positivefb,-99,hard,53,0.6333420000000842,['c'],1,left,['3'],4,0.23628649999955087,,,,,,,,18,18,Vrouw,Rechts,2,
,xotask,xotask,xotask,45,4,285,285,main,positivefb,-99,easy,71,0.5493913000000248,['c'],1,left,['2'],5,0.18133970000053523,,,,,,,,18,18,Vrouw,Rechts,2,
,xotask,xotask,xotask,46,4,286,286,main,positivefb,-99,easy,7,0.6167013999993287,['n'],1,right,['2'],5,0.17475240000021586,,,,,,,,18,18,Vrouw,Rechts,2,
,xotask,xotask,xotask,47,4,287,287,main,positivefb,-99,easy,71,0.6828137000002243,['c'],1,left,['2'],5,0.10066740000002028,,,,,,,,18,18,Vrouw,Rechts,2,
,xotask,xotask,xotask,48,4,288,288,main,positivefb,-99,average,60,0.5841013999997813,['c'],1,left,['2'],5,0.13916060000065045,,,,,,,,18,18,Vrouw,Rechts,2,
,xotask,xotask,xotask,49,4,289,289,main,positivefb,-99,hard,25,0.8015832999999475,['n'],1,right,['3'],4,0.17390100000011444,,,,,,,,18,18,Vrouw,Rechts,2,
,xotask,xotask,xotask,50,4,290,290,main,positivefb,-99,average,60,0.6510355000000345,['c'],1,left,['3'],4,0.2704355999994732,,,,,,,,18,18,Vrouw,Rechts,2,
,xotask,xotask,xotask,51,4,291,291,main,positivefb,-99,average,60,0.6165553999999247,['c'],1,left,['2'],5,0.1712201999998797,,,,,,,,18,18,Vrouw,Rechts,2,
,xotask,xotask,xotask,52,4,292,292,main,positivefb,-99,hard,53,0.683742500000335,['c'],1,left,['3'],4,0.18656790000022738,,,,,,,,18,18,Vrouw,Rechts,2,
,xotask,xotask,xotask,53,4,293,293,main,positivefb,-99,average,63,0.51763899999969,['c'],1,left,['2'],5,0.20820410000033007,,,,,,,,18,18,Vrouw,Rechts,2,
,xotask,xotask,xotask,54,4,294,294,main,positivefb,-99,average,18,0.6160598999995273,['c'],0,right,['2'],5,0.799064300000282,,,,,,,,18,18,Vrouw,Rechts,2,
,xotask,xotask,xotask,55,4,295,295,main,positivefb,-99,average,64,0.7179384000000937,['c'],1,left,['2'],5,0.12229909999950905,,,,,,,,18,18,Vrouw,Rechts,2,
,xotask,xotask,xotask,56,4,296,296,main,positivefb,-99,easy,72,0.7496750999998767,['c'],1,left,['3'],4,0.16070189999936701,,,,,,,,18,18,Vrouw,Rechts,2,
,xotask,xotask,xotask,57,4,297,297,main,positivefb,-99,easy,73,0.7162885000007009,['c'],1,left,['2'],5,0.14269179999973858,,,,,,,,18,18,Vrouw,Rechts,2,
,xotask,xotask,xotask,58,4,298,298,main,positivefb,-99,easy,9,0.6845141000003423,['n'],1,right,['2'],5,0.22354470000027504,,,,,,,,18,18,Vrouw,Rechts,2,
,xotask,xotask,xotask,59,4,299,299,main,positivefb,-99,hard,50,0.8676304999999047,['c'],1,left,['3'],4,0.2530354999998963,,,,,,,,18,18,Vrouw,Rechts,2,
,xotask,xotask,xotask,0,0,0,300,training,positivefb,94,easy,9,0.7509876000003715,['n'],1,right,['3'],4,0.2014707999996972,,,,,,,,18,18,Vrouw,Rechts,2,
,xotask,xotask,xotask,1,0,1,301,training,positivefb,96,average,63,0.6487928000005923,['c'],1,left,['2'],5,0.18298999999933585,,,,,,,,18,18,Vrouw,Rechts,2,
,xotask,xotask,xotask,2,0,2,302,training,positivefb,90,average,62,0.7328612999999677,['c'],1,left,['3'],4,0.15478379999967729,,,,,,,,18,18,Vrouw,Rechts,2,
,xotask,xotask,xotask,3,0,3,303,training,positivefb,99,easy,72,0.5663079999994807,['c'],1,left,['2'],5,0.11007800000061252,,,,,,,,18,18,Vrouw,Rechts,2,
,xotask,xotask,xotask,4,0,4,304,training,positivefb,94,hard,28,0.7504662999999709,['n'],1,right,['3'],4,0.1961434000004374,,,,,,,,18,18,Vrouw,Rechts,2,
,xotask,xotask,xotask,5,0,5,305,training,positivefb,96,easy,6,0.6330472999998165,['n'],1,right,['2'],5,0.10790569999971922,,,,,,,,18,18,Vrouw,Rechts,2,
,xotask,xotask,xotask,6,0,6,306,training,positivefb,93,average,60,0.6343097999997553,['c'],1,left,['2'],5,0.11751580000054673,,,,,,,,18,18,Vrouw,Rechts,2,
,xotask,xotask,xotask,7,0,7,307,training,positivefb,91,hard,28,0.8336005999999543,['n'],1,right,['2'],5,0.1278242999997019,,,,,,,,18,18,Vrouw,Rechts,2,
,xotask,xotask,xotask,8,0,8,308,training,positivefb,86,average,18,0.7662049999998999,['c'],0,right,['2'],5,0.12530960000003688,,,,,,,,18,18,Vrouw,Rechts,2,
,xotask,xotask,xotask,9,0,9,309,training,positivefb,93,hard,53,0.6004230999997162,['c'],1,left,['2'],5,0.1358461999998326,,,,,,,,18,18,Vrouw,Rechts,2,
,xotask,xotask,xotask,10,0,10,310,training,positivefb,99,easy,6,0.5506955000000744,['n'],1,right,['1'],6,0.15705269999943994,,,,,,,,18,18,Vrouw,Rechts,2,
,xotask,xotask,xotask,11,0,11,311,training,positivefb,95,easy,71,0.6828761000006125,['c'],1,left,['1'],6,0.09995639999942796,,,,,,,,18,18,Vrouw,Rechts,2,
,xotask,xotask,xotask,12,0,12,312,training,positivefb,96,average,62,0.6317083000003549,['c'],1,left,['1'],6,0.14981650000027003,,,,,,,,18,18,Vrouw,Rechts,2,
,xotask,xotask,xotask,13,0,13,313,training,positivefb,96,hard,27,0.6329412000004595,['n'],1,right,['2'],5,0.09498600000006263,,,,,,,,18,18,Vrouw,Rechts,2,
,xotask,xotask,xotask,14,0,14,314,training,positivefb,97,hard,28,0.6000097000005553,['n'],1,right,['2'],5,0.10752469999988534,,,,,,,,18,18,Vrouw,Rechts,2,
,xotask,xotask,xotask,15,0,15,315,training,positivefb,95,easy,7,0.6345675000002302,['n'],1,right,['1'],6,0.16707660000065516,,,,,,,,18,18,Vrouw,Rechts,2,
,xotask,xotask,xotask,16,0,16,316,training,positivefb,85,easy,9,0.7670718999997916,['n'],1,right,['1'],6,0.10546370000065508,,,,,,,,18,18,Vrouw,Rechts,2,
,xotask,xotask,xotask,17,0,17,317,training,positivefb,94,average,19,0.5171798000001218,['n'],1,right,['1'],6,0.16047439999965718,,,,,,,,18,18,Vrouw,Rechts,2,
,xotask,xotask,xotask,18,0,18,318,training,positivefb,96,easy,74,0.650001599999996,['c'],1,left,['2'],5,0.06570740000006481,,,,,,,,18,18,Vrouw,Rechts,2,
,xotask,xotask,xotask,19,0,19,319,training,positivefb,83,hard,26,1.017342699999972,['n'],1,right,['3'],4,0.26232440000057977,,,,,,,,18,18,Vrouw,Rechts,2,
,xotask,xotask,xotask,20,0,20,320,training,positivefb,89,hard,54,0.8674137000007249,['c'],1,left,['3'],4,0.186057100000653,,,,,,,,18,18,Vrouw,Rechts,2,
,xotask,xotask,xotask,21,0,21,321,training,positivefb,92,easy,6,0.5995330999994621,['n'],1,right,['2'],5,0.27485669999987294,,,,,,,,18,18,Vrouw,Rechts,2,
,xotask,xotask,xotask,22,0,22,322,training,positivefb,92,easy,8,0.6342333000002327,['n'],1,right,['2'],5,0.1425509000000602,,,,,,,,18,18,Vrouw,Rechts,2,
,xotask,xotask,xotask,23,0,23,323,training,positivefb,97,easy,70,0.6170172000001912,['c'],1,left,['2'],5,0.12109129999953439,,,,,,,,18,18,Vrouw,Rechts,2,
,xotask,xotask,xotask,24,0,24,324,training,positivefb,82,hard,25,0.9677642999995442,['n'],1,right,['3'],4,0.16531510000004346,,,,,,,,18,18,Vrouw,Rechts,2,
,xotask,xotask,xotask,25,0,25,325,training,positivefb,95,hard,52,0.6328888000007282,['n'],0,left,['3'],4,0.21375410000018746,,,,,,,,18,18,Vrouw,Rechts,2,
,xotask,xotask,xotask,26,0,26,326,training,positivefb,85,average,60,0.5832102000003943,['n'],0,left,['3'],4,0.134337599999526,,,,,,,,18,18,Vrouw,Rechts,2,
,xotask,xotask,xotask,27,0,27,327,training,positivefb,98,easy,73,0.7654042000003756,['c'],1,left,['3'],4,0.1386622999998508,,,,,,,,18,18,Vrouw,Rechts,2,
,xotask,xotask,xotask,28,0,28,328,training,positivefb,98,easy,71,0.6502660999994987,['c'],1,left,['3'],4,0.1312774999996691,,,,,,,,18,18,Vrouw,Rechts,2,
,xotask,xotask,xotask,29,0,29,329,training,positivefb,93,easy,5,0.5663125999999465,['n'],1,right,['2'],5,0.15189419999933307,,,,,,,,18,18,Vrouw,Rechts,2,
,xotask,xotask,xotask,30,0,30,330,training,positivefb,95,average,16,0.5331843000003573,['n'],1,right,['2'],5,0.35729950000040844,,,,,,,,18,18,Vrouw,Rechts,2,
,xotask,xotask,xotask,31,0,31,331,training,positivefb,97,hard,53,0.5840533000000505,['c'],1,left,['2'],5,0.09506560000045283,,,,,,,,18,18,Vrouw,Rechts,2,
,xotask,xotask,xotask,32,0,32,332,training,positivefb,98,average,18,0.5510364000001573,['n'],1,right,['2'],5,0.19013730000006035,,,,,,,,18,18,Vrouw,Rechts,2,
,xotask,xotask,xotask,33,0,33,333,training,positivefb,68,hard,28,0.5650432000002183,['n'],1,right,['3'],4,0.32827759999963746,,,,,,,,18,18,Vrouw,Rechts,2,
,xotask,xotask,xotask,34,0,34,334,training,positivefb,93,hard,25,0.5838624999996682,['n'],1,right,['3'],4,0.204160100000081,,,,,,,,18,18,Vrouw,Rechts,2,
,xotask,xotask,xotask,35,0,35,335,training,positivefb,94,easy,74,0.8173806000004333,['c'],1,left,['2'],5,0.10008670000024722,,,,,,,,18,18,Vrouw,Rechts,2,
,xotask,xotask,xotask,36,0,36,336,training,positivefb,93,average,18,0.6826994000002742,['n'],1,right,['2'],5,0.18025760000000446,,,,,,,,18,18,Vrouw,Rechts,2,
,xotask,xotask,xotask,37,0,37,337,training,positivefb,89,hard,52,0.7995994000002611,['c'],1,left,['3'],4,0.19719869999971706,,,,,,,,18,18,Vrouw,Rechts,2,
,xotask,xotask,xotask,38,0,38,338,training,positivefb,97,average,63,0.7995538999994096,['c'],1,left,['3'],4,0.1497241999995822,,,,,,,,18,18,Vrouw,Rechts,2,
,xotask,xotask,xotask,39,0,39,339,training,positivefb,95,average,64,0.7333744000006845,['c'],1,left,['3'],4,0.13888570000017353,,,,,,,,18,18,Vrouw,Rechts,2,
,xotask,xotask,xotask,40,0,40,340,training,positivefb,88,average,19,0.6166597999999794,['n'],1,right,['3'],4,0.18093600000065635,,,,,,,,18,18,Vrouw,Rechts,2,
,xotask,xotask,xotask,41,0,41,341,training,positivefb,84,average,62,0.8656817999999475,['c'],1,left,['3'],4,0.15526980000049662,,,,,,,,18,18,Vrouw,Rechts,2,
,xotask,xotask,xotask,42,0,42,342,training,positivefb,93,hard,54,0.5331207000008362,['c'],1,left,['3'],4,0.3368626999999833,,,,,,,,18,18,Vrouw,Rechts,2,
,xotask,xotask,xotask,43,0,43,343,training,positivefb,96,average,60,0.5167272999997294,['c'],1,left,['3'],4,0.15802400000029593,,,,,,,,18,18,Vrouw,Rechts,2,
,xotask,xotask,xotask,44,0,44,344,training,positivefb,96,hard,53,0.600718799999413,['c'],1,left,['3'],4,0.1290219000002253,,,,,,,,18,18,Vrouw,Rechts,2,
,xotask,xotask,xotask,45,0,45,345,training,positivefb,98,hard,50,0.517342500000268,['c'],1,left,['3'],4,0.15987009999935253,,,,,,,,18,18,Vrouw,Rechts,2,
,xotask,xotask,xotask,46,0,46,346,training,positivefb,96,average,62,0.734064500000386,['c'],1,left,['3'],4,0.13144999999985885,,,,,,,,18,18,Vrouw,Rechts,2,
,xotask,xotask,xotask,47,0,47,347,training,positivefb,50,average,16,0.7336420000001453,['c'],0,right,['2'],5,0.24968919999992067,,,,,,,,18,18,Vrouw,Rechts,2,
,xotask,xotask,xotask,48,0,48,348,training,positivefb,95,easy,71,0.8004944999993313,['c'],1,left,['3'],4,0.09570420000000013,,,,,,,,18,18,Vrouw,Rechts,2,
,xotask,xotask,xotask,49,0,49,349,training,positivefb,97,easy,9,0.6672895000001517,['n'],1,right,['2'],5,0.15350750000015978,,,,,,,,18,18,Vrouw,Rechts,2,
,xotask,xotask,xotask,50,0,50,350,training,positivefb,79,hard,52,0.7999743000000308,['n'],0,left,['2'],5,0.1556387000000541,,,,,,,,18,18,Vrouw,Rechts,2,
,xotask,xotask,xotask,51,0,51,351,training,positivefb,96,average,19,0.5671488999996654,['n'],1,right,['2'],5,0.2551337999993848,,,,,,,,18,18,Vrouw,Rechts,2,
,xotask,xotask,xotask,52,0,52,352,training,positivefb,95,average,18,0.634325600000011,['n'],1,right,['3'],4,0.1555623000003834,,,,,,,,18,18,Vrouw,Rechts,2,
,xotask,xotask,xotask,53,0,53,353,training,positivefb,94,easy,74,0.6496678000003158,['c'],1,left,['2'],5,0.09203140000045096,,,,,,,,18,18,Vrouw,Rechts,2,
,xotask,xotask,xotask,54,0,54,354,training,positivefb,97,hard,51,0.6990315000002738,['c'],1,left,['3'],4,0.268583199999739,,,,,,,,18,18,Vrouw,Rechts,2,
,xotask,xotask,xotask,55,0,55,355,training,positivefb,94,easy,9,0.7006181999995533,['n'],1,right,['2'],5,0.1258239999997386,,,,,,,,18,18,Vrouw,Rechts,2,
,xotask,xotask,xotask,56,0,56,356,training,positivefb,99,easy,73,0.7661274000001868,['c'],1,left,['3'],4,0.15470120000009047,,,,,,,,18,18,Vrouw,Rechts,2,
,xotask,xotask,xotask,57,0,57,357,training,positivefb,96,average,16,0.7501400999999532,['n'],1,right,['3'],4,0.11026349999974627,,,,,,,,18,18,Vrouw,Rechts,2,
,xotask,xotask,xotask,58,0,58,358,training,positivefb,82,hard,25,0.5836093000007168,['n'],1,right,['3'],4,0.2921390000001338,,,,,,,,18,18,Vrouw,Rechts,2,
,xotask,xotask,xotask,59,0,59,359,training,positivefb,95,hard,26,0.5657633999999234,['n'],1,right,['3'],4,0.1297164999996312,,,,,,,,18,18,Vrouw,Rechts,2,
,xotask,xotask,xotask,0,1,60,360,training,positivefb,85,average,16,0.6841973000000507,['n'],1,right,['3'],4,0.14057880000018486,,,,,,,,18,18,Vrouw,Rechts,2,
,xotask,xotask,xotask,1,1,61,361,training,positivefb,96,easy,72,0.6497479000008752,['c'],1,left,['3'],4,0.21408179999980348,,,,,,,,18,18,Vrouw,Rechts,2,
,xotask,xotask,xotask,2,1,62,362,training,positivefb,86,hard,25,0.7167287000002034,['n'],1,right,['3'],4,0.16117130000020552,,,,,,,,18,18,Vrouw,Rechts,2,
,xotask,xotask,xotask,3,1,63,363,training,positivefb,97,hard,53,0.6671919000000344,['c'],1,left,['3'],4,0.12818909999987227,,,,,,,,18,18,Vrouw,Rechts,2,
,xotask,xotask,xotask,4,1,64,364,training,positivefb,97,easy,7,0.7322917000001326,['n'],1,right,['2'],5,0.1351155000002109,,,,,,,,18,18,Vrouw,Rechts,2,
,xotask,xotask,xotask,5,1,65,365,training,positivefb,90,easy,7,0.5500087000000349,['n'],1,right,['2'],5,0.13032899999961955,,,,,,,,18,18,Vrouw,Rechts,2,
,xotask,xotask,xotask,6,1,66,366,training,positivefb,91,hard,51,0.7503901000000042,['c'],1,left,['3'],4,0.19370380000054865,,,,,,,,18,18,Vrouw,Rechts,2,
,xotask,xotask,xotask,7,1,67,367,training,positivefb,95,average,16,0.8004393999999593,['n'],1,right,['3'],4,0.13007389999984298,,,,,,,,18,18,Vrouw,Rechts,2,
,xotask,xotask,xotask,8,1,68,368,training,positivefb,93,hard,28,0.5838592999998582,['n'],1,right,['3'],4,0.10966449999978067,,,,,,,,18,18,Vrouw,Rechts,2,
,xotask,xotask,xotask,9,1,69,369,training,positivefb,90,hard,54,0.8492927999996027,['c'],1,left,['3'],4,0.12803929999972752,,,,,,,,18,18,Vrouw,Rechts,2,
,xotask,xotask,xotask,10,1,70,370,training,positivefb,98,easy,73,0.56688480000048,['c'],1,left,['3'],4,0.1012721999995847,,,,,,,,18,18,Vrouw,Rechts,2,
,xotask,xotask,xotask,11,1,71,371,training,positivefb,93,hard,26,0.6005334000001312,['n'],1,right,['3'],4,0.13704169999982696,,,,,,,,18,18,Vrouw,Rechts,2,
,xotask,xotask,xotask,12,1,72,372,training,positivefb,87,average,19,0.71605129999989,['n'],1,right,['3'],4,0.1423092999993969,,,,,,,,18,18,Vrouw,Rechts,2,
,xotask,xotask,xotask,13,1,73,373,training,positivefb,92,average,18,0.5668546000006245,['n'],1,right,['3'],4,0.13902049999978772,,,,,,,,18,18,Vrouw,Rechts,2,
,xotask,xotask,xotask,14,1,74,374,training,positivefb,93,average,18,0.5662433000006786,['n'],1,right,['3'],4,0.11876540000048408,,,,,,,,18,18,Vrouw,Rechts,2,
,xotask,xotask,xotask,15,1,75,375,training,positivefb,94,average,62,0.6831815000005008,['c'],1,left,['3'],4,0.1343523000005007,,,,,,,,18,18,Vrouw,Rechts,2,
,xotask,xotask,xotask,16,1,76,376,training,positivefb,96,average,18,0.5831915999997364,['n'],1,right,['3'],4,0.17017949999990378,,,,,,,,18,18,Vrouw,Rechts,2,
,xotask,xotask,xotask,17,1,77,377,training,positivefb,87,average,63,0.7166047000000617,['c'],1,left,['2'],5,0.11138540000047215,,,,,,,,18,18,Vrouw,Rechts,2,
,xotask,xotask,xotask,18,1,78,378,training,positivefb,95,easy,70,0.584145200000421,['c'],1,left,['2'],5,0.09125870000025316,,,,,,,,18,18,Vrouw,Rechts,2,
,xotask,xotask,xotask,19,1,79,379,training,positivefb,97,hard,53,0.5828491000002032,['c'],1,left,['2'],5,0.07358559999920544,,,,,,,,18,18,Vrouw,Rechts,2,
,xotask,xotask,xotask,20,1,80,380,training,positivefb,97,easy,7,0.5671314999999595,['n'],1,right,['2'],5,0.12823240000034275,,,,,,,,18,18,Vrouw,Rechts,2,
,xotask,xotask,xotask,21,1,81,381,training,positivefb,90,hard,29,0.766437300000689,['n'],1,right,['3'],4,0.11614430000008724,,,,,,,,18,18,Vrouw,Rechts,2,
,xotask,xotask,xotask,22,1,82,382,training,positivefb,99,average,17,0.6335855999996056,['n'],1,right,['3'],4,0.15863699999954406,,,,,,,,18,18,Vrouw,Rechts,2,
,xotask,xotask,xotask,23,1,83,383,training,positivefb,98,hard,27,0.5498278000004575,['n'],1,right,['3'],4,0.1869181000001845,,,,,,,,18,18,Vrouw,Rechts,2,
,xotask,xotask,xotask,24,1,84,384,training,positivefb,98,easy,7,0.5342745999996623,['n'],1,right,['3'],4,0.14238209999984974,,,,,,,,18,18,Vrouw,Rechts,2,
,xotask,xotask,xotask,25,1,85,385,training,positivefb,94,hard,53,0.7825668000004953,['c'],1,left,['3'],4,0.09817750000001979,,,,,,,,18,18,Vrouw,Rechts,2,
,xotask,xotask,xotask,26,1,86,386,training,positivefb,97,average,64,0.5828837999997631,['c'],1,left,['2'],5,0.1187355000001844,,,,,,,,18,18,Vrouw,Rechts,2,
,xotask,xotask,xotask,27,1,87,387,training,positivefb,96,hard,53,0.5166213000002244,['c'],1,left,['2'],5,0.2936527000001661,,,,,,,,18,18,Vrouw,Rechts,2,
,xotask,xotask,xotask,28,1,88,388,training,positivefb,99,average,61,0.6335355000001073,['c'],1,left,['2'],5,0.12138990000039485,,,,,,,,18,18,Vrouw,Rechts,2,
,xotask,xotask,xotask,29,1,89,389,training,positivefb,89,average,19,0.6841862999999648,['n'],1,right,['3'],4,0.13646700000026613,,,,,,,,18,18,Vrouw,Rechts,2,
,xotask,xotask,xotask,30,1,90,390,training,positivefb,93,hard,52,0.734530700000505,['n'],0,left,['3'],4,0.238620300000548,,,,,,,,18,18,Vrouw,Rechts,2,
,xotask,xotask,xotask,31,1,91,391,training,positivefb,98,hard,28,0.5832436000000598,['n'],1,right,['3'],4,0.25324279999949795,,,,,,,,18,18,Vrouw,Rechts,2,
,xotask,xotask,xotask,32,1,92,392,training,positivefb,87,hard,54,0.683399499999723,['c'],1,left,['3'],4,0.1125424000001658,,,,,,,,18,18,Vrouw,Rechts,2,
,xotask,xotask,xotask,33,1,93,393,training,positivefb,96,average,16,0.8009382000000187,['n'],1,right,['3'],4,0.14853349999975762,,,,,,,,18,18,Vrouw,Rechts,2,
,xotask,xotask,xotask,34,1,94,394,training,positivefb,98,hard,27,0.5833259999999427,['n'],1,right,['3'],4,0.1274396999997407,,,,,,,,18,18,Vrouw,Rechts,2,
,xotask,xotask,xotask,35,1,95,395,training,positivefb,99,easy,9,0.499370500000623,['n'],1,right,['2'],5,0.25477179999961663,,,,,,,,18,18,Vrouw,Rechts,2,
,xotask,xotask,xotask,36,1,96,396,training,positivefb,94,easy,70,0.7348594000004596,['c'],1,left,['2'],5,0.09574760000032256,,,,,,,,18,18,Vrouw,Rechts,2,
,xotask,xotask,xotask,37,1,97,397,training,positivefb,91,easy,70,0.7009863000002952,['c'],1,left,['2'],5,0.08915220000017143,,,,,,,,18,18,Vrouw,Rechts,2,
,xotask,xotask,xotask,38,1,98,398,training,positivefb,91,average,15,0.583122000000003,['n'],1,right,['2'],5,0.13398069999948348,,,,,,,,18,18,Vrouw,Rechts,2,
,xotask,xotask,xotask,39,1,99,399,training,positivefb,95,average,63,0.7003942999999708,['c'],1,left,['2'],5,0.07732629999918572,,,,,,,,18,18,Vrouw,Rechts,2,
,xotask,xotask,xotask,40,1,100,400,training,positivefb,93,hard,50,0.9004770999999892,['c'],1,left,['3'],4,0.102002700000412,,,,,,,,18,18,Vrouw,Rechts,2,
,xotask,xotask,xotask,41,1,101,401,training,positivefb,98,hard,25,0.5830622000003132,['n'],1,right,['3'],4,0.2026163999998971,,,,,,,,18,18,Vrouw,Rechts,2,
,xotask,xotask,xotask,42,1,102,402,training,positivefb,89,easy,5,0.5995708999998897,['n'],1,right,['2'],5,0.11482090000026801,,,,,,,,18,18,Vrouw,Rechts,2,
,xotask,xotask,xotask,43,1,103,403,training,positivefb,96,average,64,0.8154358000001594,['c'],1,left,['2'],5,0.04625789999954577,,,,,,,,18,18,Vrouw,Rechts,2,
,xotask,xotask,xotask,44,1,104,404,training,positivefb,96,easy,70,0.7992864999996527,['c'],1,left,['2'],5,0.07707900000059453,,,,,,,,18,18,Vrouw,Rechts,2,
,xotask,xotask,xotask,45,1,105,405,training,positivefb,97,easy,9,0.7828912000004493,['n'],1,right,['2'],5,0.09062280000034661,,,,,,,,18,18,Vrouw,Rechts,2,
,xotask,xotask,xotask,46,1,106,406,training,positivefb,94,hard,51,0.849967099999958,['c'],1,left,['2'],5,0.029967299999952957,,,,,,,,18,18,Vrouw,Rechts,2,
,xotask,xotask,xotask,47,1,107,407,training,positivefb,90,average,64,0.5836904999996477,['c'],1,left,['2'],5,0.06200119999994058,,,,,,,,18,18,Vrouw,Rechts,2,
,xotask,xotask,xotask,48,1,108,408,training,positivefb,94,average,63,0.9172231000002284,['n'],0,left,['3'],4,0.11982010000065202,,,,,,,,18,18,Vrouw,Rechts,2,
,xotask,xotask,xotask,49,1,109,409,training,positivefb,97,easy,8,0.6502681000001758,['n'],1,right,['3'],4,0.12027020000004995,,,,,,,,18,18,Vrouw,Rechts,2,
,xotask,xotask,xotask,50,1,110,410,training,positivefb,95,easy,70,0.6839945000001535,['c'],1,left,['3'],4,0.09683760000007169,,,,,,,,18,18,Vrouw,Rechts,2,
,xotask,xotask,xotask,51,1,111,411,training,positivefb,90,easy,73,0.5994700000001103,['c'],1,left,['3'],4,0.2062207999997554,,,,,,,,18,18,Vrouw,Rechts,2,
,xotask,xotask,xotask,52,1,112,412,training,positivefb,91,hard,28,0.8337240999999267,['n'],1,right,['3'],4,0.115740299999743,,,,,,,,18,18,Vrouw,Rechts,2,
,xotask,xotask,xotask,53,1,113,413,training,positivefb,92,easy,6,0.6835896000002322,['n'],1,right,['3'],4,0.1882378999998764,,,,,,,,18,18,Vrouw,Rechts,2,
,xotask,xotask,xotask,54,1,114,414,training,positivefb,95,easy,5,0.7175561000003654,['n'],1,right,['2'],5,0.08760220000021945,,,,,,,,18,18,Vrouw,Rechts,2,
,xotask,xotask,xotask,55,1,115,415,training,positivefb,93,average,60,0.950331100000767,['n'],0,left,['3'],4,0.16715000000021973,,,,,,,,18,18,Vrouw,Rechts,2,
,xotask,xotask,xotask,56,1,116,416,training,positivefb,91,easy,74,0.6171238999995694,['c'],1,left,['3'],4,0.11191510000026028,,,,,,,,18,18,Vrouw,Rechts,2,
,xotask,xotask,xotask,57,1,117,417,training,positivefb,98,average,61,0.5670605999994223,['c'],1,left,['3'],4,0.061635900000510446,,,,,,,,18,18,Vrouw,Rechts,2,
,xotask,xotask,xotask,58,1,118,418,training,positivefb,97,easy,71,0.5991032999991148,['c'],1,left,['2'],5,0.1397359000002325,,,,,,,,18,18,Vrouw,Rechts,2,
,xotask,xotask,xotask,59,1,119,419,training,positivefb,91,hard,28,0.5660515999998097,['c'],0,right,['2'],5,0.07884899999953632,,,,,,,,18,18,Vrouw,Rechts,2,
,dotcolour,xotask,xotask,0,2,120,420,main,positivefb,-99,hard,,1.0674632000000202,['n'],0,left,['3'],4,0.15562510000017937,41,,,,,,,18,18,Vrouw,Rechts,2,
,dotcolour,xotask,xotask,1,2,121,421,main,positivefb,-99,average,,0.7682537999999113,['c'],1,left,['3'],4,0.08687929999996413,54,,,,,,,18,18,Vrouw,Rechts,2,
,dotcolour,xotask,xotask,2,2,122,422,main,positivefb,-99,average,,0.6844708000007813,['n'],1,right,['2'],5,0.1769786999993812,28,,,,,,,18,18,Vrouw,Rechts,2,
,dotcolour,xotask,xotask,3,2,123,423,main,positivefb,-99,average,,0.7006490000003396,['c'],1,left,['3'],4,0.12697579999985464,51,,,,,,,18,18,Vrouw,Rechts,2,
,dotcolour,xotask,xotask,4,2,124,424,main,positivefb,-99,average,,0.9506400999998732,['c'],1,left,['2'],5,0.08535800000026939,54,,,,,,,18,18,Vrouw,Rechts,2,
,dotcolour,xotask,xotask,5,2,125,425,main,positivefb,-99,hard,,0.8502682999996978,['n'],0,left,['3'],4,0.16051919999972597,43,,,,,,,18,18,Vrouw,Rechts,2,
,dotcolour,xotask,xotask,6,2,126,426,main,positivefb,-99,average,,0.8844657999998162,['c'],1,left,['3'],4,0.10395400000015798,51,,,,,,,18,18,Vrouw,Rechts,2,
,dotcolour,xotask,xotask,7,2,127,427,main,positivefb,-99,average,,0.8169996999995419,['n'],1,right,['2'],5,0.10854329999983747,27,,,,,,,18,18,Vrouw,Rechts,2,
,dotcolour,xotask,xotask,8,2,128,428,main,positivefb,-99,average,,0.717546100000618,['n'],1,right,['2'],5,0.08459389999916311,29,,,,,,,18,18,Vrouw,Rechts,2,
,dotcolour,xotask,xotask,9,2,129,429,main,positivefb,-99,hard,,0.8017567000006238,['n'],1,right,['3'],4,0.11280940000051487,36,,,,,,,18,18,Vrouw,Rechts,2,
,dotcolour,xotask,xotask,10,2,130,430,main,positivefb,-99,easy,,0.63319969999975,['c'],1,left,['2'],5,0.1330766000000949,65,,,,,,,18,18,Vrouw,Rechts,2,
,dotcolour,xotask,xotask,11,2,131,431,main,positivefb,-99,hard,,0.8176048000004812,['n'],1,right,['3'],4,0.13538129999960802,39,,,,,,,18,18,Vrouw,Rechts,2,
,dotcolour,xotask,xotask,12,2,132,432,main,positivefb,-99,easy,,0.5670591999996759,['n'],1,right,['2'],5,0.20476489999964542,16,,,,,,,18,18,Vrouw,Rechts,2,
,dotcolour,xotask,xotask,13,2,133,433,main,positivefb,-99,easy,,0.5999424999999974,['c'],1,left,['2'],5,0.14891760000045906,65,,,,,,,18,18,Vrouw,Rechts,2,
,dotcolour,xotask,xotask,14,2,134,434,main,positivefb,-99,hard,,0.9667226000001392,['n'],1,right,['2'],5,0.15320340000016586,36,,,,,,,18,18,Vrouw,Rechts,2,
,dotcolour,xotask,xotask,15,2,135,435,main,positivefb,-99,hard,,0.8507249000003867,['n'],1,right,['3'],4,0.18558520000078715,39,,,,,,,18,18,Vrouw,Rechts,2,
,dotcolour,xotask,xotask,16,2,136,436,main,positivefb,-99,easy,,0.7345574999999371,['n'],1,right,['3'],4,0.4055733000004693,19,,,,,,,18,18,Vrouw,Rechts,2,
,dotcolour,xotask,xotask,17,2,137,437,main,positivefb,-99,average,,0.6495191000003615,['c'],1,left,['2'],5,0.14793770000051154,55,,,,,,,18,18,Vrouw,Rechts,2,
,dotcolour,xotask,xotask,18,2,138,438,main,positivefb,-99,easy,,0.6834412999996857,['c'],0,right,['8'],3,0.8441907999995237,18,,,,,,,18,18,Vrouw,Rechts,2,
,dotcolour,xotask,xotask,19,2,139,439,main,positivefb,-99,average,,1.0509861000000456,['c'],1,left,['2'],5,0.10520759999963047,54,,,,,,,18,18,Vrouw,Rechts,2,
,dotcolour,xotask,xotask,20,2,140,440,main,positivefb,-99,hard,,0.7350828000007823,['n'],1,right,['3'],4,0.15297970000028727,37,,,,,,,18,18,Vrouw,Rechts,2,
,dotcolour,xotask,xotask,21,2,141,441,main,positivefb,-99,average,,0.6349098000000595,['n'],1,right,['3'],4,0.2583756000003632,26,,,,,,,18,18,Vrouw,Rechts,2,
,dotcolour,xotask,xotask,22,2,142,442,main,positivefb,-99,easy,,0.5332393999997294,['n'],1,right,['2'],5,0.16327349999937724,19,,,,,,,18,18,Vrouw,Rechts,2,
,dotcolour,xotask,xotask,23,2,143,443,main,positivefb,-99,hard,,0.7182708000000275,['c'],0,right,['3'],4,0.13706400000046415,35,,,,,,,18,18,Vrouw,Rechts,2,
,dotcolour,xotask,xotask,24,2,144,444,main,positivefb,-99,average,,0.7498171999995975,['n'],1,right,['3'],4,0.17441859999962617,29,,,,,,,18,18,Vrouw,Rechts,2,
,dotcolour,xotask,xotask,25,2,145,445,main,positivefb,-99,easy,,0.5668408999999883,['c'],1,left,['2'],5,0.1615010000004986,64,,,,,,,18,18,Vrouw,Rechts,2,
,dotcolour,xotask,xotask,26,2,146,446,main,positivefb,-99,average,,0.7015156999996179,['c'],1,left,['3'],4,0.2008252999994511,55,,,,,,,18,18,Vrouw,Rechts,2,
,dotcolour,xotask,xotask,27,2,147,447,main,positivefb,-99,easy,,0.6685614999996687,['n'],1,right,['3'],4,0.16775439999946684,19,,,,,,,18,18,Vrouw,Rechts,2,
,dotcolour,xotask,xotask,28,2,148,448,main,positivefb,-99,average,,0.6496123999995689,['n'],1,right,['3'],4,0.20663919999969949,26,,,,,,,18,18,Vrouw,Rechts,2,
,dotcolour,xotask,xotask,29,2,149,449,main,positivefb,-99,hard,,0.7340048000005481,['n'],1,right,['3'],4,0.1868637999996281,36,,,,,,,18,18,Vrouw,Rechts,2,
,dotcolour,xotask,xotask,30,2,150,450,main,positivefb,-99,hard,,0.6827880999999252,['c'],0,right,['3'],4,0.10385820000010426,39,,,,,,,18,18,Vrouw,Rechts,2,
,dotcolour,xotask,xotask,31,2,151,451,main,positivefb,-99,average,,0.5997867000005499,['c'],1,left,['3'],4,0.20505560000037804,55,,,,,,,18,18,Vrouw,Rechts,2,
,dotcolour,xotask,xotask,32,2,152,452,main,positivefb,-99,hard,,0.8343235000002096,['n'],0,left,['2'],5,0.30102330000045185,41,,,,,,,18,18,Vrouw,Rechts,2,
,dotcolour,xotask,xotask,33,2,153,453,main,positivefb,-99,hard,,0.732716999999866,['n'],0,left,['3'],4,0.12327899999945657,45,,,,,,,18,18,Vrouw,Rechts,2,
,dotcolour,xotask,xotask,34,2,154,454,main,positivefb,-99,easy,,0.7340063999999984,['c'],1,left,['2'],5,0.13769679999950313,63,,,,,,,18,18,Vrouw,Rechts,2,
,dotcolour,xotask,xotask,35,2,155,455,main,positivefb,-99,easy,,0.6504471999996895,['c'],1,left,['2'],5,0.10811270000067452,61,,,,,,,18,18,Vrouw,Rechts,2,
,dotcolour,xotask,xotask,36,2,156,456,main,positivefb,-99,hard,,0.7665785999997752,['n'],1,right,['3'],4,0.11422579999998561,38,,,,,,,18,18,Vrouw,Rechts,2,
,dotcolour,xotask,xotask,37,2,157,457,main,positivefb,-99,average,,0.6168786999996883,['n'],1,right,['3'],4,0.19778240000050573,26,,,,,,,18,18,Vrouw,Rechts,2,
,dotcolour,xotask,xotask,38,2,158,458,main,positivefb,-99,easy,,0.7662623999995049,['c'],1,left,['2'],5,0.13654070000029606,61,,,,,,,18,18,Vrouw,Rechts,2,
,dotcolour,xotask,xotask,39,2,159,459,main,positivefb,-99,hard,,0.7666110000000117,['c'],1,left,['3'],4,0.16503480000028503,41,,,,,,,18,18,Vrouw,Rechts,2,
,dotcolour,xotask,xotask,40,2,160,460,main,positivefb,-99,easy,,0.64869920000001,['c'],1,left,['3'],4,0.22224110000024666,63,,,,,,,18,18,Vrouw,Rechts,2,
,dotcolour,xotask,xotask,41,2,161,461,main,positivefb,-99,hard,,0.6496804999997039,['c'],1,left,['3'],4,0.12453639999966981,42,,,,,,,18,18,Vrouw,Rechts,2,
,dotcolour,xotask,xotask,42,2,162,462,main,positivefb,-99,easy,,0.7004415999999765,['c'],1,left,['2'],5,0.18054449999999633,64,,,,,,,18,18,Vrouw,Rechts,2,
,dotcolour,xotask,xotask,43,2,163,463,main,positivefb,-99,easy,,0.6500654999999824,['c'],1,left,['2'],5,0.1804842000001372,63,,,,,,,18,18,Vrouw,Rechts,2,
,dotcolour,xotask,xotask,44,2,164,464,main,positivefb,-99,easy,,0.5841083999994225,['c'],1,left,['2'],5,0.17550570000003063,64,,,,,,,18,18,Vrouw,Rechts,2,
,dotcolour,xotask,xotask,45,2,165,465,main,positivefb,-99,average,,0.5341751999994813,['c'],1,left,['2'],5,0.2032973999994283,53,,,,,,,18,18,Vrouw,Rechts,2,
,dotcolour,xotask,xotask,46,2,166,466,main,positivefb,-99,hard,,0.6840935000000172,['c'],1,left,['2'],5,0.15266150000024936,42,,,,,,,18,18,Vrouw,Rechts,2,
,dotcolour,xotask,xotask,47,2,167,467,main,positivefb,-99,hard,,0.682986400000118,['n'],0,left,['3'],4,0.21678369999972347,42,,,,,,,18,18,Vrouw,Rechts,2,
,dotcolour,xotask,xotask,48,2,168,468,main,positivefb,-99,easy,,0.6347540999995545,['n'],1,right,['2'],5,0.16646940000009636,19,,,,,,,18,18,Vrouw,Rechts,2,
,dotcolour,xotask,xotask,49,2,169,469,main,positivefb,-99,easy,,0.7516169999998965,['n'],1,right,['1'],6,0.13858750000053988,15,,,,,,,18,18,Vrouw,Rechts,2,
,dotcolour,xotask,xotask,50,2,170,470,main,positivefb,-99,average,,0.8168438999991849,['n'],1,right,['3'],4,0.18089280000003782,28,,,,,,,18,18,Vrouw,Rechts,2,
,dotcolour,xotask,xotask,51,2,171,471,main,positivefb,-99,hard,,0.9167958000007275,['n'],0,left,['3'],4,0.1383034000000407,43,,,,,,,18,18,Vrouw,Rechts,2,
,dotcolour,xotask,xotask,52,2,172,472,main,positivefb,-99,easy,,0.5845962000003055,['n'],1,right,['2'],5,0.2070692000006602,17,,,,,,,18,18,Vrouw,Rechts,2,
,dotcolour,xotask,xotask,53,2,173,473,main,positivefb,-99,average,,0.7508686000001035,['n'],1,right,['2'],5,0.1866755999999441,29,,,,,,,18,18,Vrouw,Rechts,2,
,dotcolour,xotask,xotask,54,2,174,474,main,positivefb,-99,hard,,0.8009865999993053,['n'],1,right,['3'],4,0.15551369999957387,39,,,,,,,18,18,Vrouw,Rechts,2,
,dotcolour,xotask,xotask,55,2,175,475,main,positivefb,-99,easy,,0.6164091000000553,['n'],1,right,['2'],5,0.17306230000031064,16,,,,,,,18,18,Vrouw,Rechts,2,
,dotcolour,xotask,xotask,56,2,176,476,main,positivefb,-99,easy,,0.7510023000004367,['n'],1,right,['2'],5,0.19273009999960777,19,,,,,,,18,18,Vrouw,Rechts,2,
,dotcolour,xotask,xotask,57,2,177,477,main,positivefb,-99,average,,0.883842100000038,['c'],1,left,['2'],5,0.12719100000049366,51,,,,,,,18,18,Vrouw,Rechts,2,
,dotcolour,xotask,xotask,58,2,178,478,main,positivefb,-99,average,,0.7518688999998631,['n'],1,right,['2'],5,0.1174563999993552,26,,,,,,,18,18,Vrouw,Rechts,2,
,dotcolour,xotask,xotask,59,2,179,479,main,positivefb,-99,hard,,0.6679633999992802,['n'],0,left,['3'],4,0.16643430000021908,43,,,,,,,18,18,Vrouw,Rechts,2,
,dotcolour,xotask,xotask,0,3,180,480,main,positivefb,-99,average,,0.6341694999991887,['n'],1,right,['2'],5,0.15413010000065697,26,,,,,,,18,18,Vrouw,Rechts,2,
,dotcolour,xotask,xotask,1,3,181,481,main,positivefb,-99,easy,,0.6347244000007777,['c'],1,left,['2'],5,0.13944470000024012,62,,,,,,,18,18,Vrouw,Rechts,2,
,dotcolour,xotask,xotask,2,3,182,482,main,positivefb,-99,hard,,0.6846667999998317,['n'],0,left,['3'],4,0.4121213999997053,42,,,,,,,18,18,Vrouw,Rechts,2,
,dotcolour,xotask,xotask,3,3,183,483,main,positivefb,-99,average,,0.6521542999998928,['c'],1,left,['3'],4,0.12258240000028309,52,,,,,,,18,18,Vrouw,Rechts,2,
,dotcolour,xotask,xotask,4,3,184,484,main,positivefb,-99,easy,,0.5675324999992881,['n'],1,right,['2'],5,0.17604089999986172,17,,,,,,,18,18,Vrouw,Rechts,2,
,dotcolour,xotask,xotask,5,3,185,485,main,positivefb,-99,average,,0.7506895000005898,['c'],1,left,['2'],5,0.09973879999961355,53,,,,,,,18,18,Vrouw,Rechts,2,
,dotcolour,xotask,xotask,6,3,186,486,main,positivefb,-99,average,,0.6996351999996477,['c'],1,left,['2'],5,0.13256540000020323,52,,,,,,,18,18,Vrouw,Rechts,2,
,dotcolour,xotask,xotask,7,3,187,487,main,positivefb,-99,hard,,0.9178444000008312,['n'],1,right,['2'],5,0.10692890000063926,38,,,,,,,18,18,Vrouw,Rechts,2,
,dotcolour,xotask,xotask,8,3,188,488,main,positivefb,-99,hard,,0.7003392000005988,['n'],1,right,['3'],4,0.16430200000013429,36,,,,,,,18,18,Vrouw,Rechts,2,
,dotcolour,xotask,xotask,9,3,189,489,main,positivefb,-99,hard,,0.5669055999996999,['n'],0,left,['3'],4,0.14331469999979163,43,,,,,,,18,18,Vrouw,Rechts,2,
,dotcolour,xotask,xotask,10,3,190,490,main,positivefb,-99,easy,,0.666931900000236,['n'],1,right,['2'],5,0.18466590000025462,17,,,,,,,18,18,Vrouw,Rechts,2,
,dotcolour,xotask,xotask,11,3,191,491,main,positivefb,-99,easy,,0.6670760999995764,['n'],1,right,['1'],6,0.18310740000015358,17,,,,,,,18,18,Vrouw,Rechts,2,
,dotcolour,xotask,xotask,12,3,192,492,main,positivefb,-99,average,,0.7003531000000294,['n'],1,right,['1'],6,0.2287065000000439,26,,,,,,,18,18,Vrouw,Rechts,2,
,dotcolour,xotask,xotask,13,3,193,493,main,positivefb,-99,hard,,0.7837411999998949,['n'],1,right,['3'],4,0.13382929999988846,37,,,,,,,18,18,Vrouw,Rechts,2,
,dotcolour,xotask,xotask,14,3,194,494,main,positivefb,-99,average,,0.7334219999993365,['c'],1,left,['2'],5,0.1396963000006508,53,,,,,,,18,18,Vrouw,Rechts,2,
,dotcolour,xotask,xotask,15,3,195,495,main,positivefb,-99,average,,0.650665599999229,['n'],1,right,['2'],5,0.22797669999999925,26,,,,,,,18,18,Vrouw,Rechts,2,
,dotcolour,xotask,xotask,16,3,196,496,main,positivefb,-99,easy,,0.6179634000000078,['c'],1,left,['2'],5,0.12456120000024384,64,,,,,,,18,18,Vrouw,Rechts,2,
,dotcolour,xotask,xotask,17,3,197,497,main,positivefb,-99,easy,,0.6014038000002984,['c'],1,left,['2'],5,0.008181100000001607,61,,,,,,,18,18,Vrouw,Rechts,2,
,dotcolour,xotask,xotask,18,3,198,498,main,positivefb,-99,average,,0.7176061000000118,['n'],1,right,['2'],5,0.10848119999991468,27,,,,,,,18,18,Vrouw,Rechts,2,
,dotcolour,xotask,xotask,19,3,199,499,main,positivefb,-99,average,,0.5501767999994627,['n'],1,right,['2'],5,0.3152448999999251,25,,,,,,,18,18,Vrouw,Rechts,2,
,dotcolour,xotask,xotask,20,3,200,500,main,positivefb,-99,average,,0.6170305000005101,['n'],1,right,['2'],5,0.15111230000002251,26,,,,,,,18,18,Vrouw,Rechts,2,
,dotcolour,xotask,xotask,21,3,201,501,main,positivefb,-99,hard,,0.7502610000001368,['n'],1,right,['3'],4,0.17182289999982459,37,,,,,,,18,18,Vrouw,Rechts,2,
,dotcolour,xotask,xotask,22,3,202,502,main,positivefb,-99,easy,,0.7840997000002972,['c'],1,left,['2'],5,0.08636249999926804,61,,,,,,,18,18,Vrouw,Rechts,2,
,dotcolour,xotask,xotask,23,3,203,503,main,positivefb,-99,average,,0.7006824000000051,['c'],1,left,['3'],4,0.16002320000006875,52,,,,,,,18,18,Vrouw,Rechts,2,
,dotcolour,xotask,xotask,24,3,204,504,main,positivefb,-99,hard,,0.7168683999998393,['n'],1,right,['3'],4,0.13386439999976574,36,,,,,,,18,18,Vrouw,Rechts,2,
,dotcolour,xotask,xotask,25,3,205,505,main,positivefb,-99,hard,,0.6180659999999989,['n'],1,right,['3'],4,0.26433300000007875,35,,,,,,,18,18,Vrouw,Rechts,2,
,dotcolour,xotask,xotask,26,3,206,506,main,positivefb,-99,average,,0.9350345000002562,['c'],1,left,['2'],5,0.12993379999988974,54,,,,,,,18,18,Vrouw,Rechts,2,
,dotcolour,xotask,xotask,27,3,207,507,main,positivefb,-99,easy,,0.7336906000000454,['n'],1,right,['2'],5,0.22435480000058305,18,,,,,,,18,18,Vrouw,Rechts,2,
,dotcolour,xotask,xotask,28,3,208,508,main,positivefb,-99,hard,,0.8172027000000526,['n'],0,left,['3'],4,0.15120819999992818,41,,,,,,,18,18,Vrouw,Rechts,2,
,dotcolour,xotask,xotask,29,3,209,509,main,positivefb,-99,hard,,0.6172970999996323,['n'],0,left,['3'],4,0.1942572999996628,43,,,,,,,18,18,Vrouw,Rechts,2,
,dotcolour,xotask,xotask,30,3,210,510,main,positivefb,-99,hard,,0.7005237000003035,['c'],1,left,['3'],4,0.11949800000002142,45,,,,,,,18,18,Vrouw,Rechts,2,
,dotcolour,xotask,xotask,31,3,211,511,main,positivefb,-99,average,,0.7503660000002128,['c'],1,left,['2'],5,0.14121660000000702,55,,,,,,,18,18,Vrouw,Rechts,2,
,dotcolour,xotask,xotask,32,3,212,512,main,positivefb,-99,easy,,0.6500830000004498,['c'],1,left,['2'],5,0.0952660000002652,62,,,,,,,18,18,Vrouw,Rechts,2,
,dotcolour,xotask,xotask,33,3,213,513,main,positivefb,-99,hard,,0.8338365999998132,['c'],1,left,['3'],4,0.107162000000244,45,,,,,,,18,18,Vrouw,Rechts,2,
,dotcolour,xotask,xotask,34,3,214,514,main,positivefb,-99,average,,0.7673054999995657,['c'],1,left,['2'],5,0.12929190000068047,55,,,,,,,18,18,Vrouw,Rechts,2,
,dotcolour,xotask,xotask,35,3,215,515,main,positivefb,-99,easy,,0.5512339999995675,['c'],1,left,['2'],5,0.18326890000025742,65,,,,,,,18,18,Vrouw,Rechts,2,
,dotcolour,xotask,xotask,36,3,216,516,main,positivefb,-99,hard,,0.6504283999993277,['n'],0,left,['3'],4,0.1822826999996323,41,,,,,,,18,18,Vrouw,Rechts,2,
,dotcolour,xotask,xotask,37,3,217,517,main,positivefb,-99,hard,,0.6340736000001925,['n'],1,right,['3'],4,0.21494870000060473,39,,,,,,,18,18,Vrouw,Rechts,2,
,dotcolour,xotask,xotask,38,3,218,518,main,positivefb,-99,easy,,0.6833542000003945,['c'],1,left,['2'],5,0.12376880000010715,61,,,,,,,18,18,Vrouw,Rechts,2,
,dotcolour,xotask,xotask,39,3,219,519,main,positivefb,-99,easy,,0.4665460999995048,['c'],1,left,['2'],5,0.2294504000001325,61,,,,,,,18,18,Vrouw,Rechts,2,
,dotcolour,xotask,xotask,40,3,220,520,main,positivefb,-99,average,,0.6340425999997024,['c'],1,left,['3'],4,0.19600400000035734,54,,,,,,,18,18,Vrouw,Rechts,2,
,dotcolour,xotask,xotask,41,3,221,521,main,positivefb,-99,average,,0.7336203000004389,['n'],1,right,['3'],4,0.11191789999975299,27,,,,,,,18,18,Vrouw,Rechts,2,
,dotcolour,xotask,xotask,42,3,222,522,main,positivefb,-99,average,,0.7664819999999963,['n'],1,right,['2'],5,0.18223930000021937,28,,,,,,,18,18,Vrouw,Rechts,2,
,dotcolour,xotask,xotask,43,3,223,523,main,positivefb,-99,hard,,0.7497174999998606,['c'],0,right,['2'],5,0.14618119999977353,39,,,,,,,18,18,Vrouw,Rechts,2,
,dotcolour,xotask,xotask,44,3,224,524,main,positivefb,-99,hard,,0.8516352000006009,['n'],1,right,['3'],4,0.10671730000012758,39,,,,,,,18,18,Vrouw,Rechts,2,
,dotcolour,xotask,xotask,45,3,225,525,main,positivefb,-99,average,,0.6847284999994372,['n'],1,right,['2'],5,0.1968894999999975,29,,,,,,,18,18,Vrouw,Rechts,2,
,dotcolour,xotask,xotask,46,3,226,526,main,positivefb,-99,easy,,0.6342493000001923,['n'],1,right,['1'],6,0.21200060000046506,18,,,,,,,18,18,Vrouw,Rechts,2,
,dotcolour,xotask,xotask,47,3,227,527,main,positivefb,-99,easy,,0.5503359999993336,['n'],1,right,['1'],6,0.16756299999997282,15,,,,,,,18,18,Vrouw,Rechts,2,
,dotcolour,xotask,xotask,48,3,228,528,main,positivefb,-99,easy,,0.5847514999995838,['n'],1,right,['1'],6,0.1302227000005587,18,,,,,,,18,18,Vrouw,Rechts,2,
,dotcolour,xotask,xotask,49,3,229,529,main,positivefb,-99,hard,,0.7835822000006374,['c'],0,right,['3'],4,0.12664260000019567,37,,,,,,,18,18,Vrouw,Rechts,2,
,dotcolour,xotask,xotask,50,3,230,530,main,positivefb,-99,easy,,0.7171387999997023,['n'],1,right,['3'],4,0.1426829000001817,19,,,,,,,18,18,Vrouw,Rechts,2,
,dotcolour,xotask,xotask,51,3,231,531,main,positivefb,-99,easy,,0.5832713999998305,['c'],1,left,['2'],5,0.1705004999994344,61,,,,,,,18,18,Vrouw,Rechts,2,
,dotcolour,xotask,xotask,52,3,232,532,main,positivefb,-99,easy,,0.6013400000001639,['n'],1,right,['2'],5,0.18808549999994284,19,,,,,,,18,18,Vrouw,Rechts,2,
,dotcolour,xotask,xotask,53,3,233,533,main,positivefb,-99,easy,,0.6173144999993383,['c'],1,left,['2'],5,0.13263789999928122,63,,,,,,,18,18,Vrouw,Rechts,2,
,dotcolour,xotask,xotask,54,3,234,534,main,positivefb,-99,hard,,0.7334516000000804,['n'],0,left,['3'],4,0.1862513999994917,41,,,,,,,18,18,Vrouw,Rechts,2,
,dotcolour,xotask,xotask,55,3,235,535,main,positivefb,-99,hard,,1.0003005999997185,['c'],1,left,['3'],4,0.09240270000009332,44,,,,,,,18,18,Vrouw,Rechts,2,
,dotcolour,xotask,xotask,56,3,236,536,main,positivefb,-99,hard,,0.7001330000002781,['n'],0,left,['3'],4,0.1658924000003026,42,,,,,,,18,18,Vrouw,Rechts,2,
,dotcolour,xotask,xotask,57,3,237,537,main,positivefb,-99,average,,0.7338635999994949,['n'],1,right,['3'],4,0.21046250000017608,27,,,,,,,18,18,Vrouw,Rechts,2,
,dotcolour,xotask,xotask,58,3,238,538,main,positivefb,-99,average,,0.7007929000001241,['c'],1,left,['3'],4,0.15871400000014546,52,,,,,,,18,18,Vrouw,Rechts,2,
,dotcolour,xotask,xotask,59,3,239,539,main,positivefb,-99,easy,,0.6015155000004597,['n'],1,right,['2'],5,0.1690534999997908,16,,,,,,,18,18,Vrouw,Rechts,2,
,dotcolour,xotask,xotask,0,4,240,540,main,positivefb,-99,easy,,0.667119200000343,['c'],1,left,['2'],5,0.1178715000005468,64,,,,,,,18,18,Vrouw,Rechts,2,
,dotcolour,xotask,xotask,1,4,241,541,main,positivefb,-99,hard,,0.767605399999411,['c'],0,right,['3'],4,0.10729529999935039,37,,,,,,,18,18,Vrouw,Rechts,2,
,dotcolour,xotask,xotask,2,4,242,542,main,positivefb,-99,average,,0.7503716000001077,['c'],1,left,['2'],5,0.10628650000035123,54,,,,,,,18,18,Vrouw,Rechts,2,
,dotcolour,xotask,xotask,3,4,243,543,main,positivefb,-99,easy,,0.6332176999994772,['n'],1,right,['2'],5,0.18098149999968882,17,,,,,,,18,18,Vrouw,Rechts,2,
,dotcolour,xotask,xotask,4,4,244,544,main,positivefb,-99,easy,,0.6502027999995335,['c'],1,left,['2'],5,0.0851462000000538,64,,,,,,,18,18,Vrouw,Rechts,2,
,dotcolour,xotask,xotask,5,4,245,545,main,positivefb,-99,average,,0.7498003000000608,['c'],1,left,['2'],5,0.11670199999934994,55,,,,,,,18,18,Vrouw,Rechts,2,
,dotcolour,xotask,xotask,6,4,246,546,main,positivefb,-99,average,,0.667322399999648,['n'],1,right,['3'],4,0.1581888999999137,29,,,,,,,18,18,Vrouw,Rechts,2,
,dotcolour,xotask,xotask,7,4,247,547,main,positivefb,-99,average,,0.6511849000007714,['n'],1,right,['3'],4,0.17421180000019376,27,,,,,,,18,18,Vrouw,Rechts,2,
,dotcolour,xotask,xotask,8,4,248,548,main,positivefb,-99,hard,,0.8169114999991507,['c'],0,right,['3'],4,0.10365799999999581,38,,,,,,,18,18,Vrouw,Rechts,2,
,dotcolour,xotask,xotask,9,4,249,549,main,positivefb,-99,hard,,0.650564000000486,['c'],0,right,['3'],4,0.0665195000001404,39,,,,,,,18,18,Vrouw,Rechts,2,
,dotcolour,xotask,xotask,10,4,250,550,main,positivefb,-99,easy,,0.7497546999993574,['n'],1,right,['2'],5,0.10668219999934081,16,,,,,,,18,18,Vrouw,Rechts,2,
,dotcolour,xotask,xotask,11,4,251,551,main,positivefb,-99,average,,0.6845928000002459,['c'],1,left,['2'],5,0.10892599999988306,54,,,,,,,18,18,Vrouw,Rechts,2,
,dotcolour,xotask,xotask,12,4,252,552,main,positivefb,-99,average,,0.6840186999997968,['c'],1,left,['2'],5,0.08545469999990019,55,,,,,,,18,18,Vrouw,Rechts,2,
,dotcolour,xotask,xotask,13,4,253,553,main,positivefb,-99,easy,,0.5833548999999039,['c'],1,left,['2'],5,0.10669719999987137,62,,,,,,,18,18,Vrouw,Rechts,2,
,dotcolour,xotask,xotask,14,4,254,554,main,positivefb,-99,average,,0.6172434999998586,['c'],1,left,['2'],5,0.1035239000002548,52,,,,,,,18,18,Vrouw,Rechts,2,
,dotcolour,xotask,xotask,15,4,255,555,main,positivefb,-99,average,,0.7023018999998385,['n'],1,right,['2'],5,0.11294570000063686,26,,,,,,,18,18,Vrouw,Rechts,2,
,dotcolour,xotask,xotask,16,4,256,556,main,positivefb,-99,easy,,0.6836697000007916,['n'],1,right,['2'],5,0.17802019999999175,17,,,,,,,18,18,Vrouw,Rechts,2,
,dotcolour,xotask,xotask,17,4,257,557,main,positivefb,-99,easy,,0.6339164000000892,['n'],1,right,['1'],6,0.20267859999967186,18,,,,,,,18,18,Vrouw,Rechts,2,
,dotcolour,xotask,xotask,18,4,258,558,main,positivefb,-99,hard,,0.716790100000253,['c'],1,left,['3'],4,0.19871280000006664,45,,,,,,,18,18,Vrouw,Rechts,2,
,dotcolour,xotask,xotask,19,4,259,559,main,positivefb,-99,average,,0.516785499999969,['c'],1,left,['3'],4,0.20361839999986842,52,,,,,,,18,18,Vrouw,Rechts,2,
,dotcolour,xotask,xotask,20,4,260,560,main,positivefb,-99,easy,,0.6340331000001243,['c'],1,left,['3'],4,0.16304289999970933,61,,,,,,,18,18,Vrouw,Rechts,2,
,dotcolour,xotask,xotask,21,4,261,561,main,positivefb,-99,hard,,0.7675741000002745,['n'],1,right,['3'],4,0.158184999999321,37,,,,,,,18,18,Vrouw,Rechts,2,
,dotcolour,xotask,xotask,22,4,262,562,main,positivefb,-99,hard,,0.7001629999995203,['c'],1,left,['3'],4,0.13332469999932073,41,,,,,,,18,18,Vrouw,Rechts,2,
,dotcolour,xotask,xotask,23,4,263,563,main,positivefb,-99,average,,0.6506592000005185,['c'],1,left,['3'],4,0.1424936000003072,54,,,,,,,18,18,Vrouw,Rechts,2,
,dotcolour,xotask,xotask,24,4,264,564,main,positivefb,-99,average,,0.7012187999998787,['n'],1,right,['3'],4,0.2146314000001439,27,,,,,,,18,18,Vrouw,Rechts,2,
,dotcolour,xotask,xotask,25,4,265,565,main,positivefb,-99,easy,,0.6840784999994867,['c'],1,left,['3'],4,0.14741890000004787,62,,,,,,,18,18,Vrouw,Rechts,2,
,dotcolour,xotask,xotask,26,4,266,566,main,positivefb,-99,easy,,0.6837938000007853,['n'],1,right,['2'],5,0.08378999999968073,18,,,,,,,18,18,Vrouw,Rechts,2,
,dotcolour,xotask,xotask,27,4,267,567,main,positivefb,-99,average,,0.5501350000004095,['c'],1,left,['2'],5,0.13844840000001568,54,,,,,,,18,18,Vrouw,Rechts,2,
,dotcolour,xotask,xotask,28,4,268,568,main,positivefb,-99,average,,0.6846289000004617,['n'],1,right,['3'],4,0.1869989999995596,28,,,,,,,18,18,Vrouw,Rechts,2,
,dotcolour,xotask,xotask,29,4,269,569,main,positivefb,-99,average,,0.6339903000007325,['n'],1,right,['3'],4,0.13171710000005987,26,,,,,,,18,18,Vrouw,Rechts,2,
,dotcolour,xotask,xotask,30,4,270,570,main,positivefb,-99,hard,,0.718931700000212,['n'],0,left,['3'],4,0.16181690000030358,43,,,,,,,18,18,Vrouw,Rechts,2,
,dotcolour,xotask,xotask,31,4,271,571,main,positivefb,-99,easy,,0.8511929000005694,['c'],1,left,['3'],4,0.09035800000037852,61,,,,,,,18,18,Vrouw,Rechts,2,
,dotcolour,xotask,xotask,32,4,272,572,main,positivefb,-99,hard,,0.7335514999995212,['c'],0,right,['3'],4,0.10657230000015261,39,,,,,,,18,18,Vrouw,Rechts,2,
,dotcolour,xotask,xotask,33,4,273,573,main,positivefb,-99,easy,,0.8335521999997582,['n'],1,right,['3'],4,0.12707810000028985,18,,,,,,,18,18,Vrouw,Rechts,2,
,dotcolour,xotask,xotask,34,4,274,574,main,positivefb,-99,hard,,0.701148799999828,['n'],0,left,['3'],4,0.16610860000037064,44,,,,,,,18,18,Vrouw,Rechts,2,
,dotcolour,xotask,xotask,35,4,275,575,main,positivefb,-99,hard,,0.5839052000001175,['n'],1,right,['3'],4,0.22478620000038063,35,,,,,,,18,18,Vrouw,Rechts,2,
,dotcolour,xotask,xotask,36,4,276,576,main,positivefb,-99,easy,,0.7847627999999531,['c'],1,left,['2'],5,0.1532590999995591,61,,,,,,,18,18,Vrouw,Rechts,2,
,dotcolour,xotask,xotask,37,4,277,577,main,positivefb,-99,hard,,0.7333526000002166,['n'],0,left,['3'],4,0.1591606000001775,42,,,,,,,18,18,Vrouw,Rechts,2,
,dotcolour,xotask,xotask,38,4,278,578,main,positivefb,-99,average,,0.9179193999998461,['n'],1,right,['3'],4,0.16507410000031086,28,,,,,,,18,18,Vrouw,Rechts,2,
,dotcolour,xotask,xotask,39,4,279,579,main,positivefb,-99,average,,0.6168643999999404,['n'],1,right,['3'],4,0.28699390000019775,28,,,,,,,18,18,Vrouw,Rechts,2,
,dotcolour,xotask,xotask,40,4,280,580,main,positivefb,-99,hard,,0.6677773000001253,['n'],1,right,['3'],4,0.2259434000006877,36,,,,,,,18,18,Vrouw,Rechts,2,
,dotcolour,xotask,xotask,41,4,281,581,main,positivefb,-99,hard,,0.567026500000793,['n'],1,right,['3'],4,0.47476600000027247,37,,,,,,,18,18,Vrouw,Rechts,2,
,dotcolour,xotask,xotask,42,4,282,582,main,positivefb,-99,average,,0.71742279999944,['c'],1,left,['3'],4,0.11677429999963351,53,,,,,,,18,18,Vrouw,Rechts,2,
,dotcolour,xotask,xotask,43,4,283,583,main,positivefb,-99,hard,,0.6987197999997079,['n'],1,right,['3'],4,0.13246869999966293,38,,,,,,,18,18,Vrouw,Rechts,2,
,dotcolour,xotask,xotask,44,4,284,584,main,positivefb,-99,average,,0.633640000000014,['n'],1,right,['2'],5,0.19806419999986247,28,,,,,,,18,18,Vrouw,Rechts,2,
,dotcolour,xotask,xotask,45,4,285,585,main,positivefb,-99,easy,,0.5671705000004295,['n'],1,right,['2'],5,0.09687029999986407,17,,,,,,,18,18,Vrouw,Rechts,2,
,dotcolour,xotask,xotask,46,4,286,586,main,positivefb,-99,hard,,0.8674247999997533,['n'],0,left,['3'],4,0.12309210000057647,41,,,,,,,18,18,Vrouw,Rechts,2,
,dotcolour,xotask,xotask,47,4,287,587,main,positivefb,-99,easy,,0.7340059999996811,['n'],1,right,['2'],5,0.11439509999945585,18,,,,,,,18,18,Vrouw,Rechts,2,
,dotcolour,xotask,xotask,48,4,288,588,main,positivefb,-99,easy,,0.5503378999992492,['n'],1,right,['2'],5,0.22520389999954205,19,,,,,,,18,18,Vrouw,Rechts,2,
,dotcolour,xotask,xotask,49,4,289,589,main,positivefb,-99,easy,,0.6854173000001538,['c'],1,left,['2'],5,0.14199179999923217,64,,,,,,,18,18,Vrouw,Rechts,2,
,dotcolour,xotask,xotask,50,4,290,590,main,positivefb,-99,average,,0.7673017999995864,['n'],1,right,['2'],5,0.13813539999955537,25,,,,,,,18,18,Vrouw,Rechts,2,
,dotcolour,xotask,xotask,51,4,291,591,main,positivefb,-99,easy,,0.6510696999994252,['n'],1,right,['2'],5,0.1643303000000742,19,,,,,,,18,18,Vrouw,Rechts,2,
,dotcolour,xotask,xotask,52,4,292,592,main,positivefb,-99,average,,0.7681089999996402,['c'],1,left,['3'],4,0.2003056999992623,52,,,,,,,18,18,Vrouw,Rechts,2,
,dotcolour,xotask,xotask,53,4,293,593,main,positivefb,-99,hard,,0.7174537999999302,['n'],1,right,['3'],4,0.1552893000007316,36,,,,,,,18,18,Vrouw,Rechts,2,
,dotcolour,xotask,xotask,54,4,294,594,main,positivefb,-99,hard,,0.8007403000001432,['n'],0,left,['3'],4,0.15791119999994407,41,,,,,,,18,18,Vrouw,Rechts,2,
,dotcolour,xotask,xotask,55,4,295,595,main,positivefb,-99,easy,,0.6514599000001908,['c'],1,left,['2'],5,0.14316340000004857,61,,,,,,,18,18,Vrouw,Rechts,2,
,dotcolour,xotask,xotask,56,4,296,596,main,positivefb,-99,hard,,0.6344647999994777,['c'],1,left,['3'],4,0.10480629999983648,44,,,,,,,18,18,Vrouw,Rechts,2,
,dotcolour,xotask,xotask,57,4,297,597,main,positivefb,-99,hard,,0.5680312999993475,['c'],1,left,['3'],4,0.19840339999973367,45,,,,,,,18,18,Vrouw,Rechts,2,
,dotcolour,xotask,xotask,58,4,298,598,main,positivefb,-99,easy,,0.6170307999991564,['c'],1,left,['2'],5,0.15141240000048128,63,,,,,,,18,18,Vrouw,Rechts,2,
,dotcolour,xotask,xotask,59,4,299,599,main,positivefb,-99,hard,,0.7849359000001641,['c'],1,left,['3'],4,0.17853850000028615,42,,,,,,,18,18,Vrouw,Rechts,2,
,xotask,xotask,xotask,0,0,0,600,training,positivefb,68,hard,28,0.9002228999997897,['c'],0,right,['3'],4,0.07854200000019773,,,,,,,,18,18,Vrouw,Rechts,2,
,xotask,xotask,xotask,1,0,1,601,training,positivefb,94,hard,26,0.532871299999897,['n'],1,right,['2'],5,0.1826216999997996,,,,,,,,18,18,Vrouw,Rechts,2,
,xotask,xotask,xotask,2,0,2,602,training,positivefb,98,hard,25,0.6677616999995735,['n'],1,right,['3'],4,0.16523229999984324,,,,,,,,18,18,Vrouw,Rechts,2,
,xotask,xotask,xotask,3,0,3,603,training,positivefb,95,average,19,0.6825699999999415,['n'],1,right,['3'],4,0.13153429999965738,,,,,,,,18,18,Vrouw,Rechts,2,
,xotask,xotask,xotask,4,0,4,604,training,positivefb,96,average,60,0.6007932000002256,['c'],1,left,['3'],4,0.125711699999556,,,,,,,,18,18,Vrouw,Rechts,2,
,xotask,xotask,xotask,5,0,5,605,training,positivefb,98,easy,74,0.5834189999995942,['c'],1,left,['2'],5,0.09894929999973101,,,,,,,,18,18,Vrouw,Rechts,2,
,xotask,xotask,xotask,6,0,6,606,training,positivefb,93,easy,72,0.5322932999997647,['c'],1,left,['2'],5,0.11339700000007724,,,,,,,,18,18,Vrouw,Rechts,2,
,xotask,xotask,xotask,7,0,7,607,training,positivefb,93,average,18,0.6345510000001013,['n'],1,right,['2'],5,0.1317659000005733,,,,,,,,18,18,Vrouw,Rechts,2,
,xotask,xotask,xotask,8,0,8,608,training,positivefb,97,easy,73,0.7343816000002334,['c'],1,left,['2'],5,0.11398760000065522,,,,,,,,18,18,Vrouw,Rechts,2,
,xotask,xotask,xotask,9,0,9,609,training,positivefb,98,easy,5,0.5321467999992819,['n'],1,right,['2'],5,0.16100439999991067,,,,,,,,18,18,Vrouw,Rechts,2,
,xotask,xotask,xotask,10,0,10,610,training,positivefb,95,hard,53,0.8671012000004339,['c'],1,left,['2'],5,0.07169819999944593,,,,,,,,18,18,Vrouw,Rechts,2,
,xotask,xotask,xotask,11,0,11,611,training,positivefb,97,easy,8,0.600894100000005,['n'],1,right,['2'],5,0.0775673000007373,,,,,,,,18,18,Vrouw,Rechts,2,
,xotask,xotask,xotask,12,0,12,612,training,positivefb,93,average,63,0.5999686000004658,['c'],1,left,['2'],5,0.09104399999978341,,,,,,,,18,18,Vrouw,Rechts,2,
,xotask,xotask,xotask,13,0,13,613,training,positivefb,95,average,18,0.5664768999995431,['n'],1,right,['2'],5,0.08840030000010302,,,,,,,,18,18,Vrouw,Rechts,2,
,xotask,xotask,xotask,14,0,14,614,training,positivefb,93,easy,73,0.5002680000006876,['c'],1,left,['2'],5,0.058060399999703804,,,,,,,,18,18,Vrouw,Rechts,2,
,xotask,xotask,xotask,15,0,15,615,training,positivefb,99,hard,54,0.532726299999922,['c'],1,left,['2'],5,0.11489500000061525,,,,,,,,18,18,Vrouw,Rechts,2,
,xotask,xotask,xotask,16,0,16,616,training,positivefb,92,easy,72,0.5511207999998078,['c'],1,left,['2'],5,0.06459859999995388,,,,,,,,18,18,Vrouw,Rechts,2,
,xotask,xotask,xotask,17,0,17,617,training,positivefb,95,easy,6,0.500796000000264,['n'],1,right,['2'],5,0.0824572999999873,,,,,,,,18,18,Vrouw,Rechts,2,
,xotask,xotask,xotask,18,0,18,618,training,positivefb,96,easy,72,0.5816916000003403,['c'],1,left,['2'],5,0.03185250000024098,,,,,,,,18,18,Vrouw,Rechts,2,
,xotask,xotask,xotask,19,0,19,619,training,positivefb,98,average,19,0.44987719999971887,['n'],1,right,['1'],6,0.16412190000028204,,,,,,,,18,18,Vrouw,Rechts,2,
,xotask,xotask,xotask,20,0,20,620,training,positivefb,88,easy,8,0.6009336000006442,['n'],1,right,['1'],6,0.16604420000021491,,,,,,,,18,18,Vrouw,Rechts,2,
,xotask,xotask,xotask,21,0,21,621,training,positivefb,92,average,63,0.7159225999994305,['c'],1,left,['2'],5,0.08292420000088896,,,,,,,,18,18,Vrouw,Rechts,2,
,xotask,xotask,xotask,22,0,22,622,training,positivefb,91,hard,53,0.5666256000004068,['c'],1,left,['2'],5,0.13790319999952771,,,,,,,,18,18,Vrouw,Rechts,2,
,xotask,xotask,xotask,23,0,23,623,training,positivefb,95,hard,28,0.6332941000000574,['n'],1,right,['2'],5,0.106092300000455,,,,,,,,18,18,Vrouw,Rechts,2,
,xotask,xotask,xotask,24,0,24,624,training,positivefb,98,easy,8,0.5839648999999554,['n'],1,right,['2'],5,0.1521398999993835,,,,,,,,18,18,Vrouw,Rechts,2,
,xotask,xotask,xotask,25,0,25,625,training,positivefb,98,average,63,0.532489500000338,['c'],1,left,['2'],5,0.13230170000042563,,,,,,,,18,18,Vrouw,Rechts,2,
,xotask,xotask,xotask,26,0,26,626,training,positivefb,92,average,64,0.5512417999998434,['c'],1,left,['2'],5,0.10493210000004183,,,,,,,,18,18,Vrouw,Rechts,2,
,xotask,xotask,xotask,27,0,27,627,training,positivefb,96,average,17,0.5009834000002229,['n'],1,right,['2'],5,0.12087830000018585,,,,,,,,18,18,Vrouw,Rechts,2,
,xotask,xotask,xotask,28,0,28,628,training,positivefb,98,hard,53,0.7014616000005844,['c'],1,left,['2'],5,0.08895099999972444,,,,,,,,18,18,Vrouw,Rechts,2,
,xotask,xotask,xotask,29,0,29,629,training,positivefb,91,easy,8,0.667282499999601,['n'],1,right,['2'],5,0.10663300000032905,,,,,,,,18,18,Vrouw,Rechts,2,
,xotask,xotask,xotask,30,0,30,630,training,positivefb,80,hard,51,0.8998657000001913,['c'],1,left,['3'],4,0.17893569999978354,,,,,,,,18,18,Vrouw,Rechts,2,
,xotask,xotask,xotask,31,0,31,631,training,positivefb,98,easy,7,0.6504931999998007,['n'],1,right,['2'],5,0.1462281999993138,,,,,,,,18,18,Vrouw,Rechts,2,
,xotask,xotask,xotask,32,0,32,632,training,positivefb,97,average,16,0.6495766999996704,['n'],1,right,['3'],4,0.21893240000008518,,,,,,,,18,18,Vrouw,Rechts,2,
,xotask,xotask,xotask,33,0,33,633,training,positivefb,95,hard,52,0.6158804000006057,['n'],0,left,['3'],4,0.18522769999981392,,,,,,,,18,18,Vrouw,Rechts,2,
,xotask,xotask,xotask,34,0,34,634,training,positivefb,99,hard,26,0.5671813999997539,['n'],1,right,['3'],4,0.18740539999998873,,,,,,,,18,18,Vrouw,Rechts,2,
,xotask,xotask,xotask,35,0,35,635,training,positivefb,90,hard,28,0.7325054000002638,['n'],1,right,['2'],5,0.11889750000045751,,,,,,,,18,18,Vrouw,Rechts,2,
,xotask,xotask,xotask,36,0,36,636,training,positivefb,94,easy,9,0.5993065000002389,['n'],1,right,['2'],5,0.26713569999992615,,,,,,,,18,18,Vrouw,Rechts,2,
,xotask,xotask,xotask,37,0,37,637,training,positivefb,94,easy,73,0.7339506999996956,['c'],1,left,['1'],6,0.18635839999933523,,,,,,,,18,18,Vrouw,Rechts,2,
,xotask,xotask,xotask,38,0,38,638,training,positivefb,92,average,62,0.5843621000003623,['c'],1,left,['2'],5,0.12391980000029434,,,,,,,,18,18,Vrouw,Rechts,2,
,xotask,xotask,xotask,39,0,39,639,training,positivefb,94,easy,74,0.6329028999998627,['c'],1,left,['2'],5,0.18178249999982654,,,,,,,,18,18,Vrouw,Rechts,2,
,xotask,xotask,xotask,40,0,40,640,training,positivefb,91,easy,9,0.4506541999999172,['n'],1,right,['1'],6,0.3242371999995157,,,,,,,,18,18,Vrouw,Rechts,2,
,xotask,xotask,xotask,41,0,41,641,training,positivefb,89,hard,53,0.6339742000000115,['c'],1,left,['3'],4,0.20645870000043942,,,,,,,,18,18,Vrouw,Rechts,2,
,xotask,xotask,xotask,42,0,42,642,training,positivefb,97,easy,70,0.7994126000003234,['c'],1,left,['2'],5,0.15129669999987527,,,,,,,,18,18,Vrouw,Rechts,2,
,xotask,xotask,xotask,43,0,43,643,training,positivefb,97,average,18,0.6666752000000997,['n'],1,right,['3'],4,0.2617119000005914,,,,,,,,18,18,Vrouw,Rechts,2,
,xotask,xotask,xotask,44,0,44,644,training,positivefb,77,hard,52,0.8671755999994275,['n'],0,left,['3'],4,0.19435669999984384,,,,,,,,18,18,Vrouw,Rechts,2,
,xotask,xotask,xotask,45,0,45,645,training,positivefb,96,average,16,0.5668043000005127,['n'],1,right,['3'],4,0.13982559999931254,,,,,,,,18,18,Vrouw,Rechts,2,
