starttime,task,fbtask,firsttask,withinblocktrial,block,withintasktrial,trial,running,feedback,fbscore,difflevel,n_xes,rt,resp,cor,cresp,conf_press,cj,RTconf,reddots,post1,post2,post3,post4,post5,stoptime,sub,age,gender,handedness,session,
1715588948,xotask,xotask,dotcolour,0,0,0,0,training,positivefb,94,hard,29,0.9670744000004561,['n'],1,right,['8'],4,3.2235239999999976,,,,,,,,11,19,Man,Rechts,2,
,xotask,xotask,dotcolour,1,0,1,1,training,positivefb,100,easy,70,0.8996758000002956,['c'],1,left,['0'],6,1.818356799999492,,,,,,,,11,19,Man,Rechts,2,
,xotask,xotask,dotcolour,2,0,2,2,training,positivefb,96,easy,72,0.883500300000378,['c'],1,left,['0'],6,1.0144706000000951,,,,,,,,11,19,Man,Rechts,2,
,xotask,xotask,dotcolour,3,0,3,3,training,positivefb,97,easy,70,0.5339090000006763,['c'],1,left,['0'],6,0.3210168999994494,,,,,,,,11,19,Man,Rechts,2,
,xotask,xotask,dotcolour,4,0,4,4,training,positivefb,61,hard,52,1.8501390000001265,['c'],1,left,['8'],4,0.5708541000003606,,,,,,,,11,19,Man,Rechts,2,
,xotask,xotask,dotcolour,5,0,5,5,training,positivefb,94,hard,26,0.7501298999995925,['n'],1,right,['0'],6,0.8379820000000109,,,,,,,,11,19,Man,Rechts,2,
,xotask,xotask,dotcolour,6,0,6,6,training,positivefb,96,average,18,0.8169404000000213,['n'],1,right,['0'],6,0.47647169999982,,,,,,,,11,19,Man,Rechts,2,
,xotask,xotask,dotcolour,7,0,7,7,training,positivefb,94,average,18,0.7004310000002079,['n'],1,right,['0'],6,0.3898575000002893,,,,,,,,11,19,Man,Rechts,2,
,xotask,xotask,dotcolour,8,0,8,8,training,positivefb,96,hard,51,0.7331496999995579,['c'],1,left,['0'],6,0.9774484999998094,,,,,,,,11,19,Man,Rechts,2,
,xotask,xotask,dotcolour,9,0,9,9,training,positivefb,99,easy,72,0.6502669999999853,['c'],1,left,['0'],6,0.3208723999996437,,,,,,,,11,19,Man,Rechts,2,
,xotask,xotask,dotcolour,10,0,10,10,training,positivefb,99,easy,5,0.6000166000003446,['n'],1,right,['0'],6,0.41226709999955347,,,,,,,,11,19,Man,Rechts,2,
,xotask,xotask,dotcolour,11,0,11,11,training,positivefb,97,average,64,0.6324603999992178,['c'],1,left,['0'],6,0.283059499999581,,,,,,,,11,19,Man,Rechts,2,
,xotask,xotask,dotcolour,12,0,12,12,training,positivefb,98,easy,9,0.6328980999996929,['n'],1,right,['0'],6,0.5181892000000516,,,,,,,,11,19,Man,Rechts,2,
,xotask,xotask,dotcolour,13,0,13,13,training,positivefb,97,easy,8,0.5831490000000485,['n'],1,right,['0'],6,0.3225063999998383,,,,,,,,11,19,Man,Rechts,2,
,xotask,xotask,dotcolour,14,0,14,14,training,positivefb,96,hard,29,0.8160443000006126,['n'],1,right,['9'],5,0.7891261999993731,,,,,,,,11,19,Man,Rechts,2,
,xotask,xotask,dotcolour,15,0,15,15,training,positivefb,98,easy,5,0.6336641999996573,['n'],1,right,['0'],6,0.4527908000000025,,,,,,,,11,19,Man,Rechts,2,
,xotask,xotask,dotcolour,16,0,16,16,training,positivefb,62,hard,29,0.9670875000001615,['c'],0,right,['9'],5,0.8043756999995821,,,,,,,,11,19,Man,Rechts,2,
,xotask,xotask,dotcolour,17,0,17,17,training,positivefb,98,average,16,0.6333285000000615,['n'],1,right,['0'],6,0.4663701999998011,,,,,,,,11,19,Man,Rechts,2,
,xotask,xotask,dotcolour,18,0,18,18,training,positivefb,76,average,63,0.7495375999997123,['c'],1,left,['0'],6,0.3378649999995105,,,,,,,,11,19,Man,Rechts,2,
,xotask,xotask,dotcolour,19,0,19,19,training,positivefb,91,average,60,1.1670621999992363,['c'],1,left,['8'],4,0.838448900000003,,,,,,,,11,19,Man,Rechts,2,
,xotask,xotask,dotcolour,20,0,20,20,training,positivefb,89,hard,25,0.6824762999995073,['n'],1,right,['0'],6,0.6659365000004982,,,,,,,,11,19,Man,Rechts,2,
,xotask,xotask,dotcolour,21,0,21,21,training,positivefb,97,hard,53,0.5664020000003802,['c'],1,left,['9'],5,0.7680217999995875,,,,,,,,11,19,Man,Rechts,2,
,xotask,xotask,dotcolour,22,0,22,22,training,positivefb,43,average,64,1.2339003000006414,['n'],0,left,['9'],5,0.6954712000006111,,,,,,,,11,19,Man,Rechts,2,
,xotask,xotask,dotcolour,23,0,23,23,training,positivefb,98,easy,6,0.6846309000002293,['n'],1,right,['0'],6,0.43409020000035525,,,,,,,,11,19,Man,Rechts,2,
,xotask,xotask,dotcolour,24,0,24,24,training,positivefb,95,hard,50,0.5510573000001386,['c'],1,left,['9'],5,0.41862570000012056,,,,,,,,11,19,Man,Rechts,2,
,xotask,xotask,dotcolour,25,0,25,25,training,positivefb,98,easy,5,0.6325831000003745,['n'],1,right,['0'],6,0.4244682999997167,,,,,,,,11,19,Man,Rechts,2,
,xotask,xotask,dotcolour,26,0,26,26,training,positivefb,63,hard,54,0.816302899999755,['c'],1,left,['9'],5,0.5437122000003001,,,,,,,,11,19,Man,Rechts,2,
,xotask,xotask,dotcolour,27,0,27,27,training,positivefb,70,hard,29,0.6845025000002352,['c'],0,right,['9'],5,0.3108920999993643,,,,,,,,11,19,Man,Rechts,2,
,xotask,xotask,dotcolour,28,0,28,28,training,positivefb,78,hard,29,0.9326736000002711,['n'],1,right,['9'],5,0.26991389999966486,,,,,,,,11,19,Man,Rechts,2,
,xotask,xotask,dotcolour,29,0,29,29,training,positivefb,99,average,15,0.7658913999994184,['n'],1,right,['0'],6,0.49174670000047627,,,,,,,,11,19,Man,Rechts,2,
,xotask,xotask,dotcolour,30,0,30,30,training,positivefb,96,average,64,0.7002166000002035,['c'],1,left,['0'],6,0.348603199999161,,,,,,,,11,19,Man,Rechts,2,
,xotask,xotask,dotcolour,31,0,31,31,training,positivefb,86,hard,54,0.7505176000004212,['c'],1,left,['0'],6,0.3369806000000608,,,,,,,,11,19,Man,Rechts,2,
,xotask,xotask,dotcolour,32,0,32,32,training,positivefb,97,easy,70,0.5658413999999539,['c'],1,left,['0'],6,0.32554419999996753,,,,,,,,11,19,Man,Rechts,2,
,xotask,xotask,dotcolour,33,0,33,33,training,positivefb,99,hard,27,0.8008245999999417,['n'],1,right,['9'],5,0.40053590000024997,,,,,,,,11,19,Man,Rechts,2,
,xotask,xotask,dotcolour,34,0,34,34,training,positivefb,95,average,64,0.5671508000004906,['c'],1,left,['0'],6,0.37754990000030375,,,,,,,,11,19,Man,Rechts,2,
,xotask,xotask,dotcolour,35,0,35,35,training,positivefb,91,easy,73,0.5503386000000319,['c'],1,left,['0'],6,0.3730182999997851,,,,,,,,11,19,Man,Rechts,2,
,xotask,xotask,dotcolour,36,0,36,36,training,positivefb,87,hard,53,0.6673775999997815,['c'],1,left,['0'],6,0.4442134000000806,,,,,,,,11,19,Man,Rechts,2,
,xotask,xotask,dotcolour,37,0,37,37,training,positivefb,97,easy,9,0.5997415000001638,['n'],1,right,['9'],5,0.4677528000001985,,,,,,,,11,19,Man,Rechts,2,
,xotask,xotask,dotcolour,38,0,38,38,training,positivefb,94,average,19,0.866866299999856,['c'],0,right,['9'],5,0.30175859999962995,,,,,,,,11,19,Man,Rechts,2,
,xotask,xotask,dotcolour,39,0,39,39,training,positivefb,98,easy,5,0.7494151999999303,['n'],1,right,['0'],6,0.476195799999914,,,,,,,,11,19,Man,Rechts,2,
,xotask,xotask,dotcolour,40,0,40,40,training,positivefb,96,average,15,0.8499689000000217,['n'],1,right,['0'],6,0.29584780000004685,,,,,,,,11,19,Man,Rechts,2,
,xotask,xotask,dotcolour,41,0,41,41,training,positivefb,93,hard,26,0.817493700000341,['n'],1,right,['0'],6,0.3232803999999305,,,,,,,,11,19,Man,Rechts,2,
,xotask,xotask,dotcolour,42,0,42,42,training,positivefb,92,hard,51,0.6494847000003574,['n'],0,left,['0'],6,0.34104459999980463,,,,,,,,11,19,Man,Rechts,2,
,xotask,xotask,dotcolour,43,0,43,43,training,positivefb,98,hard,54,0.800421500000084,['c'],1,left,['9'],5,0.41555370000060066,,,,,,,,11,19,Man,Rechts,2,
,xotask,xotask,dotcolour,44,0,44,44,training,positivefb,98,easy,72,0.5331734000001234,['c'],1,left,['9'],5,0.8821789999992689,,,,,,,,11,19,Man,Rechts,2,
,xotask,xotask,dotcolour,45,0,45,45,training,positivefb,92,average,16,0.5330969999995432,['c'],0,right,['0'],6,0.3448820000003252,,,,,,,,11,19,Man,Rechts,2,
,xotask,xotask,dotcolour,46,0,46,46,training,positivefb,99,easy,7,0.5493818000004467,['n'],1,right,['0'],6,0.4778721000002406,,,,,,,,11,19,Man,Rechts,2,
,xotask,xotask,dotcolour,47,0,47,47,training,positivefb,97,hard,26,0.8002898000004279,['c'],0,right,['9'],5,1.0597122999997737,,,,,,,,11,19,Man,Rechts,2,
,xotask,xotask,dotcolour,48,0,48,48,training,positivefb,95,average,64,0.6172186999992846,['c'],1,left,['0'],6,0.4978058999995483,,,,,,,,11,19,Man,Rechts,2,
,xotask,xotask,dotcolour,49,0,49,49,training,positivefb,89,hard,52,0.7169497000004412,['c'],1,left,['0'],6,0.38538189999962924,,,,,,,,11,19,Man,Rechts,2,
,xotask,xotask,dotcolour,50,0,50,50,training,positivefb,98,easy,70,0.7002763000000414,['c'],1,left,['0'],6,0.35740179999993416,,,,,,,,11,19,Man,Rechts,2,
,xotask,xotask,dotcolour,51,0,51,51,training,positivefb,93,average,15,0.6997314000000188,['n'],1,right,['0'],6,0.4526659000002837,,,,,,,,11,19,Man,Rechts,2,
,xotask,xotask,dotcolour,52,0,52,52,training,positivefb,71,easy,5,0.7486136999996233,['n'],1,right,['0'],6,0.580725099999654,,,,,,,,11,19,Man,Rechts,2,
,xotask,xotask,dotcolour,53,0,53,53,training,positivefb,87,easy,72,0.5838169999997262,['c'],1,left,['0'],6,0.4697510999994847,,,,,,,,11,19,Man,Rechts,2,
,xotask,xotask,dotcolour,54,0,54,54,training,positivefb,88,average,64,0.6171954000001278,['c'],1,left,['0'],6,0.8831003000004785,,,,,,,,11,19,Man,Rechts,2,
,xotask,xotask,dotcolour,55,0,55,55,training,positivefb,92,average,61,0.5500292000006084,['c'],1,left,['0'],6,0.3619109999999637,,,,,,,,11,19,Man,Rechts,2,
,xotask,xotask,dotcolour,56,0,56,56,training,positivefb,95,average,63,0.6168765000002168,['c'],1,left,['0'],6,0.3235017999995762,,,,,,,,11,19,Man,Rechts,2,
,xotask,xotask,dotcolour,57,0,57,57,training,positivefb,92,average,18,0.7330886999998256,['n'],1,right,['0'],6,0.6013087999999698,,,,,,,,11,19,Man,Rechts,2,
,xotask,xotask,dotcolour,58,0,58,58,training,positivefb,99,easy,71,0.5667445999997653,['c'],1,left,['0'],6,0.33862150000004476,,,,,,,,11,19,Man,Rechts,2,
,xotask,xotask,dotcolour,59,0,59,59,training,positivefb,97,average,15,0.5675477000004321,['n'],1,right,['0'],6,0.3344918000002508,,,,,,,,11,19,Man,Rechts,2,
,xotask,xotask,dotcolour,0,1,60,60,training,positivefb,96,easy,74,0.6678713000001153,['c'],1,left,['0'],6,0.43316059999961,,,,,,,,11,19,Man,Rechts,2,
,xotask,xotask,dotcolour,1,1,61,61,training,positivefb,88,hard,28,0.501024399999551,['n'],1,right,['9'],5,0.6367104999999356,,,,,,,,11,19,Man,Rechts,2,
,xotask,xotask,dotcolour,2,1,62,62,training,positivefb,94,hard,29,1.0837020999997549,['n'],1,right,['8'],4,1.2957968999999139,,,,,,,,11,19,Man,Rechts,2,
,xotask,xotask,dotcolour,3,1,63,63,training,positivefb,96,average,15,0.7167036000000735,['n'],1,right,['0'],6,0.6636539999999513,,,,,,,,11,19,Man,Rechts,2,
,xotask,xotask,dotcolour,4,1,64,64,training,positivefb,88,hard,53,1.068253999999797,['c'],1,left,['8'],4,0.6913264999993771,,,,,,,,11,19,Man,Rechts,2,
,xotask,xotask,dotcolour,5,1,65,65,training,positivefb,88,hard,51,0.6831585999998424,['c'],1,left,['9'],5,0.45311820000006264,,,,,,,,11,19,Man,Rechts,2,
,xotask,xotask,dotcolour,6,1,66,66,training,positivefb,86,hard,28,0.5494847999998456,['c'],0,right,['0'],6,0.5895817000000534,,,,,,,,11,19,Man,Rechts,2,
,xotask,xotask,dotcolour,7,1,67,67,training,positivefb,72,hard,27,0.9824990000006437,['c'],0,right,['8'],4,0.7821351000002323,,,,,,,,11,19,Man,Rechts,2,
,xotask,xotask,dotcolour,8,1,68,68,training,positivefb,97,easy,73,0.6503661000006105,['c'],1,left,['0'],6,0.5650495999998384,,,,,,,,11,19,Man,Rechts,2,
,xotask,xotask,dotcolour,9,1,69,69,training,positivefb,96,easy,5,0.7490425999994841,['n'],1,right,['0'],6,0.5845774999997957,,,,,,,,11,19,Man,Rechts,2,
,xotask,xotask,dotcolour,10,1,70,70,training,positivefb,92,hard,28,1.0172782999998162,['n'],1,right,['9'],5,0.5209042000005866,,,,,,,,11,19,Man,Rechts,2,
,xotask,xotask,dotcolour,11,1,71,71,training,positivefb,73,easy,70,0.7339068999999654,['c'],1,left,['0'],6,0.718508799999654,,,,,,,,11,19,Man,Rechts,2,
,xotask,xotask,dotcolour,12,1,72,72,training,positivefb,97,average,19,0.9157615000003716,['n'],1,right,['0'],6,0.5729474999998274,,,,,,,,11,19,Man,Rechts,2,
,xotask,xotask,dotcolour,13,1,73,73,training,positivefb,94,average,60,0.6154373999997915,['c'],1,left,['0'],6,0.6624520999994274,,,,,,,,11,19,Man,Rechts,2,
,xotask,xotask,dotcolour,14,1,74,74,training,positivefb,99,easy,70,0.6001216000004206,['c'],1,left,['0'],6,0.43653600000016013,,,,,,,,11,19,Man,Rechts,2,
,xotask,xotask,dotcolour,15,1,75,75,training,positivefb,85,hard,52,0.6993398999993587,['c'],1,left,['0'],6,0.4791939000006096,,,,,,,,11,19,Man,Rechts,2,
,xotask,xotask,dotcolour,16,1,76,76,training,positivefb,95,easy,7,0.6002520000001823,['n'],1,right,['0'],6,0.4687875999998141,,,,,,,,11,19,Man,Rechts,2,
,xotask,xotask,dotcolour,17,1,77,77,training,positivefb,94,hard,54,1.116493000000446,['c'],1,left,['8'],4,0.7575849999993807,,,,,,,,11,19,Man,Rechts,2,
,xotask,xotask,dotcolour,18,1,78,78,training,positivefb,97,average,60,0.768141900000046,['c'],1,left,['9'],5,0.8811559000005218,,,,,,,,11,19,Man,Rechts,2,
,xotask,xotask,dotcolour,19,1,79,79,training,positivefb,6,average,19,1.1504111000003832,['c'],0,right,['9'],5,2.1524935000006735,,,,,,,,11,19,Man,Rechts,2,
,xotask,xotask,dotcolour,20,1,80,80,training,positivefb,94,easy,73,0.6837726000003386,['c'],1,left,['0'],6,0.5193058000004385,,,,,,,,11,19,Man,Rechts,2,
,xotask,xotask,dotcolour,21,1,81,81,training,positivefb,79,average,63,1.5163683000000674,['c'],1,left,['9'],5,0.5822830000006434,,,,,,,,11,19,Man,Rechts,2,
,xotask,xotask,dotcolour,22,1,82,82,training,positivefb,96,hard,52,0.8997576000001573,['c'],1,left,['9'],5,0.7141169999995327,,,,,,,,11,19,Man,Rechts,2,
,xotask,xotask,dotcolour,23,1,83,83,training,positivefb,95,hard,25,0.9662671999994927,['n'],1,right,['9'],5,0.3997663999998622,,,,,,,,11,19,Man,Rechts,2,
,xotask,xotask,dotcolour,24,1,84,84,training,positivefb,83,average,60,0.8998265000000174,['c'],1,left,['9'],5,0.42780300000049465,,,,,,,,11,19,Man,Rechts,2,
,xotask,xotask,dotcolour,25,1,85,85,training,positivefb,93,easy,71,0.6840170000004946,['c'],1,left,['0'],6,0.7043000999992728,,,,,,,,11,19,Man,Rechts,2,
,xotask,xotask,dotcolour,26,1,86,86,training,positivefb,93,easy,72,0.5497018999994907,['c'],1,left,['0'],6,0.3425671999993938,,,,,,,,11,19,Man,Rechts,2,
,xotask,xotask,dotcolour,27,1,87,87,training,positivefb,91,hard,52,0.6840536999998221,['c'],1,left,['9'],5,0.4292654000000766,,,,,,,,11,19,Man,Rechts,2,
,xotask,xotask,dotcolour,28,1,88,88,training,positivefb,97,hard,52,1.0845067999998719,['c'],1,left,['9'],5,0.48901649999970687,,,,,,,,11,19,Man,Rechts,2,
,xotask,xotask,dotcolour,29,1,89,89,training,positivefb,96,average,61,0.6335227999998096,['c'],1,left,['9'],5,0.3660230999994383,,,,,,,,11,19,Man,Rechts,2,
,xotask,xotask,dotcolour,30,1,90,90,training,positivefb,96,average,19,0.6997305999993841,['n'],1,right,['0'],6,0.5789224999998623,,,,,,,,11,19,Man,Rechts,2,
,xotask,xotask,dotcolour,31,1,91,91,training,positivefb,86,hard,26,1.165337599999475,['n'],1,right,['0'],6,0.4457546999992701,,,,,,,,11,19,Man,Rechts,2,
,xotask,xotask,dotcolour,32,1,92,92,training,positivefb,98,average,64,0.7997194999998101,['c'],1,left,['9'],5,0.37162199999966106,,,,,,,,11,19,Man,Rechts,2,
,xotask,xotask,dotcolour,33,1,93,93,training,positivefb,5,average,18,0.6491187000001446,['c'],0,right,['1'],1,1.81149860000005,,,,,,,,11,19,Man,Rechts,2,
,xotask,xotask,dotcolour,34,1,94,94,training,positivefb,99,average,64,0.8678125999995245,['c'],1,left,['9'],5,1.0492708000001585,,,,,,,,11,19,Man,Rechts,2,
,xotask,xotask,dotcolour,35,1,95,95,training,positivefb,92,hard,50,1.099417800000083,['c'],1,left,['8'],4,0.715496599999824,,,,,,,,11,19,Man,Rechts,2,
,xotask,xotask,dotcolour,36,1,96,96,training,positivefb,98,easy,6,0.7005211000005147,['n'],1,right,['0'],6,0.8189594000004945,,,,,,,,11,19,Man,Rechts,2,
,xotask,xotask,dotcolour,37,1,97,97,training,positivefb,71,average,16,0.7173352999998315,['n'],1,right,['0'],6,0.9175028000008751,,,,,,,,11,19,Man,Rechts,2,
,xotask,xotask,dotcolour,38,1,98,98,training,positivefb,93,easy,7,0.7003400000003239,['n'],1,right,['0'],6,0.684521200000745,,,,,,,,11,19,Man,Rechts,2,
,xotask,xotask,dotcolour,39,1,99,99,training,positivefb,98,easy,5,0.6341608000002452,['n'],1,right,['0'],6,0.4240335000004052,,,,,,,,11,19,Man,Rechts,2,
,xotask,xotask,dotcolour,40,1,100,100,training,positivefb,93,average,18,0.6670783999998093,['n'],1,right,['0'],6,0.45316790000015317,,,,,,,,11,19,Man,Rechts,2,
,xotask,xotask,dotcolour,41,1,101,101,training,positivefb,99,easy,6,0.5828782999997202,['n'],1,right,['0'],6,0.3564098000006197,,,,,,,,11,19,Man,Rechts,2,
,xotask,xotask,dotcolour,42,1,102,102,training,positivefb,99,average,60,0.8498515999999654,['c'],1,left,['0'],6,1.7086093999996592,,,,,,,,11,19,Man,Rechts,2,
,xotask,xotask,dotcolour,43,1,103,103,training,positivefb,97,easy,9,0.6669363999999405,['n'],1,right,['0'],6,0.3815321000001859,,,,,,,,11,19,Man,Rechts,2,
,xotask,xotask,dotcolour,44,1,104,104,training,positivefb,82,hard,53,0.6993635999997423,['c'],1,left,['0'],6,0.6750378999995519,,,,,,,,11,19,Man,Rechts,2,
,xotask,xotask,dotcolour,45,1,105,105,training,positivefb,92,average,15,0.7336177999995925,['n'],1,right,['0'],6,0.5068060000003243,,,,,,,,11,19,Man,Rechts,2,
,xotask,xotask,dotcolour,46,1,106,106,training,positivefb,78,hard,29,0.9664059999995516,['n'],1,right,['8'],4,1.000372200000129,,,,,,,,11,19,Man,Rechts,2,
,xotask,xotask,dotcolour,47,1,107,107,training,positivefb,99,easy,74,0.6503305999995064,['c'],1,left,['0'],6,0.6227318999999625,,,,,,,,11,19,Man,Rechts,2,
,xotask,xotask,dotcolour,48,1,108,108,training,positivefb,95,easy,8,0.8994255000006888,['n'],1,right,['0'],6,0.45840969999972003,,,,,,,,11,19,Man,Rechts,2,
,xotask,xotask,dotcolour,49,1,109,109,training,positivefb,94,hard,26,0.8172323999997388,['n'],1,right,['0'],6,0.38382890000048064,,,,,,,,11,19,Man,Rechts,2,
,xotask,xotask,dotcolour,50,1,110,110,training,positivefb,99,easy,74,0.5323999000002004,['c'],1,left,['0'],6,0.4183739999998579,,,,,,,,11,19,Man,Rechts,2,
,xotask,xotask,dotcolour,51,1,111,111,training,positivefb,96,average,62,0.7169498000002932,['c'],1,left,['0'],6,0.41363689999980124,,,,,,,,11,19,Man,Rechts,2,
,xotask,xotask,dotcolour,52,1,112,112,training,positivefb,95,easy,74,0.5998594000002413,['c'],1,left,['0'],6,0.30093380000016623,,,,,,,,11,19,Man,Rechts,2,
,xotask,xotask,dotcolour,53,1,113,113,training,positivefb,98,hard,50,0.8839937000002465,['c'],1,left,['9'],5,0.45433349999984785,,,,,,,,11,19,Man,Rechts,2,
,xotask,xotask,dotcolour,54,1,114,114,training,positivefb,94,average,16,0.8326302999994368,['n'],1,right,['9'],5,0.49953050000021904,,,,,,,,11,19,Man,Rechts,2,
,xotask,xotask,dotcolour,55,1,115,115,training,positivefb,94,easy,7,0.849292200000491,['n'],1,right,['0'],6,0.8137149000003774,,,,,,,,11,19,Man,Rechts,2,
,xotask,xotask,dotcolour,56,1,116,116,training,positivefb,59,hard,29,1.5834930999999415,['n'],1,right,['9'],5,0.37441519999993034,,,,,,,,11,19,Man,Rechts,2,
,xotask,xotask,dotcolour,57,1,117,117,training,positivefb,94,average,19,1.1664487000007284,['n'],1,right,['8'],4,0.6252352999999857,,,,,,,,11,19,Man,Rechts,2,
,xotask,xotask,dotcolour,58,1,118,118,training,positivefb,94,average,60,0.8001171999994767,['c'],1,left,['0'],6,1.1766727000003812,,,,,,,,11,19,Man,Rechts,2,
,xotask,xotask,dotcolour,59,1,119,119,training,positivefb,97,easy,7,0.6500356000005922,['n'],1,right,['0'],6,0.38401799999974173,,,,,,,,11,19,Man,Rechts,2,
,dotcolour,xotask,dotcolour,0,2,120,120,main,positivefb,-99,easy,,0.8676954000002297,['c'],1,left,['0'],6,0.7891547999997783,63,,,,,,,11,19,Man,Rechts,2,
,dotcolour,xotask,dotcolour,1,2,121,121,main,positivefb,-99,hard,,1.132849300000089,['c'],1,left,['8'],4,0.6811192000004667,43,,,,,,,11,19,Man,Rechts,2,
,dotcolour,xotask,dotcolour,2,2,122,122,main,positivefb,-99,average,,0.7669452999998612,['n'],1,right,['9'],5,0.45653570000013133,27,,,,,,,11,19,Man,Rechts,2,
,dotcolour,xotask,dotcolour,3,2,123,123,main,positivefb,-99,average,,0.717337299999599,['c'],1,left,['9'],5,0.6826303999996526,51,,,,,,,11,19,Man,Rechts,2,
,dotcolour,xotask,dotcolour,4,2,124,124,main,positivefb,-99,average,,0.8842577000004894,['n'],1,right,['8'],4,0.5965538999998898,28,,,,,,,11,19,Man,Rechts,2,
,dotcolour,xotask,dotcolour,5,2,125,125,main,positivefb,-99,average,,0.9342306999997163,['c'],1,left,['0'],6,0.640696499999649,53,,,,,,,11,19,Man,Rechts,2,
,dotcolour,xotask,dotcolour,6,2,126,126,main,positivefb,-99,hard,,1.250767900000028,['n'],1,right,['8'],4,1.565653000000566,38,,,,,,,11,19,Man,Rechts,2,
,dotcolour,xotask,dotcolour,7,2,127,127,main,positivefb,-99,hard,,0.8667545999996946,['c'],0,right,['9'],5,1.2689533000002484,35,,,,,,,11,19,Man,Rechts,2,
,dotcolour,xotask,dotcolour,8,2,128,128,main,positivefb,-99,hard,,0.9673698999995395,['n'],1,right,['8'],4,0.4930428999996366,38,,,,,,,11,19,Man,Rechts,2,
,dotcolour,xotask,dotcolour,9,2,129,129,main,positivefb,-99,average,,0.901547099999334,['n'],1,right,['8'],4,0.5264153999996779,29,,,,,,,11,19,Man,Rechts,2,
,dotcolour,xotask,dotcolour,10,2,130,130,main,positivefb,-99,easy,,0.9842553999997108,['c'],1,left,['0'],6,0.5477068999998664,62,,,,,,,11,19,Man,Rechts,2,
,dotcolour,xotask,dotcolour,11,2,131,131,main,positivefb,-99,easy,,0.7681424000002153,['n'],1,right,['0'],6,0.5195549000000028,16,,,,,,,11,19,Man,Rechts,2,
,dotcolour,xotask,dotcolour,12,2,132,132,main,positivefb,-99,easy,,0.6841091999995115,['c'],1,left,['0'],6,0.4886934999994992,62,,,,,,,11,19,Man,Rechts,2,
,dotcolour,xotask,dotcolour,13,2,133,133,main,positivefb,-99,average,,0.7837431999996625,['n'],1,right,['9'],5,0.44692550000036135,27,,,,,,,11,19,Man,Rechts,2,
,dotcolour,xotask,dotcolour,14,2,134,134,main,positivefb,-99,hard,,0.7347245000000839,['c'],1,left,['9'],5,0.4159462000006897,45,,,,,,,11,19,Man,Rechts,2,
,dotcolour,xotask,dotcolour,15,2,135,135,main,positivefb,-99,hard,,1.4179285999998683,['c'],0,right,['8'],4,0.8003546999998434,36,,,,,,,11,19,Man,Rechts,2,
,dotcolour,xotask,dotcolour,16,2,136,136,main,positivefb,-99,hard,,0.951518799999576,['c'],1,left,['9'],5,0.29821499999980006,44,,,,,,,11,19,Man,Rechts,2,
,dotcolour,xotask,dotcolour,17,2,137,137,main,positivefb,-99,hard,,1.1671096000000034,['n'],1,right,['9'],5,0.5932279999997263,37,,,,,,,11,19,Man,Rechts,2,
,dotcolour,xotask,dotcolour,18,2,138,138,main,positivefb,-99,average,,0.717484499999955,['c'],1,left,['0'],6,0.5495320999998512,55,,,,,,,11,19,Man,Rechts,2,
,dotcolour,xotask,dotcolour,19,2,139,139,main,positivefb,-99,average,,0.8840165999999954,['n'],1,right,['9'],5,0.42034419999981765,28,,,,,,,11,19,Man,Rechts,2,
,dotcolour,xotask,dotcolour,20,2,140,140,main,positivefb,-99,average,,0.8504869999997027,['n'],1,right,['0'],6,0.602167200000622,25,,,,,,,11,19,Man,Rechts,2,
,dotcolour,xotask,dotcolour,21,2,141,141,main,positivefb,-99,easy,,0.5341846999999689,['n'],1,right,['0'],6,0.3578983999996126,16,,,,,,,11,19,Man,Rechts,2,
,dotcolour,xotask,dotcolour,22,2,142,142,main,positivefb,-99,average,,0.700136499999644,['c'],1,left,['0'],6,0.3654996999994182,54,,,,,,,11,19,Man,Rechts,2,
,dotcolour,xotask,dotcolour,23,2,143,143,main,positivefb,-99,average,,0.6504562000000078,['c'],1,left,['9'],5,0.9009756000004927,54,,,,,,,11,19,Man,Rechts,2,
,dotcolour,xotask,dotcolour,24,2,144,144,main,positivefb,-99,hard,,1.451123099999677,['n'],1,right,['8'],4,0.6481704999996509,35,,,,,,,11,19,Man,Rechts,2,
,dotcolour,xotask,dotcolour,25,2,145,145,main,positivefb,-99,hard,,1.3659834000000046,['c'],1,left,['8'],4,0.3366293000008227,45,,,,,,,11,19,Man,Rechts,2,
,dotcolour,xotask,dotcolour,26,2,146,146,main,positivefb,-99,hard,,0.5841183000002275,['c'],1,left,['9'],5,0.9404755000005025,43,,,,,,,11,19,Man,Rechts,2,
,dotcolour,xotask,dotcolour,27,2,147,147,main,positivefb,-99,hard,,1.300865299999714,['n'],1,right,['8'],4,0.37236789999951725,39,,,,,,,11,19,Man,Rechts,2,
,dotcolour,xotask,dotcolour,28,2,148,148,main,positivefb,-99,hard,,0.8673419999995531,['c'],0,right,['9'],5,0.8519163999999364,39,,,,,,,11,19,Man,Rechts,2,
,dotcolour,xotask,dotcolour,29,2,149,149,main,positivefb,-99,easy,,0.6513225999997303,['n'],1,right,['0'],6,0.7685640999998213,18,,,,,,,11,19,Man,Rechts,2,
,dotcolour,xotask,dotcolour,30,2,150,150,main,positivefb,-99,easy,,0.8684000000002925,['c'],1,left,['0'],6,0.3196590000006836,65,,,,,,,11,19,Man,Rechts,2,
,dotcolour,xotask,dotcolour,31,2,151,151,main,positivefb,-99,hard,,1.6015541999995548,['n'],1,right,['9'],5,1.29160740000043,38,,,,,,,11,19,Man,Rechts,2,
,dotcolour,xotask,dotcolour,32,2,152,152,main,positivefb,-99,average,,0.7518964000000778,['n'],1,right,['0'],6,1.0191647999999986,27,,,,,,,11,19,Man,Rechts,2,
,dotcolour,xotask,dotcolour,33,2,153,153,main,positivefb,-99,average,,0.5838995000003706,['c'],1,left,['0'],6,0.3321135000005597,54,,,,,,,11,19,Man,Rechts,2,
,dotcolour,xotask,dotcolour,34,2,154,154,main,positivefb,-99,easy,,0.583201000000372,['c'],1,left,['0'],6,0.2967967000004137,65,,,,,,,11,19,Man,Rechts,2,
,dotcolour,xotask,dotcolour,35,2,155,155,main,positivefb,-99,average,,0.8177379999997356,['c'],1,left,['9'],5,1.4215595000005123,52,,,,,,,11,19,Man,Rechts,2,
,dotcolour,xotask,dotcolour,36,2,156,156,main,positivefb,-99,easy,,0.5843144999998913,['n'],1,right,['0'],6,0.5339481999999407,19,,,,,,,11,19,Man,Rechts,2,
,dotcolour,xotask,dotcolour,37,2,157,157,main,positivefb,-99,hard,,1.1850587999997515,['c'],0,right,['0'],6,0.7862525999998979,37,,,,,,,11,19,Man,Rechts,2,
,dotcolour,xotask,dotcolour,38,2,158,158,main,positivefb,-99,hard,,0.6504193999999188,['c'],1,left,['9'],5,0.6812045999995462,45,,,,,,,11,19,Man,Rechts,2,
,dotcolour,xotask,dotcolour,39,2,159,159,main,positivefb,-99,easy,,0.7336699999996199,['c'],1,left,['0'],6,0.39368130000002566,63,,,,,,,11,19,Man,Rechts,2,
,dotcolour,xotask,dotcolour,40,2,160,160,main,positivefb,-99,average,,0.7676234999998996,['n'],1,right,['0'],6,0.3562990999998874,25,,,,,,,11,19,Man,Rechts,2,
,dotcolour,xotask,dotcolour,41,2,161,161,main,positivefb,-99,easy,,0.6003583000001527,['n'],1,right,['0'],6,0.31969389999994746,15,,,,,,,11,19,Man,Rechts,2,
,dotcolour,xotask,dotcolour,42,2,162,162,main,positivefb,-99,easy,,0.6007268000003023,['n'],1,right,['0'],6,0.4357178999998723,19,,,,,,,11,19,Man,Rechts,2,
,dotcolour,xotask,dotcolour,43,2,163,163,main,positivefb,-99,easy,,0.5509023999993587,['n'],1,right,['0'],6,0.36569090000011784,15,,,,,,,11,19,Man,Rechts,2,
,dotcolour,xotask,dotcolour,44,2,164,164,main,positivefb,-99,average,,0.6668506000005436,['n'],1,right,['8'],4,0.996905500000139,29,,,,,,,11,19,Man,Rechts,2,
,dotcolour,xotask,dotcolour,45,2,165,165,main,positivefb,-99,easy,,0.7171118999995088,['c'],1,left,['0'],6,0.577456600000005,61,,,,,,,11,19,Man,Rechts,2,
,dotcolour,xotask,dotcolour,46,2,166,166,main,positivefb,-99,hard,,0.8008698999992703,['c'],1,left,['8'],4,1.5068729000004168,45,,,,,,,11,19,Man,Rechts,2,
,dotcolour,xotask,dotcolour,47,2,167,167,main,positivefb,-99,average,,0.6168594000000667,['c'],1,left,['9'],5,0.3112855999997919,51,,,,,,,11,19,Man,Rechts,2,
,dotcolour,xotask,dotcolour,48,2,168,168,main,positivefb,-99,average,,0.9171925999999075,['c'],1,left,['9'],5,0.7761172999998962,54,,,,,,,11,19,Man,Rechts,2,
,dotcolour,xotask,dotcolour,49,2,169,169,main,positivefb,-99,hard,,1.667156900000009,['n'],0,left,['8'],4,0.5344562000000224,41,,,,,,,11,19,Man,Rechts,2,
,dotcolour,xotask,dotcolour,50,2,170,170,main,positivefb,-99,easy,,0.7855250000002343,['n'],1,right,['0'],6,0.6746292999996513,19,,,,,,,11,19,Man,Rechts,2,
,dotcolour,xotask,dotcolour,51,2,171,171,main,positivefb,-99,hard,,0.9006657999998424,['c'],1,left,['9'],5,0.2687630000000354,42,,,,,,,11,19,Man,Rechts,2,
,dotcolour,xotask,dotcolour,52,2,172,172,main,positivefb,-99,easy,,0.8011515000007421,['c'],1,left,['0'],6,0.3068052999997235,65,,,,,,,11,19,Man,Rechts,2,
,dotcolour,xotask,dotcolour,53,2,173,173,main,positivefb,-99,easy,,0.6348744000006263,['n'],1,right,['0'],6,0.32640319999973144,17,,,,,,,11,19,Man,Rechts,2,
,dotcolour,xotask,dotcolour,54,2,174,174,main,positivefb,-99,average,,0.5504690999996456,['c'],1,left,['9'],5,1.1806298000001334,54,,,,,,,11,19,Man,Rechts,2,
,dotcolour,xotask,dotcolour,55,2,175,175,main,positivefb,-99,average,,1.183353999999781,['n'],1,right,['9'],5,1.4306358000003456,26,,,,,,,11,19,Man,Rechts,2,
,dotcolour,xotask,dotcolour,56,2,176,176,main,positivefb,-99,easy,,0.7991885000001275,['c'],1,left,['0'],6,0.45449029999963386,62,,,,,,,11,19,Man,Rechts,2,
,dotcolour,xotask,dotcolour,57,2,177,177,main,positivefb,-99,easy,,0.5003686999998536,['n'],1,right,['0'],6,0.34611469999981637,18,,,,,,,11,19,Man,Rechts,2,
,dotcolour,xotask,dotcolour,58,2,178,178,main,positivefb,-99,hard,,1.3836042000002635,['c'],1,left,['9'],5,0.4059583999996903,42,,,,,,,11,19,Man,Rechts,2,
,dotcolour,xotask,dotcolour,59,2,179,179,main,positivefb,-99,easy,,0.600712299999941,['c'],1,left,['0'],6,0.4622864999992089,64,,,,,,,11,19,Man,Rechts,2,
,dotcolour,xotask,dotcolour,0,3,180,180,main,positivefb,-99,hard,,1.116940899999463,['c'],1,left,['9'],5,1.390669500000513,45,,,,,,,11,19,Man,Rechts,2,
,dotcolour,xotask,dotcolour,1,3,181,181,main,positivefb,-99,average,,0.7006662000003416,['n'],1,right,['0'],6,0.7397075999997469,28,,,,,,,11,19,Man,Rechts,2,
,dotcolour,xotask,dotcolour,2,3,182,182,main,positivefb,-99,easy,,0.6509548000003633,['c'],1,left,['0'],6,0.29348099999970145,62,,,,,,,11,19,Man,Rechts,2,
,dotcolour,xotask,dotcolour,3,3,183,183,main,positivefb,-99,average,,0.9180383000002621,['n'],1,right,['0'],6,0.4941945000000487,27,,,,,,,11,19,Man,Rechts,2,
,dotcolour,xotask,dotcolour,4,3,184,184,main,positivefb,-99,average,,1.0180848999998489,['c'],1,left,['9'],5,1.627255200000036,55,,,,,,,11,19,Man,Rechts,2,
,dotcolour,xotask,dotcolour,5,3,185,185,main,positivefb,-99,average,,0.7173592999997709,['c'],1,left,['0'],6,0.3267875000001368,51,,,,,,,11,19,Man,Rechts,2,
,dotcolour,xotask,dotcolour,6,3,186,186,main,positivefb,-99,average,,0.7006068000000596,['n'],1,right,['0'],6,0.3510310000001482,25,,,,,,,11,19,Man,Rechts,2,
,dotcolour,xotask,dotcolour,7,3,187,187,main,positivefb,-99,hard,,1.4840109999995548,['c'],0,right,['8'],4,0.7825302999999622,38,,,,,,,11,19,Man,Rechts,2,
,dotcolour,xotask,dotcolour,8,3,188,188,main,positivefb,-99,average,,0.6834796000002825,['c'],1,left,['9'],5,0.37263400000028923,55,,,,,,,11,19,Man,Rechts,2,
,dotcolour,xotask,dotcolour,9,3,189,189,main,positivefb,-99,hard,,1.0163167000000612,['n'],1,right,['9'],5,0.7743694000000687,38,,,,,,,11,19,Man,Rechts,2,
,dotcolour,xotask,dotcolour,10,3,190,190,main,positivefb,-99,hard,,1.3837282000004052,['n'],1,right,['9'],5,0.505441499999506,36,,,,,,,11,19,Man,Rechts,2,
,dotcolour,xotask,dotcolour,11,3,191,191,main,positivefb,-99,hard,,1.3841649000005418,['c'],0,right,['8'],4,0.5663961999998719,35,,,,,,,11,19,Man,Rechts,2,
,dotcolour,xotask,dotcolour,12,3,192,192,main,positivefb,-99,average,,0.8834313000006659,['c'],1,left,['9'],5,0.30159809999986464,53,,,,,,,11,19,Man,Rechts,2,
,dotcolour,xotask,dotcolour,13,3,193,193,main,positivefb,-99,average,,0.6670106000001397,['n'],1,right,['9'],5,2.3516571000000113,26,,,,,,,11,19,Man,Rechts,2,
,dotcolour,xotask,dotcolour,14,3,194,194,main,positivefb,-99,easy,,0.5997489999999743,['n'],1,right,['0'],6,0.5944209999997838,17,,,,,,,11,19,Man,Rechts,2,
,dotcolour,xotask,dotcolour,15,3,195,195,main,positivefb,-99,hard,,1.1503652999999758,['c'],0,right,['8'],4,0.7818323999999848,37,,,,,,,11,19,Man,Rechts,2,
,dotcolour,xotask,dotcolour,16,3,196,196,main,positivefb,-99,hard,,0.9171636000000944,['c'],1,left,['8'],4,0.3311710999996649,43,,,,,,,11,19,Man,Rechts,2,
,dotcolour,xotask,dotcolour,17,3,197,197,main,positivefb,-99,easy,,1.1841076000000612,['c'],1,left,['0'],6,0.8084372999992411,64,,,,,,,11,19,Man,Rechts,2,
,dotcolour,xotask,dotcolour,18,3,198,198,main,positivefb,-99,easy,,0.649578699999438,['n'],1,right,['0'],6,0.3425257999997484,18,,,,,,,11,19,Man,Rechts,2,
,dotcolour,xotask,dotcolour,19,3,199,199,main,positivefb,-99,hard,,1.0344192000002295,['c'],1,left,['9'],5,0.4565024999992602,44,,,,,,,11,19,Man,Rechts,2,
,dotcolour,xotask,dotcolour,20,3,200,200,main,positivefb,-99,easy,,0.8666107999997621,['c'],1,left,['0'],6,0.436746100000164,62,,,,,,,11,19,Man,Rechts,2,
,dotcolour,xotask,dotcolour,21,3,201,201,main,positivefb,-99,easy,,0.6340344999998706,['c'],1,left,['0'],6,0.2669607999996515,63,,,,,,,11,19,Man,Rechts,2,
,dotcolour,xotask,dotcolour,22,3,202,202,main,positivefb,-99,hard,,1.8168768999994427,['n'],0,left,['8'],4,0.7843069000000469,45,,,,,,,11,19,Man,Rechts,2,
,dotcolour,xotask,dotcolour,23,3,203,203,main,positivefb,-99,average,,0.750607900000432,['n'],1,right,['9'],5,0.5555530999999974,28,,,,,,,11,19,Man,Rechts,2,
,dotcolour,xotask,dotcolour,24,3,204,204,main,positivefb,-99,easy,,0.7833378000004814,['c'],1,left,['0'],6,0.45496970000021975,61,,,,,,,11,19,Man,Rechts,2,
,dotcolour,xotask,dotcolour,25,3,205,205,main,positivefb,-99,hard,,1.2669511000003695,['n'],1,right,['9'],5,0.9073244000001068,35,,,,,,,11,19,Man,Rechts,2,
,dotcolour,xotask,dotcolour,26,3,206,206,main,positivefb,-99,hard,,0.9172171000000162,['c'],1,left,['9'],5,0.30598030000055587,45,,,,,,,11,19,Man,Rechts,2,
,dotcolour,xotask,dotcolour,27,3,207,207,main,positivefb,-99,easy,,1.0173691999998482,['n'],1,right,['0'],6,0.3666707000002134,16,,,,,,,11,19,Man,Rechts,2,
,dotcolour,xotask,dotcolour,28,3,208,208,main,positivefb,-99,easy,,0.566664099999798,['c'],1,left,['0'],6,0.3463568999995914,63,,,,,,,11,19,Man,Rechts,2,
,dotcolour,xotask,dotcolour,29,3,209,209,main,positivefb,-99,average,,0.8011231999998927,['c'],1,left,['0'],6,0.27760250000028464,55,,,,,,,11,19,Man,Rechts,2,
,dotcolour,xotask,dotcolour,30,3,210,210,main,positivefb,-99,easy,,0.7002320999999938,['n'],1,right,['0'],6,0.34414010000000417,19,,,,,,,11,19,Man,Rechts,2,
,dotcolour,xotask,dotcolour,31,3,211,211,main,positivefb,-99,easy,,0.7014335000003484,['n'],1,right,['0'],6,0.4554665000005116,17,,,,,,,11,19,Man,Rechts,2,
,dotcolour,xotask,dotcolour,32,3,212,212,main,positivefb,-99,average,,1.0839010999998209,['c'],1,left,['0'],6,0.91440109999985,51,,,,,,,11,19,Man,Rechts,2,
,dotcolour,xotask,dotcolour,33,3,213,213,main,positivefb,-99,average,,0.6999456000003192,['n'],1,right,['0'],6,0.379120900000089,26,,,,,,,11,19,Man,Rechts,2,
,dotcolour,xotask,dotcolour,34,3,214,214,main,positivefb,-99,average,,0.8179152000002432,['c'],1,left,['0'],6,0.44511099999999715,54,,,,,,,11,19,Man,Rechts,2,
,dotcolour,xotask,dotcolour,35,3,215,215,main,positivefb,-99,average,,0.7505982999991829,['n'],1,right,['0'],6,0.44618780000018887,25,,,,,,,11,19,Man,Rechts,2,
,dotcolour,xotask,dotcolour,36,3,216,216,main,positivefb,-99,average,,0.767979600000217,['n'],1,right,['0'],6,0.47101889999976265,27,,,,,,,11,19,Man,Rechts,2,
,dotcolour,xotask,dotcolour,37,3,217,217,main,positivefb,-99,average,,0.6839701999997487,['c'],1,left,['0'],6,1.6896443000005092,53,,,,,,,11,19,Man,Rechts,2,
,dotcolour,xotask,dotcolour,38,3,218,218,main,positivefb,-99,easy,,0.584049099999902,['n'],1,right,['0'],6,0.3109215000004042,17,,,,,,,11,19,Man,Rechts,2,
,dotcolour,xotask,dotcolour,39,3,219,219,main,positivefb,-99,hard,,0.9841923999993014,['c'],1,left,['9'],5,0.9490812999993068,43,,,,,,,11,19,Man,Rechts,2,
,dotcolour,xotask,dotcolour,40,3,220,220,main,positivefb,-99,average,,0.6342712000005122,['c'],1,left,['9'],5,0.30300530000022263,52,,,,,,,11,19,Man,Rechts,2,
,dotcolour,xotask,dotcolour,41,3,221,221,main,positivefb,-99,hard,,1.967822100000376,['n'],1,right,['8'],4,0.7648783999993611,36,,,,,,,11,19,Man,Rechts,2,
,dotcolour,xotask,dotcolour,42,3,222,222,main,positivefb,-99,hard,,1.0826060999997935,['c'],1,left,['8'],4,0.6597203999999692,41,,,,,,,11,19,Man,Rechts,2,
,dotcolour,xotask,dotcolour,43,3,223,223,main,positivefb,-99,easy,,0.6331178000000364,['c'],1,left,['0'],6,0.7534040999998979,61,,,,,,,11,19,Man,Rechts,2,
,dotcolour,xotask,dotcolour,44,3,224,224,main,positivefb,-99,average,,0.5682115999998132,['c'],1,left,['9'],5,0.6858513000006496,53,,,,,,,11,19,Man,Rechts,2,
,dotcolour,xotask,dotcolour,45,3,225,225,main,positivefb,-99,average,,0.6176691000000574,['n'],1,right,['9'],5,1.177633400000559,25,,,,,,,11,19,Man,Rechts,2,
,dotcolour,xotask,dotcolour,46,3,226,226,main,positivefb,-99,hard,,0.750475899999401,['c'],1,left,['9'],5,0.9502793999999994,44,,,,,,,11,19,Man,Rechts,2,
,dotcolour,xotask,dotcolour,47,3,227,227,main,positivefb,-99,hard,,0.8513474999999744,['c'],1,left,['9'],5,0.43079860000034387,45,,,,,,,11,19,Man,Rechts,2,
,dotcolour,xotask,dotcolour,48,3,228,228,main,positivefb,-99,hard,,1.7001847000001362,['c'],0,right,['8'],4,0.18687260000024253,36,,,,,,,11,19,Man,Rechts,2,
,dotcolour,xotask,dotcolour,49,3,229,229,main,positivefb,-99,hard,,0.8843145000000732,['c'],1,left,['8'],4,0.7448028999997405,41,,,,,,,11,19,Man,Rechts,2,
,dotcolour,xotask,dotcolour,50,3,230,230,main,positivefb,-99,average,,1.200329899999815,['n'],1,right,['8'],4,0.46808380000038596,28,,,,,,,11,19,Man,Rechts,2,
,dotcolour,xotask,dotcolour,51,3,231,231,main,positivefb,-99,easy,,1.034040799999275,['c'],1,left,['0'],6,1.040801900000588,61,,,,,,,11,19,Man,Rechts,2,
,dotcolour,xotask,dotcolour,52,3,232,232,main,positivefb,-99,easy,,0.6007348999992246,['c'],1,left,['0'],6,0.3844842999997127,61,,,,,,,11,19,Man,Rechts,2,
,dotcolour,xotask,dotcolour,53,3,233,233,main,positivefb,-99,hard,,1.134940999999344,['n'],1,right,['9'],5,0.37212470000031317,36,,,,,,,11,19,Man,Rechts,2,
,dotcolour,xotask,dotcolour,54,3,234,234,main,positivefb,-99,easy,,0.7672329000006357,['n'],1,right,['0'],6,0.4800533000006908,17,,,,,,,11,19,Man,Rechts,2,
,dotcolour,xotask,dotcolour,55,3,235,235,main,positivefb,-99,easy,,0.5511826000001747,['n'],1,right,['0'],6,0.2954446999992797,19,,,,,,,11,19,Man,Rechts,2,
,dotcolour,xotask,dotcolour,56,3,236,236,main,positivefb,-99,easy,,0.5518769999998767,['c'],1,left,['0'],6,1.0637501000001066,64,,,,,,,11,19,Man,Rechts,2,
,dotcolour,xotask,dotcolour,57,3,237,237,main,positivefb,-99,hard,,1.5668187000001126,['n'],1,right,['9'],5,0.36677200000031007,37,,,,,,,11,19,Man,Rechts,2,
,dotcolour,xotask,dotcolour,58,3,238,238,main,positivefb,-99,easy,,0.8161600000003091,['n'],1,right,['0'],6,0.6409683000001678,16,,,,,,,11,19,Man,Rechts,2,
,dotcolour,xotask,dotcolour,59,3,239,239,main,positivefb,-99,easy,,0.6166606999995565,['n'],1,right,['0'],6,0.31973029999971914,19,,,,,,,11,19,Man,Rechts,2,
,dotcolour,xotask,dotcolour,0,4,240,240,main,positivefb,-99,average,,0.784257900000739,['n'],1,right,['9'],5,0.7848262000006798,26,,,,,,,11,19,Man,Rechts,2,
,dotcolour,xotask,dotcolour,1,4,241,241,main,positivefb,-99,hard,,1.651997200000551,['c'],1,left,['8'],4,0.6802071000001888,41,,,,,,,11,19,Man,Rechts,2,
,dotcolour,xotask,dotcolour,2,4,242,242,main,positivefb,-99,average,,0.5840214999998352,['c'],1,left,['8'],4,2.599693600000137,53,,,,,,,11,19,Man,Rechts,2,
,dotcolour,xotask,dotcolour,3,4,243,243,main,positivefb,-99,average,,0.7510894000006374,['c'],1,left,['8'],4,0.3383795999998256,53,,,,,,,11,19,Man,Rechts,2,
,dotcolour,xotask,dotcolour,4,4,244,244,main,positivefb,-99,hard,,1.3179666000005454,['n'],0,left,['8'],4,0.5368848999996771,41,,,,,,,11,19,Man,Rechts,2,
,dotcolour,xotask,dotcolour,5,4,245,245,main,positivefb,-99,easy,,0.8835016000002724,['n'],1,right,['0'],6,1.3125779000001785,19,,,,,,,11,19,Man,Rechts,2,
,dotcolour,xotask,dotcolour,6,4,246,246,main,positivefb,-99,average,,0.8508253999998487,['c'],1,left,['0'],6,0.30778340000051685,52,,,,,,,11,19,Man,Rechts,2,
,dotcolour,xotask,dotcolour,7,4,247,247,main,positivefb,-99,average,,0.6839343999999983,['n'],1,right,['0'],6,0.3575230999995256,25,,,,,,,11,19,Man,Rechts,2,
,dotcolour,xotask,dotcolour,8,4,248,248,main,positivefb,-99,average,,0.750286600000436,['c'],1,left,['0'],6,0.5051580999997896,55,,,,,,,11,19,Man,Rechts,2,
,dotcolour,xotask,dotcolour,9,4,249,249,main,positivefb,-99,easy,,0.6345432999996774,['n'],1,right,['0'],6,0.36485369999991235,18,,,,,,,11,19,Man,Rechts,2,
,dotcolour,xotask,dotcolour,10,4,250,250,main,positivefb,-99,hard,,0.7995836999998573,['c'],1,left,['9'],5,0.4797693000000436,45,,,,,,,11,19,Man,Rechts,2,
,dotcolour,xotask,dotcolour,11,4,251,251,main,positivefb,-99,average,,0.5842016999995394,['c'],1,left,['0'],6,0.5581179000000702,54,,,,,,,11,19,Man,Rechts,2,
,dotcolour,xotask,dotcolour,12,4,252,252,main,positivefb,-99,average,,0.7342649000001984,['n'],1,right,['0'],6,0.45170130000042263,26,,,,,,,11,19,Man,Rechts,2,
,dotcolour,xotask,dotcolour,13,4,253,253,main,positivefb,-99,average,,0.6171231000007538,['c'],1,left,['0'],6,2.2822519999999713,52,,,,,,,11,19,Man,Rechts,2,
,dotcolour,xotask,dotcolour,14,4,254,254,main,positivefb,-99,easy,,0.7007889999995314,['c'],1,left,['0'],6,0.29119100000025355,65,,,,,,,11,19,Man,Rechts,2,
,dotcolour,xotask,dotcolour,15,4,255,255,main,positivefb,-99,hard,,1.5679835000000821,['n'],1,right,['8'],4,1.01763579999988,37,,,,,,,11,19,Man,Rechts,2,
,dotcolour,xotask,dotcolour,16,4,256,256,main,positivefb,-99,average,,0.7678538000000117,['n'],1,right,['8'],4,0.5620097999999416,29,,,,,,,11,19,Man,Rechts,2,
,dotcolour,xotask,dotcolour,17,4,257,257,main,positivefb,-99,easy,,0.8838874000002761,['c'],1,left,['0'],6,0.4494182999997065,65,,,,,,,11,19,Man,Rechts,2,
,dotcolour,xotask,dotcolour,18,4,258,258,main,positivefb,-99,hard,,0.9005665999993653,['n'],1,right,['9'],5,1.3336982000000717,35,,,,,,,11,19,Man,Rechts,2,
,dotcolour,xotask,dotcolour,19,4,259,259,main,positivefb,-99,hard,,0.6675798999995095,['c'],0,right,['8'],4,0.990429800000129,35,,,,,,,11,19,Man,Rechts,2,
,dotcolour,xotask,dotcolour,20,4,260,260,main,positivefb,-99,average,,0.6341337000003477,['c'],1,left,['0'],6,1.1901938000000882,53,,,,,,,11,19,Man,Rechts,2,
,dotcolour,xotask,dotcolour,21,4,261,261,main,positivefb,-99,easy,,0.7346219999999448,['c'],1,left,['0'],6,0.3059598999998343,63,,,,,,,11,19,Man,Rechts,2,
,dotcolour,xotask,dotcolour,22,4,262,262,main,positivefb,-99,easy,,0.6333478000005925,['c'],1,left,['0'],6,0.30954209999981686,62,,,,,,,11,19,Man,Rechts,2,
,dotcolour,xotask,dotcolour,23,4,263,263,main,positivefb,-99,average,,0.7329552999999578,['n'],1,right,['0'],6,0.524880399999347,29,,,,,,,11,19,Man,Rechts,2,
,dotcolour,xotask,dotcolour,24,4,264,264,main,positivefb,-99,hard,,0.7669547999994393,['n'],1,right,['0'],6,0.3296658000008392,35,,,,,,,11,19,Man,Rechts,2,
,dotcolour,xotask,dotcolour,25,4,265,265,main,positivefb,-99,hard,,0.6507613000003403,['n'],0,left,['8'],4,0.9804337000005034,42,,,,,,,11,19,Man,Rechts,2,
,dotcolour,xotask,dotcolour,26,4,266,266,main,positivefb,-99,average,,0.7676031000000876,['c'],1,left,['0'],6,0.6159512000003815,54,,,,,,,11,19,Man,Rechts,2,
,dotcolour,xotask,dotcolour,27,4,267,267,main,positivefb,-99,hard,,1.3667783000000782,['c'],1,left,['8'],4,0.7293956000003163,43,,,,,,,11,19,Man,Rechts,2,
,dotcolour,xotask,dotcolour,28,4,268,268,main,positivefb,-99,hard,,0.9343589000000065,['n'],1,right,['9'],5,0.3355208000002676,39,,,,,,,11,19,Man,Rechts,2,
,dotcolour,xotask,dotcolour,29,4,269,269,main,positivefb,-99,easy,,0.6996121000001949,['n'],1,right,['0'],6,0.4546831999996357,17,,,,,,,11,19,Man,Rechts,2,
,dotcolour,xotask,dotcolour,30,4,270,270,main,positivefb,-99,hard,,1.6341385000005175,['c'],1,left,['8'],4,0.46092120000048453,41,,,,,,,11,19,Man,Rechts,2,
,dotcolour,xotask,dotcolour,31,4,271,271,main,positivefb,-99,easy,,0.8665982000002259,['n'],1,right,['0'],6,0.6011988000000201,16,,,,,,,11,19,Man,Rechts,2,
,dotcolour,xotask,dotcolour,32,4,272,272,main,positivefb,-99,hard,,2.0844154999995226,['n'],1,right,['8'],4,0.7179722999999285,37,,,,,,,11,19,Man,Rechts,2,
,dotcolour,xotask,dotcolour,33,4,273,273,main,positivefb,-99,average,,0.7012942000001203,['n'],1,right,['9'],5,1.0941992999996728,26,,,,,,,11,19,Man,Rechts,2,
,dotcolour,xotask,dotcolour,34,4,274,274,main,positivefb,-99,easy,,0.7660798000006253,['c'],1,left,['0'],6,0.3726941999993869,64,,,,,,,11,19,Man,Rechts,2,
,dotcolour,xotask,dotcolour,35,4,275,275,main,positivefb,-99,hard,,1.333403399999952,['n'],1,right,['9'],5,0.40966430000025866,35,,,,,,,11,19,Man,Rechts,2,
,dotcolour,xotask,dotcolour,36,4,276,276,main,positivefb,-99,easy,,0.6345503000002282,['n'],1,right,['0'],6,0.41710020000027725,15,,,,,,,11,19,Man,Rechts,2,
,dotcolour,xotask,dotcolour,37,4,277,277,main,positivefb,-99,average,,0.8177456999992501,['n'],1,right,['0'],6,0.3454548999998224,25,,,,,,,11,19,Man,Rechts,2,
,dotcolour,xotask,dotcolour,38,4,278,278,main,positivefb,-99,easy,,0.5001609999999346,['n'],1,right,['0'],6,0.4000557999997909,17,,,,,,,11,19,Man,Rechts,2,
,dotcolour,xotask,dotcolour,39,4,279,279,main,positivefb,-99,easy,,0.5842270000002827,['n'],1,right,['0'],6,0.32972329999938665,16,,,,,,,11,19,Man,Rechts,2,
,dotcolour,xotask,dotcolour,40,4,280,280,main,positivefb,-99,easy,,0.6180100000001403,['c'],1,left,['0'],6,0.3237617999993745,61,,,,,,,11,19,Man,Rechts,2,
,dotcolour,xotask,dotcolour,41,4,281,281,main,positivefb,-99,hard,,1.3838943999999174,['n'],1,right,['8'],4,0.7615096999998059,35,,,,,,,11,19,Man,Rechts,2,
,dotcolour,xotask,dotcolour,42,4,282,282,main,positivefb,-99,hard,,1.1015842999995584,['n'],1,right,['8'],4,1.0326056000003518,37,,,,,,,11,19,Man,Rechts,2,
,dotcolour,xotask,dotcolour,43,4,283,283,main,positivefb,-99,average,,0.6498707999999169,['c'],1,left,['9'],5,0.44537470000068424,54,,,,,,,11,19,Man,Rechts,2,
,dotcolour,xotask,dotcolour,44,4,284,284,main,positivefb,-99,hard,,1.5340348999998241,['n'],0,left,['8'],4,0.48779500000000553,44,,,,,,,11,19,Man,Rechts,2,
,dotcolour,xotask,dotcolour,45,4,285,285,main,positivefb,-99,average,,1.217743899999732,['n'],1,right,['9'],5,0.6922586999999112,25,,,,,,,11,19,Man,Rechts,2,
,dotcolour,xotask,dotcolour,46,4,286,286,main,positivefb,-99,hard,,1.5340656999997009,['c'],0,right,['9'],5,0.3561899000005724,35,,,,,,,11,19,Man,Rechts,2,
,dotcolour,xotask,dotcolour,47,4,287,287,main,positivefb,-99,average,,0.6181572000004962,['c'],1,left,['9'],5,0.982898600000226,53,,,,,,,11,19,Man,Rechts,2,
,dotcolour,xotask,dotcolour,48,4,288,288,main,positivefb,-99,easy,,0.7503913999998986,['c'],1,left,['0'],6,0.45075619999988703,63,,,,,,,11,19,Man,Rechts,2,
,dotcolour,xotask,dotcolour,49,4,289,289,main,positivefb,-99,average,,0.6837414000001445,['n'],1,right,['0'],6,0.3247268000004624,26,,,,,,,11,19,Man,Rechts,2,
,dotcolour,xotask,dotcolour,50,4,290,290,main,positivefb,-99,average,,0.5350735000001805,['n'],1,right,['9'],5,1.4044671000001472,27,,,,,,,11,19,Man,Rechts,2,
,dotcolour,xotask,dotcolour,51,4,291,291,main,positivefb,-99,easy,,0.9334292999992613,['c'],1,left,['0'],6,0.335345800000141,65,,,,,,,11,19,Man,Rechts,2,
,dotcolour,xotask,dotcolour,52,4,292,292,main,positivefb,-99,hard,,1.1335191999996823,['c'],1,left,['9'],5,0.21317760000056296,45,,,,,,,11,19,Man,Rechts,2,
,dotcolour,xotask,dotcolour,53,4,293,293,main,positivefb,-99,easy,,0.7341626999996151,['n'],1,right,['0'],6,0.4891054999998232,19,,,,,,,11,19,Man,Rechts,2,
,dotcolour,xotask,dotcolour,54,4,294,294,main,positivefb,-99,easy,,1.134378900000229,['c'],1,left,['0'],6,0.6326938000001974,63,,,,,,,11,19,Man,Rechts,2,
,dotcolour,xotask,dotcolour,55,4,295,295,main,positivefb,-99,easy,,0.6006505000004836,['n'],1,right,['0'],6,0.31239970000024186,15,,,,,,,11,19,Man,Rechts,2,
,dotcolour,xotask,dotcolour,56,4,296,296,main,positivefb,-99,easy,,0.6348632000008365,['c'],1,left,['0'],6,0.29983919999995123,64,,,,,,,11,19,Man,Rechts,2,
,dotcolour,xotask,dotcolour,57,4,297,297,main,positivefb,-99,hard,,1.6169641999995292,['c'],1,left,['8'],4,0.6642980999995416,43,,,,,,,11,19,Man,Rechts,2,
,dotcolour,xotask,dotcolour,58,4,298,298,main,positivefb,-99,hard,,1.0509031999999934,['c'],1,left,['8'],4,0.27708630000051926,41,,,,,,,11,19,Man,Rechts,2,
,dotcolour,xotask,dotcolour,59,4,299,299,main,positivefb,-99,easy,,0.7003191000003426,['n'],1,right,['0'],6,0.6299265999996351,17,,,,,,,11,19,Man,Rechts,2,
,xotask,xotask,dotcolour,0,0,0,300,training,positivefb,96,hard,51,0.8339262999998027,['c'],1,left,['9'],5,1.2680548999996972,,,,,,,,11,19,Man,Rechts,2,
,xotask,xotask,dotcolour,1,0,1,301,training,positivefb,91,average,61,0.783914100000402,['c'],1,left,['9'],5,0.4821935999998459,,,,,,,,11,19,Man,Rechts,2,
,xotask,xotask,dotcolour,2,0,2,302,training,positivefb,71,hard,28,1.0508979000005638,['c'],0,right,['8'],4,0.45996369999920717,,,,,,,,11,19,Man,Rechts,2,
,xotask,xotask,dotcolour,3,0,3,303,training,positivefb,94,easy,73,1.050153400000454,['c'],1,left,['8'],4,0.3361312999995789,,,,,,,,11,19,Man,Rechts,2,
,xotask,xotask,dotcolour,4,0,4,304,training,positivefb,92,average,19,1.1338624999998501,['n'],1,right,['8'],4,0.9185961000002862,,,,,,,,11,19,Man,Rechts,2,
,xotask,xotask,dotcolour,5,0,5,305,training,positivefb,99,easy,72,0.7838276000002224,['c'],1,left,['0'],6,0.5945977999999741,,,,,,,,11,19,Man,Rechts,2,
,xotask,xotask,dotcolour,6,0,6,306,training,positivefb,94,hard,26,1.7488413000000946,['n'],1,right,['9'],5,0.40508500000032654,,,,,,,,11,19,Man,Rechts,2,
,xotask,xotask,dotcolour,7,0,7,307,training,positivefb,94,easy,72,1.16629599999942,['c'],1,left,['0'],6,0.6706665000001522,,,,,,,,11,19,Man,Rechts,2,
,xotask,xotask,dotcolour,8,0,8,308,training,positivefb,98,average,16,0.666741600000023,['n'],1,right,['0'],6,0.473056999999244,,,,,,,,11,19,Man,Rechts,2,
,xotask,xotask,dotcolour,9,0,9,309,training,positivefb,95,average,62,0.733954199999971,['c'],1,left,['0'],6,0.4414772999998604,,,,,,,,11,19,Man,Rechts,2,
,xotask,xotask,dotcolour,10,0,10,310,training,positivefb,94,average,18,0.8833828999995603,['n'],1,right,['0'],6,0.5328279999994265,,,,,,,,11,19,Man,Rechts,2,
,xotask,xotask,dotcolour,11,0,11,311,training,positivefb,93,hard,51,1.0996273000000656,['c'],1,left,['9'],5,0.32372380000015255,,,,,,,,11,19,Man,Rechts,2,
,xotask,xotask,dotcolour,12,0,12,312,training,positivefb,97,easy,8,0.9167625999998563,['n'],1,right,['0'],6,0.5548363999996582,,,,,,,,11,19,Man,Rechts,2,
,xotask,xotask,dotcolour,13,0,13,313,training,positivefb,91,hard,51,1.549440400000094,['c'],1,left,['9'],5,0.5985822000002372,,,,,,,,11,19,Man,Rechts,2,
,xotask,xotask,dotcolour,14,0,14,314,training,positivefb,92,average,60,0.8504434999995283,['c'],1,left,['9'],5,0.4051327000006495,,,,,,,,11,19,Man,Rechts,2,
,xotask,xotask,dotcolour,15,0,15,315,training,positivefb,93,hard,28,0.9666151000001264,['n'],1,right,['9'],5,0.5340461999994659,,,,,,,,11,19,Man,Rechts,2,
,xotask,xotask,dotcolour,16,0,16,316,training,positivefb,97,average,17,0.9337245999995503,['n'],1,right,['9'],5,0.532032099999924,,,,,,,,11,19,Man,Rechts,2,
,xotask,xotask,dotcolour,17,0,17,317,training,positivefb,99,average,17,0.6491232000007585,['n'],1,right,['0'],6,0.6211663000003682,,,,,,,,11,19,Man,Rechts,2,
,xotask,xotask,dotcolour,18,0,18,318,training,positivefb,86,hard,53,1.551459799999975,['c'],1,left,['8'],4,1.3744839999999385,,,,,,,,11,19,Man,Rechts,2,
,xotask,xotask,dotcolour,19,0,19,319,training,positivefb,92,easy,9,1.7342316999993272,['n'],1,right,['9'],5,0.6107676999999967,,,,,,,,11,19,Man,Rechts,2,
,xotask,xotask,dotcolour,20,0,20,320,training,positivefb,91,hard,27,0.7666732000006959,['n'],1,right,['9'],5,0.51592250000067,,,,,,,,11,19,Man,Rechts,2,
,xotask,xotask,dotcolour,21,0,21,321,training,positivefb,97,average,19,0.7500636000004306,['n'],1,right,['0'],6,0.5846645999999964,,,,,,,,11,19,Man,Rechts,2,
,xotask,xotask,dotcolour,22,0,22,322,training,positivefb,91,easy,73,0.9490658999993684,['c'],1,left,['0'],6,0.3400795999996262,,,,,,,,11,19,Man,Rechts,2,
,xotask,xotask,dotcolour,23,0,23,323,training,positivefb,93,average,61,0.7335714999999254,['c'],1,left,['0'],6,0.3856415999998717,,,,,,,,11,19,Man,Rechts,2,
,xotask,xotask,dotcolour,24,0,24,324,training,positivefb,96,average,64,0.8333867000001192,['c'],1,left,['0'],6,0.6488802999992913,,,,,,,,11,19,Man,Rechts,2,
,xotask,xotask,dotcolour,25,0,25,325,training,positivefb,99,easy,73,0.6000133999996251,['c'],1,left,['0'],6,0.3826455000007627,,,,,,,,11,19,Man,Rechts,2,
,xotask,xotask,dotcolour,26,0,26,326,training,positivefb,86,easy,9,0.934345000000576,['n'],1,right,['9'],5,0.6829299999999421,,,,,,,,11,19,Man,Rechts,2,
,xotask,xotask,dotcolour,27,0,27,327,training,positivefb,76,hard,26,1.9843419999997423,['c'],0,right,['8'],4,0.25628390000019863,,,,,,,,11,19,Man,Rechts,2,
,xotask,xotask,dotcolour,28,0,28,328,training,positivefb,94,hard,50,1.1823701000002984,['c'],1,left,['8'],4,0.3192972999995618,,,,,,,,11,19,Man,Rechts,2,
,xotask,xotask,dotcolour,29,0,29,329,training,positivefb,68,hard,52,2.2317197000002125,['n'],0,left,['8'],4,0.46466489999966143,,,,,,,,11,19,Man,Rechts,2,
,xotask,xotask,dotcolour,30,0,30,330,training,positivefb,87,hard,54,0.8343847999994978,['c'],1,left,['9'],5,0.47810070000014093,,,,,,,,11,19,Man,Rechts,2,
,xotask,xotask,dotcolour,31,0,31,331,training,positivefb,96,easy,8,0.7174107999999251,['n'],1,right,['0'],6,0.6459869000000253,,,,,,,,11,19,Man,Rechts,2,
,xotask,xotask,dotcolour,32,0,32,332,training,positivefb,76,hard,29,0.7001459000002797,['n'],1,right,['0'],6,0.3693929000000935,,,,,,,,11,19,Man,Rechts,2,
,xotask,xotask,dotcolour,33,0,33,333,training,positivefb,88,average,62,0.6827418000002581,['c'],1,left,['0'],6,0.35981290000017907,,,,,,,,11,19,Man,Rechts,2,
,xotask,xotask,dotcolour,34,0,34,334,training,positivefb,99,average,15,0.6666186000002199,['n'],1,right,['0'],6,0.4228909000003114,,,,,,,,11,19,Man,Rechts,2,
,xotask,xotask,dotcolour,35,0,35,335,training,positivefb,60,hard,29,0.616885700000239,['n'],1,right,['9'],5,0.5737482000004093,,,,,,,,11,19,Man,Rechts,2,
,xotask,xotask,dotcolour,36,0,36,336,training,positivefb,36,hard,26,0.8333864999995058,['c'],0,right,['0'],6,0.3174746000004234,,,,,,,,11,19,Man,Rechts,2,
,xotask,xotask,dotcolour,37,0,37,337,training,positivefb,84,easy,72,0.7158887000005052,['c'],1,left,['0'],6,0.29254069999933563,,,,,,,,11,19,Man,Rechts,2,
,xotask,xotask,dotcolour,38,0,38,338,training,positivefb,12,average,17,0.8164981999998417,['c'],0,right,['9'],5,2.5523087000001397,,,,,,,,11,19,Man,Rechts,2,
,xotask,xotask,dotcolour,39,0,39,339,training,positivefb,97,hard,52,0.7002977999991344,['c'],1,left,['9'],5,1.2453962999998112,,,,,,,,11,19,Man,Rechts,2,
,xotask,xotask,dotcolour,40,0,40,340,training,positivefb,99,easy,9,0.750852300000588,['n'],1,right,['0'],6,2.3183688999997685,,,,,,,,11,19,Man,Rechts,2,
,xotask,xotask,dotcolour,41,0,41,341,training,positivefb,74,easy,8,0.6508150999998179,['n'],1,right,['0'],6,0.4472965999993903,,,,,,,,11,19,Man,Rechts,2,
,xotask,xotask,dotcolour,42,0,42,342,training,positivefb,96,average,60,1.4665666000000783,['c'],1,left,['0'],6,0.539751499999511,,,,,,,,11,19,Man,Rechts,2,
,xotask,xotask,dotcolour,43,0,43,343,training,positivefb,94,easy,71,0.6499546999993981,['c'],1,left,['0'],6,0.2764019999995071,,,,,,,,11,19,Man,Rechts,2,
,xotask,xotask,dotcolour,44,0,44,344,training,positivefb,94,easy,7,0.6834138000003804,['n'],1,right,['0'],6,1.3750441000001956,,,,,,,,11,19,Man,Rechts,2,
,xotask,xotask,dotcolour,45,0,45,345,training,positivefb,97,easy,6,0.8507566999996925,['n'],1,right,['0'],6,0.3344561000003523,,,,,,,,11,19,Man,Rechts,2,
,xotask,xotask,dotcolour,46,0,46,346,training,positivefb,91,average,63,0.7007001000001765,['c'],1,left,['0'],6,1.9250154000001203,,,,,,,,11,19,Man,Rechts,2,
,xotask,xotask,dotcolour,47,0,47,347,training,positivefb,92,easy,70,0.9495292999999947,['c'],1,left,['0'],6,0.28967979999924864,,,,,,,,11,19,Man,Rechts,2,
,xotask,xotask,dotcolour,48,0,48,348,training,positivefb,97,hard,25,0.9166595999995479,['n'],1,right,['0'],6,0.32161120000000665,,,,,,,,11,19,Man,Rechts,2,
,xotask,xotask,dotcolour,49,0,49,349,training,positivefb,97,average,16,0.7823938999999882,['n'],1,right,['0'],6,0.3422982000001866,,,,,,,,11,19,Man,Rechts,2,
,xotask,xotask,dotcolour,50,0,50,350,training,positivefb,93,hard,50,0.8667009000000689,['c'],1,left,['0'],6,0.43051089999971737,,,,,,,,11,19,Man,Rechts,2,
,xotask,xotask,dotcolour,51,0,51,351,training,positivefb,57,average,19,0.6339131999993697,['c'],0,right,['3'],3,1.893377700000201,,,,,,,,11,19,Man,Rechts,2,
,xotask,xotask,dotcolour,52,0,52,352,training,positivefb,100,easy,73,0.7333097000000635,['c'],1,left,['0'],6,0.6357224000003043,,,,,,,,11,19,Man,Rechts,2,
,xotask,xotask,dotcolour,53,0,53,353,training,positivefb,94,hard,50,1.0003747000000658,['c'],1,left,['9'],5,1.5230382999998255,,,,,,,,11,19,Man,Rechts,2,
,xotask,xotask,dotcolour,54,0,54,354,training,positivefb,92,easy,9,0.6830759000004036,['n'],1,right,['0'],6,0.47444389999964187,,,,,,,,11,19,Man,Rechts,2,
,xotask,xotask,dotcolour,55,0,55,355,training,positivefb,96,average,61,0.6662764000002426,['c'],1,left,['0'],6,0.3014235999999073,,,,,,,,11,19,Man,Rechts,2,
,xotask,xotask,dotcolour,56,0,56,356,training,positivefb,96,hard,27,1.2171926999999414,['n'],1,right,['0'],6,0.3454011999992872,,,,,,,,11,19,Man,Rechts,2,
,xotask,xotask,dotcolour,57,0,57,357,training,positivefb,99,average,60,0.7001024999999572,['c'],1,left,['0'],6,0.37606939999932365,,,,,,,,11,19,Man,Rechts,2,
,xotask,xotask,dotcolour,58,0,58,358,training,positivefb,59,easy,8,0.8171329000006153,['n'],1,right,['0'],6,0.3286184000007779,,,,,,,,11,19,Man,Rechts,2,
,xotask,xotask,dotcolour,59,0,59,359,training,positivefb,99,easy,70,0.6672143000005235,['c'],1,left,['0'],6,0.3048564000000624,,,,,,,,11,19,Man,Rechts,2,
,xotask,xotask,dotcolour,0,1,60,360,training,positivefb,96,easy,9,0.833633700000064,['n'],1,right,['0'],6,0.46407060000001366,,,,,,,,11,19,Man,Rechts,2,
,xotask,xotask,dotcolour,1,1,61,361,training,positivefb,97,easy,8,0.6482296000003771,['n'],1,right,['0'],6,0.5324491000001217,,,,,,,,11,19,Man,Rechts,2,
,xotask,xotask,dotcolour,2,1,62,362,training,positivefb,73,hard,28,1.0169624999998632,['n'],1,right,['9'],5,0.8785729000001083,,,,,,,,11,19,Man,Rechts,2,
,xotask,xotask,dotcolour,3,1,63,363,training,positivefb,96,easy,70,0.950095300000612,['c'],1,left,['8'],4,1.549866800000018,,,,,,,,11,19,Man,Rechts,2,
,xotask,xotask,dotcolour,4,1,64,364,training,positivefb,99,easy,74,0.5832881999995152,['c'],1,left,['0'],6,0.5284805999999662,,,,,,,,11,19,Man,Rechts,2,
,xotask,xotask,dotcolour,5,1,65,365,training,positivefb,74,hard,50,1.466048999999657,['c'],1,left,['8'],4,0.6333479000004445,,,,,,,,11,19,Man,Rechts,2,
,xotask,xotask,dotcolour,6,1,66,366,training,positivefb,90,average,60,0.734008299999914,['c'],1,left,['0'],6,0.6186247999994521,,,,,,,,11,19,Man,Rechts,2,
,xotask,xotask,dotcolour,7,1,67,367,training,positivefb,98,easy,8,1.3832131999997728,['n'],1,right,['0'],6,0.5942205999999715,,,,,,,,11,19,Man,Rechts,2,
,xotask,xotask,dotcolour,8,1,68,368,training,positivefb,82,average,18,0.701077599999735,['n'],1,right,['0'],6,0.3429863999999725,,,,,,,,11,19,Man,Rechts,2,
,xotask,xotask,dotcolour,9,1,69,369,training,positivefb,97,easy,6,0.5827149999995527,['n'],1,right,['0'],6,0.4834000000000742,,,,,,,,11,19,Man,Rechts,2,
,xotask,xotask,dotcolour,10,1,70,370,training,positivefb,86,average,60,1.5326695000003383,['c'],1,left,['8'],4,0.7460720999997648,,,,,,,,11,19,Man,Rechts,2,
,xotask,xotask,dotcolour,11,1,71,371,training,positivefb,99,hard,51,0.6331090999992739,['c'],1,left,['8'],4,0.8840447000002314,,,,,,,,11,19,Man,Rechts,2,
,xotask,xotask,dotcolour,12,1,72,372,training,positivefb,82,hard,29,1.0664549999992232,['c'],0,right,['8'],4,0.46085630000015954,,,,,,,,11,19,Man,Rechts,2,
,xotask,xotask,dotcolour,13,1,73,373,training,positivefb,98,easy,70,0.8332776999995986,['c'],1,left,['0'],6,0.6513169999998354,,,,,,,,11,19,Man,Rechts,2,
,xotask,xotask,dotcolour,14,1,74,374,training,positivefb,99,easy,70,0.5496009000007689,['c'],1,left,['0'],6,0.29098359999989043,,,,,,,,11,19,Man,Rechts,2,
,xotask,xotask,dotcolour,15,1,75,375,training,positivefb,94,hard,53,0.8490062000000762,['c'],1,left,['0'],6,0.3177496999996947,,,,,,,,11,19,Man,Rechts,2,
,xotask,xotask,dotcolour,16,1,76,376,training,positivefb,71,average,62,0.5993508000001384,['c'],1,left,['0'],6,0.42609880000054545,,,,,,,,11,19,Man,Rechts,2,
,xotask,xotask,dotcolour,17,1,77,377,training,positivefb,91,average,61,0.5837259999998423,['c'],1,left,['0'],6,0.31289990000004764,,,,,,,,11,19,Man,Rechts,2,
,xotask,xotask,dotcolour,18,1,78,378,training,positivefb,87,hard,54,0.6838221999996676,['c'],1,left,['0'],6,0.33806339999955526,,,,,,,,11,19,Man,Rechts,2,
,xotask,xotask,dotcolour,19,1,79,379,training,positivefb,99,hard,25,0.7168520000004719,['n'],1,right,['0'],6,0.6715610000001107,,,,,,,,11,19,Man,Rechts,2,
,xotask,xotask,dotcolour,20,1,80,380,training,positivefb,100,easy,71,0.6834883000001355,['c'],1,left,['0'],6,0.3225675000003321,,,,,,,,11,19,Man,Rechts,2,
,xotask,xotask,dotcolour,21,1,81,381,training,positivefb,98,average,19,1.148977400000149,['n'],1,right,['0'],6,0.5278588999999556,,,,,,,,11,19,Man,Rechts,2,
,xotask,xotask,dotcolour,22,1,82,382,training,positivefb,72,hard,29,0.7825637999994797,['c'],0,right,['9'],5,0.6516170999993847,,,,,,,,11,19,Man,Rechts,2,
,xotask,xotask,dotcolour,23,1,83,383,training,positivefb,95,average,63,0.6335214000000633,['c'],1,left,['9'],5,0.632280300000275,,,,,,,,11,19,Man,Rechts,2,
,xotask,xotask,dotcolour,24,1,84,384,training,positivefb,100,easy,6,0.8499889000004259,['n'],1,right,['0'],6,2.7326248999997915,,,,,,,,11,19,Man,Rechts,2,
,xotask,xotask,dotcolour,25,1,85,385,training,positivefb,97,average,19,0.6173782000005303,['n'],1,right,['0'],6,0.3905531999998857,,,,,,,,11,19,Man,Rechts,2,
,xotask,xotask,dotcolour,26,1,86,386,training,positivefb,95,average,17,0.4831247000001895,['n'],1,right,['9'],5,0.8041346999998495,,,,,,,,11,19,Man,Rechts,2,
,xotask,xotask,dotcolour,27,1,87,387,training,positivefb,87,average,17,0.5839988000006997,['n'],1,right,['9'],5,0.4610849999999118,,,,,,,,11,19,Man,Rechts,2,
,xotask,xotask,dotcolour,28,1,88,388,training,positivefb,99,average,61,0.7329964999998992,['c'],1,left,['9'],5,0.35778990000017075,,,,,,,,11,19,Man,Rechts,2,
,xotask,xotask,dotcolour,29,1,89,389,training,positivefb,88,hard,54,1.5012118999993618,['c'],1,left,['8'],4,0.4197346999999354,,,,,,,,11,19,Man,Rechts,2,
,xotask,xotask,dotcolour,30,1,90,390,training,positivefb,66,hard,26,0.667797399999472,['n'],1,right,['0'],6,0.7606497000006129,,,,,,,,11,19,Man,Rechts,2,
,xotask,xotask,dotcolour,31,1,91,391,training,positivefb,78,hard,26,0.6346135999992839,['n'],1,right,['0'],6,0.3607688000001872,,,,,,,,11,19,Man,Rechts,2,
,xotask,xotask,dotcolour,32,1,92,392,training,positivefb,98,easy,6,0.666514499999721,['n'],1,right,['0'],6,0.3446810000004916,,,,,,,,11,19,Man,Rechts,2,
,xotask,xotask,dotcolour,33,1,93,393,training,positivefb,95,hard,25,1.732904999999846,['n'],1,right,['8'],4,0.6779464999999618,,,,,,,,11,19,Man,Rechts,2,
,xotask,xotask,dotcolour,34,1,94,394,training,positivefb,97,average,60,0.7165928999993412,['c'],1,left,['9'],5,1.7346446999999898,,,,,,,,11,19,Man,Rechts,2,
,xotask,xotask,dotcolour,35,1,95,395,training,positivefb,92,hard,52,0.681786999999531,['c'],1,left,['9'],5,0.4856309999995574,,,,,,,,11,19,Man,Rechts,2,
,xotask,xotask,dotcolour,36,1,96,396,training,positivefb,83,hard,25,1.1502190000001065,['n'],1,right,['9'],5,1.053126699999666,,,,,,,,11,19,Man,Rechts,2,
,xotask,xotask,dotcolour,37,1,97,397,training,positivefb,84,hard,54,0.6332593999995879,['c'],1,left,['9'],5,1.281301899999562,,,,,,,,11,19,Man,Rechts,2,
,xotask,xotask,dotcolour,38,1,98,398,training,positivefb,98,average,64,0.7482444999996005,['c'],1,left,['0'],6,0.4968956000002436,,,,,,,,11,19,Man,Rechts,2,
,xotask,xotask,dotcolour,39,1,99,399,training,positivefb,74,easy,5,0.5662646999999197,['n'],1,right,['0'],6,0.3351309999998193,,,,,,,,11,19,Man,Rechts,2,
,xotask,xotask,dotcolour,40,1,100,400,training,positivefb,82,hard,51,0.9165095999996993,['c'],1,left,['9'],5,0.26079920000029233,,,,,,,,11,19,Man,Rechts,2,
,xotask,xotask,dotcolour,41,1,101,401,training,positivefb,84,average,16,0.5994160999998712,['n'],1,right,['9'],5,0.35510789999989356,,,,,,,,11,19,Man,Rechts,2,
,xotask,xotask,dotcolour,42,1,102,402,training,positivefb,98,hard,53,0.666716899999301,['c'],1,left,['0'],6,0.46666170000025886,,,,,,,,11,19,Man,Rechts,2,
,xotask,xotask,dotcolour,43,1,103,403,training,positivefb,96,average,16,0.8497808000001896,['n'],1,right,['0'],6,0.31020039999930304,,,,,,,,11,19,Man,Rechts,2,
,xotask,xotask,dotcolour,44,1,104,404,training,positivefb,98,hard,29,0.8000709999996616,['n'],1,right,['0'],6,0.3142926999998963,,,,,,,,11,19,Man,Rechts,2,
,xotask,xotask,dotcolour,45,1,105,405,training,positivefb,98,easy,8,0.6007085999999617,['n'],1,right,['0'],6,0.32617499999923893,,,,,,,,11,19,Man,Rechts,2,
,xotask,xotask,dotcolour,46,1,106,406,training,positivefb,99,easy,70,0.6181870000000345,['c'],1,left,['0'],6,0.3366411999995762,,,,,,,,11,19,Man,Rechts,2,
,xotask,xotask,dotcolour,47,1,107,407,training,positivefb,86,average,17,1.350650900000801,['n'],1,right,['0'],6,0.33361559999957535,,,,,,,,11,19,Man,Rechts,2,
,xotask,xotask,dotcolour,48,1,108,408,training,positivefb,97,easy,71,0.6508698999996341,['c'],1,left,['0'],6,0.2708082999997714,,,,,,,,11,19,Man,Rechts,2,
,xotask,xotask,dotcolour,49,1,109,409,training,positivefb,97,average,18,0.733490200000233,['n'],1,right,['0'],6,0.270304099999521,,,,,,,,11,19,Man,Rechts,2,
,xotask,xotask,dotcolour,50,1,110,410,training,positivefb,94,average,19,0.7494636000001265,['n'],1,right,['0'],6,0.42176349999954255,,,,,,,,11,19,Man,Rechts,2,
,xotask,xotask,dotcolour,51,1,111,411,training,positivefb,99,easy,73,0.6164771000003384,['c'],1,left,['0'],6,0.3641154999995706,,,,,,,,11,19,Man,Rechts,2,
,xotask,xotask,dotcolour,52,1,112,412,training,positivefb,89,easy,73,0.6331107999994856,['c'],1,left,['0'],6,0.2691727000001265,,,,,,,,11,19,Man,Rechts,2,
,xotask,xotask,dotcolour,53,1,113,413,training,positivefb,93,easy,5,0.7827019999995173,['n'],1,right,['0'],6,0.28367700000035256,,,,,,,,11,19,Man,Rechts,2,
,xotask,xotask,dotcolour,54,1,114,414,training,positivefb,75,hard,29,1.568102799999906,['n'],1,right,['8'],4,1.330064100000527,,,,,,,,11,19,Man,Rechts,2,
,xotask,xotask,dotcolour,55,1,115,415,training,positivefb,81,hard,53,1.1507427000005919,['c'],1,left,['8'],4,0.7757406000000628,,,,,,,,11,19,Man,Rechts,2,
,xotask,xotask,dotcolour,56,1,116,416,training,positivefb,21,easy,71,0.9160866000001988,['n'],0,left,['3'],3,1.2836289000006218,,,,,,,,11,19,Man,Rechts,2,
,xotask,xotask,dotcolour,57,1,117,417,training,positivefb,100,easy,5,0.6329951000006986,['n'],1,right,['0'],6,1.2389191999991453,,,,,,,,11,19,Man,Rechts,2,
,xotask,xotask,dotcolour,58,1,118,418,training,positivefb,97,average,62,1.5831690999993953,['c'],1,left,['8'],4,0.8152545000002647,,,,,,,,11,19,Man,Rechts,2,
,xotask,xotask,dotcolour,59,1,119,419,training,positivefb,93,average,62,0.9986534999998185,['c'],1,left,['0'],6,2.4870684000006804,,,,,,,,11,19,Man,Rechts,2,
,xotask,xotask,dotcolour,0,2,120,420,main,positivefb,-99,easy,73,1.0505687999993825,['c'],1,left,['0'],6,0.4481517000003805,,,,,,,,11,19,Man,Rechts,2,
,xotask,xotask,dotcolour,1,2,121,421,main,positivefb,-99,hard,26,1.4511118000000351,['n'],1,right,['8'],4,0.7892299000004641,,,,,,,,11,19,Man,Rechts,2,
,xotask,xotask,dotcolour,2,2,122,422,main,positivefb,-99,hard,53,0.7010475999995833,['c'],1,left,['0'],6,0.41895779999958904,,,,,,,,11,19,Man,Rechts,2,
,xotask,xotask,dotcolour,3,2,123,423,main,positivefb,-99,average,61,0.7666517999996358,['c'],1,left,['0'],6,0.34022249999998166,,,,,,,,11,19,Man,Rechts,2,
,xotask,xotask,dotcolour,4,2,124,424,main,positivefb,-99,easy,6,0.9002128000001903,['n'],1,right,['0'],6,0.9875666999996611,,,,,,,,11,19,Man,Rechts,2,
,xotask,xotask,dotcolour,5,2,125,425,main,positivefb,-99,easy,7,0.9675484999997934,['n'],1,right,['0'],6,0.3185712999993484,,,,,,,,11,19,Man,Rechts,2,
,xotask,xotask,dotcolour,6,2,126,426,main,positivefb,-99,easy,74,0.6350610999998025,['c'],1,left,['0'],6,0.3370567000001756,,,,,,,,11,19,Man,Rechts,2,
,xotask,xotask,dotcolour,7,2,127,427,main,positivefb,-99,average,63,0.9509878999997454,['c'],1,left,['0'],6,0.43856899999991583,,,,,,,,11,19,Man,Rechts,2,
,xotask,xotask,dotcolour,8,2,128,428,main,positivefb,-99,easy,72,0.5338258000001588,['c'],1,left,['0'],6,0.2966403000000355,,,,,,,,11,19,Man,Rechts,2,
,xotask,xotask,dotcolour,9,2,129,429,main,positivefb,-99,hard,28,0.9002786000000924,['n'],1,right,['9'],5,0.3461245999997118,,,,,,,,11,19,Man,Rechts,2,
,xotask,xotask,dotcolour,10,2,130,430,main,positivefb,-99,average,62,0.8172471000007135,['c'],1,left,['9'],5,0.2841349000000264,,,,,,,,11,19,Man,Rechts,2,
,xotask,xotask,dotcolour,11,2,131,431,main,positivefb,-99,easy,7,0.9672699000002467,['n'],1,right,['0'],6,0.6512867999999798,,,,,,,,11,19,Man,Rechts,2,
,xotask,xotask,dotcolour,12,2,132,432,main,positivefb,-99,average,62,0.5670706999999311,['c'],1,left,['0'],6,0.3474255000000994,,,,,,,,11,19,Man,Rechts,2,
,xotask,xotask,dotcolour,13,2,133,433,main,positivefb,-99,easy,8,0.7173177000004216,['n'],1,right,['0'],6,0.36995370000022376,,,,,,,,11,19,Man,Rechts,2,
,xotask,xotask,dotcolour,14,2,134,434,main,positivefb,-99,easy,73,0.933751100000336,['c'],1,left,['0'],6,0.374849599999834,,,,,,,,11,19,Man,Rechts,2,
,xotask,xotask,dotcolour,15,2,135,435,main,positivefb,-99,hard,51,0.7675241999995706,['c'],1,left,['0'],6,0.3059804000004078,,,,,,,,11,19,Man,Rechts,2,
,xotask,xotask,dotcolour,16,2,136,436,main,positivefb,-99,average,15,1.0331032000003688,['n'],1,right,['8'],4,0.7258807000007437,,,,,,,,11,19,Man,Rechts,2,
,xotask,xotask,dotcolour,17,2,137,437,main,positivefb,-99,average,61,0.7679690000004484,['c'],1,left,['0'],6,0.4746359000000666,,,,,,,,11,19,Man,Rechts,2,
,xotask,xotask,dotcolour,18,2,138,438,main,positivefb,-99,average,17,0.6831591999998636,['n'],1,right,['0'],6,0.36518160000014177,,,,,,,,11,19,Man,Rechts,2,
,xotask,xotask,dotcolour,19,2,139,439,main,positivefb,-99,hard,29,1.4332156000000396,['n'],1,right,['9'],5,0.294847000000118,,,,,,,,11,19,Man,Rechts,2,
,xotask,xotask,dotcolour,20,2,140,440,main,positivefb,-99,easy,8,0.7514971999999034,['n'],1,right,['0'],6,0.5980196000000433,,,,,,,,11,19,Man,Rechts,2,
,xotask,xotask,dotcolour,21,2,141,441,main,positivefb,-99,hard,26,0.6675060999996276,['n'],1,right,['9'],5,0.7803775000002133,,,,,,,,11,19,Man,Rechts,2,
,xotask,xotask,dotcolour,22,2,142,442,main,positivefb,-99,average,18,0.6014603000003262,['n'],1,right,['9'],5,0.38323769999988144,,,,,,,,11,19,Man,Rechts,2,
,xotask,xotask,dotcolour,23,2,143,443,main,positivefb,-99,easy,5,0.6508066000005783,['n'],1,right,['9'],5,1.1265233000003718,,,,,,,,11,19,Man,Rechts,2,
,xotask,xotask,dotcolour,24,2,144,444,main,positivefb,-99,average,19,0.6010261999999784,['n'],1,right,['0'],6,0.3865894999999,,,,,,,,11,19,Man,Rechts,2,
,xotask,xotask,dotcolour,25,2,145,445,main,positivefb,-99,average,17,0.46653950000018085,['n'],1,right,['0'],6,0.3450824999999895,,,,,,,,11,19,Man,Rechts,2,
,xotask,xotask,dotcolour,26,2,146,446,main,positivefb,-99,easy,73,0.6005717999996705,['c'],1,left,['0'],6,0.3083360000000539,,,,,,,,11,19,Man,Rechts,2,
,xotask,xotask,dotcolour,27,2,147,447,main,positivefb,-99,hard,29,0.8999158000005991,['c'],0,right,['9'],5,0.35708340000019234,,,,,,,,11,19,Man,Rechts,2,
,xotask,xotask,dotcolour,28,2,148,448,main,positivefb,-99,hard,52,0.617048000000068,['c'],1,left,['0'],6,0.47118200000022625,,,,,,,,11,19,Man,Rechts,2,
,xotask,xotask,dotcolour,29,2,149,449,main,positivefb,-99,hard,50,0.7506022999996276,['c'],1,left,['9'],5,0.2948657999995703,,,,,,,,11,19,Man,Rechts,2,
,xotask,xotask,dotcolour,30,2,150,450,main,positivefb,-99,easy,71,0.6007206000003862,['c'],1,left,['0'],6,0.32457459999932325,,,,,,,,11,19,Man,Rechts,2,
,xotask,xotask,dotcolour,31,2,151,451,main,positivefb,-99,easy,71,0.5500643999994281,['c'],1,left,['0'],6,0.2984598000002734,,,,,,,,11,19,Man,Rechts,2,
,xotask,xotask,dotcolour,32,2,152,452,main,positivefb,-99,average,19,0.5829712000004292,['n'],1,right,['0'],6,0.3042865999996138,,,,,,,,11,19,Man,Rechts,2,
,xotask,xotask,dotcolour,33,2,153,453,main,positivefb,-99,easy,71,0.7003338000004078,['c'],1,left,['0'],6,0.2972888000003877,,,,,,,,11,19,Man,Rechts,2,
,xotask,xotask,dotcolour,34,2,154,454,main,positivefb,-99,easy,9,0.7004822999997486,['n'],1,right,['0'],6,0.3472036000002845,,,,,,,,11,19,Man,Rechts,2,
,xotask,xotask,dotcolour,35,2,155,455,main,positivefb,-99,hard,54,1.2502357999992455,['c'],1,left,['8'],4,0.42799209999975574,,,,,,,,11,19,Man,Rechts,2,
,xotask,xotask,dotcolour,36,2,156,456,main,positivefb,-99,average,61,0.6507320999999138,['c'],1,left,['0'],6,0.545389900000373,,,,,,,,11,19,Man,Rechts,2,
,xotask,xotask,dotcolour,37,2,157,457,main,positivefb,-99,average,15,1.3676488000000973,['n'],1,right,['8'],4,0.6225474000002578,,,,,,,,11,19,Man,Rechts,2,
,xotask,xotask,dotcolour,38,2,158,458,main,positivefb,-99,average,63,0.9000310000001264,['n'],0,left,['8'],4,0.3149376999999731,,,,,,,,11,19,Man,Rechts,2,
,xotask,xotask,dotcolour,39,2,159,459,main,positivefb,-99,hard,28,0.6844056999998429,['n'],1,right,['8'],4,0.7956831999999849,,,,,,,,11,19,Man,Rechts,2,
,xotask,xotask,dotcolour,40,2,160,460,main,positivefb,-99,average,15,1.2503349999997226,['n'],1,right,['9'],5,0.6757545999998911,,,,,,,,11,19,Man,Rechts,2,
,xotask,xotask,dotcolour,41,2,161,461,main,positivefb,-99,easy,7,0.5846214000002874,['n'],1,right,['0'],6,0.7221132999993642,,,,,,,,11,19,Man,Rechts,2,
,xotask,xotask,dotcolour,42,2,162,462,main,positivefb,-99,average,61,0.6664504999998826,['c'],1,left,['0'],6,0.3081835000002684,,,,,,,,11,19,Man,Rechts,2,
,xotask,xotask,dotcolour,43,2,163,463,main,positivefb,-99,hard,51,0.8009130999998888,['c'],1,left,['0'],6,0.2405838999993648,,,,,,,,11,19,Man,Rechts,2,
,xotask,xotask,dotcolour,44,2,164,464,main,positivefb,-99,easy,8,0.6349693000001935,['n'],1,right,['0'],6,0.33474310000019614,,,,,,,,11,19,Man,Rechts,2,
,xotask,xotask,dotcolour,45,2,165,465,main,positivefb,-99,hard,51,0.7502483999996912,['c'],1,left,['9'],5,0.46053419999952894,,,,,,,,11,19,Man,Rechts,2,
,xotask,xotask,dotcolour,46,2,166,466,main,positivefb,-99,hard,28,0.6843804000000091,['n'],1,right,['8'],4,0.839435500000036,,,,,,,,11,19,Man,Rechts,2,
,xotask,xotask,dotcolour,47,2,167,467,main,positivefb,-99,average,61,0.8678997999995772,['c'],1,left,['8'],4,0.6360635999999431,,,,,,,,11,19,Man,Rechts,2,
,xotask,xotask,dotcolour,48,2,168,468,main,positivefb,-99,hard,29,0.8513391000005868,['c'],0,right,['8'],4,0.3378930999997465,,,,,,,,11,19,Man,Rechts,2,
,xotask,xotask,dotcolour,49,2,169,469,main,positivefb,-99,hard,27,0.6676832000002833,['c'],0,right,['8'],4,0.32278320000023086,,,,,,,,11,19,Man,Rechts,2,
,xotask,xotask,dotcolour,50,2,170,470,main,positivefb,-99,average,60,0.6837267000000793,['c'],1,left,['8'],4,0.40279820000068867,,,,,,,,11,19,Man,Rechts,2,
,xotask,xotask,dotcolour,51,2,171,471,main,positivefb,-99,easy,74,0.7174891999993633,['c'],1,left,['0'],6,0.7189178999997239,,,,,,,,11,19,Man,Rechts,2,
,xotask,xotask,dotcolour,52,2,172,472,main,positivefb,-99,hard,50,1.250363300000572,['c'],1,left,['8'],4,0.5534127999999328,,,,,,,,11,19,Man,Rechts,2,
,xotask,xotask,dotcolour,53,2,173,473,main,positivefb,-99,hard,29,1.4683121999996729,['c'],0,right,['8'],4,0.34453099999973347,,,,,,,,11,19,Man,Rechts,2,
,xotask,xotask,dotcolour,54,2,174,474,main,positivefb,-99,hard,53,0.8351221999992049,['c'],1,left,['9'],5,0.5788169999996171,,,,,,,,11,19,Man,Rechts,2,
,xotask,xotask,dotcolour,55,2,175,475,main,positivefb,-99,easy,6,0.7331586999998763,['n'],1,right,['0'],6,0.6724690999999439,,,,,,,,11,19,Man,Rechts,2,
,xotask,xotask,dotcolour,56,2,176,476,main,positivefb,-99,average,15,0.4843585999997231,['n'],1,right,['0'],6,0.3067103000003044,,,,,,,,11,19,Man,Rechts,2,
,xotask,xotask,dotcolour,57,2,177,477,main,positivefb,-99,average,15,0.5672475000001214,['n'],1,right,['9'],5,0.4253918000003978,,,,,,,,11,19,Man,Rechts,2,
,xotask,xotask,dotcolour,58,2,178,478,main,positivefb,-99,hard,53,0.6843193999993673,['n'],0,left,['8'],4,0.8690357000004951,,,,,,,,11,19,Man,Rechts,2,
,xotask,xotask,dotcolour,59,2,179,479,main,positivefb,-99,easy,72,0.8671803999995973,['c'],1,left,['0'],6,0.529196100000263,,,,,,,,11,19,Man,Rechts,2,
,xotask,xotask,dotcolour,0,3,180,480,main,positivefb,-99,easy,6,1.2342218000003413,['n'],1,right,['0'],6,0.37837579999995796,,,,,,,,11,19,Man,Rechts,2,
,xotask,xotask,dotcolour,1,3,181,481,main,positivefb,-99,easy,73,0.6996847999998863,['c'],1,left,['0'],6,0.29582940000000235,,,,,,,,11,19,Man,Rechts,2,
,xotask,xotask,dotcolour,2,3,182,482,main,positivefb,-99,easy,73,0.5840510999996695,['c'],1,left,['0'],6,0.3023548999999548,,,,,,,,11,19,Man,Rechts,2,
,xotask,xotask,dotcolour,3,3,183,483,main,positivefb,-99,hard,26,0.4343895000001794,['c'],0,right,['0'],6,0.34556400000019494,,,,,,,,11,19,Man,Rechts,2,
,xotask,xotask,dotcolour,4,3,184,484,main,positivefb,-99,easy,6,0.7179740000001402,['n'],1,right,['0'],6,0.36886349999986123,,,,,,,,11,19,Man,Rechts,2,
,xotask,xotask,dotcolour,5,3,185,485,main,positivefb,-99,average,18,0.6008564000003389,['c'],0,right,['9'],5,0.3701050999998188,,,,,,,,11,19,Man,Rechts,2,
,xotask,xotask,dotcolour,6,3,186,486,main,positivefb,-99,average,61,0.8348152000007758,['c'],1,left,['9'],5,0.3956551999999647,,,,,,,,11,19,Man,Rechts,2,
,xotask,xotask,dotcolour,7,3,187,487,main,positivefb,-99,hard,53,0.6673909999999523,['c'],1,left,['9'],5,0.38555749999977706,,,,,,,,11,19,Man,Rechts,2,
,xotask,xotask,dotcolour,8,3,188,488,main,positivefb,-99,hard,54,0.6674192999998922,['c'],1,left,['9'],5,0.40050129999963247,,,,,,,,11,19,Man,Rechts,2,
,xotask,xotask,dotcolour,9,3,189,489,main,positivefb,-99,hard,26,0.800167500000498,['c'],0,right,['8'],4,0.35332459999972343,,,,,,,,11,19,Man,Rechts,2,
,xotask,xotask,dotcolour,10,3,190,490,main,positivefb,-99,average,19,0.7676114999994752,['n'],1,right,['8'],4,0.5339658999992025,,,,,,,,11,19,Man,Rechts,2,
,xotask,xotask,dotcolour,11,3,191,491,main,positivefb,-99,average,61,0.7002668999994057,['c'],1,left,['9'],5,0.34892200000012963,,,,,,,,11,19,Man,Rechts,2,
,xotask,xotask,dotcolour,12,3,192,492,main,positivefb,-99,average,62,0.6516159000002517,['c'],1,left,['9'],5,0.262053499999638,,,,,,,,11,19,Man,Rechts,2,
,xotask,xotask,dotcolour,13,3,193,493,main,positivefb,-99,easy,9,0.7512507000001278,['n'],1,right,['9'],5,1.110878600000433,,,,,,,,11,19,Man,Rechts,2,
,xotask,xotask,dotcolour,14,3,194,494,main,positivefb,-99,hard,50,0.7338941999996678,['c'],1,left,['8'],4,0.5584638999998788,,,,,,,,11,19,Man,Rechts,2,
,xotask,xotask,dotcolour,15,3,195,495,main,positivefb,-99,average,19,0.6671380999996472,['n'],1,right,['9'],5,0.5266569000004893,,,,,,,,11,19,Man,Rechts,2,
,xotask,xotask,dotcolour,16,3,196,496,main,positivefb,-99,average,61,0.800707199999124,['c'],1,left,['9'],5,0.8262914999995701,,,,,,,,11,19,Man,Rechts,2,
,xotask,xotask,dotcolour,17,3,197,497,main,positivefb,-99,easy,71,0.9337330999996993,['c'],1,left,['0'],6,0.3331575999991401,,,,,,,,11,19,Man,Rechts,2,
,xotask,xotask,dotcolour,18,3,198,498,main,positivefb,-99,hard,54,0.48378370000045834,['c'],1,left,['0'],6,0.30050849999952334,,,,,,,,11,19,Man,Rechts,2,
,xotask,xotask,dotcolour,19,3,199,499,main,positivefb,-99,hard,27,1.4340128999992885,['c'],0,right,['8'],4,0.3045937999995658,,,,,,,,11,19,Man,Rechts,2,
,xotask,xotask,dotcolour,20,3,200,500,main,positivefb,-99,average,62,0.6504988999995476,['c'],1,left,['9'],5,0.4742507000000842,,,,,,,,11,19,Man,Rechts,2,
,xotask,xotask,dotcolour,21,3,201,501,main,positivefb,-99,hard,52,0.7008377000001929,['c'],1,left,['9'],5,0.7491951000001791,,,,,,,,11,19,Man,Rechts,2,
,xotask,xotask,dotcolour,22,3,202,502,main,positivefb,-99,easy,6,1.1491923000003226,['n'],1,right,['0'],6,0.9542095999995581,,,,,,,,11,19,Man,Rechts,2,
,xotask,xotask,dotcolour,23,3,203,503,main,positivefb,-99,hard,26,0.9668646000000081,['n'],1,right,['0'],6,0.36562969999977213,,,,,,,,11,19,Man,Rechts,2,
,xotask,xotask,dotcolour,24,3,204,504,main,positivefb,-99,hard,52,0.8497285999992528,['c'],1,left,['9'],5,0.47042659999988246,,,,,,,,11,19,Man,Rechts,2,
,xotask,xotask,dotcolour,25,3,205,505,main,positivefb,-99,average,19,0.8342498000001797,['n'],1,right,['0'],6,0.7308023000005051,,,,,,,,11,19,Man,Rechts,2,
,xotask,xotask,dotcolour,26,3,206,506,main,positivefb,-99,easy,5,0.6335288999998738,['n'],1,right,['0'],6,0.39712469999994937,,,,,,,,11,19,Man,Rechts,2,
,xotask,xotask,dotcolour,27,3,207,507,main,positivefb,-99,average,16,0.634021799999573,['n'],1,right,['0'],6,0.4211231000008411,,,,,,,,11,19,Man,Rechts,2,
,xotask,xotask,dotcolour,28,3,208,508,main,positivefb,-99,easy,74,0.7505243999994491,['c'],1,left,['0'],6,0.31941569999980857,,,,,,,,11,19,Man,Rechts,2,
,xotask,xotask,dotcolour,29,3,209,509,main,positivefb,-99,easy,72,0.6179022000005716,['c'],1,left,['0'],6,0.39479190000020026,,,,,,,,11,19,Man,Rechts,2,
,xotask,xotask,dotcolour,30,3,210,510,main,positivefb,-99,hard,52,1.1171045999999478,['c'],1,left,['9'],5,0.4159491000000344,,,,,,,,11,19,Man,Rechts,2,
,xotask,xotask,dotcolour,31,3,211,511,main,positivefb,-99,average,18,0.9510614000000714,['c'],0,right,['8'],4,0.8581314000002749,,,,,,,,11,19,Man,Rechts,2,
,xotask,xotask,dotcolour,32,3,212,512,main,positivefb,-99,hard,29,1.0491156999996747,['n'],1,right,['8'],4,0.3103799999998955,,,,,,,,11,19,Man,Rechts,2,
,xotask,xotask,dotcolour,33,3,213,513,main,positivefb,-99,average,60,0.7844844999999623,['c'],1,left,['8'],4,0.3317597000004753,,,,,,,,11,19,Man,Rechts,2,
,xotask,xotask,dotcolour,34,3,214,514,main,positivefb,-99,hard,29,0.8487026000002516,['c'],0,right,['8'],4,0.3418507000005775,,,,,,,,11,19,Man,Rechts,2,
,xotask,xotask,dotcolour,35,3,215,515,main,positivefb,-99,easy,70,0.6837776999991547,['c'],1,left,['9'],5,0.2938560000002326,,,,,,,,11,19,Man,Rechts,2,
,xotask,xotask,dotcolour,36,3,216,516,main,positivefb,-99,easy,72,0.5683879999996861,['c'],1,left,['0'],6,0.3645107000002099,,,,,,,,11,19,Man,Rechts,2,
,xotask,xotask,dotcolour,37,3,217,517,main,positivefb,-99,hard,25,0.9491159999997762,['c'],0,right,['8'],4,0.8897475000003396,,,,,,,,11,19,Man,Rechts,2,
,xotask,xotask,dotcolour,38,3,218,518,main,positivefb,-99,easy,6,0.8161086000000068,['n'],1,right,['9'],5,0.7589195999998992,,,,,,,,11,19,Man,Rechts,2,
,xotask,xotask,dotcolour,39,3,219,519,main,positivefb,-99,average,18,0.6161407999998119,['n'],1,right,['9'],5,0.3288062000001446,,,,,,,,11,19,Man,Rechts,2,
,xotask,xotask,dotcolour,40,3,220,520,main,positivefb,-99,hard,26,0.5834351000003153,['n'],1,right,['8'],4,0.7337090999999418,,,,,,,,11,19,Man,Rechts,2,
,xotask,xotask,dotcolour,41,3,221,521,main,positivefb,-99,average,63,0.7999532000003455,['c'],1,left,['9'],5,0.47254980000070645,,,,,,,,11,19,Man,Rechts,2,
,xotask,xotask,dotcolour,42,3,222,522,main,positivefb,-99,easy,6,0.8498687999999675,['n'],1,right,['9'],5,0.5088604000002306,,,,,,,,11,19,Man,Rechts,2,
,xotask,xotask,dotcolour,43,3,223,523,main,positivefb,-99,easy,70,0.6496587000001455,['c'],1,left,['0'],6,0.5671264000002338,,,,,,,,11,19,Man,Rechts,2,
,xotask,xotask,dotcolour,44,3,224,524,main,positivefb,-99,easy,70,0.6842511000004379,['c'],1,left,['0'],6,0.26228939999964496,,,,,,,,11,19,Man,Rechts,2,
,xotask,xotask,dotcolour,45,3,225,525,main,positivefb,-99,hard,51,0.6335988000000725,['c'],1,left,['0'],6,0.6430257999991227,,,,,,,,11,19,Man,Rechts,2,
,xotask,xotask,dotcolour,46,3,226,526,main,positivefb,-99,hard,26,0.7670124999995096,['c'],0,right,['9'],5,0.40328969999973197,,,,,,,,11,19,Man,Rechts,2,
,xotask,xotask,dotcolour,47,3,227,527,main,positivefb,-99,average,17,1.0158251000002565,['n'],1,right,['9'],5,0.5803651999995054,,,,,,,,11,19,Man,Rechts,2,
,xotask,xotask,dotcolour,48,3,228,528,main,positivefb,-99,easy,6,0.6995376000004399,['n'],1,right,['0'],6,0.5142245000006369,,,,,,,,11,19,Man,Rechts,2,
,xotask,xotask,dotcolour,49,3,229,529,main,positivefb,-99,hard,51,0.950488000000405,['c'],1,left,['8'],4,0.4966420000000653,,,,,,,,11,19,Man,Rechts,2,
,xotask,xotask,dotcolour,50,3,230,530,main,positivefb,-99,average,64,0.81687729999976,['c'],1,left,['9'],5,1.0781841999996686,,,,,,,,11,19,Man,Rechts,2,
,xotask,xotask,dotcolour,51,3,231,531,main,positivefb,-99,easy,8,0.6335038999995959,['n'],1,right,['0'],6,0.5617876999995133,,,,,,,,11,19,Man,Rechts,2,
,xotask,xotask,dotcolour,52,3,232,532,main,positivefb,-99,hard,54,1.201114499999676,['c'],1,left,['9'],5,0.4450621999994837,,,,,,,,11,19,Man,Rechts,2,
,xotask,xotask,dotcolour,53,3,233,533,main,positivefb,-99,average,63,0.6501932000001034,['c'],1,left,['0'],6,0.40266109999993205,,,,,,,,11,19,Man,Rechts,2,
,xotask,xotask,dotcolour,54,3,234,534,main,positivefb,-99,easy,72,0.5675785999992513,['c'],1,left,['0'],6,0.25184619999981805,,,,,,,,11,19,Man,Rechts,2,
,xotask,xotask,dotcolour,55,3,235,535,main,positivefb,-99,hard,26,0.6849595000003319,['n'],1,right,['9'],5,1.1758460999999443,,,,,,,,11,19,Man,Rechts,2,
,xotask,xotask,dotcolour,56,3,236,536,main,positivefb,-99,easy,7,0.6512861999999586,['n'],1,right,['9'],5,0.5444274000001315,,,,,,,,11,19,Man,Rechts,2,
,xotask,xotask,dotcolour,57,3,237,537,main,positivefb,-99,average,63,0.7007652999991478,['c'],1,left,['9'],5,0.6556491000001188,,,,,,,,11,19,Man,Rechts,2,
,xotask,xotask,dotcolour,58,3,238,538,main,positivefb,-99,average,15,0.9680072999999538,['c'],0,right,['8'],4,0.39075450000018463,,,,,,,,11,19,Man,Rechts,2,
,xotask,xotask,dotcolour,59,3,239,539,main,positivefb,-99,average,17,0.9340341999995871,['n'],1,right,['0'],6,0.6911247999996704,,,,,,,,11,19,Man,Rechts,2,
,xotask,xotask,dotcolour,0,4,240,540,main,positivefb,-99,average,19,0.7830111000002944,['n'],1,right,['0'],6,1.0043169999999009,,,,,,,,11,19,Man,Rechts,2,
,xotask,xotask,dotcolour,1,4,241,541,main,positivefb,-99,easy,6,0.634166699999696,['n'],1,right,['0'],6,0.3072941999998875,,,,,,,,11,19,Man,Rechts,2,
,xotask,xotask,dotcolour,2,4,242,542,main,positivefb,-99,easy,72,0.782868199999939,['c'],1,left,['0'],6,0.8322880000005171,,,,,,,,11,19,Man,Rechts,2,
,xotask,xotask,dotcolour,3,4,243,543,main,positivefb,-99,hard,54,0.5015546999993603,['c'],1,left,['0'],6,0.27604750000045897,,,,,,,,11,19,Man,Rechts,2,
,xotask,xotask,dotcolour,4,4,244,544,main,positivefb,-99,average,64,0.5664160000005722,['c'],1,left,['0'],6,0.34725350000007893,,,,,,,,11,19,Man,Rechts,2,
,xotask,xotask,dotcolour,5,4,245,545,main,positivefb,-99,hard,50,0.7004538999999568,['c'],1,left,['9'],5,0.6503162999997585,,,,,,,,11,19,Man,Rechts,2,
,xotask,xotask,dotcolour,6,4,246,546,main,positivefb,-99,average,61,0.567645199999788,['c'],1,left,['9'],5,0.31510619999971823,,,,,,,,11,19,Man,Rechts,2,
,xotask,xotask,dotcolour,7,4,247,547,main,positivefb,-99,hard,25,0.8500762000003306,['c'],0,right,['9'],5,0.309931200000392,,,,,,,,11,19,Man,Rechts,2,
,xotask,xotask,dotcolour,8,4,248,548,main,positivefb,-99,average,63,0.7009785000000193,['c'],1,left,['9'],5,0.7822929000003569,,,,,,,,11,19,Man,Rechts,2,
,xotask,xotask,dotcolour,9,4,249,549,main,positivefb,-99,average,19,1.1670813000000635,['n'],1,right,['8'],4,0.944490500000029,,,,,,,,11,19,Man,Rechts,2,
,xotask,xotask,dotcolour,10,4,250,550,main,positivefb,-99,average,15,0.5845393999998123,['n'],1,right,['9'],5,0.45349439999972674,,,,,,,,11,19,Man,Rechts,2,
,xotask,xotask,dotcolour,11,4,251,551,main,positivefb,-99,hard,53,0.8999346000000514,['n'],0,left,['8'],4,0.41605100000015227,,,,,,,,11,19,Man,Rechts,2,
,xotask,xotask,dotcolour,12,4,252,552,main,positivefb,-99,easy,71,1.3680907999996634,['c'],1,left,['9'],5,1.4336709999997765,,,,,,,,11,19,Man,Rechts,2,
,xotask,xotask,dotcolour,13,4,253,553,main,positivefb,-99,average,15,1.7676925000005212,['c'],0,right,['8'],4,0.3455522000003839,,,,,,,,11,19,Man,Rechts,2,
,xotask,xotask,dotcolour,14,4,254,554,main,positivefb,-99,hard,29,0.7175650999997742,['n'],1,right,['9'],5,0.4157861000003322,,,,,,,,11,19,Man,Rechts,2,
,xotask,xotask,dotcolour,15,4,255,555,main,positivefb,-99,easy,8,0.5345146999998178,['n'],1,right,['0'],6,0.5557072000001426,,,,,,,,11,19,Man,Rechts,2,
,xotask,xotask,dotcolour,16,4,256,556,main,positivefb,-99,average,64,0.8844516999997722,['c'],1,left,['9'],5,0.4506061000001864,,,,,,,,11,19,Man,Rechts,2,
,xotask,xotask,dotcolour,17,4,257,557,main,positivefb,-99,average,61,0.7347190999998929,['c'],1,left,['0'],6,0.37197459999970306,,,,,,,,11,19,Man,Rechts,2,
,xotask,xotask,dotcolour,18,4,258,558,main,positivefb,-99,easy,73,0.7175845000001573,['c'],1,left,['0'],6,0.2816696999998385,,,,,,,,11,19,Man,Rechts,2,
,xotask,xotask,dotcolour,19,4,259,559,main,positivefb,-99,hard,28,0.8335135999996055,['c'],0,right,['0'],6,0.4062012999993385,,,,,,,,11,19,Man,Rechts,2,
,xotask,xotask,dotcolour,20,4,260,560,main,positivefb,-99,easy,9,0.718109800000093,['n'],1,right,['0'],6,0.3619710999992094,,,,,,,,11,19,Man,Rechts,2,
,xotask,xotask,dotcolour,21,4,261,561,main,positivefb,-99,easy,9,0.6505938000000242,['n'],1,right,['0'],6,0.32313190000058967,,,,,,,,11,19,Man,Rechts,2,
,xotask,xotask,dotcolour,22,4,262,562,main,positivefb,-99,average,62,0.7511681999994835,['c'],1,left,['0'],6,0.5371033000001262,,,,,,,,11,19,Man,Rechts,2,
,xotask,xotask,dotcolour,23,4,263,563,main,positivefb,-99,hard,51,0.851232500000151,['c'],1,left,['0'],6,0.39417219999995723,,,,,,,,11,19,Man,Rechts,2,
,xotask,xotask,dotcolour,24,4,264,564,main,positivefb,-99,hard,26,0.8347850999998627,['n'],1,right,['9'],5,1.1153698000007353,,,,,,,,11,19,Man,Rechts,2,
,xotask,xotask,dotcolour,25,4,265,565,main,positivefb,-99,average,18,0.798712599999817,['n'],1,right,['9'],5,0.687570400000368,,,,,,,,11,19,Man,Rechts,2,
,xotask,xotask,dotcolour,26,4,266,566,main,positivefb,-99,hard,26,0.7520500000000538,['n'],1,right,['9'],5,0.34284519999982876,,,,,,,,11,19,Man,Rechts,2,
,xotask,xotask,dotcolour,27,4,267,567,main,positivefb,-99,average,18,1.150419900000088,['n'],1,right,['8'],4,0.4440515999995114,,,,,,,,11,19,Man,Rechts,2,
,xotask,xotask,dotcolour,28,4,268,568,main,positivefb,-99,average,61,0.767789300000004,['c'],1,left,['8'],4,0.700662199999897,,,,,,,,11,19,Man,Rechts,2,
,xotask,xotask,dotcolour,29,4,269,569,main,positivefb,-99,easy,9,0.9005084999998871,['n'],1,right,['0'],6,0.6142724000001181,,,,,,,,11,19,Man,Rechts,2,
,xotask,xotask,dotcolour,30,4,270,570,main,positivefb,-99,easy,72,0.7340412999992623,['c'],1,left,['0'],6,0.3605711000000156,,,,,,,,11,19,Man,Rechts,2,
,xotask,xotask,dotcolour,31,4,271,571,main,positivefb,-99,average,17,0.9669989000003625,['n'],1,right,['9'],5,0.4209909000001062,,,,,,,,11,19,Man,Rechts,2,
,xotask,xotask,dotcolour,32,4,272,572,main,positivefb,-99,hard,26,1.2842829000001075,['c'],0,right,['8'],4,0.21828110000024026,,,,,,,,11,19,Man,Rechts,2,
,xotask,xotask,dotcolour,33,4,273,573,main,positivefb,-99,average,15,0.8842831000001752,['n'],1,right,['8'],4,0.42248380000000907,,,,,,,,11,19,Man,Rechts,2,
,xotask,xotask,dotcolour,34,4,274,574,main,positivefb,-99,hard,27,1.0001760999994076,['n'],1,right,['8'],4,0.43102920000001177,,,,,,,,11,19,Man,Rechts,2,
,xotask,xotask,dotcolour,35,4,275,575,main,positivefb,-99,easy,6,0.7499564999998256,['n'],1,right,['9'],5,0.39278209999974933,,,,,,,,11,19,Man,Rechts,2,
,xotask,xotask,dotcolour,36,4,276,576,main,positivefb,-99,average,61,0.7175485999996454,['c'],1,left,['0'],6,0.3330802999998923,,,,,,,,11,19,Man,Rechts,2,
,xotask,xotask,dotcolour,37,4,277,577,main,positivefb,-99,easy,71,0.7675768999997672,['c'],1,left,['0'],6,0.22644039999977394,,,,,,,,11,19,Man,Rechts,2,
,xotask,xotask,dotcolour,38,4,278,578,main,positivefb,-99,hard,54,0.5675559000001158,['c'],1,left,['0'],6,0.291637800000899,,,,,,,,11,19,Man,Rechts,2,
,xotask,xotask,dotcolour,39,4,279,579,main,positivefb,-99,easy,74,0.634692300000097,['c'],1,left,['0'],6,0.3752521999995224,,,,,,,,11,19,Man,Rechts,2,
,xotask,xotask,dotcolour,40,4,280,580,main,positivefb,-99,hard,53,0.6518047999998089,['c'],1,left,['0'],6,1.2149833000003127,,,,,,,,11,19,Man,Rechts,2,
,xotask,xotask,dotcolour,41,4,281,581,main,positivefb,-99,average,63,0.7837259999996604,['c'],1,left,['0'],6,0.37674670000069455,,,,,,,,11,19,Man,Rechts,2,
,xotask,xotask,dotcolour,42,4,282,582,main,positivefb,-99,average,16,0.6496254000003319,['n'],1,right,['0'],6,0.3759150999994745,,,,,,,,11,19,Man,Rechts,2,
,xotask,xotask,dotcolour,43,4,283,583,main,positivefb,-99,easy,70,0.8998763999998118,['c'],1,left,['0'],6,0.3574794000005568,,,,,,,,11,19,Man,Rechts,2,
,xotask,xotask,dotcolour,44,4,284,584,main,positivefb,-99,hard,54,0.900289299999713,['c'],1,left,['8'],4,0.6133560999996917,,,,,,,,11,19,Man,Rechts,2,
,xotask,xotask,dotcolour,45,4,285,585,main,positivefb,-99,average,63,0.7171916999996029,['c'],1,left,['8'],4,0.9373212999998941,,,,,,,,11,19,Man,Rechts,2,
,xotask,xotask,dotcolour,46,4,286,586,main,positivefb,-99,hard,50,0.7174355000006472,['c'],1,left,['8'],4,0.46421970000028523,,,,,,,,11,19,Man,Rechts,2,
,xotask,xotask,dotcolour,47,4,287,587,main,positivefb,-99,average,19,1.0336230000002615,['n'],1,right,['8'],4,1.0852045999999973,,,,,,,,11,19,Man,Rechts,2,
,xotask,xotask,dotcolour,48,4,288,588,main,positivefb,-99,hard,25,0.9005380999997215,['n'],1,right,['8'],4,0.4069902999999613,,,,,,,,11,19,Man,Rechts,2,
,xotask,xotask,dotcolour,49,4,289,589,main,positivefb,-99,easy,9,0.8514677999992273,['n'],1,right,['9'],5,0.3659983999996257,,,,,,,,11,19,Man,Rechts,2,
,xotask,xotask,dotcolour,50,4,290,590,main,positivefb,-99,hard,52,0.5506003999998939,['c'],1,left,['9'],5,1.9778738000004523,,,,,,,,11,19,Man,Rechts,2,
,xotask,xotask,dotcolour,51,4,291,591,main,positivefb,-99,hard,28,1.0010904000000664,['c'],0,right,['8'],4,0.4602893999999651,,,,,,,,11,19,Man,Rechts,2,
,xotask,xotask,dotcolour,52,4,292,592,main,positivefb,-99,hard,28,0.9835995000003095,['n'],1,right,['8'],4,0.41918400000031397,,,,,,,,11,19,Man,Rechts,2,
,xotask,xotask,dotcolour,53,4,293,593,main,positivefb,-99,easy,8,0.7341716999999335,['n'],1,right,['0'],6,0.7744603999999526,,,,,,,,11,19,Man,Rechts,2,
,xotask,xotask,dotcolour,54,4,294,594,main,positivefb,-99,easy,9,0.5166247999995903,['n'],1,right,['0'],6,0.3471618000003218,,,,,,,,11,19,Man,Rechts,2,
,xotask,xotask,dotcolour,55,4,295,595,main,positivefb,-99,hard,50,0.6515853000000789,['c'],1,left,['0'],6,0.356224199999815,,,,,,,,11,19,Man,Rechts,2,
,xotask,xotask,dotcolour,56,4,296,596,main,positivefb,-99,easy,74,0.6175702999998975,['c'],1,left,['0'],6,0.3102337999998781,,,,,,,,11,19,Man,Rechts,2,
,xotask,xotask,dotcolour,57,4,297,597,main,positivefb,-99,easy,73,0.500546299999769,['c'],1,left,['0'],6,0.37468970000008994,,,,,,,,11,19,Man,Rechts,2,
,xotask,xotask,dotcolour,58,4,298,598,main,positivefb,-99,easy,72,0.4997995000003357,['c'],1,left,['0'],6,0.42089909999958763,,,,,,,,11,19,Man,Rechts,2,
,xotask,xotask,dotcolour,59,4,299,599,main,positivefb,-99,easy,7,0.7334781999998086,['n'],1,right,['0'],6,0.39243529999930615,,,,,,,,11,19,Man,Rechts,2,
,xotask,xotask,dotcolour,0,0,0,600,training,positivefb,96,hard,27,0.7680572999997821,['n'],1,right,['8'],4,1.057108299999527,,,,,,,,11,19,Man,Rechts,2,
,xotask,xotask,dotcolour,1,0,1,601,training,positivefb,99,easy,5,0.9337874999991982,['n'],1,right,['8'],4,0.46696980000069743,,,,,,,,11,19,Man,Rechts,2,
,xotask,xotask,dotcolour,2,0,2,602,training,positivefb,98,easy,74,0.6166740999997273,['c'],1,left,['8'],4,0.5436331999999311,,,,,,,,11,19,Man,Rechts,2,
,xotask,xotask,dotcolour,3,0,3,603,training,positivefb,83,hard,25,1.0668270000005577,['n'],1,right,['9'],5,1.3117142999999487,,,,,,,,11,19,Man,Rechts,2,
,xotask,xotask,dotcolour,4,0,4,604,training,positivefb,96,hard,27,0.9177537999994456,['c'],0,right,['9'],5,0.3113149999999223,,,,,,,,11,19,Man,Rechts,2,
,xotask,xotask,dotcolour,5,0,5,605,training,positivefb,99,easy,73,0.6821755999999368,['c'],1,left,['0'],6,0.9754601000004186,,,,,,,,11,19,Man,Rechts,2,
,xotask,xotask,dotcolour,6,0,6,606,training,positivefb,98,hard,52,0.6506908999999723,['c'],1,left,['0'],6,0.35116980000020703,,,,,,,,11,19,Man,Rechts,2,
,xotask,xotask,dotcolour,7,0,7,607,training,positivefb,99,average,16,0.6497991999995065,['n'],1,right,['0'],6,0.4947290999998586,,,,,,,,11,19,Man,Rechts,2,
,xotask,xotask,dotcolour,8,0,8,608,training,positivefb,99,average,61,0.7662968000004184,['c'],1,left,['9'],5,0.48552829999971436,,,,,,,,11,19,Man,Rechts,2,
,xotask,xotask,dotcolour,9,0,9,609,training,positivefb,90,average,63,0.682747300000301,['c'],1,left,['9'],5,0.7108244999999442,,,,,,,,11,19,Man,Rechts,2,
,xotask,xotask,dotcolour,10,0,10,610,training,positivefb,94,average,17,0.7327512000001661,['n'],1,right,['9'],5,0.5572562000006656,,,,,,,,11,19,Man,Rechts,2,
,xotask,xotask,dotcolour,11,0,11,611,training,positivefb,95,easy,9,0.866766799999823,['n'],1,right,['9'],5,0.5405618000004324,,,,,,,,11,19,Man,Rechts,2,
,xotask,xotask,dotcolour,12,0,12,612,training,positivefb,96,easy,9,0.5672562999998263,['n'],1,right,['9'],5,0.4170425999991494,,,,,,,,11,19,Man,Rechts,2,
,xotask,xotask,dotcolour,13,0,13,613,training,positivefb,97,easy,8,0.600954599999568,['n'],1,right,['9'],5,0.4244461999996929,,,,,,,,11,19,Man,Rechts,2,
,xotask,xotask,dotcolour,14,0,14,614,training,positivefb,85,average,60,1.4493331000003309,['c'],1,left,['8'],4,0.36559829999987414,,,,,,,,11,19,Man,Rechts,2,
,xotask,xotask,dotcolour,15,0,15,615,training,positivefb,26,easy,8,0.6335879999996905,['c'],0,right,['3'],3,1.6465132000002995,,,,,,,,11,19,Man,Rechts,2,
,xotask,xotask,dotcolour,16,0,16,616,training,positivefb,99,average,63,0.5836091000001034,['c'],1,left,['0'],6,0.6378439000000071,,,,,,,,11,19,Man,Rechts,2,
,xotask,xotask,dotcolour,17,0,17,617,training,positivefb,93,hard,50,0.916881199999807,['c'],1,left,['9'],5,0.27129820000027394,,,,,,,,11,19,Man,Rechts,2,
,xotask,xotask,dotcolour,18,0,18,618,training,positivefb,91,hard,52,0.5834248000001026,['c'],1,left,['9'],5,0.33344820000002073,,,,,,,,11,19,Man,Rechts,2,
,xotask,xotask,dotcolour,19,0,19,619,training,positivefb,98,average,63,0.5337910000007469,['c'],1,left,['9'],5,0.29026840000005905,,,,,,,,11,19,Man,Rechts,2,
,xotask,xotask,dotcolour,20,0,20,620,training,positivefb,89,easy,72,0.5338130000000092,['c'],1,left,['9'],5,0.38698029999977734,,,,,,,,11,19,Man,Rechts,2,
,xotask,xotask,dotcolour,21,0,21,621,training,positivefb,57,hard,25,0.6993713000001662,['c'],0,right,['8'],4,0.551235099999758,,,,,,,,11,19,Man,Rechts,2,
,xotask,xotask,dotcolour,22,0,22,622,training,positivefb,99,average,16,0.6671557999998186,['n'],1,right,['9'],5,0.8783155000000988,,,,,,,,11,19,Man,Rechts,2,
,xotask,xotask,dotcolour,23,0,23,623,training,positivefb,95,hard,52,0.6666541999993569,['c'],1,left,['8'],4,0.38536109999949986,,,,,,,,11,19,Man,Rechts,2,
,xotask,xotask,dotcolour,24,0,24,624,training,positivefb,97,easy,9,0.6830847999999605,['n'],1,right,['8'],4,0.5589399999998932,,,,,,,,11,19,Man,Rechts,2,
,xotask,xotask,dotcolour,25,0,25,625,training,positivefb,96,hard,52,0.7668653999999151,['c'],1,left,['8'],4,0.40250099999957456,,,,,,,,11,19,Man,Rechts,2,
,xotask,xotask,dotcolour,26,0,26,626,training,positivefb,89,average,16,0.9496917999995276,['n'],1,right,['8'],4,0.4764563000007911,,,,,,,,11,19,Man,Rechts,2,
,xotask,xotask,dotcolour,27,0,27,627,training,positivefb,94,average,61,0.7168348000004698,['c'],1,left,['8'],4,0.7096450999997614,,,,,,,,11,19,Man,Rechts,2,
,xotask,xotask,dotcolour,28,0,28,628,training,positivefb,97,easy,74,0.866379500000221,['c'],1,left,['8'],4,0.8063309999997728,,,,,,,,11,19,Man,Rechts,2,
,xotask,xotask,dotcolour,29,0,29,629,training,positivefb,100,easy,73,0.6331545000002734,['c'],1,left,['8'],4,0.36515049999979965,,,,,,,,11,19,Man,Rechts,2,
,xotask,xotask,dotcolour,30,0,30,630,training,positivefb,98,easy,6,1.5495971000000281,['n'],1,right,['8'],4,0.7119819999998072,,,,,,,,11,19,Man,Rechts,2,
,xotask,xotask,dotcolour,31,0,31,631,training,positivefb,78,hard,51,0.849445700000615,['c'],1,left,['0'],6,0.6823091000005661,,,,,,,,11,19,Man,Rechts,2,
,xotask,xotask,dotcolour,32,0,32,632,training,positivefb,96,hard,51,0.6166655000006358,['c'],1,left,['0'],6,0.32716030000028695,,,,,,,,11,19,Man,Rechts,2,
,xotask,xotask,dotcolour,33,0,33,633,training,positivefb,28,hard,27,0.6666980999998486,['n'],1,right,['0'],6,0.575981299999512,,,,,,,,11,19,Man,Rechts,2,
,xotask,xotask,dotcolour,34,0,34,634,training,positivefb,98,average,63,0.9492872999999236,['c'],1,left,['9'],5,1.2195655999994415,,,,,,,,11,19,Man,Rechts,2,
,xotask,xotask,dotcolour,35,0,35,635,training,positivefb,87,hard,51,0.6325446000000738,['c'],1,left,['9'],5,0.3608061999993879,,,,,,,,11,19,Man,Rechts,2,
,xotask,xotask,dotcolour,36,0,36,636,training,positivefb,95,easy,71,0.983356100000492,['c'],1,left,['9'],5,0.3323933000001489,,,,,,,,11,19,Man,Rechts,2,
,xotask,xotask,dotcolour,37,0,37,637,training,positivefb,96,easy,9,0.6499149999999645,['n'],1,right,['9'],5,0.5006573999999091,,,,,,,,11,19,Man,Rechts,2,
,xotask,xotask,dotcolour,38,0,38,638,training,positivefb,97,easy,70,0.5325456000000486,['c'],1,left,['9'],5,0.36363170000004175,,,,,,,,11,19,Man,Rechts,2,
,xotask,xotask,dotcolour,39,0,39,639,training,positivefb,92,average,18,0.8994112000000314,['n'],1,right,['9'],5,0.41011580000031245,,,,,,,,11,19,Man,Rechts,2,
,xotask,xotask,dotcolour,40,0,40,640,training,positivefb,84,average,60,1.016509699999915,['c'],1,left,['8'],4,0.33694719999948575,,,,,,,,11,19,Man,Rechts,2,
,xotask,xotask,dotcolour,41,0,41,641,training,positivefb,24,easy,7,0.5672676000003776,['c'],0,right,['0'],6,0.8297364000000016,,,,,,,,11,19,Man,Rechts,2,
,xotask,xotask,dotcolour,42,0,42,642,training,positivefb,80,hard,29,0.9494179000002987,['c'],0,right,['8'],4,0.36608999999953085,,,,,,,,11,19,Man,Rechts,2,
,xotask,xotask,dotcolour,43,0,43,643,training,positivefb,91,average,19,1.167293299999983,['c'],0,right,['8'],4,0.2896467999999004,,,,,,,,11,19,Man,Rechts,2,
